ax,ay,az,gx,gy,gz,ax,ay,az,gx,gy,gz
0.397217,-1.395264,-0.112549,11.947631,249.877914,-134.803772,0.47998,-0.643555,-0.597412,-54.344173,-46.020504,-13.397216
0.016113,-0.727295,-0.509766,85.670464,-249.992355,-159.034729,0.472412,-0.66626,-0.594727,-59.791561,-41.801449,-4.524231
0.979492,-0.967285,-0.084473,96.939079,-131.462097,150.611877,0.463135,-0.719238,-0.606689,-64.056396,-45.845028,-2.433777
0.244629,-0.619141,-0.562256,146.400452,-249.992355,-119.171135,0.451904,-0.67041,-0.680664,-46.112057,-46.630856,-43.823238
1.036621,-1.000732,-0.123291,124.351494,8.31604,228.691086,0.453613,-0.743652,-0.585205,-64.750671,-57.167049,-2.357483
1.043701,-1.049805,-0.100586,110.588066,-57.167049,187.332138,0.399902,-0.764648,-0.513672,-69.68689,-63.804623,2.708435
0.42041,-1.187012,-0.150635,17.562866,244.918808,-115.066521,0.335449,-0.813721,-0.519775,-92.109673,-77.11792,19.508362
0.344482,-1.151367,-0.181152,19.271851,239.013657,-101.097099,0.369385,-1.032471,-0.308838,-164.817795,-88.310234,-17.524719
0.246338,-1.155762,-0.240234,20.89691,245.796188,-80.886833,0.435547,-0.885254,-0.562988,-141.822815,-93.574516,8.773804
0.230469,-1.194092,-0.298828,18.463135,249.992355,-54.489132,0.464844,-0.979248,-0.517822,-161.125168,-92.170708,-1.586914
0.295654,-1.234131,-0.314941,14.259337,249.961838,-24.16992,0.413086,-1.020752,-0.434326,-168.495163,-90.202324,-10.406493
0.358154,-1.27417,-0.320068,11.970519,249.954208,5.91278,0.345947,-0.968994,-0.214111,-161.834702,-84.068291,-22.827147
0.416748,-1.334961,-0.314209,14.038085,249.992355,33.988953,0.307373,-0.947021,-0.144531,-165.107712,-65.52887,-23.338316
0.466553,-1.473389,-0.334961,14.900207,248.985275,62.782284,0.312744,-0.95459,-0.182129,-163.352951,-35.713196,-22.575377
0.470215,-1.655029,-0.376709,9.002686,243.049606,95.352165,0.363525,-0.924072,-0.246582,-154.342651,-9.559631,-23.941038
0.46875,-1.799805,-0.419678,-8.003235,241.813644,133.277893,0.359375,-0.937256,-0.201172,-134.44519,12.84027,-21.247862
0.425049,-1.229736,-0.122803,16.876221,249.992355,-125.228874,0.295166,-0.951172,-0.118164,-107.276909,30.227659,-14.61029
0.356934,-1.663818,-0.464844,-43.823238,249.992355,216.728195,0.480225,-0.665771,-0.704102,-46.104427,-52.360531,-53.596493
0.439453,-1.832764,-0.465576,-30.937193,248.329147,176.841721,0.35376,-0.811279,-0.572998,-114.456169,-89.141838,17.63916
0.92627,-0.744873,-0.085205,125.381462,136.375427,249.992355,0.518066,-0.662109,-0.759277,-46.043392,-59.623714,-60.066219
0.847656,-0.709229,-0.125977,106.285088,196.3806,249.542221,0.315674,-0.82373,-0.555664,12.847899,-128.02887,-163.681015
0.737793,-0.716553,-0.204102,82.298271,247.085556,249.992355,0.537109,-0.642822,-0.82666,-43.342587,-69.396973,-64.086914
0.647949,-0.738037,-0.351563,60.386654,249.992355,249.992355,0.228516,-0.916016,-0.080566,-85.372917,41.549679,-11.650084
0.984375,-0.858154,-0.111572,131.668091,72.372437,249.992355,0.304688,-0.844482,-0.552002,23.086546,-154.510498,-182.64006
0.4729,-0.904541,-0.519287,22.460936,249.839767,249.992355,0.296387,-0.855225,-0.57959,32.081604,-181.190475,-197.944626
0.352051,-1.026855,-0.482178,3.440857,249.992355,249.992355,0.314453,-0.855957,-0.630615,33.721924,-205.818161,-210.227951
0.312256,-1.325439,-0.457031,-27.343748,249.992355,242.576584,0.30249,-0.88501,-0.661377,30.296324,-231.742844,-220.855698
0.590088,-0.814697,-0.484131,40.054321,249.336227,249.992355,0.289551,-0.906738,-0.669189,26.382444,-248.413071,-228.080734
0.371582,-1.267822,-0.149902,-104.026787,89.256279,-202.43071,0.293457,-0.928223,-0.689209,20.843504,-249.885544,-232.490524
0.384033,-2.258789,-0.697266,-132.18689,249.992355,-228.00444,0.299561,-0.941406,-0.713379,16.731262,-249.992355,-233.512863
0.412598,-2.229248,-0.519775,-168.319687,249.473557,-232.444748,0.297852,-0.923584,-0.73291,12.931823,-247.604355,-230.361923
0.531006,-2.070801,-0.286133,-179.023727,249.992355,-243.141159,0.299072,-0.887939,-0.76123,8.476257,-230.606064,-221.412643
0.645508,-1.830566,-0.093994,-169.128403,249.992355,-249.992355,0.282959,-0.862061,-0.808105,2.746582,-209.838852,-207.511887
0.673096,-1.622559,-0.010254,-151.542664,228.988632,-249.641403,0.266357,-0.820313,-0.864014,-3.746032,-193.962082,-191.253647
0.641846,-1.478516,-0.0271,-133.056641,176.97905,-240.158066,0.311279,-0.754395,-0.881592,-11.009215,-177.833542,-174.133286
0.394043,-2.1521,-0.766113,-80.818169,249.992355,-218.406662,0.344238,-0.712646,-0.885986,-20.912169,-159.454346,-156.906128
0.544189,-1.390137,-0.079102,-120.513908,135.612488,-229.675278,0.370361,-0.701416,-0.866211,-29.58679,-142.471313,-142.356873
0.433838,-1.324463,-0.121338,-111.709587,107.696526,-216.941818,0.395752,-0.701172,-0.828369,-34.996033,-126.464836,-130.355835
0.37915,-1.24585,-0.160645,-99.82299,73.310852,-184.982285,0.437256,-0.717285,-0.780518,-36.621094,-108.802788,-118.064873
0.540283,-1.291504,-0.134277,-65.353394,-40.748592,-76.728821,0.461182,-0.711914,-0.752686,-35.682678,-92.277519,-104.309074
0.458984,-1.233154,-0.17334,-94.78759,33.8974,-142.89856,0.454834,-0.713623,-0.757813,-34.057617,-84.793083,-93.391411
0.501709,-1.225342,-0.162109,-86.982719,8.377075,-120.376579,0.461426,-0.687988,-0.779297,-33.081055,-86.21978,-85.815422
0.52417,-1.242432,-0.157715,-76.385498,-18.173218,-97.755424,0.493652,-0.664063,-0.782715,-32.89032,-86.433403,-78.895569
0.550781,-1.382324,-0.08374,-56.991573,-55.572506,-57.548519,0.512939,-0.652832,-0.796631,-36.010742,-79.978943,-72.570801
0.536377,-1.489258,-0.054932,-53.550716,-61.828609,-38.536072,0.53125,-0.658936,-0.817383,-39.665222,-73.608398,-67.268372
0.516357,-1.558594,-0.03418,-54.64172,-63.217159,-16.723633,0.525391,-0.660645,-0.806885,-45.44067,-65.177917,-62.057491
0.552246,-1.511475,0.022461,-51.956173,-59.692379,0.587463,0.186523,-0.842285,-0.105225,-75.332642,52.307125,-14.801024
0.5896,-1.350098,0.039795,-42.396542,-58.074947,15.86151,0.033936,-1.054932,0.107178,29.21295,249.267563,77.423096
0.567383,-1.121094,0.01123,-24.398802,-59.783932,31.35681,0.180664,-0.702148,-0.185791,-61.241146,53.863522,-7.980346
0.355957,-1.974854,-0.652344,-29.510496,249.984726,-198.287949,0.334961,-1.115967,-0.033691,-1.602173,-21.080015,78.559875
0.418457,-1.246826,-0.169434,-98.678581,55.831905,-164.74913,0.371826,-1.172852,-0.02417,-17.402649,-16.342163,70.587158
0.250732,-1.807129,-0.476074,6.011962,249.992355,-173.759445,0.365723,-1.261963,-0.003906,-32.341003,-9.513855,59.814449
0.496094,-0.949219,-0.050049,-6.507873,-59.288021,41.046139,0.337646,-1.401367,0.035645,-38.848877,-3.799438,52.047726
0.066162,-1.564209,-0.459473,41.961666,249.992355,-134.338379,0.303711,-1.523926,0.074951,-37.239075,0.946045,49.629208
0.240967,-1.112549,0.216553,174.522385,168.754562,64.826965,0.297852,-1.53833,0.071045,-36.956787,5.523681,49.125668
-0.165771,-0.960693,-0.276855,187.973007,167.564377,32.272339,0.346436,-1.410645,0.032715,-49.087521,14.266967,40.39764
-0.763916,-0.547852,-0.746826,165.206894,129.257202,34.927368,0.38916,-1.216797,-0.00415,-70.510864,27.252195,27.305601
-1.112061,-0.19751,-0.994873,144.760132,76.766968,35.758972,0.407471,-1.072754,-0.036133,-89.347832,42.022701,15.930175
-0.930664,-0.041016,-0.646484,156.341553,56.838985,23.53668,0.419678,-0.985107,-0.026855,-112.586967,70.4422,-2.471924
-0.788086,-0.139648,-0.561523,156.417847,48.057552,5.119323,0.289063,-1.045654,-0.049316,7.064819,-18.699646,81.550591
-0.741699,-0.250488,-0.645264,138.687134,41.206356,-13.771056,0.400391,-0.980225,0.005371,-124.214165,81.901543,-12.031554
-0.627686,-0.349121,-0.574707,129.02832,42.945858,-35.102844,0.341797,-1.14917,0.135498,-114.936821,100.494377,-19.844055
-0.496582,-0.462402,-0.31958,129.272461,51.307674,-59.020992,0.305908,-1.200684,0.177734,-95.710747,111.762993,-11.726378
-0.405762,-0.542725,-0.093994,136.032104,69.572449,-73.257446,0.272949,-1.203369,0.181885,-75.706482,125.244133,-0.404358
0.138916,-1.664307,-0.431396,25.42877,249.992355,-150.131226,0.239746,-1.156494,0.147705,-61.660763,139.587402,10.368346
-0.351318,-0.599609,-0.023438,144.599915,98.617546,-72.265625,0.198486,-1.078125,0.104492,-55.747982,153.35083,17.402649
-0.3479,-0.67334,-0.031006,156.63147,167.716965,-57.838436,0.138184,-1.02002,0.082031,-54.38232,165.611252,20.904539
-0.332764,-0.707031,-0.048584,159.156799,208.328232,-55.099483,0.06958,-1.010742,0.085938,-49.270626,179.046616,27.847288
-0.295654,-0.736084,-0.100586,160.659775,243.774399,-56.495663,0.049561,-1.037598,0.097168,-31.738279,198.577866,40.084839
-0.255127,-0.778564,-0.157715,163.146957,249.992355,-62.07275,0.039795,-1.060303,0.104248,-2.006531,229.598984,56.755062
-0.214844,-0.866211,-0.203369,162.132248,249.992355,-70.724487,0.1875,-0.744629,-0.182617,-70.930481,57.014462,-15.045165
-0.202637,-0.992676,-0.262451,153.4729,249.992355,-76.60675,0.375732,-1.063477,0.069336,-126.350395,91.331474,-20.294188
-0.159668,-1.125732,-0.314209,137.542725,249.992355,-83.534233,0.260254,-0.959229,-0.065186,12.611388,-8.354187,81.619255
-0.097412,-1.259766,-0.357178,114.82238,249.992355,-96.244804,0.419434,-1.014648,-0.038086,-101.692192,56.861874,6.126403
-0.037598,-1.379883,-0.405518,88.61541,249.992355,-111.091606,0.263184,-0.841309,-0.094971,28.320311,24.337767,78.468323
0.020996,-1.476563,-0.447754,63.705441,249.992355,-123.931877,0.255371,-0.885742,-0.078613,19.554138,7.186889,80.902092
-0.342529,-0.638672,-0.024658,151.878357,131.874084,-64.826965,0.128418,-0.812744,-0.151123,-22.804258,58.692928,12.786864
0.438477,-0.867676,-0.092529,4.051208,-52.169796,46.82159,0.088379,-0.801025,-0.163574,-3.715515,67.9245,17.311096
0.187012,-0.881592,0.38916,109.107964,162.86467,150.604248,0.077881,-0.731445,-0.16626,7.827758,70.236206,16.555786
0.390381,-0.792236,-0.130371,15.838622,-26.412962,57.205196,0.086182,-0.65625,-0.195068,14.205932,58.92181,14.85443
-0.240234,-1.091553,0.23584,-88.35601,-249.992355,64.506531,0.082031,-0.632813,-0.17627,18.516541,40.374752,14.213561
-0.240234,-1.104004,0.297852,-89.797966,-249.992355,75.317383,0.070313,-0.656494,-0.151123,21.514891,23.551939,14.73236
-0.266846,-1.111572,0.402832,-85.319511,-249.885544,89.950554,0.07959,-0.709961,-0.160156,26.527403,11.322021,16.151428
-0.26709,-1.136719,0.484375,-77.041626,-249.93895,102.355949,0.12085,-0.767822,-0.169189,34.355164,2.197266,18.173218
-0.290039,-1.183838,0.515137,-69.572449,-249.992355,112.869255,0.162354,-0.816162,-0.17749,42.053219,-3.639221,19.958496
-0.320557,-1.222412,0.552246,-64.399719,-246.185287,120.925896,0.181641,-0.854736,-0.184082,48.301693,-5.447387,22.315977
-0.286865,-1.218994,0.58252,-60.081478,-231.53685,121.192924,0.153809,-0.756348,-0.140381,-44.288631,52.74963,2.754211
-0.225098,-1.256836,0.572754,-64.38446,-229.743942,112.983696,0.209229,-0.893066,-0.083984,61.485287,-1.625061,29.808043
-0.412354,-1.308594,0.571289,-83.641045,-239.860519,109.771721,0.194092,-0.880127,-0.150391,54.611202,-4.844666,25.672911
-0.519531,-1.263184,0.703857,-100.646965,-222.892746,101.173393,0.269043,-0.836914,-0.130859,48.324581,49.682613,70.968628
-0.248535,-1.074219,0.153076,-85.525505,-249.992355,63.179012,0.262451,-0.865723,-0.124268,58.601376,54.687496,67.680359
-0.58667,-1.230225,0.792969,-113.876335,-214.416489,91.224663,0.243408,-0.905762,-0.108887,66.993713,53.390499,64.430237
-0.641602,-1.113281,0.863037,-111.946098,-207.786545,67.848206,0.228516,-0.929932,-0.091553,70.94574,47.309872,59.036251
-0.731201,-1.146973,0.715576,-121.559135,-201.91954,59.440609,0.267578,-0.826416,-0.11499,38.116455,39.268494,74.905396
-0.987549,-1.078857,0.735107,-126.892082,-173.614487,50.239559,0.224121,-0.93457,-0.07666,71.792603,27.137754,43.968197
-1.046143,-0.966309,0.838135,-96.496574,-103.668205,59.440609,0.235596,-0.920898,-0.067139,70.030212,15.518188,38.505554
-0.843506,-1.115967,0.611816,-78.712463,-29.525755,61.897274,0.227051,-0.907471,-0.057861,66.833496,5.371093,34.042358
-0.748535,-1.337646,0.349609,-98.69384,20.523069,57.66296,0.218262,-0.937256,-0.083252,72.257996,38.337708,51.383968
-0.699951,-1.383057,0.224365,-125.488274,60.821529,52.040096,0.65332,-0.961426,0.197021,-124.39727,249.992355,22.735594
-0.714111,-1.329346,0.180664,-143.951416,93.132011,46.06628,0.765625,-0.661133,0.00293,-49.72839,-7.141113,111.518852
-0.775635,-1.24585,0.242676,-150.222778,121.109001,38.825989,0.747803,-0.671143,0.019287,-67.878723,53.863522,99.845879
-0.759033,-1.197998,0.343018,-146.652222,147.064209,33.157349,0.736816,-0.702393,0.04126,-80.406181,111.206047,88.951103
-0.661865,-1.159668,0.877197,-115.547173,-214.27153,80.42144,0.721191,-0.751953,0.055176,-88.340752,161.949142,79.597473
-0.217773,-1.019287,0.072998,-81.382744,-249.992355,62.805172,0.696289,-0.794434,0.076416,-95.123283,209.342941,73.135376
0.408447,-0.826416,-0.121338,9.757996,-40.237423,51.597591,0.665039,-0.817139,0.10083,-103.790276,244.705185,68.649292
-0.010498,-0.968018,-0.129639,-75.798035,-249.992355,25.833128,0.76416,-0.686035,0.001465,-26.374815,-66.78009,124.000542
0.385742,-0.787598,-0.137451,22.682188,-11.268615,61.294552,0.619629,-0.835205,0.130127,-114.685051,249.992355,60.707088
0.388428,-0.841064,-0.158447,25.596617,2.01416,60.127254,0.595215,-0.883301,0.162598,-123.374931,249.992355,44.075008
0.41626,-0.92334,-0.18457,20.271299,12.107848,56.495663,0.692871,-1.056641,0.234619,-117.21801,249.992355,12.390136
0.459717,-1.000488,-0.24292,4.112244,18.630981,49.659725,0.360107,-1.232422,0.278564,-103.584282,249.992355,47.5769
0.4646,-1.041992,-0.279541,-21.255491,20.408628,39.031982,0.439697,-1.104248,0.29541,-105.262749,249.992355,24.002073
0.452393,-1.012939,-0.274658,-46.646114,20.500181,26.702879,0.455811,-1.116455,0.266846,-108.802788,249.992355,30.860899
0.375,-0.847656,-0.224121,-72.265625,19.828796,12.306212,0.446289,-1.166992,0.247559,-110.260002,249.992355,39.825439
0.34668,-0.748535,-0.190674,-68.702698,15.342711,12.260436,0.300293,-1.274414,0.27832,-92.430107,249.916061,53.672787
0.332275,-0.688721,-0.173828,-61.264034,6.217956,16.181946,0.241455,-1.29248,0.224854,-77.987671,249.656662,69.458008
0.332275,-0.665039,-0.169922,-55.511471,-8.18634,22.956846,0.092773,-1.272461,0.193359,-58.197018,249.992355,96.160881
0.41748,-0.94043,-0.258057,-65.040588,20.88928,16.021729,0.020264,-1.203857,0.240234,-37.80365,248.428329,119.049065
0.307617,-0.673828,-0.148193,-53.916927,-54.38232,25.939939,0.016357,-1.184814,0.236572,-18.989563,222.946152,137.046814
0.320068,-0.666992,-0.16333,-53.482052,-28.236387,26.756285,0.008545,-1.181641,0.205811,1.945495,198.448166,151.763916
0.148193,-0.841064,-0.159668,-58.372494,-249.992355,14.045714,0.704834,-0.767578,0.022217,-5.027771,-117.446892,132.43103
0.195068,-0.787842,-0.128906,-56.617733,-249.992355,13.053893,0.578125,-1.104492,0.286621,-107.940666,249.992355,16.967773
0.20752,-0.761963,-0.128418,-59.501644,-249.992355,14.640807,0.631592,-0.865967,0.050049,8.277893,-149.276733,134.254456
0.231934,-0.748047,-0.13208,-59.761044,-249.992355,14.640807,-0.003662,-1.15625,0.183838,23.895262,175.834641,165.451035
0.074463,-0.913574,-0.160889,-65.330505,-249.992355,17.082214,0.574707,-0.955566,0.07373,28.541563,-156.990051,131.126404
0.266113,-0.707031,-0.118652,-55.305477,-176.200851,11.596679,0.602539,-1.418701,0.057373,19.561768,-219.985947,-88.088982
0.276611,-0.686768,-0.122314,-54.115292,-126.716606,16.731262,0.659668,-1.419678,0.026367,35.301208,-190.292343,-92.445366
0.293457,-0.679199,-0.131104,-53.871151,-87.135307,22.918699,0.706299,-1.36377,-0.023438,49.301144,-155.639648,-96.038811
0.263672,-0.725586,-0.121826,-56.831356,-230.499252,11.245727,0.712158,-1.260986,-0.104492,56.40411,-119.689934,-98.129265
-0.125,-0.977051,-0.022949,-79.727173,-249.992355,45.242306,0.686035,-1.110596,-0.14917,54.725643,-84.45739,-100.395195
0.340332,-0.959473,0.010742,-96.092216,-19.104004,43.846127,0.655762,-0.959229,-0.148193,48.011776,-51.200863,-101.135246
0.363281,-1.588623,0.197266,-45.928951,9.941101,-116.600029,0.63916,-0.849121,-0.166748,40.588375,-22.857664,-99.250786
0.445068,-1.562744,0.134521,-76.538086,8.544922,-91.76635,0.611572,-0.762939,-0.176758,32.196045,-0.259399,-96.359245
0.493164,-1.509277,0.140869,-93.322746,6.736755,-69.793701,0.578613,-0.708008,-0.175049,22.956846,17.280579,-90.972893
0.492432,-1.469482,0.14209,-100.402824,9.117126,-49.705502,0.563721,-0.696045,-0.173096,15.090941,30.357359,-81.260674
0.506592,-1.447754,0.13501,-106.346123,13.107299,-31.127928,0.592773,-0.923828,0.053711,18.798828,-160.331726,133.987427
0.53833,-1.40625,0.123779,-112.403862,13.47351,-12.107848,0.561768,-0.720703,-0.177002,10.429381,39.260864,-66.90979
0.534912,-1.310791,0.107422,-113.250725,6.622314,6.454467,0.495605,-0.8125,-0.119629,7.621765,38.383484,-31.410215
0.456787,-1.183105,0.078613,-109.062187,-4.638672,22.3999,0.463867,-0.860596,-0.072021,9.246826,27.748106,-10.589599
0.371338,-1.057617,0.039307,-102.790825,-13.740539,34.797668,0.448242,-0.897949,-0.047852,14.045714,11.238097,11.810302
0.337158,-0.64624,-0.133789,13.908385,-249.992355,-6.523132,0.41626,-0.931641,-0.012695,22.377012,-7.347106,34.950256
0.373047,-0.835205,-0.012695,-60.966488,-69.778442,56.434628,0.390625,-0.961914,0.014893,31.257627,-29.151915,56.571957
0.368408,-0.813965,-0.034912,-47.653194,-95.458977,55.084225,0.43335,-0.978516,0.003174,36.094666,-55.992123,73.59314
0.387939,-0.784668,-0.059082,-34.461975,-125.137321,50.079342,0.492188,-0.978271,-0.005615,35.430908,-85.350029,85.96801
0.419189,-0.768066,-0.081055,-23.117064,-158.676147,44.151302,0.519775,-0.973633,0.013916,33.660889,-112.861626,97.572319
0.388672,-0.762695,-0.100586,-14.892577,-193.191513,42.03796,0.551514,-0.968994,0.046387,33.088684,-134.277344,110.176079
0.327637,-0.751953,-0.125732,-10.917663,-222.579941,37.185669,0.578857,-0.971924,0.072998,32.913208,-148.048401,122.51281
0.332764,-0.72583,-0.114258,-6.614685,-241.87468,24.917601,0.539795,-0.762939,-0.16748,8.277893,42.221066,-50.010677
0.334717,-0.707031,-0.12915,-3.105163,-249.992355,15.556334,-0.019287,-1.107178,0.131104,43.975826,152.954102,175.415024
0.326416,-0.665771,-0.130859,4.447937,-249.992355,6.217956,0.571045,-1.369873,0.077881,6.332397,-244.377121,-85.014336
0.262695,-1.505371,0.274658,-12.893676,2.075195,-144.424438,-0.029785,-1.000732,0.018066,71.388245,102.661125,184.577927
0.356689,-0.890381,0.000977,-86.921684,-28.045652,50.659176,0.136719,-1.084961,0.090332,53.489681,249.992355,-8.453369
0.227051,-1.30542,0.338379,8.43811,-14.190673,-181.076035,0.051758,-1.094238,0.117432,62.408443,249.992355,0.091553
0.735352,-2.708984,-0.022705,27.076719,249.992355,-249.992355,-0.03833,-1.094482,0.113037,79.414368,249.992355,15.35797
0.597412,-1.173096,0.655762,-32.905579,-47.798153,-249.992355,-0.091553,-1.079834,0.053955,96.916191,249.992355,36.04126
0.827148,-0.978516,0.126221,249.992355,-95.306389,-249.992355,-0.102539,-1.042969,-0.043457,96.267693,249.992355,51.475521
0.81958,-1.006592,0.228271,249.992355,-121.6278,-249.992355,-0.0625,-0.966797,-0.147217,88.478081,249.992355,56.411739
0.67041,-1.04126,0.32666,249.992355,-126.190178,-249.992355,-0.018799,-0.875,-0.244629,84.518425,249.633774,57.464596
0.522217,-1.103027,0.442139,249.992355,-102.569572,-249.992355,0.010498,-0.777588,-0.323975,86.189262,249.992355,63.552853
0.394531,-1.246826,0.50293,249.992355,-53.550716,-249.992355,0.068359,-0.679443,-0.389648,84.297173,249.992355,68.962097
0.289307,-1.450195,0.44873,249.618515,12.611388,-249.961838,0.127686,-0.580566,-0.434082,69.229126,234.397873,62.568661
0.223633,-1.724609,0.304199,249.816879,85.540764,-249.908432,0.192627,-1.065918,0.06665,49.674984,248.603806,-17.730713
0.20166,-2.005615,0.09082,249.992355,161.35405,-249.992355,0.141846,-0.542969,-0.470215,45.379635,201.339706,50.743099
0.263184,-2.2146,-0.055664,236.900314,233.062729,-249.099716,0.207031,-0.516357,-0.57251,17.440796,127.92205,24.085997
0.245117,-2.318604,-0.070068,181.602463,249.992355,-242.88176,0.218018,-0.52002,-0.580078,4.653931,93.666069,6.896972
0.336426,-1.142334,0.477539,0.968933,-32.608032,-227.233871,0.227295,-0.527832,-0.592041,-4.890442,60.791012,-10.2005
0.323975,-2.366943,0.024414,145.721436,249.992355,-248.80217,0.229736,-0.535645,-0.60791,-14.030456,29.159544,-28.091429
0.576904,-2.5979,0.003662,68.733215,249.969467,-249.992355,0.228271,-0.558594,-0.618164,-21.308897,-0.88501,-46.798702
0.339111,-0.671143,-0.154785,20.706175,-249.992355,-19.767761,0.242188,-0.604492,-0.611084,-25.05493,-25.962828,-65.742493
0.907715,-2.905029,-0.144043,-33.805847,249.877914,-249.992355,0.244141,-0.660645,-0.617432,-23.834227,-47.157284,-83.518974
0.977051,-3.122559,-0.263428,-112.953178,248.130783,-249.992355,0.240967,-0.709717,-0.61499,-17.692566,-66.917419,-101.631157
1.054199,-3.035156,-0.04126,-186.592087,249.992355,-249.992355,0.250488,-0.752197,-0.605957,-8.560181,-86.135857,-121.032707
0.978027,-2.65332,0.56958,-210.838303,249.992355,-249.984726,0.289795,-0.794189,-0.585449,2.243042,-105.781548,-142.105103
1.038574,-2.275391,1.093506,-182.601913,144.294739,-249.992355,0.177002,-0.557373,-0.53833,29.777525,164.87883,39.527893
1.129883,-1.935059,1.195557,-140.029907,39.299011,-249.992355,0.214111,-1.046387,0.063721,50.415035,207.702621,-29.792784
1.131104,-1.631104,1.113525,-95.954887,-22.056578,-249.465927,-0.027344,-1.04834,0.078613,59.883114,128.219604,180.198654
0.937012,-1.380615,0.893799,-63.385006,-48.782345,-249.992355,0.206543,-0.99707,0.056885,59.326168,72.08252,-48.942562
0.580811,-2.520996,-0.014893,110.91613,249.992355,-249.992355,-0.018066,-0.969482,-0.047607,80.253601,76.507568,189.384445
0.289795,-0.722412,-0.182129,21.835325,-249.992355,-29.098509,0.02124,-0.962891,-0.116699,90.904228,51.10931,192.901596
0.374512,-0.849854,0.006104,-74.287415,-46.424862,54.969784,0.101318,-0.966309,-0.207764,100.395195,28.678892,195.37352
0.208496,-0.761963,-0.209961,19.020081,-249.992355,-38.05542,0.19873,-0.975586,-0.303955,103.096001,13.34381,193.22966
-0.036865,-1.656982,0.114746,-172.904953,-63.575741,138.73291,0.292725,-0.978271,-0.385742,97.915642,5.043029,177.963242
-0.031494,-1.722412,0.071777,-167.037949,-61.607357,127.197258,0.339844,-0.96167,-0.439941,86.326591,0.083923,153.923035
-0.025635,-1.777832,0.048096,-165.931686,-62.400814,112.663261,0.320068,-0.948975,-0.452148,69.801331,-5.836486,132.591248
0.016113,-1.806152,0.052734,-168.296799,-70.045471,96.496574,0.283203,-0.961426,-0.44043,52.520748,-17.64679,113.05999
0.03418,-1.832764,0.018555,-170.166,-88.49334,76.248169,0.26001,-0.991699,-0.407959,33.378601,-34.126282,91.583244
-0.008057,-1.935303,-0.08252,-175.254807,-118.179314,58.464046,0.194336,-1.076172,-0.328613,16.296387,-52.932735,69.656372
-0.111328,-1.984131,-0.23999,-184.91362,-152.854919,45.509335,0.103271,-1.257324,-0.197998,12.344359,-76.48468,53.085323
-0.200684,-1.861084,-0.350342,-194.374069,-177.947983,28.770445,0.217773,-1.022217,0.070313,53.031918,133.460999,-40.176388
-0.255127,-1.712158,-0.32373,-206.069931,-186.775192,19.142151,0.131592,-1.506348,-0.031982,42.854305,-121.444695,21.263121
-0.572998,-1.494385,-0.261719,-233.764633,-163.047775,60.035702,0.177979,-1.361084,-0.040527,44.715878,-133.636475,-4.623413
-0.096436,-1.57666,0.126221,-182.029709,-70.770264,145.652771,0.175537,-1.209717,-0.029053,39.245605,-139.541626,-30.609129
-0.797852,-1.535645,-0.384521,-249.382004,-138.336182,100.509636,0.138916,-1.114502,0.008057,39.825439,-139.068604,-48.950191
-0.918213,-1.253418,-0.520508,-249.984726,-82.405083,185.226425,0.132568,-1.087402,0.038818,47.935482,-131.378174,-61.981197
-0.779297,-1.026367,-0.277832,-249.992355,-49.507137,202.949509,0.164063,-1.09375,0.032227,59.608456,-115.371696,-69.709778
-0.605713,-0.842529,0.097412,-249.992355,-11.344909,214.508041,0.192139,-1.101807,0.008301,70.602417,-91.377251,-72.189331
-0.365967,-0.717285,0.344971,-249.450668,34.889221,228.912338,0.20752,-1.090088,0.004883,77.125549,-60.585018,-71.304321
-0.207764,-0.674561,0.423828,-248.970016,85.884087,239.395126,0.209961,-1.05249,0.021484,76.23291,-23.28491,-66.490173
-0.296631,-0.671875,0.532471,-249.992355,132.6828,239.860519,0.206055,-1.008789,0.03833,68.54248,20.874022,-58.517452
-0.453125,-0.549805,0.773682,-234.710678,174.32402,236.640915,0.083252,-1.461914,-0.074707,25.863646,-101.676933,39.535522
-0.369385,-0.295654,0.822266,-115.104668,197.914108,236.412033,0.120117,-1.416748,-0.150146,132.110596,-162.590012,170.402512
-0.104492,-0.405518,0.56958,11.71112,182.098373,221.420273,0.072266,-1.421143,-0.10791,116.233818,-148.323059,162.147507
0.137207,-0.784912,-0.212891,16.410828,-249.992355,-49.514767,0.033691,-1.391357,-0.075684,101.325981,-126.15966,153.076172
-0.925293,-1.469482,-0.515137,-249.992355,-111.373894,146.255493,0.015137,-1.355225,-0.058594,88.623039,-99.227898,144.386292
-0.144043,-1.515625,0.11377,-192.230209,-86.875908,149.56665,0.086182,-1.25415,-0.17041,37.025452,30.548094,87.150566
-0.355713,-1.567139,-0.249023,-215.881332,-180.961594,29.541014,0.014893,-1.342773,-0.063232,68.595886,-42.884823,125.877373
-0.17334,-1.541992,-0.001709,-212.532028,-115.69976,146.690369,0.023682,-1.337891,-0.086426,58.616634,-16.479492,115.661613
-0.168457,-1.506836,0.04834,-202.941879,-103.530876,152.076721,0.044189,-1.308105,-0.125244,47.653194,8.613586,103.034966
0.070313,-0.763916,-0.223877,16.464233,-249.992355,-59.280392,0.181396,-1.376709,-0.205811,144.599915,-167.030319,175.689682
0.06665,-0.763428,-0.203857,18.249512,-249.992355,-57.91473,0.011963,-1.340576,-0.057617,78.2547,-70.701599,135.566711
0.028809,-0.784424,-0.19751,16.00647,-249.992355,-53.970333,0.237549,-1.293457,-0.262695,150.993347,-161.003098,175.109848
-0.030518,-0.810059,-0.19165,10.57434,-249.992355,-48.675533,0.339111,-0.794189,-0.400391,119.621269,-15.808105,80.245972
-0.071045,-0.820313,-0.185791,4.211426,-249.992355,-42.640682,0.289551,-0.98584,-0.347656,141.63208,-100.387566,143.966675
-0.077393,-0.820313,-0.173096,-0.808716,-249.992355,-35.522461,0.305176,-0.913574,-0.359375,137.161255,-71.220398,126.396172
-0.073242,-0.818359,-0.152344,-4.402161,-249.992355,-27.275084,0.335693,-0.844971,-0.373047,129.722595,-42.266842,104.858391
-0.07959,-0.842773,-0.139648,-9.101868,-249.732956,-18.821716,0.296143,-0.781494,-0.428711,109.718315,7.247924,54.916378
-0.09668,-0.890381,-0.124512,-16.723633,-249.992355,-10.711669,0.231201,-0.80835,-0.436523,102.363579,28.503416,31.593321
-0.111328,-0.959473,-0.119873,-27.877806,-249.992355,-2.105713,0.16748,-0.868896,-0.420898,98.884575,49.46899,11.543273
-0.120605,-1.049805,-0.134033,-44.944759,-235.870346,6.790161,0.108398,-0.9375,-0.396729,96.534721,71.022034,-5.813598
0.083252,-0.784668,-0.232666,14.61029,-249.992355,-56.312557,0.061279,-0.981201,-0.364014,88.912956,91.453545,-23.03314
-0.185547,-1.565674,-0.02124,-214.630112,-125.40435,132.133484,0.012695,-0.986084,-0.335693,74.745178,107.048027,-39.878845
-0.12207,-1.207764,-0.18335,-89.355461,-198.326096,27.44293,0.147217,-1.189697,-0.205811,28.869627,46.005245,71.144104
-0.120605,-1.275635,-0.188965,-111.556999,-182.571396,38.970947,0.266846,-1.180176,-0.318359,150.268555,-146.492004,168.65538
-0.14209,-1.329102,-0.160889,-131.17218,-169.967636,53.1311,0.218018,-1.116455,-0.221924,22.796629,54.13818,57.510372
-0.16333,-1.38501,-0.136963,-149.94812,-161.003098,67.512512,0.340576,-0.764893,-0.121338,-8.171082,-10.95581,25.466917
-0.169922,-1.415527,-0.130615,-165.641769,-153.762817,79.437256,0.256592,-0.952393,-0.25708,17.417908,45.898434,44.738766
-0.179443,-1.442139,-0.105469,-178.153976,-147.911072,92.658989,0.288086,-0.956299,-0.003174,-25.566099,-95.657341,21.087645
-0.206299,-1.484863,-0.072266,-189.239487,-144.172668,104.301445,0.293457,-0.952393,-0.008301,-21.820066,-97.702019,24.734495
-0.232666,-1.523438,-0.042725,-198.829636,-139.961243,112.472527,0.310303,-0.94165,-0.023438,-17.280579,-97.412102,27.122496
-0.212646,-1.559326,-0.026855,-207.893356,-133.300781,119.529716,0.324707,-0.903076,-0.043457,-14.686584,-93.14727,27.259825
-0.122559,-1.135254,-0.160645,-66.596985,-216.117844,16.708374,0.34082,-0.843506,-0.069824,-15.083312,-85.014336,25.985716
-0.274414,0.777588,0.252686,-1.998901,55.511471,34.576416,0.353516,-0.790771,-0.084473,-15.640258,-74.325562,25.177
-0.245361,0.797119,0.295654,7.530212,52.764889,33.065796,0.351563,-0.746338,-0.09668,-15.792846,-65.162659,25.726316
-0.23584,0.844482,0.324951,18.280029,53.12347,28.030394,0.36084,-0.707031,-0.118652,-19.638062,-57.563778,25.009153
-0.239746,0.883057,0.307617,25.344847,58.837887,21.308897,0.378662,-0.693359,-0.125244,-22.758482,-49.125668,22.65167
-0.348145,0.895264,0.220459,32.440186,72.029114,5.218505,0.380371,-0.708496,-0.103027,-21.888731,-39.779663,21.011351
-0.286133,0.901855,0.234619,26.55792,74.684143,13.076781,0.278809,-1.022705,-0.244873,17.906189,52.391048,48.736568
-0.318604,0.873535,0.19458,23.475645,76.942444,11.291503,0.3479,-0.740479,-0.096191,-17.25769,-30.380247,21.14105
-0.344971,0.866211,0.187988,25.794981,74.417114,9.002686,-0.054443,-0.955566,-0.2771,60.424801,114.028923,-53.100582
-0.320557,0.793213,0.27002,-2.113342,60.478207,32.272339,0.412598,-0.812988,-0.105225,-2.258301,7.316589,24.635313
-0.256104,0.904541,0.270996,28.213499,67.550659,15.808105,0.39209,-0.794434,-0.0979,1.441955,28.472898,22.567747
-0.383301,0.810059,0.309814,6.942749,68.809509,28.930662,0.333984,-0.746582,-0.107666,1.243591,42.129513,20.26367
-0.216064,0.638184,0.260742,-8.354187,99.159233,33.401489,0.321045,-0.753418,-0.109863,0.953674,53.787228,18.661499
-0.353516,0.753906,0.271973,16.838074,91.50695,24.482725,0.366211,-0.824463,-0.110107,6.660461,69.137573,20.088194
-0.237061,0.691162,0.250977,11.764525,101.943962,26.985167,0.352539,-0.888184,-0.11499,18.417358,83.747856,27.839659
-0.188721,0.64624,0.238525,4.249573,106.468193,31.341551,0.286865,-0.888672,-0.164063,25.123594,84.373466,35.888672
-0.203613,0.637695,0.245605,-2.01416,103.912346,33.340454,0.210693,-0.879395,-0.215576,24.238585,70.510864,40.199276
-0.20459,0.656494,0.266357,-16.052246,93.566887,34.606934,0.181396,-0.905518,-0.251465,21.003721,52.139278,42.739864
-0.16626,0.707031,0.281982,-22.758482,87.448112,37.582397,0.333984,-0.751465,-0.101074,-10.765075,-21.789549,22.377012
-0.121582,0.790039,0.329102,-24.627684,80.757133,39.108276,-0.111816,-0.914307,-0.181641,48.33984,110.465996,-63.186642
-0.084473,0.88208,0.374512,-22.239683,74.768066,35.957336,0.278564,-1.069336,-0.334473,145.774841,-125.877373,157.966614
-0.07251,0.942139,0.388184,-20.179747,70.930481,27.32086,-0.131348,-0.898682,-0.062988,28.182981,83.091728,-75.85907
-0.081543,0.964111,0.405762,-20.683287,66.352844,19.882202,0.171631,-0.843262,0.094482,-39.375305,-8.018494,-103.294365
-0.411865,0.79541,0.294678,15.373229,79.986572,26.206968,0.173828,-0.898193,0.092285,-40.824886,-18.493652,-99.472038
-0.346924,0.929932,0.242432,37.696838,70.495605,0.396728,0.161133,-0.959229,0.084717,-42.503353,-31.196592,-96.160881
-0.080078,0.981445,0.455322,-19.599915,59.501644,16.929626,0.149414,-1.012207,0.077881,-44.075008,-47.035213,-92.01812
-0.425293,0.973877,0.221924,35.018921,65.063477,-4.348755,0.156006,-1.055176,0.077637,-47.096249,-64.750671,-86.753838
0.131592,1.3125,0.019775,-34.049988,-249.992355,-25.543211,0.179443,-1.106934,0.085449,-49.758907,-83.793633,-79.612732
0.011963,1.28125,-0.038574,-28.144835,-249.992355,-27.801512,0.177979,-1.132568,0.085449,-53.955074,-106.430046,-72.151184
-0.084473,1.216064,-0.043213,-32.608032,-249.992355,-14.312743,0.145752,-1.132324,0.090576,-58.357235,-137.878418,-67.169189
-0.186768,1.213867,0.04834,-33.256531,-249.992355,1.449585,0.144043,-1.138672,0.106934,-59.93652,-174.781784,-64.033508
-0.218994,1.25293,0.171143,-24.719236,-249.633774,14.35089,0.129883,-1.140869,0.126709,-62.171932,-215.003952,-60.93597
-0.235107,1.291992,0.228271,-12.100219,-249.961838,19.798279,0.106201,-1.151367,0.153809,-62.057491,-246.421799,-58.502193
-0.246338,1.307129,0.206543,0.312805,-249.992355,18.035889,0.104736,-1.168213,0.176758,-58.67767,-249.992355,-55.099483
-0.31958,1.303467,0.157471,11.932372,-237.060532,11.558532,0.125977,-1.199707,0.206299,-52.955624,-249.992355,-53.489681
-0.369629,1.262207,0.086914,16.723633,-189.514145,5.889892,0.130859,-1.218018,0.215088,-49.163815,-249.992355,-53.436275
-0.34375,1.233643,0.084473,20.530699,-139.701843,4.737854,0.146484,-1.227295,0.20459,-51.48315,-249.992355,-53.108212
-0.375,0.965332,0.237549,39.146423,68.099976,-2.868652,0.193848,-1.271973,0.208984,-51.063534,-249.992355,-55.610653
-0.356934,1.23877,0.138672,31.341551,-94.696037,3.639221,0.296875,-1.365234,0.197266,-40.916439,-249.992355,-59.204098
-0.507813,1.131592,0.062988,46.165462,-41.503902,-6.332397,0.365479,-1.434082,0.151367,-28.20587,-249.992355,-56.892391
-0.505859,1.045898,0.083496,41.793819,-29.243467,-7.652282,0.359619,-1.418945,0.109375,-20.736692,-249.992355,-53.962704
-0.442627,0.993652,0.163818,36.92627,-18.104553,-4.470825,0.363037,-1.353027,0.096191,-16.082764,-249.992355,-56.335445
-0.40625,0.922363,0.194092,30.807493,-6.04248,0.312805,0.407959,-1.285645,0.100098,-13.450622,-249.832138,-63.812252
-0.435303,0.862061,0.178467,25.688169,7.011413,2.883911,0.502441,-1.282471,0.104736,-8.888245,-249.923691,-74.569702
-0.484619,0.828125,0.156006,21.804808,19.454956,3.440857,-0.143066,-0.89502,-0.106934,37.42981,98.960869,-71.166992
-0.496826,0.833496,0.154297,20.156858,31.257627,3.921509,0.167969,-0.801758,0.093506,-37.567139,0.976562,-106.575005
-0.487549,0.863037,0.163086,20.13397,42.617794,2.197266,0.17334,-0.776367,0.09375,-35.110474,7.911682,-108.27636
-0.481934,0.907959,0.176758,22.262571,52.955624,-1.106262,0.546631,-1.313965,0.092529,-2.830505,-249.992355,-81.703178
-0.462646,0.949707,0.197998,27.900694,60.630795,-3.692627,0.220947,-0.763184,0.082031,-30.036924,11.871337,-106.765739
-0.436768,1.222168,0.124512,43.823238,-61.264034,-0.068665,0.194092,-0.765869,0.0896,-32.577515,11.848449,-108.14666
0.275146,1.249268,0.067871,-48.789974,-249.992355,-17.982483,-0.050537,-0.994385,-0.067627,12.985229,47.218319,-73.318481
-0.00293,0.939697,0.56665,-13.053893,44.700619,10.963439,0.003418,-1.053955,-0.058838,6.41632,30.189512,-69.282532
0.024902,0.856445,0.626465,-16.571045,39.772034,6.278991,0.06665,-1.091797,-0.043213,0.061035,14.61029,-63.446041
0.004883,0.606934,0.002686,70.304871,185.409531,-138.99231,0.112793,-1.119873,0.003906,-4.905701,-0.457764,-57.044979
0.071777,0.623047,0.073486,80.307007,180.007919,-155.265808,0.141602,-1.113525,0.085205,-8.659363,-15.73944,-52.261349
0.030273,0.631348,0.178955,98.82354,186.759933,-173.934921,0.169922,-1.071533,0.151367,-13.46588,-32.058716,-49.47662
-0.117432,0.583984,0.169922,119.522087,191.993698,-189.628586,0.191895,-1.046143,0.158447,-18.661499,-48.393246,-47.515865
-0.183105,0.477783,0.113281,128.807068,195.381149,-203.216537,0.210938,-1.035645,0.151123,-23.239134,-63.140865,-46.035763
-0.125,0.371582,0.151123,130.004883,201.866135,-217.636093,0.225098,-1.051025,0.135742,-26.908873,-75.202942,-45.265194
-0.03125,0.303223,0.219727,142.356873,207.046494,-237.434372,0.242188,-1.083984,0.13208,-28.511045,-84.442131,-45.967098
0.060791,0.210449,0.248047,161.170944,214.324936,-249.458298,-0.089844,-0.934326,-0.061768,20.027161,65.429688,-76.065063
0.04541,0.077637,0.168213,170.265182,215.515121,-249.992355,0.266846,-1.108887,0.126953,-28.266905,-90.88134,-49.064632
-0.011963,-0.043701,0.026611,166.206345,203.834518,-249.992355,0.293945,-1.094238,0.11377,-29.144285,-93.734734,-54.51965
-0.086426,0.595459,0.05542,66.864014,192.756638,-127.822868,0.324463,-1.041748,0.09668,-31.295774,-91.995232,-61.424252
0.030273,-0.110107,0.027344,170.623764,186.920151,-249.992355,0.339355,-0.984375,0.091553,-32.310486,-86.875908,-68.199158
0.124268,-0.376709,0.078613,179.267868,151.115417,-249.992355,0.343018,-0.951904,0.085693,-31.013487,-78.201294,-74.241638
0.173828,-0.526611,0.143066,177.48259,135.551453,-249.992355,0.349854,-0.942139,0.080078,-27.770994,-65.925598,-78.643799
0.266602,-0.615967,0.244385,181.732162,123.786919,-249.992355,0.338379,-0.928711,0.081543,-23.79608,-50.529476,-81.138603
0.36377,-0.623047,0.331299,195.899948,111.076347,-249.992355,0.294678,-0.895752,0.089355,-21.156309,-32.920837,-85.365288
0.428223,-0.59668,0.381348,218.063339,94.985954,-249.992355,0.248779,-0.850098,0.106445,-21.224974,-14.678954,-92.193596
0.475586,-0.572998,0.370605,241.783127,77.194214,-249.992355,0.239502,-0.804199,0.104004,-23.216246,-0.045776,-98.487846
0.520508,-0.606689,0.322021,249.992355,57.495113,-249.992355,0.239502,-0.773438,0.08667,-26.679991,7.865905,-103.469841
0.549805,-0.724121,0.245605,249.992355,30.265806,-249.992355,-0.106689,-0.998047,0.075684,-5.386352,30.380247,-57.525631
0.601318,-0.867676,0.151855,249.992355,-7.263183,-249.992355,-0.133057,-0.975098,0.047852,2.151489,53.535458,-63.529964
0.705566,-0.947266,0.076172,249.992355,-53.672787,-249.992355,-0.158203,-1.006836,0.006104,12.054442,76.11084,-67.405701
0.092041,-0.216553,0.048584,179.000839,169.303879,-249.992355,-0.170654,-1.088135,-0.016357,23.971556,96.015923,-67.680359
-0.175049,0.593506,0.095703,66.757202,186.92778,-120.735161,0.044678,-1.13623,-0.258545,72.402954,130.630493,-23.887632
-0.051514,0.986328,0.516113,-15.716552,51.383968,14.938354,-0.1521,-1.207275,-0.067871,43.998714,124.366753,-63.07983
-0.333252,0.708496,0.107178,67.977905,151.985168,-106.155388,-0.107422,-1.217529,-0.125488,50.506588,132.530212,-55.694576
0.008301,0.78833,0.694092,-26.535032,34.194946,5.256652,-0.030518,-1.18457,-0.204102,59.562679,135.299683,-41.999813
-0.030518,0.772949,0.733643,-37.841797,29.579161,12.222289,-0.166504,-1.164551,-0.03418,35.057068,112.04528,-65.940857
-0.114746,0.833496,0.727783,-41.778561,30.769346,27.389524,-0.064941,-1.057373,0.088379,-9.521484,7.232666,-50.758358
-0.196777,0.936768,0.664795,-33.058167,31.646727,42.991634,0.182129,-1.057373,0.121582,-13.84735,-72.532654,-32.394409
-0.248291,0.929443,0.606201,-28.785704,24.414061,51.528927,0.073486,-1.140625,0.094971,-10.2005,-32.974243,-38.749695
-0.263916,0.867432,0.685791,-41.442867,15.380858,54.695126,0.135742,-1.13208,0.095459,-10.81848,-48.980709,-34.912109
-0.275146,0.635498,0.097656,67.6651,170.265182,-112.823479,0.164063,-1.09375,0.108154,-12.313842,-62.156673,-32.936096
-0.189453,1.034424,0.91333,-44.708248,21.125792,45.883175,0.212402,-0.924072,0.10083,7.400512,-112.457268,-70.709229
-0.251709,1.107422,0.837158,-23.567198,38.42926,30.09033,0.199219,-1.054443,0.130127,-12.161254,-80.879204,-31.906126
-0.337158,1.128906,0.6875,-1.945495,62.034603,15.655517,0.203369,-1.069336,0.143555,-6.553649,-88.119499,-32.936096
-0.382813,1.123779,0.583252,17.150879,92.849724,8.804321,0.201416,-1.068359,0.148926,-0.869751,-95.611565,-36.766052
-0.219971,0.92627,0.84375,-52.11639,12.96997,54.862972,0.199219,-1.032715,0.145508,2.655029,-103.073112,-43.998714
-0.389404,0.961914,0.321289,28.57971,135.955811,7.225036,0.2146,-0.976318,0.143799,4.020691,-108.863823,-53.947445
-0.316895,0.875977,0.261719,21.697996,153.205872,7.415771,0.221191,-0.93335,0.125,4.928589,-111.877434,-63.270565
-0.277344,0.858887,0.199951,7.759094,177.047714,3.433227,0.152832,-1.088867,-0.297852,85.33477,118.278496,-5.279541
-0.438721,0.946289,0.181885,0.167847,177.35289,-10.940551,-0.002686,-1.114014,0.098633,-10.31494,-14.190673,-44.189449
-0.546631,1.014404,0.181641,22.583006,163.61235,-22.232054,0.26709,-1.057373,-0.317627,97.381584,100.486748,15.35797
-0.376465,0.986816,0.236816,48.225399,145.088196,-28.381346,-0.13501,-1.290283,0.047119,97.572319,-105.972282,155.105591
-0.139893,0.906494,0.26709,57.365414,125.617973,-45.936581,0.37085,-1.07666,-0.325439,119.926445,50.041195,69.664001
-0.086426,0.858643,0.26709,58.28857,117.187492,-67.298889,0.209961,-0.929443,0.075928,10.742187,-111.862175,-77.713013
-0.150391,0.822021,0.206299,60.890194,124.992363,-84.754936,0.276367,-0.888672,0.072021,-53.459164,249.992355,-6.568908
-0.273926,0.785645,0.146484,66.268921,137.840271,-98.274223,0.172119,-0.927002,0.050537,-48.507687,249.992355,10.902404
-0.395752,1.062744,0.465332,29.045103,122.116081,9.155273,0.134766,-0.980957,0.044189,-42.327877,233.161911,24.848936
0.655518,0.766113,0.114014,13.984679,0.274658,46.676632,0.109619,-1.03833,0.053223,-35.568237,202.835068,36.04126
0.636963,0.782227,0.1521,19.744873,-0.663757,43.983456,0.049316,-1.089844,0.051514,-26.916502,175.117477,43.876644
0.61499,0.815674,0.163574,27.481077,-0.846863,41.481014,-0.031006,-1.128662,0.068359,-15.213012,145.446777,52.795406
0.616699,0.881836,0.211182,35.03418,3.051758,41.099545,-0.095215,-1.154785,0.08667,-1.464844,111.312859,65.177917
0.638916,0.840332,0.295166,45.120235,59.417721,42.228695,-0.140625,-1.17334,0.098145,13.359069,72.753906,78.834534
0.636963,0.910645,0.27124,36.499023,23.880003,44.921871,-0.183594,-1.189697,0.095215,27.374266,33.01239,92.742912
0.660645,0.871826,0.270996,35.919189,37.67395,46.379086,0.338867,-1.05127,-0.322266,109.123222,77.720642,40.641781
0.662598,0.851074,0.274902,39.69574,49.774166,45.791622,-0.21582,-1.210938,0.088867,41.15295,-6.912231,107.246391
0.621826,0.917236,0.250732,37.582397,11.634826,42.808529,-0.182129,-1.285645,0.072754,78.392029,-79.277039,139.503479
0.64917,0.769043,0.071289,9.643555,-1.907349,47.920223,-0.067383,-1.271484,0.013428,113.044731,-123.039238,167.976364
0.35083,1.221191,0.194092,-10.650634,39.18457,31.707762,0.029785,-1.23291,-0.027588,123.329155,-129.53949,176.010117
0.613281,0.762695,-0.000244,3.204345,-19.119263,43.540951,0.137695,-1.195313,-0.082031,128.27301,-125.343315,178.588852
0.587891,0.732666,-0.064941,-3.501892,-23.078917,42.587276,0.229736,-1.165283,-0.138672,129.981995,-112.67852,176.773056
0.556396,0.713379,-0.088623,-11.741637,-20.675657,43.739315,0.289551,-1.153076,-0.186523,131.42395,-94.184868,170.837387
0.493896,0.737793,-0.056641,-17.349243,-16.838074,41.778561,0.335449,-1.150879,-0.220459,133.399963,-71.174622,161.079391
0.428711,0.780518,-0.01001,-21.125792,-13.85498,36.132813,0.375732,-1.156738,-0.251709,135.498047,-43.830868,146.217346
0.408936,0.824951,0.012695,-25.489805,-10.490417,32.096863,0.403809,-1.14917,-0.288086,134.83429,-13.015746,125.144951
0.418701,0.885742,0.038574,-27.999876,-6.29425,31.494139,0.398682,-1.11377,-0.316895,129.127502,19.111633,98.854057
0.422607,0.959473,0.071289,-27.755735,-0.511169,31.974791,-0.211914,-1.253174,0.081787,58.235165,-45.555111,122.856133
0.398682,1.05127,0.121338,-26.481627,8.514404,30.838011,0.209229,-0.923584,0.058105,12.985229,-111.053459,-84.854118
0.37207,1.168457,0.186768,-20.454405,21.575926,29.563902,0.249268,-1.014404,-0.00415,14.320373,-17.822266,-52.078243
0.615479,0.82251,0.314697,48.667904,65.368652,38.131714,0.193848,-0.860352,0.062988,12.237548,-110.145561,-100.9674
0.640137,0.77832,0.042969,6.721496,-9.95636,46.371456,0.469238,-1.333496,0.18042,-30.052183,-90.980522,-61.43951
0.56543,0.779541,0.329102,49.026485,67.03186,34.14917,0.474609,-1.402344,0.191895,-23.902891,-79.917908,-55.5191
0.572021,0.599365,0.381104,57.128902,197.685226,43.754574,0.479004,-1.469238,0.186523,-16.021729,-73.493958,-50.331112
0.559082,0.657471,0.328369,52.581783,71.94519,29.197691,0.482178,-1.53833,0.165283,-8.811951,-67.78717,-49.262997
0.36792,1.174316,0.2146,-4.486084,57.327267,36.705017,0.481201,-1.611084,0.14209,-0.511169,-61.454769,-49.621578
0.439209,0.969482,0.490723,36.79657,249.992355,76.957703,0.482666,-1.697021,0.101318,12.84027,-53.009029,-47.752377
0.48877,0.920898,0.46167,28.984068,249.992355,80.696098,0.490479,-1.701172,0.038086,25.901793,-41.496273,-46.638485
0.558105,0.939697,0.480225,27.244566,249.992355,84.381096,0.476807,-1.595947,-0.037109,31.166075,-28.808592,-47.019955
0.666016,0.941162,0.496826,27.732847,249.992355,90.194695,0.411865,-1.425781,-0.09082,30.113218,-20.339964,-47.012325
0.772461,0.927979,0.505859,27.748106,249.992355,94.169609,0.31958,-1.215332,-0.061035,24.734495,-17.295837,-49.133297
0.790771,0.895996,0.484619,28.686522,249.992355,97.122185,0.424561,-1.256592,0.159668,-33.111572,-107.582085,-67.733765
0.77832,0.871582,0.458496,35.850525,249.992355,97.145073,0.220947,-0.881836,-0.002686,3.967285,-20.332335,-51.559444
0.810059,0.828613,0.425537,47.233578,249.855026,92.094414,0.245361,-0.802979,-0.046631,-10.017395,-29.563902,-38.719177
0.813477,0.743408,0.381104,53.947445,249.893173,82.466118,0.261719,-0.795166,-0.058105,-18.287659,-34.744263,-31.303404
0.537354,0.710205,0.337402,49.736019,67.695618,30.799864,0.274658,-0.80127,-0.046875,-25.489805,-40.992733,-24.002073
0.758545,0.671143,0.350098,55.786129,249.992355,71.464539,0.282471,-0.825684,-0.029053,-29.83856,-47.737118,-16.51001
0.627197,0.590576,0.35791,54.092403,222.4655,52.230831,0.292969,-0.872803,-0.01709,-31.631468,-54.832455,-8.850098
0.530273,0.610352,0.361328,62.179562,173.492416,36.270142,0.299316,-0.926025,-0.009277,-31.074522,-62.385555,-1.144409
0.473877,0.62207,0.336426,65.635681,151.847839,31.578062,0.301025,-0.96167,-0.003418,-29.350279,-70.220947,5.500793
0.438477,0.64209,0.297119,67.817688,137.176514,29.655455,0.301514,-0.971924,0.000977,-27.961729,-77.934265,10.650634
0.395508,0.670898,0.219482,71.159363,129.859924,27.763365,0.296143,-0.966553,-0.001465,-27.290342,-85.273735,14.579772
0.38208,0.682617,0.209229,73.829651,124.557487,24.833677,0.20459,-0.898438,0.054443,13.229369,-110.198967,-92.536919
0.450684,0.667236,0.254883,73.074341,117.416374,23.887632,0.227051,-0.822266,-0.018555,-3.341675,-24.497984,-46.234127
0.523926,0.64209,0.270264,69.633484,106.498711,25.199888,0.353027,-1.182617,0.15625,-34.629822,-123.298637,-75.035095
0.55127,0.621094,0.282471,63.3316,93.185417,27.06909,0.29126,-0.957275,0.000732,-26.977537,-91.545097,17.76123
0.565674,0.626953,0.310791,56.716915,80.657951,28.244017,0.308838,-1.106934,0.15918,-31.135557,-153.22113,-88.027946
0.693604,0.627197,0.340332,55.130001,245.26976,60.989376,0.322266,-1.131836,0.162354,-34.355164,-137.680054,-82.160942
0.423584,1.064209,0.55249,47.378536,249.992355,69.351196,0.170166,-0.772705,0.082764,6.645202,-113.265984,-117.019646
0.420166,1.03125,0.338379,-8.19397,77.842712,39.93988,0.157959,-0.75,0.09668,4.508972,-117.324821,-122.390739
0.47168,1.032715,0.38623,-8.918762,76.347351,38.642883,0.150146,-0.749756,0.102295,2.815246,-122.833244,-126.556389
0.550293,0.673584,0.313965,-4.180908,-102.004997,-3.311157,0.141602,-0.759277,0.104004,0.816345,-130.767822,-129.844666
0.489502,0.587646,0.305664,-9.872437,-135.002136,-17.105103,0.134521,-0.774902,0.104004,-1.342773,-140.838623,-131.996155
0.382568,0.521484,0.296631,-22.827147,-151.756287,-27.6947,0.130127,-0.797607,0.109375,-3.14331,-152.526855,-133.117676
0.308594,0.523926,0.294922,-34.454346,-160.461426,-29.20532,0.128906,-0.823486,0.117676,-4.920959,-165.435776,-133.270264
0.283936,0.562012,0.375488,-44.860836,-171.112045,-30.677794,0.14209,-0.858398,0.118652,-6.774902,-177.467331,-132.980347
0.325195,0.640381,0.445313,-51.338192,-183.616623,-35.110474,0.167969,-0.891113,0.12085,-9.208679,-187.072739,-132.652283
0.385498,0.718506,0.399414,-52.665707,-196.357712,-40.107727,0.201416,-0.929688,0.125732,-11.589049,-193.153366,-131.942749
0.382568,0.783691,0.307129,-56.358334,-205.017075,-45.3186,0.183594,-0.814453,0.068848,9.712219,-110.939018,-109.550468
0.320068,0.863525,0.255859,-61.813351,-207.542404,-46.981808,0.229492,-1.027832,0.138184,-13.191222,-200.714096,-129.638672
0.361816,1.01709,0.336914,-68.534851,-201.736435,-41.038509,0.241699,-1.071045,0.12915,-15.327453,-204.528793,-128.074646
0.489502,0.701904,0.299805,-7.286071,-59.92889,7.324218,0.255371,-1.131348,0.134766,-17.01355,-206.687912,-124.999992
0.369385,1.048828,0.282715,-71.777344,-200.477585,-37.963867,0.260498,-1.199951,0.161133,-15.510558,-207.97728,-122.337334
0.317383,1.134033,0.343262,-75.408936,-219.993576,-29.800413,0.259033,-1.243164,0.169434,-14.144897,-208.785995,-119.293205
0.447021,1.133789,0.361084,-77.629089,-237.167343,-36.880493,0.251221,-1.257813,0.160156,-14.625548,-207.778915,-112.739555
0.495605,1.124756,0.356934,-76.507568,-249.43541,-48.515316,0.274414,-1.262207,0.146973,-14.175414,-203.43779,-105.018608
0.491211,1.140137,0.377686,-70.953369,-249.992355,-51.475521,0.308594,-1.241455,0.150146,-14.86206,-193.260178,-99.189751
0.471436,1.128662,0.346924,-72.784424,-249.992355,-38.528442,0.302246,-1.186279,0.153809,-18.432617,-180.442795,-95.79467
0.490967,1.145508,0.318848,-75.881958,-249.992355,-23.612974,0.290283,-1.126221,0.149902,-25.146482,-167.968735,-92.300407
0.537354,1.164063,0.29541,-70.388794,-249.992355,-22.171019,0.222412,-0.97998,0.135986,-12.557982,-196.76207,-130.760193
0.539063,1.156982,0.200928,-62.141415,-249.992355,-22.773741,0.147705,-1.512207,0.252197,-153.961182,-165.725693,-147.476196
0.439209,1.174072,0.130127,-57.708736,-249.992355,-18.814087,0.200439,-0.727295,0.093994,-38.475037,46.592709,-135.902405
0.393555,1.082275,0.275635,-4.928589,71.174622,39.825439,0.228271,-0.70752,0.096436,-33.355713,44.624325,-132.072449
0.281494,1.098389,0.282715,-74.279785,-207.084641,-31.646727,0.236572,-0.69751,0.092529,-28.625486,35.385132,-127.861015
0.264648,0.680908,0.218506,-10.993957,-26.382444,12.985229,0.275391,-0.724365,0.090088,-18.173218,-87.455742,-92.552177
0.297607,0.954102,0.312256,-65.818787,-205.726608,-44.448849,0.261475,-0.6875,0.085205,-22.262571,4.547119,-117.637627
-0.137451,0.545898,0.308594,-19.172668,-31.829832,8.163452,0.283936,-0.683594,0.083984,-20.805357,-16.647339,-111.717216
-0.018799,0.666748,0.218506,-14.259337,-16.494751,12.519835,0.299072,-0.686768,0.087646,-19.073486,-41.244503,-105.361931
0.600586,1.130371,0.463135,1.686096,37.277222,30.258177,0.297363,-0.704346,0.087646,-17.944336,-66.123962,-98.94561
0.596191,1.180176,0.468506,8.224487,9.765625,26.496885,0.244385,-0.690918,0.088379,-24.780272,21.759031,-122.940056
0.560547,1.186523,0.448975,11.20758,-12.489318,25.3067,0.168701,-0.76001,0.086914,-43.952938,41.137691,-140.159607
0.48877,1.196045,0.417236,16.090393,-22.003172,24.024961,0.146729,-1.015625,0.098389,-82.298271,-34.988403,-151.885986
0.45459,1.148193,0.475342,20.484922,-25.382994,28.732298,0.187744,-0.94165,-0.211182,115.982048,98.159782,109.436028
0.455566,1.060303,0.585205,18.051147,-25.505064,30.4718,0.149414,-0.89917,0.073242,-61.325069,2.044678,-151.367188
0.42041,1.039307,0.684814,9.872437,-26.046751,26.260374,0.154297,-0.950439,0.086182,-71.624756,-13.397216,-152.877808
0.375977,1.130127,0.686035,9.307861,-27.290342,21.087645,0.156738,-1.095947,0.096191,-93.711845,-59.539791,-149.681091
0.342285,1.255615,0.56543,20.416258,-23.063658,15.296935,0.173096,-1.188965,0.091553,-105.140678,-82.160942,-149.917603
0.276123,1.332275,0.454834,33.51593,-13.21411,9.262085,0.164551,-1.268311,0.093506,-116.142265,-104.263298,-152.412415
0.545898,1.068359,0.438477,-5.760192,62.042233,35.903931,0.147461,-1.33374,0.104736,-127.441399,-125.129692,-154.212952
0.256836,1.209961,0.371826,46.19598,-3.311157,7.713317,0.112061,-1.372559,0.130615,-139.923096,-143.295288,-153.968811
0.229736,1.329834,0.398926,43.403622,-4.249573,6.599426,0.11377,-1.425049,0.181885,-150.650024,-158.210754,-151.275635
0.128418,0.401123,0.277344,17.250061,-67.03186,4.40979,0.260742,-0.747803,0.101074,-18.821716,-103.675835,-86.517326
0.116699,0.578125,0.333008,35.606384,-69.107056,4.417419,0.146484,-0.818848,0.085938,-48.728939,30.227659,-144.538879
0.044434,0.672119,0.413574,32.218933,-74.356079,2.105713,0.254395,-0.787354,0.107178,-19.340515,-115.486137,-80.596916
0.102051,0.671631,0.447266,23.010252,-80.818169,1.76239,-0.044678,-0.97583,-0.041016,-3.036499,17.547607,-76.126099
-0.024414,0.37915,0.299072,-9.19342,-54.336544,4.997253,0.250244,-0.887939,0.103271,-21.034239,-132.080078,-69.068909
0.307373,0.752197,0.356201,24.734495,-52.047726,13.748168,0.144775,-1.540283,0.25415,-156.280518,-169.319138,-141.326904
0.335205,0.861816,0.334961,32.63855,-27.854918,16.746521,0.176758,-0.931885,-0.260986,119.247429,104.774467,85.159294
0.30957,1.026367,0.351563,41.084286,-11.802672,12.008666,0.161133,-0.936279,-0.310791,120.399467,113.922112,63.552853
0.221436,0.687988,0.403076,20.26367,-74.295044,6.347656,0.139648,-0.937012,-0.343262,116.912834,123.748772,41.198727
-0.319092,-0.027344,0.097168,26.390074,-6.866455,249.992355,0.107422,-0.916016,-0.361328,106.285088,131.965637,17.211914
0.632568,-0.468506,0.48291,-111.213676,-29.808043,249.992355,0.070068,-0.875244,-0.344727,91.789238,136.21521,-6.240844
0.377441,-0.385498,0.427734,-75.485229,-31.578062,249.992355,0.043213,-0.821533,-0.270752,77.789307,134.986877,-26.763914
0.109863,-0.298584,0.326172,-46.180721,-34.622192,249.992355,0.01123,-0.797607,-0.196289,64.292908,130.210876,-43.090816
-0.088379,-0.223633,0.272461,-25.077818,-30.71594,249.992355,-0.016846,-0.811768,-0.180664,51.696774,122.222893,-55.892941
-0.16626,-0.163818,0.259521,-6.111145,-19.432068,249.992355,-0.045654,-0.837158,-0.156982,40.328976,109.03167,-65.505981
0.861084,-0.608154,0.495605,-151.71814,-23.963926,249.992355,0.256592,-0.838379,0.108398,-20.111082,-124.450676,-74.905396
-0.227295,-0.112061,0.189453,9.414673,-13.404845,249.992355,-0.066406,-0.873291,-0.116455,29.21295,90.545647,-72.227478
-0.277832,-0.045166,0.128906,21.278379,-9.765625,249.992355,-0.06543,-0.94873,-0.067383,7.026672,44.082638,-77.323914
-0.390625,-0.000488,0.070801,26.351927,-5.950927,249.992355,-0.020752,-0.988281,0.003418,-12.443542,-9.422302,-73.71521
-0.426758,0.24292,0.124756,25.062559,-29.060362,173.118576,0.002197,-1.003662,0.043213,-20.111082,-36.018372,-71.075439
-0.477051,0.129395,0.108398,19.53125,-28.45001,249.992355,0.020508,-1.030273,0.071045,-24.79553,-62.858578,-67.459106
-0.520264,0.193848,0.133545,25.398252,-32.913208,249.992355,0.043457,-1.057617,0.095215,-26.542662,-88.729851,-63.163754
-0.548096,0.237305,0.133789,29.800413,-34.65271,234.268173,0.085693,-1.077637,0.11499,-26.55792,-110.626213,-59.532162
-0.51123,0.246582,0.108398,28.938292,-33.77533,201.950058,0.135254,-1.070557,0.124023,-25.665281,-126.15966,-57.395931
-0.405029,0.24292,0.158203,18.882751,-19.760132,150.375366,0.177734,-1.03418,0.125488,-24.536131,-135.391235,-57.708736
-0.467529,0.253418,0.144043,11.299132,-6.912231,130.065918,0.208008,-0.98999,0.117432,-23.54431,-138.763428,-59.959408
-0.48877,0.246094,0.139893,3.349304,8.903503,110.79406,0.231445,-0.943848,0.101563,-22.125242,-137.405396,-63.789364
-0.394287,0.213867,0.231445,-8.293152,25.222776,97.236626,-0.074219,-0.910889,-0.088623,17.951965,68.54248,-76.164246
-0.320801,0.223877,0.330566,-21.743773,33.111572,90.12603,0.166748,-1.557373,0.237305,-159.545898,-171.272263,-133.430481
1.149658,-0.836914,0.48584,-173.797592,-27.915953,249.992355,0.140381,-0.865723,0.080322,-53.482052,16.014099,-148.483276
-0.448486,0.029053,0.061035,21.827696,-9.338379,249.992355,0.037842,-1.672607,0.261719,-143.867493,-201.255783,-119.720451
1.440674,-1.04834,0.390869,-192.161545,-54.832455,249.992355,0.406738,-1.19165,0.016602,18.951416,-28.366087,84.556572
-0.334717,0.303467,0.386475,-26.473997,26.664732,78.895569,0.359375,-1.127686,0.04834,16.998291,-37.643433,83.000175
1.688721,-1.307373,-0.038574,-237.617477,-151.161194,249.992355,0.345459,-1.05835,0.050537,14.831542,-45.288082,81.146233
0.682861,-1.532471,-0.479736,126.815788,-79.64325,249.992355,0.339111,-0.981201,0.056641,11.871337,-49.537655,79.88739
0.731934,-1.737793,-0.612305,111.274712,-76.60675,249.992355,0.319092,-0.911865,0.070801,8.827209,-51.132198,79.055786
0.60498,-1.913086,-0.715576,89.302055,-72.547913,249.992355,0.301025,-0.852295,0.074463,5.950927,-51.795956,78.010559
0.673584,-2.005615,-0.793457,69.168091,-57.586666,249.992355,0.312744,-0.812988,0.079346,3.479004,-49.797054,75.561523
0.871094,-2.002686,-0.824951,55.213924,-59.288021,249.992355,0.355469,-0.777588,0.066406,1.296997,-40.794369,71.784973
0.959229,-1.996582,-0.819824,44.425961,-84.877007,249.992355,0.399902,-0.722412,0.041992,-0.976562,-26.779173,68.359375
0.932373,-2.030762,-0.803223,28.57971,-117.118828,249.992355,0.368652,-0.670166,0.049805,-3.219604,-17.066956,66.688538
0.81665,-2.032227,-0.779541,7.522583,-137.35199,249.992355,0.450439,-1.235596,-0.022461,20.446775,-19.088745,84.548943
0.779541,-2.049561,-0.728516,-21.14868,-144.119263,249.992355,0.278076,-0.61792,0.054688,-8.094788,-21.385191,66.810608
0.78418,-1.9646,-0.606445,-45.829769,-156.715393,249.992355,0.397949,-0.586182,0.022705,-25.81024,-15.960692,67.03949
1.758789,-1.172119,0.173584,-219.390854,-91.38488,249.992355,0.495361,-0.620361,0.032471,-34.057617,26.496885,66.703796
0.922852,-1.801758,-0.379395,-45.997616,-186.599716,249.992355,0.548096,-0.627686,0.028809,-41.351315,90.019218,60.6842
1.529053,-1.722656,-0.082764,-32.409668,-249.992355,249.992355,0.588135,-0.633789,0.022461,-48.568722,166.023239,48.042294
1.658936,-1.723633,-0.057373,-35.919189,-249.992355,249.992355,0.615234,-0.675537,0.046387,-52.680965,235.084518,31.044004
1.561035,-1.643555,-0.037842,-25.665281,-249.992355,249.992355,0.611328,-0.713867,0.074463,-52.360531,249.992355,13.809203
1.451172,-1.720947,0.003418,-7.408142,-249.984726,249.992355,0.616699,-0.73291,0.058105,-55.175777,249.992355,-6.622314
1.537109,-1.870361,-0.043457,5.226135,-249.992355,249.992355,0.617188,-0.775879,0.017822,-61.866756,249.992355,-29.472349
1.452393,-1.90332,-0.19873,-9.162903,-249.992355,249.992355,0.515869,-0.828613,0.002197,-62.149044,249.992355,-36.941528
1.032715,-1.894531,-0.297119,-61.515804,-249.336227,249.992355,0.398682,-0.856689,0.051025,-57.609554,249.610886,-25.863646
0.720215,-1.734131,-0.349854,-119.384758,-249.992355,249.992355,0.280518,-0.574951,0.041504,-16.212463,-28.594969,66.726685
0.677979,-1.47876,-0.477051,-167.961105,-249.992355,249.992355,0.485596,-1.221924,-0.050537,21.530149,-7.308959,82.153313
1.092285,-1.340332,-0.30127,-212.326035,-215.927109,249.992355,0.149902,-1.61377,0.260254,-153.785706,-177.680954,-129.219055
1.223389,-1.717529,-0.172119,-34.202576,-235.130295,249.992355,0.590332,-1.084961,-0.136963,25.367735,12.725829,75.042725
-0.318115,0.432617,0.458984,-16.456604,13.183593,55.931087,0.041504,-1.677734,0.230713,-133.743286,-230.850204,-103.645317
-0.473877,0.077637,0.067627,18.470764,-20.080564,249.633774,0.13623,-1.596924,0.182129,-121.604912,-247.550949,-92.842094
-0.23877,0.57373,0.495361,-2.716064,2.708435,34.034729,0.225342,-1.46167,0.123047,-116.500847,-249.992355,-88.134758
-0.41626,0.870605,0.151611,26.31378,30.364988,-58.906551,0.320313,-1.351318,0.091797,-117.34771,-249.17601,-88.10424
-0.426514,0.886719,0.153564,26.878355,21.575926,-72.052002,0.376709,-1.310547,0.108643,-114.128105,-238.616928,-89.24865
-0.447266,0.879883,0.137695,26.931761,19.821167,-84.747307,0.383545,-1.307861,0.126953,-102.554314,-226.943954,-85.403435
-0.476318,0.869629,0.095947,25.993345,29.769896,-94.352715,0.384766,-1.311279,0.141113,-88.348381,-221.664413,-79.078674
-0.495361,0.883057,0.030273,27.267454,48.97308,-100.906364,0.405518,-1.373779,0.163086,-67.222595,-223.167404,-72.402954
-0.475586,0.927734,-0.009766,34.057617,73.783875,-104.896538,0.437256,-1.421387,0.161865,-40.64941,-224.143967,-63.179012
-0.412842,0.999023,-0.000244,47.134396,101.203911,-103.85894,0.48999,-1.446533,0.145752,-12.374877,-220.314011,-53.298946
-0.32251,1.047363,0.060303,61.668392,127.479546,-98.342888,0.536621,-1.445557,0.112549,16.532898,-210.632309,-41.877743
-0.246338,1.038818,0.085938,72.792053,150.054932,-95.687859,0.539795,-1.162354,-0.09082,22.628782,5.218505,78.643799
-0.206299,0.961182,0.089355,74.615479,171.081528,-93.963615,0.586182,-1.367188,-0.021729,62.316891,-177.848801,-13.877868
-0.14624,0.875244,0.168213,70.457458,189.44548,-89.881889,0.596191,-1.296631,-0.069824,78.277588,-155.784607,0.221252
-0.044434,0.850586,0.274414,67.253113,203.674301,-85.769646,0.586426,-1.214355,-0.11792,88.951103,-130.638123,14.801024
0.057861,0.9104,0.370605,70.632935,214.858994,-79.444885,0.575684,-1.11792,-0.163818,90.744011,-103.462212,29.769896
0.120605,0.987549,0.467773,77.362061,223.518356,-69.694519,0.574951,-1.010254,-0.189697,85.952751,-76.202393,41.259762
0.118652,1.043701,0.505859,81.474297,234.30632,-58.357235,0.587402,-0.918213,-0.207031,76.049805,-50.529476,49.301144
0.082275,1.054199,0.525879,79.589844,247.077927,-47.286983,0.613281,-0.863037,-0.223633,63.934322,-27.969358,55.122372
0.058838,1.010986,0.570801,69.076538,249.992355,-36.712646,0.628662,-0.855225,-0.227539,52.688595,-9.963989,60.592648
0.084229,0.972412,0.625488,52.291866,249.992355,-24.032591,0.633057,-0.881836,-0.216797,43.334957,2.960205,65.856934
0.166992,1.009521,0.68457,40.794369,249.992355,-8.804321,0.629883,-0.936279,-0.195557,35.972595,11.154174,69.610596
0.277344,1.095215,0.748291,44.662472,249.992355,5.66101,0.616455,-1.009277,-0.170898,30.136106,14.511107,72.07489
0.365967,1.181396,0.789063,55.221554,249.992355,20.439146,0.567627,-1.420654,0.047852,42.41943,-196.334824,-28.533934
0.414063,1.219971,0.735107,60.43243,249.992355,38.002014,0.180664,-0.872559,0.085938,-42.022701,-146.354675,-131.591797
0.422119,1.162842,0.630615,56.800838,249.992355,55.656429,0.138672,-0.855713,0.121094,-33.035278,-166.099533,-122.856133
-0.422852,0.853516,0.143799,24.742125,36.5448,-48.789974,0.118652,-0.87793,0.13623,-25.222776,-181.213364,-112.136833
-0.428467,0.800293,0.138184,19.165039,34.446716,-42.274471,0.114014,-0.887695,0.116455,-23.490904,-188.133224,-99.662773
-0.150146,0.69043,0.483398,7.392883,-4.936218,24.818419,0.229004,-1.160889,0.088623,2.281189,-185.005173,-41.603085
-0.513916,0.681152,0.192383,4.951477,12.611388,-33.447266,0.209961,-0.954346,0.036865,-18.15033,-194.465622,-78.048706
-0.098389,0.766357,0.482666,10.002136,-37.307739,9.002686,0.212891,-1.04541,0.052002,-6.385803,-197.776779,-65.658569
-0.134033,0.727295,0.453369,2.166748,-49.606319,0.411987,0.203369,-1.13916,0.089844,1.411438,-193.160995,-53.848263
-0.194824,0.712891,0.437256,-2.693176,-53.024288,-1.701355,0.228271,-0.915527,0.063477,-48.408504,-122.901909,-135.482788
-0.275391,0.751953,0.448242,2.151489,-56.579586,-1.831055,0.143799,-0.906738,0.082275,-23.03314,-189.743027,-88.554375
-0.320801,0.805664,0.476074,14.564513,-63.58337,-0.892639,0.266113,-0.991211,0.071045,-52.62756,-99.586479,-136.451721
-0.302734,0.811523,0.514404,25.009153,-72.868347,2.029419,0.343506,-1.381348,0.109375,-29.403685,-40.138245,-116.973869
-0.271484,0.830811,0.618164,32.150269,-87.066643,-2.304077,0.292236,-1.170654,0.120605,-45.3186,-65.78064,-132.125854
-0.275391,0.848633,0.735352,37.54425,-103.294365,-12.489318,0.299561,-1.238525,0.119629,-40.382381,-56.892391,-129.425049
-0.266602,0.853271,0.780029,39.093018,-109.02404,-18.676758,0.307373,-1.298828,0.119385,-36.582947,-51.147457,-126.15966
-0.315918,0.86084,0.760498,37.361145,-104.583733,-22.331236,0.324951,-1.349365,0.119873,-33.126831,-46.218868,-121.971123
-0.394775,0.822266,0.679688,31.333921,-100.608818,-22.575377,0.367188,-1.391602,0.087402,-25.833128,-32.081604,-111.633293
-0.106201,0.757813,0.486328,12.496947,-18.753052,19.386292,0.398193,-1.388428,0.071045,-22.377012,-21.980284,-105.606071
-0.362305,0.741699,0.612793,21.14868,-97.366325,-16.967773,0.405029,-1.366943,0.043457,-18.424988,-12.329101,-97.717278
-0.29834,0.686523,0.547119,12.542724,-94.238274,-9.880066,0.398682,-1.325684,0.022217,-15.022277,-5.104064,-88.714592
-0.313232,0.679688,0.472656,8.514404,-88.752739,-3.868103,0.386475,-1.266113,0.015381,-13.816833,0.816345,-79.696655
-0.387695,0.713379,0.394531,7.720947,-77.941895,-1.38092,0.238037,-1.133545,0.085449,6.04248,-180.496201,-29.380796
-0.495361,0.776367,0.325439,11.878966,-64.979553,-4.348755,0.282227,-1.090576,0.103271,-51.048275,-79.994202,-134.712219
-0.568604,0.802979,0.28125,16.960144,-51.055904,-9.82666,0.232422,-1.108643,0.095947,12.756347,-176.536545,-17.402649
-0.582031,0.790527,0.273926,18.15033,-37.406921,-14.442443,0.284912,-0.753174,0.126221,14.671325,-120.147697,45.768734
-0.564453,0.747314,0.260498,16.853333,-26.092527,-20.431517,0.230469,-1.095703,0.100098,25.787352,-160.148621,10.032654
-0.568848,0.684326,0.227783,11.817931,-14.427184,-26.56555,0.131836,-0.901123,0.0896,-39.054871,-70.602417,-52.940365
-0.562256,0.656738,0.209473,5.447387,-0.701904,-30.563353,0.149658,-0.868896,0.084961,-35.018921,-75.279236,-49.636837
-0.451172,0.733643,0.158447,11.222838,25.199888,-37.521362,0.148193,-0.825928,0.081055,-31.242369,-79.948425,-45.753475
0.282715,-1.012939,0.251221,137.786865,-115.646355,-168.518051,0.138916,-0.770508,0.099365,-29.052732,-85.083,-41.229244
0.345459,-0.953613,0.180908,131.93512,-119.468681,-165.145859,0.128906,-0.716797,0.118408,-27.938841,-90.400688,-35.27832
0.401611,-0.905029,0.102539,128.982544,-115.531914,-159.828186,0.126709,-0.692627,0.122559,-26.519773,-95.42083,-28.07617
0.418213,-0.86377,0.059082,130.1651,-105.12542,-155.929565,0.11499,-0.695068,0.140869,-22.27783,-101.615898,-19.126892
0.060059,-0.638428,0.153564,41.900631,-128.456116,-104.988091,0.099854,-0.708252,0.158447,-14.450072,-109.771721,-7.034301
0.288574,-0.776123,0.05542,131.858826,-88.249199,-141.593933,0.116943,-0.708984,0.165771,-6.576538,-117.774956,5.706787
0.246094,-0.678955,0.128174,120.925896,-89.378349,-128.898621,0.154785,-0.695557,0.176025,-0.640869,-123.153679,17.318726
0.17627,-0.633057,0.214111,84.945671,-103.309624,-114.494316,0.226563,-1.102539,0.106201,19.821167,-170.074448,-3.822326
0.237305,-1.047363,0.255371,144.996643,-104.194633,-167.121872,0.199707,-0.697021,0.169434,4.325867,-124.969475,28.045652
0.363525,-0.831299,0.04834,131.629944,-93.78051,-150.749207,0.385498,-1.214355,0.010254,-11.878966,5.836486,-69.770813
0.210693,-1.067871,0.224609,150.96283,-83.015434,-165.016159,0.328369,-0.800049,0.093506,19.844055,-115.234367,51.551815
0.153809,-1.53125,0.263916,107.048027,183.433517,-165.496811,0.370117,-0.857422,0.064209,25.29907,-109.260551,54.740902
0.154297,-1.304443,0.124512,132.293701,0.495911,-155.11322,0.398926,-0.921875,0.039551,30.59387,-103.744499,55.328365
0.115723,-1.398438,0.166016,116.661064,47.798153,-151.45874,0.406738,-0.984863,0.017334,34.164429,-100.166313,54.51202
-0.075928,-1.406494,0.275391,109.52758,103.065483,-155.334473,0.383545,-1.038574,0.012695,36.010742,-100.9674,53.138729
0.296143,-1.647949,0.228027,89.141838,219.215378,-177.375778,0.355957,-1.07666,0.031494,37.315369,-107.719414,49.377438
0.17334,-1.716309,0.261719,72.601318,247.985825,-176.391586,0.31543,-1.091553,0.052002,36.880493,-119.758598,41.755672
0.080322,-1.732422,0.315918,61.31744,249.984726,-172.630295,0.280273,-1.08252,0.075195,33.760071,-133.857727,32.196045
0.158936,-1.781982,0.331299,53.75671,249.992355,-181.068405,0.25293,-1.081787,0.081787,30.067442,-147.705078,22.232054
0.262939,-1.93042,0.199951,31.143187,249.992355,-192.741379,0.241943,-0.718506,0.152344,9.58252,-123.680107,37.689209
0.217529,-1.931885,0.180664,2.304077,249.542221,-186.462387,0.404541,-1.176025,-0.016602,-9.941101,10.093688,-59.692379
0.023193,-0.595459,0.05127,14.85443,-154.754639,-101.318352,0.125488,-0.926025,0.09668,-43.624874,-64.956665,-56.068417
0.186035,-1.216797,0.133545,143.913269,-29.899595,-161.155685,0.455566,-1.06665,-0.083496,-11.596679,21.354673,-45.547482
0.006592,-0.526855,-0.031738,-8.834839,-180.366501,-99.800102,0.425781,-1.102051,-0.061279,19.096375,30.052183,80.825798
0.087402,-0.360107,-0.208008,-175.437912,169.189438,173.797592,0.417236,-1.141113,-0.058594,17.601013,41.770931,91.13311
0.124756,-0.497559,0.000488,-82.962029,-198.15062,-83.511345,0.376465,-1.192627,-0.047607,16.830444,52.795406,106.025688
-0.30127,-0.956055,-0.378174,-95.275871,122.924797,249.992355,0.346191,-1.260986,-0.023193,19.096375,60.142513,123.733513
-0.215576,-0.896729,-0.384033,-89.820854,112.998955,249.992355,0.33252,-1.306641,-0.002686,24.444578,64.468384,142.913818
-0.160889,-0.925049,-0.364746,-90.301506,99.281303,249.992355,0.323975,-1.32251,0.001709,30.540464,65.048218,162.513718
-0.166504,-0.965576,-0.319092,-93.65081,87.417595,249.992355,0.321533,-1.347656,-0.010742,36.819458,61.035152,181.442245
-0.218506,-1.027832,-0.297852,-102.897636,83.999626,249.992355,0.336914,-1.394531,-0.039551,45.127865,54.267879,200.073227
-0.260254,-0.990234,-0.307861,-113.601677,91.613762,249.992355,0.370605,-1.436523,-0.078125,54.031368,47.317501,217.277512
-0.218506,-0.862549,-0.356689,-117.84362,102.935783,249.793991,0.402344,-1.461914,-0.127686,62.469479,40.290829,230.65947
-0.197021,-0.809082,-0.406494,-127.738945,108.818047,249.992355,0.43042,-1.055664,-0.058594,20.156858,22.384642,72.532654
-0.253662,-0.848877,-0.413574,-150.772095,118.995659,249.992355,0.408691,-1.463135,-0.190186,68.954468,32.958984,240.623459
-0.361572,-0.841064,-0.457764,-174.804672,137.016296,241.882309,0.42041,-1.423828,-0.258301,76.774597,21.156309,249.93895
0.042725,-0.486328,-0.051514,-39.588928,-196.052536,-96.412651,0.44165,-1.37207,-0.29126,76.545715,21.171568,249.992355
-0.296631,-0.79541,-0.455322,-199.836716,159.408569,224.296555,0.465576,-1.324707,-0.30542,75.790405,27.847288,248.306259
0.352539,-1.776611,0.316162,-15.266418,249.793991,-182.39592,0.436279,-1.28833,-0.292969,77.484131,39.794922,243.522629
0.108643,-0.265869,-0.409424,-137.451172,149.589539,140.769958,0.382568,-1.258057,-0.256348,83.114616,51.033016,234.092697
0.11084,-0.393066,-0.563721,-126.556389,118.209831,123.802177,0.338135,-1.210205,-0.218018,90.49987,60.607906,220.57341
0.275879,-0.557129,-0.362061,-125.205986,74.546814,109.619133,0.316406,-1.143311,-0.185059,97.274773,69.770813,203.414902
0.454834,-0.704102,-0.111328,-126.121513,21.690367,88.24157,0.293213,-1.064941,-0.173584,102.767937,79.292297,182.64769
0.492432,-0.735352,-0.149658,-128.845215,-40.52734,60.394283,0.248291,-0.99585,-0.186035,107.032768,87.112419,159.950256
0.465088,-0.735596,-0.23999,-127.937309,-104.560844,14.839171,0.208496,-0.958252,-0.193848,111.2976,92.971794,135.452271
0.464844,-0.759766,-0.203857,-144.14978,-152.069092,-25.451658,0.411865,-1.450439,-0.230225,74.050903,25.619505,247.184738
0.397461,-0.663574,-0.06958,-148.132324,-180.458054,-52.36816,0.453857,-1.000488,-0.056885,20.317076,15.548705,64.994812
0.240723,-0.565674,0.003662,-126.113884,-192.970261,-67.520142,0.431885,-1.131592,-0.047363,-9.864807,14.953612,-51.86462
-0.075684,-0.610107,-0.289795,-202.690109,173.492416,208.412155,0.443115,-0.898193,-0.045898,17.501831,1.38092,52.795406
0.667725,-1.553711,0.482178,-13.946532,249.992355,-190.864548,0.442627,-0.946289,-0.056641,19.241333,8.079529,58.570858
0.185059,-1.116699,0.174805,151.573181,-57.640072,-162.284836,0.459473,-1.007324,-0.111816,-12.924193,26.283262,-38.330078
0.938965,-1.398926,0.53418,-24.185179,171.93602,-215.103134,0.429443,-0.984375,-0.111572,-12.985229,28.533934,-31.265257
0.261963,-0.871338,-0.513916,0.999451,-58.92944,125.427238,0.409424,-0.981445,-0.103516,-12.092589,28.388975,-25.016783
0.368652,-0.697266,-0.397217,17.456055,-96.481316,105.934135,0.406982,-1.003906,-0.10376,-9.422302,27.366636,-18.264771
0.410156,-0.675781,-0.32373,31.082151,-132.164001,79.193115,0.396484,-1.042725,-0.104736,-3.707886,24.909971,-10.726928
0.38501,-0.743164,-0.354736,28.808592,-161.003098,52.886959,0.369385,-1.0625,-0.104736,5.104064,18.859863,-2.868652
0.355469,-0.843994,-0.42627,11.436461,-183.555588,27.725218,0.313477,-1.024658,-0.108398,19.218445,-2.914428,12.08496
0.301025,-0.937012,-0.478516,-11.871337,-197.860703,2.555847,0.285645,-0.983398,-0.112305,23.071287,-15.823363,17.631531
0.182373,-0.967285,-0.468506,-25.93231,-204.215988,-18.2724,0.287598,-0.936768,-0.122803,25.650023,-28.381346,22.865294
0.033447,-0.92627,-0.365479,-22.865294,-208.09935,-31.814573,0.324463,-0.881104,-0.150146,26.992796,-38.223267,27.915953
-0.060059,-0.840576,-0.210205,-3.90625,-215.316757,-37.628174,0.340332,-1.057861,-0.110107,13.46588,9.284973,5.180358
-0.064697,-0.781738,-0.111572,17.837524,-222.930893,-36.727905,0.321289,-0.75415,-0.123779,25.024412,-51.727291,36.53717
0.248047,-1.150391,-0.48877,6.515502,-28.930662,135.650635,0.344482,-0.722168,-0.105713,23.468016,-57.418819,39.375305
-0.052979,-0.783691,-0.096924,29.258726,-227.302536,-28.564451,0.383057,-0.702148,-0.102295,20.851133,-58.090206,40.237423
-0.096924,-0.727295,-0.091309,50.971981,-229.14122,-7.194519,0.453369,-0.849121,-0.047363,16.204834,-6.996154,48.278805
-0.078125,-0.687012,-0.075195,73.21167,-226.974472,10.131835,0.394043,-0.703125,-0.095215,18.463135,-56.243893,41.15295
-0.005615,-0.693115,-0.05127,96.214287,-222.83934,31.883238,0.39917,-0.717041,-0.081787,17.471313,-53.443905,43.04504
0.068359,-0.730469,-0.031738,115.814201,-211.906418,60.897823,0.414551,-0.734375,-0.074463,17.707825,-48.995968,44.166561
0.141846,-0.788818,-0.049072,131.187439,-193.328842,98.731987,0.438721,-0.756592,-0.069824,17.662048,-40.977474,43.731686
0.206787,-0.86377,-0.085449,142.417908,-169.197067,139.427185,0.452393,-0.781006,-0.053467,17.044067,-29.693602,44.120785
0.278809,-0.976563,-0.143799,148.132324,-143.562317,176.383957,0.456543,-0.808594,-0.048096,16.311646,-17.662048,45.56274
0.352051,-1.116699,-0.219727,147.094727,-121.345512,211.067184,0.337891,-0.812988,-0.148926,26.55792,-44.692989,32.394409
0.433838,-1.255371,-0.296631,141.136169,-101.768486,240.22673,0.571045,-0.624756,-0.482178,-2.883911,-29.243467,8.117676
0.93335,-1.41626,0.574219,-8.628845,234.275803,-206.703171,0.613037,-0.652588,-0.504395,-2.685547,-13.740539,6.530761
-0.077393,-0.775146,-0.106445,36.231995,-229.843124,-18.890381,0.627197,-0.674805,-0.5354,0.656128,1.876831,5.226135
0.317139,-1.320068,-0.386719,37.506104,-7.034301,142.14325,0.686768,-0.656006,-0.656006,117.210381,89.538567,48.294064
0.538818,-1.391113,-0.373779,133.995056,-87.60833,249.992355,0.689941,-0.668213,-0.63501,22.90344,36.064148,7.80487
0.394775,-1.045898,-0.091064,76.194763,20.225523,146.888733,0.710449,-0.650635,-0.662598,48.881527,53.436275,16.929626
0.371826,-1.225586,-0.254395,70.823669,8.796692,146.55304,0.714355,-0.643799,-0.668701,80.863945,71.769714,31.318663
0.670654,-0.976563,0.500244,-59.509274,92.90313,-213.272079,0.54834,-0.59082,-0.470459,-0.961304,-41.961666,11.138915
0.600342,-0.795898,0.477539,-62.675472,69.496155,-202.659592,0.653809,-0.688232,-0.584229,7.583618,18.676758,4.814148
0.546631,-0.718018,0.506836,-62.225338,48.507687,-192.481979,0.546143,-0.562256,-0.467041,0.740051,-50.621029,12.603759
0.574219,-0.679443,0.544922,-60.096737,24.261473,-185.157761,0.499756,-0.431152,-0.609863,-1.770019,6.851196,33.470154
0.686279,-0.665527,0.524902,-59.42535,-3.242492,-179.351791,0.531738,-0.520508,-0.493652,-4.066467,-62.118526,8.331299
0.779785,-0.652344,0.425781,-62.423702,-34.805298,-168.136581,0.510254,-0.49585,-0.50415,-9.033203,-67.947388,5.752563
0.784424,-0.638184,0.324219,-64.613342,-71.357727,-150.32196,0.486084,-0.480713,-0.501709,-12.771605,-75.294495,4.402161
0.720459,-0.668457,0.288574,-60.005184,-108.245842,-131.80542,0.481201,-0.468506,-0.50708,-15.953063,-80.711357,3.082275
0.622314,-0.79126,0.267578,-56.930538,-133.44574,-117.576591,0.519043,-0.464355,-0.533447,-21.232603,-79.437256,0.709534
0.48584,-0.950439,0.226807,-65.231323,-138.412476,-104.286186,0.556396,-0.476563,-0.560791,-27.94647,-69.633484,-0.137329
0.783203,-1.233887,0.500732,-46.69952,124.52697,-217.208847,0.536133,-0.494141,-0.565918,-30.372618,-54.306026,4.776001
0.399658,-1.087891,0.2146,-81.031792,-125.640862,-87.417595,0.487061,-0.50415,-0.541992,-25.848387,-36.651611,14.22882
0.383057,-1.186035,0.208252,-96.839897,-104.682915,-64.933777,0.458008,-0.518799,-0.531006,-15.068053,-19.172668,24.04022
0.376709,-1.239014,0.189209,-107.040398,-82.176201,-35.53009,0.458252,-0.504639,-0.553711,-4.516602,-6.271362,30.34973
0.331543,-1.248291,0.187744,-104.637138,-61.096188,-5.073547,0.651123,-0.694336,-0.61084,158.416748,106.819145,66.894531
0.223633,-1.236084,0.184326,-91.323845,-40.115356,22.125242,0.540771,-0.547852,-0.477783,-0.267029,-57.014462,11.047362
0.116211,-1.187256,0.140625,-73.928833,-18.959045,48.202511,0.63916,-0.766357,-0.604248,193.168625,125.061028,87.562553
0.096924,-1.175293,0.087891,-56.396481,0.907898,71.388245,0.38623,-1.199219,0.401123,116.737358,-249.992355,-4.646301
0.144775,-1.175781,0.084961,-36.476135,17.776489,90.744011,0.538086,-0.91333,-0.590332,245.964035,139.915466,105.903618
0.195801,-1.133301,0.102051,-12.092589,26.702879,110.176079,-0.271484,-0.90918,0.084473,-98.243706,-136.161804,-123.39782
0.282227,-1.050293,0.093262,18.089294,28.739927,129.013062,0.541748,-0.383545,-0.650391,-6.515502,24.383543,35.675049
0.373291,-0.992676,0.034424,52.001949,27.015684,141.921997,-0.168213,-1.052246,0.054199,-127.716057,-242.546066,-83.404533
-0.501709,-1.259033,-0.779541,216.018661,141.838074,-122.474663,-0.113281,-1.184082,0.075928,-139.564514,-249.992355,-67.28363
-0.507324,-1.240723,-0.812988,220.619186,119.285576,-147.613525,-0.104248,-1.283447,0.127686,-143.005371,-249.992355,-51.895138
-0.468262,-1.20752,-0.834229,226.882919,95.870964,-172.981247,-0.070801,-1.32666,0.19043,-137.641907,-249.992355,-39.581299
-0.401611,-1.184082,-0.837646,230.773911,76.057434,-200.927719,-0.023438,-1.331055,0.255615,-124.313347,-249.992355,-33.340454
-0.391113,-1.0625,-0.888184,249.862656,-26.275633,-249.946579,-0.008789,-1.308594,0.301514,-104.911797,-249.992355,-31.98242
-0.384277,-1.141602,-0.890869,242.897018,42.442318,-249.374374,-0.00415,-1.233643,0.332764,-84.190361,-249.992355,-28.564451
-0.393799,-1.090576,-0.884766,249.992355,23.28491,-249.992355,0.03418,-1.158691,0.360352,-63.217159,-249.992355,-19.569397
-0.395508,-1.061523,-0.884766,249.992355,-0.495911,-249.694809,0.112061,-1.152832,0.398682,-37.460327,-249.984726,-14.160155
-0.378906,-1.163086,-0.870117,235.282883,58.998104,-227.889999,0.1875,-1.209961,0.43335,-3.128052,-249.992355,-16.204834
-0.473877,-1.246094,-0.737305,213.073715,162.910446,-99.235527,0.223633,-1.251709,0.436768,37.223816,-249.992355,-14.869689
-0.165283,-1.160889,-0.564209,155.784607,213.241562,-22.979734,0.272705,-1.241211,0.425537,78.147888,-249.465927,-8.773804
-0.346191,-1.285156,-0.703125,193.366989,190.521225,-58.685299,0.472412,-1.170654,0.359375,152.252197,-249.992355,0.480652
-0.29834,-1.266357,-0.683594,179.054245,199.813828,-45.623775,0.462646,-1.149658,0.343994,183.563217,-227.828964,15.853881
-0.250244,-1.235352,-0.644043,164.855942,208.755478,-34.385681,0.408936,-1.129639,0.354004,215.66008,-176.025375,39.558411
0.319092,-1.369141,-0.214355,100.860588,156.608582,29.899595,0.388184,-1.138916,0.364258,245.52153,-118.8507,64.399719
-0.06958,-1.121826,-0.496582,147.727966,209.838852,-10.841369,0.359375,-1.15625,0.313965,249.992355,-52.574154,91.041557
-0.005127,-1.094238,-0.446777,137.504578,202.468857,0.221252,0.346436,-1.155273,0.188721,249.992355,13.694762,118.057243
0.040039,-1.027832,-0.376465,132.659912,197.036728,9.300232,0.376465,-1.123779,-0.008545,249.862656,66.047668,137.001038
0.081055,-0.998047,-0.324463,130.92041,194.648727,14.717101,0.465576,-1.082031,-0.274414,249.80162,100.296013,132.270813
0.13623,-1.061279,-0.299072,123.214714,190.887436,20.172117,0.52417,-1.011719,-0.481934,249.992355,126.045219,112.213127
0.243896,-1.155762,-0.263184,114.395134,178.794846,26.100157,0.592773,-0.840088,-0.613525,220.611557,138.183594,102.493279
-0.274902,-1.158936,-0.893555,249.992355,-54.588314,-249.992355,-0.256592,-0.955566,0.067139,-111.175529,-194.633469,-101.417534
-0.425781,-1.267334,-0.713623,205.818161,179.412827,-77.201843,0.519287,-0.375488,-0.685059,-13.999938,36.941528,36.743164
-0.229736,-1.131104,-0.806152,249.992355,-82.649223,-249.992355,0.458252,-0.444336,-0.74292,-24.482725,51.124569,41.061398
0.249023,-0.610107,-0.042969,24.734495,-24.520872,-140.182495,0.245605,-0.550537,-0.487061,6.347656,-12.96234,31.921385
-0.031494,-1.301758,-0.396729,249.992355,-114.303581,-249.992355,0.225586,-0.626953,-0.476074,-7.492065,23.963926,28.388975
0.376709,-1.645264,-0.173584,78.315735,129.760742,26.786802,0.203857,-0.73877,-0.434326,-22.506712,56.251522,18.630981
-0.016846,-0.851563,0.18042,-189.804062,249.778732,46.714779,0.216064,-0.86084,-0.386475,-38.909912,86.898796,4.837036
0.004395,-0.746582,0.00415,-169.624313,249.992355,25.764463,0.262939,-0.976563,-0.318848,-54.702755,119.567863,-12.779235
0.020996,-0.664307,-0.038086,-149.894714,249.992355,6.958007,0.337646,-1.074707,-0.259521,-71.151733,145.698547,-33.042908
0.049072,-0.60083,-0.050049,-130.813599,238.815292,-11.276244,0.350342,-1.149902,-0.19751,-88.546745,158.607483,-55.14526
0.067383,-0.571289,-0.073975,-114.562981,220.260605,-27.511595,0.272705,-1.203125,-0.123779,-105.964653,158.424377,-79.696655
0.062012,-0.550781,-0.095947,-99.70092,200.66832,-42.182919,0.17749,-1.261475,-0.046631,-119.392387,149.406433,-101.058952
0.05957,-0.532227,-0.106445,-84.32769,179.565414,-56.564327,0.031494,-1.451904,0.116943,-113.43383,137.237549,-110.229485
0.084229,-0.523438,-0.10083,-67.649841,152.72522,-68.710327,0.242676,-0.522217,-0.479736,18.463135,-54.061886,28.625486
0.124268,-0.535645,-0.101074,-50.750729,118.957512,-78.582764,0.069092,-1.487549,0.122803,-101.364128,131.30188,-106.666557
-0.11084,-1.133301,-0.632568,249.992355,-100.631706,-249.992355,0.15625,-1.348877,0.060791,-97.251884,90.042107,-105.476372
0.159424,-0.555176,-0.10376,-33.493042,82.633965,-90.087883,0.095703,-1.315186,0.094482,-95.573418,59.036251,-101.577751
0.205811,-0.583496,-0.062256,4.074097,10.421752,-121.406548,0.012695,-1.344971,0.129639,-90.5075,28.877256,-94.818108
0.30542,-0.602783,-0.00415,51.002499,-59.539791,-162.178024,-0.039063,-1.413086,0.15332,-79.406738,5.126953,-84.762566
0.363525,-0.569336,0.050781,87.005608,-93.032829,-189.002975,-0.044434,-1.437012,0.156982,-64.079285,-8.575439,-72.692871
0.390137,-0.539551,0.108398,135.505676,-122.467033,-220.649704,0.03833,-1.360352,0.099854,-50.636288,-17.967224,-63.171383
0.386719,-0.545166,0.150146,198.844894,-146.995544,-246.185287,0.141846,-1.207031,0.037842,-45.425411,-31.440733,-60.455318
0.347168,-0.605225,0.155518,245.903,-164.413437,-249.992355,0.158447,-1.058105,0.054932,-46.82159,-45.707699,-60.791012
0.283691,-0.724854,0.064453,249.992355,-169.273361,-249.992355,0.137939,-0.966064,0.085205,-46.95892,-57.060238,-59.402462
0.191895,-0.924805,-0.110596,249.992355,-162.147507,-249.992355,0.474854,-0.399414,-0.721191,-20.835875,44.486996,38.642883
0.075684,-1.288574,-0.315674,249.992355,-148.605347,-249.992355,0.141113,-1.42334,0.074463,-96.855156,115.341179,-106.513969
0.029785,-1.471924,-0.355469,249.992355,-131.790161,-249.992355,0.227295,-0.550049,-0.459961,27.618406,-95.237724,19.508362
0.178711,-0.570557,-0.093262,-15.380858,46.218868,-104.682915,0.090088,-1.34668,0.036865,-121.864311,140.693665,-111.457817
0.418945,-1.87207,-0.208252,46.478268,101.34124,16.00647,0.29126,-0.67041,-0.501221,19.317627,-177.47496,-9.567261
-0.562012,-1.310303,-0.260742,-15.579223,-112.419121,3.15094,0.231689,-0.620605,-0.449463,27.717588,-134.902954,6.889343
0.400391,-1.890869,-0.223389,-7.225036,46.661373,-15.846251,0.443848,-0.506348,-0.774902,-24.559019,70.228577,48.545834
-0.194824,-0.480713,-0.488037,-120.140068,-169.212326,107.597343,0.42627,-0.532227,-0.77417,-26.138304,78.971863,52.917477
-0.187256,-0.612061,-0.358887,-93.009941,-202.819809,59.654232,0.40918,-0.580322,-0.764648,-25.665281,87.928764,57.472225
-0.223389,-0.735596,-0.149902,-57.937618,-230.812057,22.949217,0.415283,-0.631348,-0.759766,-21.171568,94.398491,59.722897
-0.292236,-0.862305,-0.133301,-32.516479,-247.886642,-12.130736,0.414307,-0.665527,-0.76416,-17.692566,96.321098,59.646603
-0.343018,-0.969238,-0.279785,-21.064756,-249.992355,-41.847225,0.387207,-0.69458,-0.763428,-16.815186,89.347832,56.510921
-0.369629,-1.035645,-0.338379,-12.916564,-249.992355,-61.119076,0.352295,-0.741455,-0.737793,-16.88385,73.493958,52.093502
-0.417969,-1.122559,-0.310059,-10.810851,-234.291061,-66.02478,0.326172,-0.783691,-0.714355,-17.982483,49.583431,45.341488
-0.486084,-1.179688,-0.260254,-8.06427,-207.199081,-61.141964,0.336182,-0.82251,-0.684326,-20.89691,20.584105,32.287598
-0.546387,-1.226318,-0.230713,-3.913879,-176.132187,-48.835751,0.3479,-0.876709,-0.626709,-21.40045,-8.682251,15.594481
-0.555176,-1.274414,-0.251709,-6.011962,-144.241333,-28.129576,0.446777,-0.487549,-0.756836,-24.818419,61.294552,44.754025
-0.250488,-0.37793,-0.496582,-147.758484,-129.806519,155.212402,0.29248,-0.921631,-0.503662,-6.29425,-67.207336,-15.022277
-0.570068,-1.340088,-0.239746,-27.404783,-80.894463,41.244503,0.22876,-0.9021,-0.508789,3.532409,-103.72924,-26.329039
-0.566162,-1.446777,-0.138672,-41.877743,-27.984617,112.030022,0.171143,-0.831055,-0.552734,8.140564,-152.893066,-39.588928
-0.606689,-1.531738,-0.076172,-49.995419,-3.623962,147.30835,0.151367,-0.755127,-0.587402,4.676819,-206.665024,-51.460262
-0.639404,-1.607178,-0.048828,-62.065121,23.803709,187.171921,0.140381,-0.742188,-0.565918,-0.534058,-244.110092,-56.083675
-0.653564,-1.627441,-0.038574,-74.699402,55.603024,228.63768,0.151367,-0.744629,-0.525635,0.061035,-249.916061,-54.88586
-0.611572,-1.589355,-0.081543,-86.082451,84.159843,249.244675,0.19873,-0.715332,-0.508301,6.011962,-249.595627,-50.628658
-0.562256,-1.45166,-0.181641,-93.536369,104.629509,249.992355,0.277588,-0.710938,-0.493652,13.015746,-249.992355,-41.267391
-0.53833,-1.311523,-0.238037,-96.93145,115.531914,249.992355,0.346436,-0.684814,-0.510986,15.892028,-248.840317,-33.668518
-0.48999,-1.239014,-0.266602,-100.791924,119.194023,249.992355,0.363525,-0.667725,-0.528076,15.129088,-218.68895,-25.650023
-0.425049,-1.173584,-0.310547,-102.294914,122.871391,249.992355,0.331299,-0.904541,-0.556152,-15.838622,-37.68158,-1.350403
0.434082,-1.951416,-0.236816,13.282775,73.677063,0.25177,0.016602,-0.682129,-0.680176,116.989128,33.050537,46.119686
-0.552246,-1.373779,-0.192627,-35.27832,-52.536007,77.934265,0.109131,-0.60791,-0.749268,109.893791,-17.616272,20.477293
-0.28125,-0.418945,-0.54248,-187.911972,-95.069878,183.647141,0.273193,-0.513916,-0.831543,120.185844,-60.905453,1.88446
-0.360352,-1.075195,-0.362793,-100.936882,125.587456,249.992355,0.268066,-0.528564,-0.764404,201.110825,-162.452682,23.765562
-0.325928,-0.839111,-0.67627,-225.73851,-74.272156,193.122849,0.414063,-0.449219,-0.907715,159.317017,-133.468628,-19.432068
-0.292236,-0.618164,-0.669434,-219.116196,-76.850891,193.069443,0.405273,-0.437988,-0.86499,179.580673,-158.668518,-15.968322
0.318604,-1.625244,-0.192627,-30.3421,-1.037598,-50.384518,0.345703,-0.476074,-0.797119,195.182785,-168.487534,1.075745
0.216309,-1.406738,-0.162109,-21.286009,-18.836975,-58.570858,0.208984,-0.599854,-0.724365,207.191452,-148.803711,43.258663
0.108154,-1.274902,-0.222656,-20.195005,-31.394957,-61.058041,0.361816,-0.474121,-0.886963,140.457153,-98.69384,-11.32965
0.039551,-1.205078,-0.261475,-31.547544,-37.68158,-65.788269,0.144287,-0.675537,-0.667236,128.044128,86.72332,71.937561
0.002197,-1.168213,-0.249023,-40.847775,-41.564938,-69.252014,0.384766,-0.530762,-0.790527,86.128227,95.436089,42.594906
-0.01123,-1.141113,-0.241699,-48.568722,-46.112057,-69.015503,0.436768,-0.509277,-0.819092,122.413628,150.260925,77.362061
-0.009033,-1.105713,-0.223145,-54.939266,-50.750729,-64.872742,0.445313,-0.460205,-0.828125,107.604973,148.902893,64.651489
-0.020752,-1.074219,-0.213379,-58.120724,-54.855343,-56.77795,0.438721,-0.471924,-0.820801,92.758171,128.311157,52.337643
-0.010986,-1.052979,-0.20752,-59.158321,-58.876034,-46.279903,0.345703,-0.635254,-0.764648,85.540764,58.761593,32.928467
0.01709,-1.058594,-0.204102,-60.913082,-61.714169,-33.103943,0.332764,-0.694092,-0.733398,82.550041,31.814573,25.55084
0.368896,-1.797363,-0.225098,-22.468565,20.957945,-33.729553,0.31543,-0.715088,-0.685059,81.565849,13.504027,20.042419
-0.000977,-1.136963,-0.242676,-80.390923,-60.676571,7.080078,0.274658,-0.706787,-0.633301,84.510796,1.266479,14.61029
0.026611,-1.175293,-0.232666,-94.467155,-62.70599,29.922483,0.266357,-0.670654,-0.611328,86.997978,-12.527465,7.278442
0.102783,-1.234863,-0.239502,-113.822929,-67.802429,51.933285,0.259277,-0.573486,-0.617432,82.908623,-28.167723,-3.952026
0.179688,-1.180664,-0.268311,-129.272461,-77.11792,69.908142,0.158691,-0.682129,-0.665283,210.166916,-127.693169,56.426998
0.236816,-1.068359,-0.270264,-132.720947,-89.50042,83.778374,0.237793,-0.497314,-0.634521,70.526123,-41.687008,-17.64679
0.194824,-1.072266,-0.297363,-135.032654,-100.730888,99.472038,0.352051,-0.619629,-0.747559,130.760193,129.074097,82.733147
0.029297,-1.178467,-0.378662,-149.810791,-104.843132,120.986931,0.121094,-0.77832,-0.577148,209.220871,-99.662773,65.193176
-0.161133,-1.248779,-0.490234,-177.413925,-98.57177,146.16394,0.125488,-1.274658,-0.006348,-82.328789,132.240295,-44.56329
-0.272705,-1.161865,-0.544678,-201.721176,-88.539116,171.356186,0.019531,-1.069336,-0.342529,195.205673,-42.381283,91.079704
-0.330078,-1.015869,-0.587402,-216.621384,-79.483032,188.346848,0.176758,-0.897217,0.078857,-150.733948,237.953171,-65.452576
0.013672,-1.100098,-0.225342,-68.450928,-61.637875,-14.823913,0.150635,-0.91748,0.060303,-151.687622,220.222458,-69.450378
0.292725,-0.973633,0.052979,-38.536072,-146.133423,50.47607,0.115479,-0.942871,0.047119,-149.925232,200.706467,-71.342468
0.506592,-0.964355,-0.24292,-73.539734,174.774155,-130.310059,0.084961,-0.972168,0.030518,-145.950317,180.480942,-70.602417
0.472168,-0.926514,-0.267822,-76.11084,213.104233,-136.138916,0.065674,-0.989014,-0.009766,-143.508911,161.170944,-68.252563
0.429688,-0.921387,-0.290771,-75.996399,245.39946,-140.625,0.063232,-0.987305,-0.054688,-144.813538,145.561218,-65.803528
0.24585,-1.199219,-0.384766,-32.463074,249.992355,-143.234253,0.093262,-0.981201,-0.053955,-145.263672,133.911133,-64.048767
0.368408,-0.973633,-0.333008,-68.412781,249.732956,-148.391724,0.140137,-0.987549,-0.00708,-141.571045,125.679008,-61.94305
0.344482,-1.017578,-0.364014,-61.393734,249.839767,-148.445129,0.150391,-1.007568,0.026855,-134.552002,120.62072,-56.709286
0.31665,-1.060059,-0.383545,-51.803585,249.992355,-146.446228,0.144531,-1.02417,0.0271,-126.251213,116.134636,-49.964901
0.282959,-1.114014,-0.387451,-41.458126,249.992355,-144.378662,0.091797,-0.909668,-0.471436,205.512985,-70.823669,76.576233
0.39624,-0.939209,-0.307617,-73.219299,249.992355,-145.141602,0.168213,-1.038086,0.026855,-118.286125,115.089409,-46.333309
0.542725,-1.04248,-0.230713,-69.908142,133.148193,-123.359673,0.207031,-1.14917,0.005859,-97.335808,131.637573,-49.301144
0.558838,-1.397461,-0.349854,-74.256897,-84.228508,-65.238953,0.016602,-1.452881,-0.039795,-65.475464,124.633781,-28.282164
0.618896,-1.314209,-0.288818,-72.593689,39.985657,-107.833855,-0.039551,-1.637451,-0.074951,-43.785091,115.112297,-2.27356
0.621094,-1.421631,-0.339844,-77.339172,-7.003784,-97.930901,-0.067383,-1.780518,-0.083252,-14.007567,111.869804,23.612974
0.59668,-1.446777,-0.365723,-79.162598,-49.308773,-83.221428,-0.093994,-1.819092,-0.10791,21.537779,117.027275,41.725155
0.528076,-1.327148,-0.315674,-65.826416,-110.824577,-46.882626,-0.098389,-1.726563,-0.109619,53.260799,118.080132,53.12347
0.535645,-1.271729,-0.273682,-60.272213,-129.257202,-29.144285,-0.127441,-1.572754,-0.099609,79.544067,104.942314,63.83514
0.53418,-1.221191,-0.216797,-57.182308,-142.356873,-11.07788,-0.182129,-1.437256,-0.144531,107.910149,76.248169,78.979492
0.485596,-1.158936,-0.144043,-52.963253,-152.297974,6.179809,-0.162842,-1.324463,-0.218018,140.472412,33.843994,93.765251
0.420166,-1.092773,-0.06543,-47.386166,-156.532288,22.346495,-0.087891,-1.209717,-0.254883,171.440109,-8.468628,99.090569
0.34668,-1.026123,0.000977,-41.893002,-154.396057,37.467957,0.208496,-1.074463,0.025391,-109.703056,122.184746,-47.447201
0.19873,-1.286865,-0.388184,-23.330687,249.992355,-144.40155,0.21875,-0.471191,-0.652344,56.243893,-50.872799,-31.204222
0.584717,-1.172119,-0.245605,-69.366455,87.631218,-115.432732,0.178223,-0.439453,-0.704102,33.638,-55.747982,-51.74255
0.151123,-1.365479,-0.385498,-13.427733,249.992355,-145.347595,0.166504,-0.4375,-0.710205,26.962278,-50.781246,-56.793209
0.111816,-1.297363,-0.313232,5.691528,174.270615,-131.225586,0.319824,-0.968506,-0.462158,-37.796021,-44.075008,-53.359982
0.073242,-1.48877,-0.345947,-1.770019,249.992355,-145.889282,0.355957,-0.915039,-0.457275,-43.838497,-51.856991,-61.378475
0.270996,-0.920654,0.104492,-36.636353,-133.872986,60.531612,0.314453,-0.888672,-0.395996,-47.111507,-65.055847,-68.54248
-0.099365,-0.940186,-0.086426,22.750853,128.883362,-121.398918,0.174316,-0.88623,-0.310547,-44.326778,-84.159843,-66.169739
-0.049072,-0.947021,-0.135498,22.705076,143.730164,-116.729729,0.157715,-0.799316,-0.325684,-45.837399,-103.759758,-65.02533
-0.023438,-0.97583,-0.174805,20.591734,155.426025,-113.983147,0.270996,-0.676758,-0.408936,-60.356136,-114.410393,-75.126648
-0.006348,-1.023926,-0.178223,17.089844,164.611801,-112.899773,0.348633,-0.665527,-0.390625,-74.012756,-107.749931,-90.446465
0.006592,-1.06665,-0.179932,13.916015,171.218857,-112.373344,0.38501,-0.721924,-0.311035,-77.842712,-84.159843,-96.199028
0.026611,-1.097656,-0.187988,11.95526,175.07933,-112.220757,0.303711,-0.712402,-0.31958,-82.466118,-43.823238,-100.45623
0.049072,-1.116455,-0.216064,10.734557,177.23082,-112.731926,0.312012,-0.638184,-0.337646,-94.558708,-4.936218,-115.882866
0.067627,-1.129639,-0.251465,9.712219,177.757248,-113.990776,0.344482,-1.014648,-0.471436,-36.270142,-44.456478,-54.748531
0.088379,-1.14917,-0.262695,9.132385,176.620468,-115.966789,0.286133,-0.619873,-0.313721,-110.214226,15.129088,-115.173332
0.110107,-1.428223,-0.364014,-5.210876,249.992355,-145.103455,-0.061523,-0.387207,-0.678711,-196.311935,-33.279419,-124.938957
0.100586,-1.177002,-0.262695,8.81958,174.33165,-118.667595,0.378906,-0.470459,-0.703857,-242.759689,-26.985167,-158.813477
0.123047,-1.258057,-0.290283,7.17163,171.501144,-126.586906,0.492188,-0.533936,-0.56958,-249.618515,37.918091,-152.259827
0.096436,-1.334961,-0.34082,4.135132,182.807907,-135.231018,0.52417,-0.730225,-0.180664,-249.992355,89.813225,-166.244492
0.080566,-1.37793,-0.361328,2.365112,196.876511,-137.47406,0.54126,-0.916992,0.089111,-235.664352,99.456779,-191.291794
0.056885,-1.4104,-0.375488,1.106262,216.705307,-138.557434,0.182373,-0.894775,0.278809,-168.968185,104.667656,-201.095566
0.032959,-1.429932,-0.38623,0.579834,240.745529,-139.205933,0.020508,-0.869385,0.30127,-123.092644,89.37072,-202.55278
0.026123,-1.46167,-0.389404,0.228882,249.992355,-140.396118,-0.003906,-0.835938,0.164063,-101.455681,42.610165,-196.784958
0.028564,-1.508789,-0.398438,-1.564026,249.992355,-142.662048,-0.074707,-0.833008,0.114014,-94.215385,-19.668579,-178.390488
0.031982,-1.549805,-0.391113,-4.02832,249.992355,-144.874573,-0.178955,-0.873291,0.096191,-93.330376,-80.055237,-150.924683
0.040527,-1.554688,-0.366211,-4.493713,249.992355,-146.858215,0.009277,-0.505615,-0.547852,-143.051147,-2.250671,-96.817009
0.052979,-1.533203,-0.342041,-2.487183,249.992355,-147.438049,0.408203,-1.035889,-0.509766,-39.672852,-54.077145,-62.370296
0.111572,-1.211426,-0.272217,8.415222,172.264084,-122.108452,0.195068,-0.452148,-0.678223,43.472286,-55.702206,-43.106075
0.269531,-0.845215,0.169678,-32.226563,-122.375481,67.230225,0.425049,-0.925537,-0.676514,-33.64563,-75.210571,-65.727234
-0.13208,-0.934326,-0.090088,22.071836,110.984795,-126.464836,0.144775,-0.454834,-0.679199,23.452757,-42.709347,-59.80682
0.277588,-0.63623,0.312256,0.144958,-106.231682,74.752808,0.102051,-0.471191,-0.625,23.658751,-36.727905,-62.492367
0.271973,-1.640137,-0.25,-37.994385,-249.992355,-16.952515,0.080566,-0.462891,-0.599609,26.283262,-38.642883,-66.734314
0.231445,-1.796631,-0.119629,-83.984367,-249.992355,-41.969296,0.097656,-0.413818,-0.629395,26.237486,-48.71368,-73.417664
0.016113,-1.825195,-0.056885,-123.458855,-249.992355,-26.260374,0.113525,-0.355957,-0.66333,23.66638,-60.493465,-80.558769
-0.323975,-1.760986,0.025879,-141.609192,-249.992355,9.979248,0.100098,-0.340332,-0.66748,22.041319,-70.831299,-85.731499
-0.461914,-1.821289,0.165527,-156.669617,-249.992355,41.069027,0.103516,-0.347656,-0.664795,25.886534,-76.812744,-88.714592
-0.448242,-1.871826,0.330811,-168.357834,-249.984726,79.734802,0.153076,-0.34668,-0.674316,36.392212,-75.653076,-90.026848
-0.443848,-1.753906,0.285889,-177.566513,-249.992355,103.546135,0.1875,-0.380859,-0.64917,52.947994,-68.061829,-90.492241
-0.50293,-1.516357,0.210449,-170.448288,-249.664291,110.03112,0.162109,-0.446777,-0.609863,75.561523,-63.873287,-89.279167
-0.653564,-1.443115,0.016602,-170.66954,-248.710617,122.795097,0.133789,-0.473877,-0.618896,99.517815,-75.492859,-87.776176
-0.886719,-1.428711,-0.113281,-189.041122,-249.992355,154.075623,0.469971,-0.979492,-0.60791,-41.40472,-67.939758,-67.649841
0.410156,-1.52124,-0.379395,0.282288,-249.992355,18.562317,0.181152,-0.527588,-0.763916,123.031609,-116.744987,-89.859001
-0.974854,-1.424805,-0.176025,-222.129807,-243.484482,190.277084,0.239014,-0.623779,-0.867432,120.529167,-127.235405,-92.376701
-0.865479,-1.194336,-0.145264,-249.969467,-24.688719,212.63884,0.289063,-0.744141,-0.958984,107.147209,-125.953667,-94.848625
-0.846436,-1.012695,-0.116943,-249.893173,80.00946,218.872055,0.322998,-0.862061,-1.020264,83.633415,-115.928642,-96.725456
-0.750488,-0.835693,-0.08252,-249.992355,172.653183,220.230087,0.338623,-0.956299,-1.017822,54.580685,-99.739067,-95.985405
-0.559082,-0.736816,-0.056641,-249.443039,239.883408,213.912949,0.370605,-1.02124,-0.952637,27.542112,-79.551697,-92.407219
-0.347656,-0.741943,0.000977,-241.828903,249.992355,200.798019,0.405273,-1.04834,-0.859863,7.217407,-61.370846,-87.882988
-0.182373,-0.833984,0.044434,-243.118271,249.992355,181.648239,0.363037,-1.047852,-0.756348,-4.53186,-53.344723,-81.207268
-0.058105,-0.937988,0.087402,-248.870834,249.992355,164.154037,0.286133,-1.026367,-0.655273,-11.19995,-57.456966,-70.236206
0.041748,-1.043945,0.161377,-249.992355,249.992355,146.240234,0.322754,-0.949463,-0.664551,-19.889832,-69.458008,-63.949581
0.032227,-1.025879,0.361084,-248.840317,249.992355,118.392937,0.139648,-0.468018,-0.675293,116.416924,-96.855156,-87.684624
-0.030273,-0.948975,0.390869,-217.460617,249.992355,79.200745,0.020752,-1.473877,-0.390625,-80.413811,249.992355,-3.27301
-0.923584,-1.339111,-0.15625,-245.910629,-142.089844,207.534775,2.634033,-0.506348,-0.642334,-89.599602,249.992355,-43.464657
0.592773,-1.523682,-0.463379,32.142639,-249.992355,42.472836,1.404541,-0.36084,-0.053955,-13.160705,228.858932,-70.388794
0.276611,-0.744629,0.250977,-20.805357,-113.471977,71.82312,0.38623,-0.72998,-0.2146,38.017273,95.6726,-59.204098
0.671143,-1.342529,-0.443848,115.486137,-249.992355,81.848137,0.44458,-0.719727,0.19873,-0.900268,188.117966,-34.660339
0.253662,-0.57373,0.316895,24.833677,-98.304741,74.241638,-0.195557,-1.21582,0.299072,27.633665,108.482353,4.02832
0.204346,-0.584717,0.266357,42.137142,-83.847038,68.519592,0.115723,-0.967529,0.321777,-12.451171,176.559433,-14.022826
0.154297,-0.6521,0.185303,45.669552,-57.342525,60.035702,0.428467,-0.713623,0.317383,-22.102354,200.065598,-36.972046
0.125732,-0.736572,0.104736,42.343136,-20.332335,56.480404,-1.349609,-1.369873,0.877441,-5.516052,146.67511,-9.69696
0.121582,-0.816406,0.037354,44.792171,21.705626,57.777401,-0.031006,-1.101563,0.179199,48.934933,41.824337,-27.748106
0.125244,-0.897949,-0.004883,50.743099,56.640621,58.700558,0.318848,-1.166748,0.024658,7.56073,106.986992,-10.749816
0.660156,-1.487793,-0.48999,72.555542,-249.992355,65.460205,0.198486,-0.780762,0.077393,25.154112,6.988525,8.262634
0.205811,-0.928711,-0.055664,57.304379,87.898247,59.059139,0.26123,-0.985352,0.018311,17.822266,56.922909,-7.080078
0.223877,-0.928711,-0.010986,71.739197,88.836662,58.273312,0.227783,-0.909668,0.036133,21.39282,39.520264,-3.379822
0.213379,-0.944336,0.026855,92.376701,83.70208,56.861874,0.206787,-0.840088,0.056396,23.208616,21.926878,1.88446
0.242188,-0.965332,-0.04834,109.65728,76.278687,57.197567,0.178467,-0.705811,0.085938,25.924681,-8.049011,16.891479
0.140625,-0.929932,-0.038574,52.894588,76.774597,58.723446,0.164063,-0.619629,0.090576,23.635862,-25.817869,26.542662
0.337158,-0.978516,-0.149658,135.688782,36.567688,58.746334,0.170898,-0.550293,0.097656,19.050598,-42.869564,36.407471
0.306396,-0.972412,-0.188721,145.088196,6.958007,60.165401,0.209961,-0.496094,0.110107,12.847899,-51.956173,45.150753
0.234131,-0.963135,-0.22876,152.153015,-16.403198,64.849854,0.259277,-0.411377,0.11499,2.761841,-51.74255,54.275509
0.192139,-0.961914,-0.247559,156.333923,-33.01239,73.860168,0.335938,-0.326416,0.08667,-12.008666,-41.168209,64.613342
0.174561,-0.94165,-0.260742,159.606934,-47.279354,85.494987,0.439453,-0.862549,0.11377,19.866943,167.541489,-33.424377
0.179199,-0.896484,-0.267578,167.26683,-62.919613,96.389763,0.290771,-1.060547,-0.000732,13.923644,74.050903,-9.422302
0.237549,-0.892822,-0.30249,175.704941,-85.891716,102.60009,0.506592,-0.934814,0.049805,29.563902,141.838074,-38.360596
0.323975,-0.956787,-0.364502,175.956711,-122.077934,99.433891,0.128906,-1.522949,-0.189941,107.77282,196.411118,-50.338741
0.437256,-1.056152,-0.397705,164.947495,-180.290207,91.499321,0.562256,-0.818359,-0.217041,47.386166,60.256954,-48.683163
0.575195,-1.176514,-0.395996,146.697998,-239.776596,86.700432,0.255127,-1.231934,0.248535,-199.058517,-249.832138,63.415524
0.297363,-0.974609,-0.126221,123.428337,61.729427,58.357235,0.371826,-1.309326,0.309082,-196.25853,-249.992355,56.762691
0.561768,-1.354004,-0.136963,-0.343323,-249.992355,122.245781,0.456787,-1.403564,0.377441,-186.614975,-238.601669,48.538204
0.625488,-1.397705,-0.18335,-11.032104,-249.992355,108.039848,0.481201,-1.513916,0.418701,-168.365463,-191.490158,37.506104
0.678467,-1.418701,-0.235107,-18.730164,-249.900803,91.178886,0.485352,-1.62793,0.426758,-138.145447,-155.258179,28.45001
0.688477,-1.40332,-0.262695,-23.315428,-246.673569,71.586609,0.528809,-1.743652,0.469482,-91.705315,-128.349304,30.616758
0.485352,-0.693848,-0.152832,-40.008545,-88.432304,-28.640745,0.583252,-1.736328,0.442383,-39.199829,-87.85247,43.731686
0.665039,-1.198242,-0.246338,-26.428221,-200.881943,33.859253,0.647705,-1.598633,0.300049,4.943848,-25.611876,49.964901
0.620117,-1.031494,-0.214355,-27.8244,-167.205795,14.335631,0.676514,-1.425293,0.142334,30.075071,48.103329,41.351315
0.548584,-0.841553,-0.188965,-31.455992,-128.65448,-6.317138,0.682617,-1.309326,0.006836,33.981323,117.485039,19.920349
0.681396,-1.328857,-0.268799,-25.566099,-228.858932,52.093502,0.559326,-0.902344,-0.073975,35.736084,105.522148,-43.449398
0.501221,-1.273438,-0.125977,15.228271,-246.223434,135.810852,0.675537,-1.32251,-0.130371,31.867979,180.862411,-13.679503
0.416504,-0.993408,-0.398193,102.210991,-134.44519,114.959709,0.462402,-0.315674,0.015625,-32.798767,-11.360168,77.003479
0.410889,-1.124268,-0.175049,55.313107,-213.836655,161.430344,-0.421875,-1.472656,-0.286377,171.760544,116.806023,-72.158813
0.375488,-1.078857,-0.23877,71.723938,-193.763718,171.226486,-0.699463,-1.294678,-0.691406,230.758652,15.518188,-116.958611
0.331787,-1.062988,-0.285645,83.991997,-172.721848,178.306564,-0.556885,-1.0625,-1.237793,240.142807,-46.501156,-117.919914
0.298096,-1.056396,-0.321533,93.833916,-151.618958,183.28093,0.006836,-0.783203,-0.969971,166.931137,-104.881279,-68.817139
0.275391,-1.046631,-0.351074,101.356499,-131.248474,185.012802,0.277344,-0.788818,-0.397461,143.028259,-124.839775,-62.522884
0.260254,-1.022705,-0.374756,107.192986,-114.021294,184.211716,0.342773,-0.7771,-0.327637,127.288811,-108.192436,-59.364315
0.249756,-0.991699,-0.382568,112.785332,-102.294914,178.062424,0.449951,-0.758301,-0.307129,110.984795,-76.652527,-60.096737
0.273438,-0.969971,-0.393799,117.362968,-97.732536,166.175827,0.502686,-0.744873,-0.336914,89.698784,-33.958435,-58.448788
0.338623,-0.97168,-0.4104,117.111198,-102.127068,150.718689,0.537354,-0.758057,-0.316162,66.825867,12.756347,-54.092403
0.390869,-0.992188,-0.411377,110.855095,-115.219109,133.293152,0.564941,-1.441406,-0.19458,53.817745,215.919479,-41.90826
0.411377,-0.598145,-0.132568,-50.842281,-49.949642,-52.040096,0.643311,-0.404297,0.025879,-53.611752,43.579098,85.983269
0.442627,-1.189941,-0.134033,35.15625,-232.002243,149.345398,0.310547,-1.125732,-0.001709,10.795592,90.675346,-10.665893
0.354736,-0.5354,-0.134766,-62.812801,-15.914916,-72.303772,0.78833,-0.592529,0.110596,-73.58551,184.585556,75.828552
0.59668,-1.483887,-0.384277,-53.63464,177.398666,-168.65538,0.277832,-0.867432,-0.04834,29.861448,29.273985,121.681206
0.317139,-0.549316,-0.122559,-90.888969,33.073425,-110.572807,0.274902,-0.823975,-0.048828,22.14813,37.315369,104.660027
0.405273,-0.938965,-0.373047,98.167412,-154.754639,97.068779,0.271729,-0.784668,-0.03833,13.404845,47.645565,87.501518
0.280762,-1.118652,-0.212402,-66.207886,249.992355,-159.606934,0.254639,-0.753662,-0.025879,4.66156,58.685299,70.716858
0.291748,-1.193359,-0.224121,-65.872192,249.786362,-165.397629,0.228027,-0.723389,-0.010742,-3.684997,69.526672,54.412838
0.230225,-1.245605,-0.260742,-66.093445,249.992355,-168.457016,0.212891,-0.692383,-0.005371,-12.351989,81.321709,37.712097
0.206055,-1.247314,-0.281006,-61.06567,249.992355,-172.43956,0.212158,-0.662598,-0.000732,-22.521971,95.42083,21.987913
0.26001,-1.261475,-0.280273,-48.477169,238.349899,-176.170334,0.211426,-0.644531,0.010254,-34.362793,111.946098,8.575439
0.334717,-1.323975,-0.291748,-37.208557,214.813217,-178.291306,0.202393,-0.629639,0.0354,-57.823177,147.399902,-12.557982
0.393555,-1.398193,-0.316162,-31.47888,190.368637,-178.87114,0.215088,-0.629883,0.037842,-69.236755,167.503342,-20.568846
0.404541,-1.458008,-0.339355,-27.801512,170.776352,-175.857529,0.286133,-0.905762,-0.04248,36.621094,24.131773,137.916565
0.388916,-1.518066,-0.359863,-24.765013,162.261948,-172.325119,0.216797,-0.631592,0.040527,-81.787102,189.125046,-26.580809
0.327148,-0.52417,-0.134277,-76.23291,11.650084,-91.278069,0.216309,-0.658447,0.069092,-103.889458,228.775009,-38.192749
0.388428,-1.604004,-0.397705,-28.808592,162.979111,-169.235214,0.233643,-0.659424,0.081543,-112.80822,244.689926,-42.938229
0.517578,-1.599609,-0.426514,-48.156734,175.018295,-168.487534,0.234131,-0.671631,0.084961,-122.947685,249.992355,-46.630856
0.622559,-1.331055,-0.376465,-59.600826,173.721298,-165.748581,0.223389,-0.701172,0.09375,-131.782532,249.992355,-49.22485
0.608154,-1.213623,-0.408936,-69.244385,162.803635,-164.588913,0.207764,-0.749512,0.109863,-137.390137,249.992355,-50.994869
0.602539,-1.149902,-0.401123,-83.45031,148.384094,-169.074997,0.200439,-0.797119,0.117432,-140.144348,249.977097,-53.497311
0.625244,-1.102295,-0.35498,-101.432793,133.850098,-175.254807,0.196289,-0.834473,0.120361,-141.746521,249.816879,-56.52618
0.609863,-1.034424,-0.299561,-118.934624,120.292656,-175.811752,0.197021,-0.853271,0.114502,-144.256592,249.992355,-58.898922
0.548096,-0.928467,-0.244385,-129.302979,105.62896,-168.457016,0.185547,-0.873047,0.096924,-147.758484,249.992355,-61.18774
0.495117,-0.820313,-0.182129,-129.173279,88.417046,-157.318115,0.754395,-0.485596,0.074951,-66.337585,113.342278,83.381645
0.424561,-0.717041,-0.143555,-120.62072,70.266724,-143.638611,0.207275,-0.644287,0.047852,-94.230644,210.189804,-32.37915
0.356201,-0.621094,-0.122559,-106.697075,51.902767,-128.173828,0.305664,-0.947021,-0.046143,43.502804,21.545408,152.832031
0.437744,-1.643799,-0.431641,-39.1922,168.853745,-167.884811,0.201172,-0.633057,0.025879,-46.394344,129.318237,-2.952575
0.356934,-0.865234,-0.356689,102.752678,-171.798691,77.262878,0.337891,-1.065674,-0.017578,55.381771,22.422789,178.695663
-0.191162,-0.886475,-0.109863,-29.502867,-94.802849,-92.178337,0.85376,-0.781982,0.162598,-77.270508,239.746078,70.709229
0.381592,-0.880371,-0.335205,119.422905,-226.142868,34.645081,0.31958,-1.006348,-0.044189,49.934383,21.476744,166.213974
0.29248,-0.927734,0.104492,-146.125793,-86.273186,136.131287,0.748535,-1.21875,0.267334,-65.063477,249.992355,74.768066
0.245605,-0.854248,0.13623,-128.929138,-109.428398,114.349358,0.690186,-1.451172,0.318115,-49.858089,249.992355,76.446533
0.212158,-0.816895,0.181885,-111.1679,-128.692627,91.430656,0.61084,-1.70459,0.39209,-33.569336,249.992355,80.314629
0.170654,-0.817139,0.219482,-93.414299,-144.874573,67.520142,0.49292,-1.922607,0.462402,-18.470764,249.870285,88.562004
0.113037,-0.855957,0.228516,-79.162598,-157.287598,42.755123,0.371826,-1.982666,0.484619,-5.020141,249.603256,100.761406
0.049316,-0.918457,0.193359,-70.129395,-163.574203,18.39447,0.287598,-1.892822,0.425537,2.433777,249.992355,112.373344
-0.013916,-0.971191,0.099609,-66.467285,-161.903366,-7.965087,0.252441,-1.757324,0.352295,5.432128,247.154221,123.039238
-0.085205,-1.019287,-0.007568,-66.947937,-151.359558,-34.637451,0.209717,-1.668457,0.318115,11.993407,214.431747,133.544922
-0.150391,-1.018799,-0.069824,-63.919064,-133.613586,-57.28912,0.150879,-1.630615,0.294434,22.018431,178.512558,149.299622
-0.187256,-0.944824,-0.0979,-49.858089,-113.616936,-75.897217,0.853516,-1.00708,0.227295,-74.737549,249.992355,71.228027
0.348389,-1.047363,0.092529,-161.552414,-58.952328,156.669617,0.416748,-1.1875,0.023193,64.537048,27.549742,200.454697
0.307373,-0.826172,-0.336914,112.43438,-192.970261,57.250973,0.16333,-1.495117,0.247559,42.755123,108.871452,183.876022
-0.190186,-0.988525,-0.06543,-14.213561,-68.603516,-119.49157,0.224365,-1.429443,0.226074,49.987789,85.899345,196.571335
-0.206299,-1.044678,-0.048584,-13.938903,-57.548519,-128.921509,0.288574,-1.349121,0.19043,53.657528,70.976257,203.132614
-0.232422,-1.05835,-0.020996,-11.100768,-45.272823,-134.887695,0.340088,-1.271484,0.132568,52.955624,60.157772,206.33696
-0.242432,-1.015137,0.009033,-2.052307,-32.798767,-138.969421,0.361816,-1.213379,0.0896,52.268978,51.200863,208.877548
-0.188721,-0.922119,0.005127,11.421203,-20.782469,-141.654968,0.378906,-1.195068,0.07251,54.954525,42.930599,210.960373
-0.114502,-0.844482,-0.071289,22.666929,-8.293152,-141.769409,0.399658,-1.208008,0.060791,60.18066,36.254883,210.327133
-0.09668,-0.831299,-0.132813,27.19116,6.156921,-140.762329,0.413574,-1.213379,0.047852,64.186096,31.776426,207.015976
-0.112793,-0.847656,-0.143066,27.809141,23.643492,-139.862061,0.380859,-1.12915,0.004639,60.966488,24.024961,190.620407
-0.131836,-0.869141,-0.137451,27.06146,44.158932,-138.267517,0.128906,-1.560303,0.26709,32.76062,141.967773,167.549118
-0.147461,-0.898193,-0.131104,25.077818,66.688538,-135.261536,0.13623,-0.818359,-0.102783,56.732174,-44.021603,41.442867
-0.186035,-0.918701,-0.091553,-17.097473,-80.001831,-106.872551,0.135742,-0.893066,-0.07959,57.66296,-48.866268,47.042843
0.389893,-1.181641,0.082031,-172.630295,-25.42877,178.031906,0.140625,-0.97998,-0.073486,57.144161,-45.82214,53.535458
-0.144531,-0.920654,-0.114746,22.949217,89.836113,-131.256104,0.143799,-1.072754,-0.061035,55.091854,-37.773132,58.486935
0.38916,-1.346436,0.038086,-175.277695,61.767574,216.552719,0.031494,-1.150879,-0.184814,80.169678,0.358582,-67.169189
0.405029,-1.289307,0.060547,-176.895126,15.968322,199.058517,0.019043,-1.164307,-0.062988,45.043941,20.13397,55.793758
0.529785,-1.021484,-0.412598,108.505241,-249.084457,11.177062,0.066406,-1.200439,-0.115723,25.413511,73.539734,36.224365
0.481201,-1.038574,-0.432129,91.781609,-249.992355,-5.53894,0.164307,-0.779297,-0.133057,56.144711,-31.929014,35.652161
0.347168,-0.930176,-0.380859,89.591972,-249.992355,-22.544859,0.291748,-1.165771,-0.129639,4.348755,117.515556,10.856627
0.343506,-0.81958,-0.336426,97.503654,-249.992355,-45.295712,0.106689,-1.118408,-0.027588,52.505489,-19.40155,60.997005
0.441406,-0.799805,-0.327393,97.412102,-249.992355,-67.497253,0.178467,-0.786865,-0.125244,58.486935,-14.625548,29.762266
0.511963,-0.789307,-0.350098,88.882439,-249.977097,-81.504814,0.163818,-0.634766,-0.252686,62.133785,26.626585,-11.314391
0.174072,-0.572754,-0.201904,128.78418,-249.80162,-135.3302,0.147705,-0.770508,-0.13916,67.832947,11.924743,23.483274
0.232422,-0.659424,-0.154053,162.139877,-248.634323,-188.285812,0.145508,-0.722656,-0.172852,70.343018,18.203735,17.593384
0.255615,-1.034668,-0.086914,146.0495,-249.992355,-214.431747,0.139648,-0.664063,-0.203125,69.625854,21.606443,9.544373
-0.11377,-1.417969,-0.024658,72.570801,-248.687729,-139.892578,0.143311,-0.630127,-0.231689,66.169739,24.101255,0.244141
0.390381,-0.68335,-0.292236,95.382683,-249.992355,-101.455681,0.202148,-0.682373,-0.260986,60.844418,29.602049,-25.672911
-0.991943,-1.207275,-0.288574,-38.94043,-55.587765,64.64386,0.199951,-0.755615,-0.264648,62.400814,33.01239,-37.651062
-0.693848,-1.181885,-0.193604,-61.370846,31.318663,116.950981,0.157959,-0.825195,-0.276367,64.628601,33.004761,-46.516415
-0.472656,-1.181396,-0.262207,-80.505363,98.220818,152.496338,0.105957,-0.911621,-0.274902,67.512512,25.856016,-54.38995
0.324707,-1.339355,-0.001465,-171.607956,107.742302,228.569016,0.062256,-1.031006,-0.240479,72.608948,13.900756,-60.951229
-0.38916,-1.24585,-0.283447,-108.451836,145.965576,177.253708,0.518066,-1.131104,-0.098633,-2.990722,138.35144,-5.943298
-0.294678,-1.285645,-0.28418,-133.216858,178.1082,200.805649,0.150635,-0.791992,-0.114502,62.927242,1.914978,27.328489
-0.183594,-1.293701,-0.254395,-151.641846,194.503769,219.284042,0.517334,-1.116211,-0.166748,-10.398864,156.852722,-11.482238
-0.048828,-1.288574,-0.205811,-162.063583,195.411667,231.803879,0.37085,-0.975098,-0.030762,-12.344359,-151.527405,92.552177
0.086914,-1.291504,-0.151611,-167.007431,179.550156,237.304672,0.649902,-1.032715,-0.141602,-31.684874,189.064011,-2.677917
0.218506,-1.310059,-0.074219,-169.235214,148.994446,235.275253,0.009033,-1.240723,-0.135498,86.34185,-14.068603,-73.33374
-0.776367,-1.370605,-0.187256,1.342773,-155.960083,-20.523069,0.379883,-0.912354,-0.033691,-11.825561,-166.610703,99.411003
0.166016,-0.823486,0.045898,77.011108,-105.445854,190.58989,0.300537,-0.851318,-0.00708,-11.215209,-189.903244,106.979362
0.15332,-0.829346,0.062012,61.271664,-94.688408,197.113022,0.30957,-0.835205,0.018066,-9.460449,-218.673691,109.962456
0.149414,-0.785889,0.058105,49.507137,-98.472588,201.850876,0.432373,-0.822021,0.039551,-4.364014,-228.355392,105.667107
0.10791,-1.206543,-0.005127,-8.895874,-249.992355,198.326096,0.479248,-0.803223,0.036865,-0.50354,-217.376694,103.218071
0.120361,-0.844971,0.118164,20.507811,-144.569397,210.23558,0.498535,-0.8125,0.040771,3.959656,-199.317917,102.233879
0.109375,-0.956787,0.101318,2.471924,-183.563217,210.205063,0.508789,-0.831055,0.042725,9.109497,-178.192123,101.776115
0.109863,-1.09082,0.050537,-8.422852,-229.980453,206.748947,0.506836,-0.8479,0.042725,13.420104,-153.48053,102.500908
0.221191,-0.793213,0.000732,98.098747,-127.838127,179.458603,0.510742,-0.866211,0.029785,17.074585,-125.572197,103.591911
0.131104,-0.787598,0.088379,36.964417,-116.065971,206.32933,0.527588,-0.879395,0.000977,19.340515,-94.528191,105.506889
0.282471,-0.798828,-0.041748,115.722649,-157.821655,163.345322,0.533203,-0.88916,-0.032227,20.286558,-60.661312,110.435478
0.10791,-1.071777,-0.20874,121.292107,-249.992355,41.610714,0.532227,-0.88501,-0.078125,18.257141,-25.581358,116.004936
0.272461,-0.901123,-0.141602,127.990715,-226.295456,126.907341,0.354492,-1.039063,-0.001465,-12.977599,-138.86261,85.83831
0.228516,-0.94043,-0.176758,124.687187,-248.229965,110.458366,0.531494,-0.866211,-0.121094,11.070251,11.688231,121.109001
0.196777,-0.925049,-0.208496,124.977104,-249.992355,97.06115,0.560791,-0.851074,-0.127441,1.701355,52.276608,122.993462
0.17749,-0.934326,-0.254395,128.456116,-249.992355,85.380547,0.573486,-0.848633,-0.098633,-4.173279,93.063347,120.376579
0.143066,-0.97583,-0.294434,127.449028,-249.992355,74.676514,0.474121,-0.831055,-0.078369,-7.347106,120.628349,116.83654
0.123535,-0.985596,-0.285645,121.788017,-249.992355,65.628052,0.313721,-0.789307,-0.095947,-13.580321,123.191826,110.115044
0.12207,-0.983154,-0.273682,117.980949,-249.992355,58.525082,0.292725,-0.735107,-0.106689,-22.15576,107.200615,92.39196
0.121094,-1.008789,-0.269775,118.003838,-249.992355,52.841183,0.517334,-0.723389,-0.048096,-31.204222,100.418083,62.294003
0.118652,-1.050049,-0.247559,119.064323,-249.992355,47.035213,0.822998,-0.848145,-0.007813,-40.283199,120.99456,33.409119
0.114502,-1.291504,-0.06665,-0.87738,-249.992355,185.462936,0.833984,-1.029541,-0.085938,-37.734985,162.254318,11.718749
0.302002,-0.838135,-0.084229,125.633232,-191.535934,145.065308,0.518311,-1.064453,-0.203369,-24.635313,180.671677,-9.83429
0.122803,-1.370117,-0.175049,12.039184,-249.511703,170.089706,0.006104,-1.284912,-0.103027,87.47863,-27.458189,-79.269409
0.972656,-0.941895,-0.529297,-78.62854,123.886101,30.639647,0.226074,-0.941406,-0.171631,-5.973815,57.891842,-6.225585
0.360107,-1.510254,-0.524902,54.191586,-249.992355,125.541679,0.028076,-1.294434,-0.114014,80.13916,-47.790524,-87.509148
0.114258,-1.081055,-0.173096,126.876823,-249.992355,37.834167,0.258301,-0.742676,0.179932,-40.184017,126.319878,-45.875546
0.15332,-1.479004,-0.20752,-142.181396,249.992355,-209.465012,0.277588,-0.775635,0.165771,-32.470703,146.469116,-36.430359
0.170898,-1.375488,-0.230957,-143.257141,249.992355,-197.204575,0.290527,-0.814209,0.149414,-25.199888,165.00853,-28.495787
0.237061,-1.279053,-0.260742,-143.028259,249.992355,-184.074387,0.289795,-0.870605,0.126953,-16.593933,177.627548,-22.087095
0.297363,-1.203613,-0.307861,-145.401001,249.992355,-167.930588,0.276367,-0.937744,0.104248,-6.210327,181.00737,-17.799377
0.321045,-1.128418,-0.363037,-149.177551,249.992355,-149.765015,0.266602,-1.004395,0.062744,4.119873,174.156174,-14.442443
0.355957,-1.071533,-0.429199,-154.586792,249.977097,-131.072998,0.260986,-1.0354,-0.004395,10.772704,158.287048,-12.199401
0.401611,-1.016602,-0.489746,-159.545898,249.992355,-110.488884,0.254883,-0.995605,-0.083984,10.169982,134.239197,-13.107299
0.468506,-0.946777,-0.527344,-160.812363,249.992355,-86.959831,0.236328,-0.946045,-0.13623,3.112793,100.784294,-11.497497
0.531738,-0.865967,-0.530029,-155.036926,249.092087,-62.370296,0.185547,-0.945557,-0.200439,-16.326904,4.859924,-6.378173
0.19043,-1.44751,-0.33667,30.487059,-249.992355,149.734497,0.247803,-0.721924,0.17334,-46.173092,105.827324,-56.922909
0.615234,-0.812012,-0.537354,-141.975403,249.992355,-38.314819,0.075439,-0.94165,-0.196777,-29.975889,-61.019894,-0.518799
0.877686,-0.882568,-0.540771,-106.025688,210.533127,6.408691,0.044678,-0.794434,-0.158936,-73.417664,-174.57579,6.492614
1.044189,-0.970703,-0.526367,-37.643433,26.634214,51.750179,-0.024658,-0.757324,-0.148193,-96.847527,-222.694382,6.004333
1.107178,-1.011963,-0.612305,10.040282,-96.916191,67.390442,-0.081543,-0.788574,-0.083496,-111.991875,-249.04631,14.434813
1.133789,-1.039063,-0.746826,52.650448,-222.106918,76.728821,-0.150146,-0.798584,-0.026855,-125.328056,-249.992355,28.900145
1.130371,-1.030762,-0.834961,87.844841,-249.992355,77.178955,-0.206055,-0.832764,0.0271,-138.076782,-249.992355,40.084839
1.106445,-1.084961,-0.88916,116.928093,-249.992355,77.23999,-0.199463,-0.871094,0.068848,-150.230408,-249.992355,44.067379
1.087402,-1.210449,-0.889404,134.674072,-249.992355,78.109741,-0.170898,-0.898193,0.096436,-164.825424,-249.992355,47.302242
0.981934,-1.379395,-0.879883,135.070801,-249.992355,82.015984,-0.078613,-0.991943,0.14209,-179.771408,-249.992355,51.49078
0.797363,-1.503662,-0.833984,115.562431,-249.992355,89.454643,0.024658,-1.104736,0.196777,-190.567001,-249.992355,59.570309
0.575928,-1.55957,-0.706787,83.831779,-249.992355,102.966301,0.013184,-1.293213,-0.098877,85.029594,-38.314819,-84.808342
0.740479,-0.817627,-0.539063,-125.038139,249.992355,-15.838622,0.05542,-0.88208,-0.17334,-49.591061,-124.877922,8.094788
0.157227,-1.087891,-0.139404,136.962891,-249.916061,35.621643,0.264404,-0.681396,0.176514,-50.97961,84.609978,-67.947388
0.179443,-1.578369,-0.187744,-137.245178,249.992355,-220.130905,0.13501,-1.179199,0.23291,-196.960434,-249.664291,65.956116
0.196533,-1.119385,-0.127197,150.306702,-249.816879,35.667419,0.283691,-0.717529,0.15625,-43.30444,46.607967,-82.237236
-0.598877,-0.781982,-0.110352,-3.112793,-37.895203,19.645691,0.261719,-0.663086,0.149902,-48.416134,65.841675,-76.248169
-0.599609,-0.709717,-0.128174,6.027221,15.121459,26.115416,0.097412,-1.253906,-0.088379,69.038391,-64.064026,-86.936943
-0.568848,-0.655273,-0.145752,17.456055,67.481995,31.372068,0.135986,-1.224365,-0.067383,61.31744,-70.968628,-85.052483
-0.521973,-0.654053,-0.165283,25.573729,117.927544,35.644531,0.167236,-1.192139,-0.05835,52.085873,-76.148987,-82.778923
-0.469238,-0.704834,-0.162598,26.779173,164.428696,38.131714,0.197754,-1.164307,-0.041992,42.709347,-80.413811,-79.75769
