ax,ay,az,gx,gy,gz,ax,ay,az,gx,gy,gz
0.44873,-0.887451,-0.038086,-106.536858,-122.238152,-39.894104,0.200928,-0.76123,0.07666,-14.457702,-140.7547,84.190361
0.136475,-1.022705,0.032959,-50.216671,-103.668205,22.712706,0.23291,-0.815918,0.083008,-17.082214,-127.342216,81.581108
0.154053,-1.05542,-0.008057,-66.848755,-113.220207,14.518737,0.272705,-0.871582,0.093506,-20.538328,-118.545525,79.50592
0.175537,-1.082275,-0.040527,-80.711357,-122.604362,7.202148,0.17749,-0.712158,0.075195,-12.054442,-155.593872,88.226311
0.193848,-1.088867,-0.060547,-91.224663,-130.966187,0.167847,0.292969,-1.324707,0.100098,-31.394957,25.924681,41.694637
0.123535,-0.990723,0.063721,-32.88269,-94.734184,31.776426,0.4104,-1.053955,-0.219482,18.188477,102.058403,-35.690308
0.239014,-1.049072,-0.061279,-104.080193,-143.119812,-13.839721,0.42749,-1.042236,-0.194336,-0.228882,111.572258,-26.954649
0.277832,-1.006592,-0.044922,-107.536308,-144.805908,-20.828245,0.430908,-1.089844,-0.140625,-16.624451,115.730278,-17.341614
0.347656,-0.952881,-0.04248,-108.985893,-141.540527,-27.923582,0.424072,-1.181885,-0.082764,-27.481077,112.373344,-7.17163
0.215332,-1.078369,-0.068115,-98.854057,-138.061523,-6.973266,0.414795,-1.295654,-0.026855,-32.478333,102.97393,3.204345
0.731689,-1.409912,-0.26416,-249.832138,249.229416,0.953674,0.396729,-1.396973,0.020264,-34.988403,90.080254,13.47351
0.691895,-2.205322,-0.726807,-249.992355,249.992355,-187.835678,0.373291,-1.454102,0.052246,-36.66687,74.623108,22.621153
0.720703,-2.104492,-0.645264,-249.992355,249.992355,-199.707016,0.344727,-1.445801,0.075195,-37.185669,58.380123,30.288694
0.76001,-2.008301,-0.5354,-249.992355,249.992355,-203.43779,0.313965,-1.391846,0.089111,-35.476685,42.175289,36.613464
0.728027,-1.956299,-0.443359,-249.992355,249.992355,-190.437302,0.406006,-1.085449,-0.226563,36.010742,89.195244,-42.366024
0.653076,-1.892334,-0.331055,-249.992355,249.992355,-163.162216,0.433105,-0.559082,-0.088135,27.587889,56.884762,62.896725
0.658203,-1.79126,-0.250488,-249.992355,249.992355,-127.647392,0.233643,-1.129883,0.138428,-20.072937,-4.196167,50.308224
0.521973,-2.197754,-0.812988,-249.992355,249.992355,-183.059677,0.226074,-1.047363,0.131836,-13.435363,-16.174316,54.565426
0.677979,-1.681396,-0.194824,-249.992355,249.992355,-85.700981,0.226563,-0.992676,0.117188,-3.791809,-24.497984,60.333248
0.685547,-1.541016,-0.187012,-249.992355,249.649033,-41.770931,0.229004,-0.964111,0.085693,10.353087,-28.526304,66.993713
0.759766,-1.310059,-0.312012,-249.481186,249.992355,39.710999,0.264404,-0.937256,0.047607,24.711607,-27.57263,72.013855
1.146484,-1.2854,-0.274414,-106.719963,-68.809509,130.661011,0.31958,-0.888672,0.017334,34.797668,-20.584105,73.554993
0.975342,-1.226563,-0.195557,-246.231064,161.369308,93.917839,0.367432,-0.807861,-0.018311,40.168758,-8.247375,71.922302
1.087158,-1.188721,-0.10791,-200.66832,72.616577,116.813652,0.403809,-0.695801,-0.058594,38.917542,8.728027,69.114685
1.136719,-1.235352,-0.083496,-148.292542,-6.233215,129.898071,0.426025,-0.597412,-0.077881,32.905579,30.624388,65.719604
1.128662,-1.255127,-0.496582,-78.804016,-122.039787,124.923698,0.422363,-1.108398,-0.249023,52.11639,74.501038,-47.897335
1.080811,-1.204834,-0.577881,-61.134335,-171.798691,118.125908,0.263428,-1.233643,0.116699,-25.764463,10.299682,46.333309
0.952148,-1.146484,-0.617676,-49.209591,-221.45842,110.633842,0.45752,-1.101318,-0.279053,64.620972,55.252071,-54.061886
0.799072,-1.10791,-0.593262,-37.857056,-248.79454,100.547783,0.043213,-1.050049,-0.035889,-138.748169,-117.507927,-59.776302
0.739258,-1.11084,-0.493164,-22.109983,-249.992355,87.051384,0.479492,-1.041992,-0.297852,83.747856,-4.920959,-65.315247
0.754639,-1.121582,-0.431885,-4.165649,-249.992355,70.960999,0.04541,-0.999023,-0.017822,-127.342216,-64.216614,-62.911983
0.253662,-2.104492,-0.868896,-232.810959,249.992355,-174.522385,0.432617,-0.577637,-0.101318,27.023314,84.793083,60.531612
0.829346,-1.27002,-0.252686,-249.992355,240.646347,69.084167,0.002441,-1.095703,-0.061035,-154.945374,-172.378525,-56.488033
0.04541,-1.853027,-0.782471,-164.894089,249.992355,-166.847214,-0.054443,-1.161865,-0.031982,-172.18779,-225.654587,-52.612301
0.734131,-1.116455,-0.437256,12.496947,-249.992355,53.092953,-0.116455,-1.244629,0.064209,-181.167587,-249.55748,-48.072811
-0.001953,-1.370361,-0.574463,-71.44165,249.992355,-163.314804,-0.160645,-1.312744,0.175781,-179.885849,-249.992355,-43.907162
0.028564,-0.780273,-0.348389,55.77087,132.17926,88.455193,-0.166992,-1.361816,0.277588,-175.094589,-249.992355,-41.999813
0.026123,-0.743164,-0.331055,52.978512,143.127441,68.641663,-0.13916,-1.402344,0.350098,-170.822128,-249.992355,-44.479366
0.03833,-0.720947,-0.304199,49.957272,152.572632,47.615047,-0.075195,-1.429199,0.362549,-167.816147,-249.992355,-49.987789
0.061768,-0.71582,-0.279297,44.975277,158.01239,25.688169,0.029541,-1.49292,0.404297,-155.677795,-249.992355,-57.334896
0.09668,-0.724609,-0.250977,38.024902,157.966614,3.40271,0.094238,-1.559326,0.389893,-129.592896,-249.992355,-60.592648
0.117676,-0.743652,-0.224365,29.563902,152.999878,-19.866943,0.137695,-1.57251,0.336182,-102.767937,-249.992355,-59.616085
0.124023,-0.768555,-0.20166,19.645691,145.500183,-43.136593,0.200195,-1.576172,0.30957,-73.753357,-249.694809,-61.637875
0.125977,-0.781738,-0.185303,9.506226,136.238098,-65.185547,0.261719,-1.573242,0.278809,-40.946957,-249.992355,-63.476559
0.127686,-0.769775,-0.166992,1.76239,125.198357,-85.914604,0.323242,-1.533203,0.230713,-6.301879,-249.992355,-63.621517
0.107178,-0.736816,-0.148682,-2.14386,114.646904,-103.797905,0.371826,-1.448975,0.153564,24.536131,-237.403854,-65.223694
-0.047119,-1.581787,-0.678711,-107.002251,249.992355,-163.74968,0.404053,-1.342285,0.07959,46.531673,-208.122238,-68.016052
0.049072,-0.708496,-0.13208,-2.098083,108.314507,-118.232719,0.396484,-1.230957,0.031494,62.911983,-180.938705,-70.762634
-0.122559,-0.717773,-0.133545,5.020141,117.736809,-134.58252,0.358887,-1.132568,-0.008545,77.682495,-157.37915,-74.562073
-0.200195,-0.731934,-0.143311,11.238097,135.948181,-136.245728,0.331543,-1.053223,-0.073975,86.105339,-136.161804,-74.295044
-0.241455,-0.772217,-0.163086,17.280579,160.881027,-138.22937,0.35376,-1.012451,-0.140869,89.332573,-111.015312,-71.006775
-0.229248,-0.852051,-0.202393,18.463135,188.507065,-141.723633,0.399902,-0.995361,-0.205078,91.735832,-79.208374,-69.839478
-0.161377,-0.967285,-0.255371,12.580871,213.966354,-144.737244,0.44873,-1.006836,-0.258301,89.782707,-42.449947,-68.405151
-0.06543,-1.084717,-0.310791,0.053406,237.197861,-148.468018,0.480225,-1.075928,-0.310303,75.187683,28.610228,-60.455318
0.006104,-1.149902,-0.378174,-15.899657,249.481186,-153.862,0.431396,-0.630127,-0.11377,30.609129,112.083427,58.54797
0.024902,-1.163086,-0.437012,-28.861998,249.992355,-157.287598,0.151367,-1.234131,0.116455,55.084225,98.175041,106.559746
0.019775,-1.16333,-0.47998,-38.024902,249.992355,-158.172607,0.429199,-0.721191,-0.110352,37.719727,161.903366,52.36816
0.028564,-1.220703,-0.50708,-49.690243,249.992355,-160.774216,0.510742,-0.881104,-0.506348,134.124756,85.46447,169.967636
-0.0354,-0.702881,-0.130615,0.831604,108.657829,-129.096985,0.51123,-0.835205,-0.512695,104.705803,98.007195,152.984619
0.650879,-1.088379,-0.452148,29.640196,-249.992355,35.743713,0.485352,-0.814453,-0.484863,75.904846,110.504143,137.374878
0.546631,-1.058594,-0.484619,45.394894,-249.992355,21.545408,0.448486,-0.84375,-0.410156,49.057003,120.697014,124.618523
0.454834,-1.037354,-0.539795,56.457516,-249.992355,11.550902,0.393799,-0.909912,-0.321777,26.168821,124.984734,113.929741
0.21875,-0.963867,-0.264404,89.973442,-210.62468,24.459837,0.35376,-0.985107,-0.237549,7.408142,122.192375,103.019707
0.215576,-1.029785,-0.258789,89.973442,-245.918259,21.385191,0.318359,-1.037109,-0.161377,-3.494262,115.295403,94.268791
0.211914,-1.089355,-0.252686,90.263359,-249.992355,20.782469,0.280273,-1.075195,-0.097412,-8.720398,105.461113,86.555473
0.193359,-1.131836,-0.244141,93.490593,-249.992355,23.643492,0.254639,-1.117188,-0.069824,-13.008117,92.658989,77.941895
0.168457,-1.175049,-0.253418,100.5783,-249.992355,28.366087,0.432617,-0.687012,-0.111328,35.354614,137.428284,56.106564
0.140869,-1.244873,-0.283447,106.803886,-249.992355,34.934998,0.467285,-0.917725,-0.459229,165.092453,73.104858,188.209518
0.126953,-1.350586,-0.313965,107.582085,-249.992355,44.906612,0.237549,-1.151123,-0.116943,-25.772093,62.934872,57.258602
0.114746,-1.464111,-0.333252,104.23278,-249.992355,58.04443,0.223145,-1.103516,-0.218262,-49.255367,34.248352,28.900145
0.107422,-1.564453,-0.335693,99.136345,-249.992355,74.745178,0.204346,-1.112793,-0.214111,-60.958858,17.807007,9.902954
0.044678,-1.739014,-0.296631,89.691154,-249.992355,113.822929,0.166504,-1.121338,-0.156982,-66.192627,-1.167297,-6.904602
-0.015381,-1.874512,-0.297119,77.171326,-249.870285,136.177063,0.084961,-1.104736,-0.090576,-62.744137,-16.670227,-13.565063
-0.131104,-1.992432,-0.30542,60.592648,-249.412521,166.412338,0.010498,-1.090332,-0.049072,-54.298397,-28.221128,-20.584105
-0.323975,-2.087158,-0.30957,38.116455,-249.992355,207.756027,0.032471,-1.06543,-0.057617,-49.812313,-41.694637,-36.422729
-0.427002,-2.119385,-0.233643,16.166687,-247.932419,241.226181,0.087158,-1.02124,-0.092529,-55.282589,-54.840084,-49.797054
-0.322021,-2.136719,-0.199463,-3.173828,-206.619247,249.992355,0.110107,-0.991455,-0.121338,-63.491817,-65.994263,-59.257504
-0.208984,-2.137451,-0.154053,-24.223326,-176.818832,249.992355,0.120605,-0.976807,-0.113037,-71.502686,-79.00238,-73.394775
-0.148682,-2.223145,-0.147461,-58.876034,-163.276657,249.847397,0.085938,-0.97876,-0.094238,-77.316284,-94.802849,-84.289543
-0.213867,-2.346191,-0.208008,-115.066521,-151.985168,249.992355,0.230713,-1.12915,-0.173096,-36.247253,48.46954,44.204708
-0.324707,-2.368896,-0.280029,-188.980087,-136.619568,249.992355,0.400635,-0.944336,-0.378418,195.922836,61.531063,205.406174
-0.355957,-2.264648,-0.265137,-244.064316,-125.053398,242.393478,0.242676,-1.145996,-0.074463,-18.180847,78.00293,68.275452
-0.355469,-1.953613,-0.148438,-249.992355,-120.193474,229.064926,0.26709,-1.035645,-0.1604,230.812057,42.343136,220.581039
0.235596,-0.881592,-0.270996,87.676994,-168.441757,28.335569,0.327637,-0.980469,-0.273193,218.925461,51.208492,216.857895
0.253418,-0.814209,-0.276123,81.657402,-135.055542,32.623291,0.421875,-0.751465,-0.107178,38.757324,183.853134,47.760006
0.087891,-1.636475,-0.318848,95.512383,-249.992355,93.322746,0.39624,-0.782959,-0.099365,41.824337,199.813828,45.639034
0.256104,-0.776611,-0.299316,69.213867,-84.564201,41.458126,0.357422,-0.818848,-0.088867,46.142574,205.70372,46.035763
0.255615,-0.783447,-0.282715,74.012756,-107.048027,37.033081,0.312012,-0.828857,-0.098389,46.836849,200.950607,48.011776
0.23999,-0.924316,-0.574219,71.037292,-249.992355,7.858276,0.260986,-0.825928,-0.11792,41.687008,188.384995,50.720211
0.119385,-0.811523,-0.557861,80.650322,-249.992355,16.876221,0.288574,-0.930176,-0.078369,33.454895,163.383469,53.321835
-0.008301,-0.713135,-0.552002,89.088432,-249.526962,28.083799,0.266846,-1.02417,-0.041748,35.118103,156.089783,58.723446
-0.073242,-0.650391,-0.545166,94.017021,-249.992355,38.261414,0.206543,-1.096924,-0.023926,36.949158,145.401001,68.969727
-0.075195,-0.619385,-0.48584,95.962517,-249.992355,47.157284,0.185547,-1.159424,0.001221,40.924068,128.486633,79.742432
-0.046143,-0.630615,-0.408936,95.123283,-230.15593,56.289669,0.166504,-1.193359,0.046631,45.547482,112.136833,94.039909
-0.006836,-0.646973,-0.351563,92.727654,-187.400803,65.803528,0.257568,-0.857666,-0.107666,35.606384,173.805222,52.37579
0.007813,-0.666016,-0.317871,89.363091,-148.986816,73.84491,0.13208,-1.359619,0.207275,82.237236,68.756104,132.400513
0.001709,-0.686279,-0.303467,85.296623,-115.95916,79.170227,0.138672,-1.293213,0.168945,67.634583,83.709709,118.019096
0.017822,-0.699951,-0.280273,81.886284,-86.891167,82.054131,0.202881,-1.220703,0.053467,231.330856,25.764463,214.714035
0.3479,-0.997803,-0.572021,63.766476,-249.992355,6.095886,0.20166,-1.297852,0.164307,221.351608,17.00592,208.747849
0.266357,-0.763184,-0.310303,67.352295,-68.031311,45.402523,0.199951,-1.359863,0.236572,206.413254,10.757445,203.163132
0.106934,-0.709229,-0.259033,79.13208,-44.326778,81.985466,0.184814,-1.422607,0.26001,188.354477,9.910583,197.532639
0.147949,-0.724854,-0.267822,77.201843,-32.875061,77.629089,0.225342,-1.123535,-0.051514,234.573349,33.988953,219.123825
0.188965,-0.738037,-0.279785,74.653625,-27.679441,71.807861,0.162354,-1.472412,0.248047,143.218994,22.743223,179.199203
0.229736,-0.749023,-0.287354,71.968079,-27.214048,65.567017,0.140625,-1.442871,0.239746,120.910637,36.384583,164.886459
0.256836,-0.761963,-0.289795,68.840027,-30.151365,59.646603,0.131592,-1.411865,0.229004,100.349419,52.61993,148.895264
0.260254,-0.762207,-0.290283,65.223694,-34.889221,54.664608,0.174561,-1.466309,0.258789,166.450485,13.938903,190.017685
0.267822,-0.758789,-0.299805,62.675472,-40.115356,51.338192,0.417725,-0.741211,0.134277,-16.914368,119.003288,149.223328
0.2771,-0.751709,-0.30957,62.83569,-46.600338,49.636837,0.424805,-1.165771,0.057861,-14.762877,-7.499694,96.519463
0.278076,-0.75415,-0.310791,65.200806,-55.999752,48.034664,0.387939,-1.100342,0.112549,-14.144897,-16.151428,103.187553
0.060059,-0.705322,-0.262939,80.00946,-62.530514,83.488457,0.345215,-1.031738,0.149658,-11.665343,-25.024412,111.267082
0.51416,-0.889404,-0.146484,-3.471374,102.996819,-44.578548,0.320801,-0.962402,0.179932,-9.010315,-32.402039,120.056145
0.459717,-0.834229,-0.164795,-5.363464,126.113884,-66.452026,0.340332,-0.897217,0.192871,-7.385253,-31.532286,127.265923
0.406982,-0.815186,-0.164063,-8.041382,144.622803,-86.708061,0.381592,-0.830566,0.186279,-8.071899,-17.417908,132.049561
0.36377,-0.853271,-0.156982,-10.108947,157.730103,-105.422966,0.424561,-0.763916,0.170166,-12.054442,10.093688,135.940552
0.380615,-1.490479,-0.173096,-3.410339,190.33049,-183.563217,0.473877,-0.720215,0.148438,-17.074585,45.577999,138.656616
0.329346,-1.078369,-0.133545,-15.373229,174.919113,-141.63208,0.467041,-0.710938,0.136719,-19.561768,83.389275,142.028809
0.333252,-1.251221,-0.125,-16.784668,180.397018,-159.317017,0.452148,-0.807617,0.11377,-8.666992,151.268005,155.883789
0.363281,-1.388184,-0.152344,-11.940001,185.119614,-174.118027,0.466309,-1.202393,0.007324,-13.870238,0.946045,91.018669
0.575195,-0.97168,-0.128418,-2.548218,76.347351,-22.369383,0.463867,-0.946533,0.062744,11.810302,230.346664,165.695175
0.341309,-0.935303,-0.151855,-12.115478,167.39653,-123.573296,0.462402,-1.0,0.025391,22.850035,249.336227,167.137131
0.642334,-1.074707,-0.11377,-2.410889,45.806881,-0.076294,0.446045,-1.031982,-0.010254,33.699036,249.992355,168.266281
0.828857,-1.121094,-0.22998,13.198852,-148.429871,76.499939,0.39917,-1.043457,-0.054443,43.30444,249.992355,169.456467
0.77417,-1.266602,-0.126709,-4.585266,-20.759581,37.918091,0.338135,-1.060547,-0.104004,47.119137,249.992355,170.410141
0.826904,-1.300781,-0.134766,-3.883362,-54.649349,52.146908,0.293945,-1.138916,-0.116943,52.261349,249.908432,171.81395
0.871338,-1.265625,-0.135742,1.853943,-88.35601,64.292908,0.279785,-1.25708,-0.089844,68.557739,249.488815,176.696762
0.880859,-1.192139,-0.169922,9.300232,-120.590202,72.723389,0.203369,-1.292969,-0.114258,82.626335,249.992355,188.934311
0.736084,-1.072754,-0.262939,13.015746,-170.188889,77.934265,0.096436,-1.275635,-0.160156,81.039421,248.947128,203.071579
0.659912,-1.034912,-0.251709,13.748168,-186.17247,78.712463,0.074707,-1.324219,-0.128906,83.786003,212.059006,208.793625
0.629639,-1.000977,-0.23877,16.120911,-198.493942,78.109741,0.474365,-0.874756,0.089844,0.770569,190.254196,161.972031
0.61377,-0.984375,-0.246094,16.990662,-209.320053,76.60675,0.496582,-1.201904,-0.035156,-10.284423,8.354187,85.762016
0.58667,-1.001221,-0.269287,13.732909,-220.657333,74.623108,0.062988,-1.387695,-0.084229,92.735283,166.336044,213.01268
0.55835,-1.025635,-0.281006,7.225036,-233.077988,72.181702,0.505371,-1.148682,-0.05835,3.730774,25.756834,71.479797
0.7146,-1.180664,-0.113281,-3.204345,12.924193,20.683287,0.370361,-1.629395,0.291748,-91.743462,-242.507919,-164.619431
0.35498,-1.608887,-0.176025,3.982544,192.520126,-188.301071,0.37085,-1.572021,0.245117,-61.668392,-208.076462,-162.437424
0.060547,-0.893066,-0.226318,72.616577,134.109497,-175.361618,0.371338,-1.493408,0.185547,-33.325195,-178.649887,-161.025986
0.244141,-1.846436,-0.29834,26.260374,179.168686,-197.715744,0.375,-1.411621,0.134033,-7.987976,-155.067444,-158.920288
0.518799,-1.018311,-0.282227,2.13623,-245.52916,67.619324,0.361816,-1.331055,0.106689,15.083312,-135.169983,-155.12085
0.033447,-0.930664,-0.229492,72.113037,129.699707,-183.311447,0.352539,-1.280273,0.080078,36.186218,-117.324821,-149.040222
0.003662,-0.972656,-0.223389,73.249817,131.584167,-190.864548,0.361084,-1.268555,0.037109,57.197567,-100.143425,-138.86261
-0.012451,-1.016846,-0.215332,74.455261,137.626648,-197.090134,0.380859,-1.282959,-0.005371,80.787651,-81.878654,-126.785271
-0.026367,-1.054443,-0.232666,73.371887,147.880554,-202.545151,0.402832,-1.295898,-0.07959,104.73632,-61.058041,-114.372246
-0.052246,-1.098877,-0.266846,70.350647,163.200363,-207.122787,0.429199,-1.300537,-0.181152,118.957512,-38.291931,-97.251884
-0.043945,-1.155273,-0.298828,65.77301,180.198654,-211.235031,0.506836,-1.181885,-0.053711,-3.723144,15.899657,79.528809
-0.030518,-1.20459,-0.319092,61.805721,195.014938,-215.042099,0.452148,-1.283936,-0.238281,124.717705,-13.076781,-81.382744
-0.020996,-1.256348,-0.330322,59.822079,206.787094,-216.728195,0.465576,-1.181885,-0.28418,117.576591,36.781311,-53.497311
0.013428,-1.337158,-0.338379,57.487484,214.195236,-217.185959,0.451172,-1.12085,-0.290771,103.500359,57.228085,-37.361145
0.293457,-1.745605,-0.217529,13.656615,187.973007,-191.726669,0.443359,-1.056885,-0.267822,87.493889,72.990417,-23.880003
0.053711,-1.456055,-0.341309,52.719112,214.973434,-218.345627,0.449951,-1.000244,-0.227539,72.135925,83.595268,-11.802672
0.234131,-1.612305,-0.282959,49.522396,186.813339,-230.873093,0.469238,-0.979492,-0.203369,57.678219,89.645378,1.556396
0.322754,-1.706787,-0.354736,50.956722,154.045105,-242.111191,0.500244,-0.99292,-0.169678,45.471188,89.317314,14.73236
0.314941,-1.835693,-0.490723,47.111507,122.573845,-248.977646,0.51709,-1.01416,-0.120117,36.102295,81.222527,27.183531
0.301514,-1.936523,-0.575439,41.580196,104.835503,-249.900803,0.521484,-1.033447,-0.093994,27.397154,68.397522,39.375305
0.27002,-2.012939,-0.586182,38.238525,98.548882,-249.992355,0.519531,-1.058838,-0.082764,18.577576,53.283688,51.071163
0.207031,-2.103516,-0.575195,34.729004,101.348869,-248.825058,0.507568,-1.101807,-0.065186,10.856627,38.482666,61.828609
0.193115,-2.072998,-0.553223,32.463074,115.539543,-239.410385,0.465576,-1.238281,-0.26416,124.64904,12.649535,-68.054199
0.225098,-1.936035,-0.496094,36.773682,136.878967,-230.422958,0.003418,-1.404785,-0.05249,99.906914,125.648491,222.640976
0.232666,-1.866211,-0.456543,40.443417,154.670715,-219.161972,-0.005859,-1.424316,-0.041992,106.330864,87.440483,231.941208
0.222656,-1.87915,-0.387207,36.636353,168.022141,-207.298264,0.040527,-1.451904,-0.016602,114.685051,54.145809,238.059982
0.112549,-1.560547,-0.317627,48.126217,207.115158,-221.717819,0.137207,-1.155518,0.169922,-78.048706,-34.629822,-108.001701
0.448975,-0.986084,-0.276611,0.411987,-249.992355,61.95068,0.14209,-1.161621,0.19458,-79.948425,-39.215088,-109.107964
0.078125,-0.866699,-0.217285,72.654724,145.195007,-167.747482,0.142334,-1.182617,0.205566,-79.139709,-42.976376,-109.321587
0.289795,-0.978516,-0.266113,-2.876281,-249.992355,54.199215,0.169922,-1.187012,0.206543,-76.004028,-44.212337,-109.298698
-0.139404,-1.467529,-0.226807,-249.908432,-86.021416,80.253601,0.210449,-1.158936,0.198242,-71.44165,-39.329529,-109.825127
-0.129883,-1.406982,-0.088623,-249.67955,-76.461792,87.036125,0.241455,-1.10376,0.17749,-67.428589,-29.495237,-110.527031
-0.08667,-1.360596,0.045166,-249.992355,-72.174072,94.451897,0.26001,-1.019775,0.156982,-64.849854,-17.692566,-111.366264
-0.056641,-1.320068,0.141357,-248.123154,-74.707031,101.486198,0.256104,-0.91626,0.16748,-64.842224,-3.494262,-113.471977
-0.065186,-1.319336,0.175781,-222.610458,-80.207825,107.574455,0.25,-0.822266,0.173096,-68.344116,14.945983,-116.996758
-0.092529,-1.335693,0.146973,-195.671066,-82.763664,114.868156,0.257324,-0.769043,0.157715,-71.029663,38.291931,-118.576042
-0.138428,-1.315918,0.106201,-167.02269,-79.467773,126.296989,0.092529,-1.167969,0.145264,-74.073792,-28.800962,-106.277458
-0.170898,-1.251709,0.070313,-131.835938,-70.472717,139.221191,0.268799,-0.741455,0.131592,-72.967529,64.369202,-117.691032
-0.170898,-1.163818,0.016846,-94.993584,-58.380123,151.603699,0.253906,-0.725342,0.120117,-76.393127,113.136284,-113.983147
-0.137451,-1.048828,-0.02417,-60.409542,-44.81506,164.176926,0.239502,-0.724854,0.129883,-77.606201,131.034851,-110.923759
-0.107178,-1.499756,-0.347656,-249.992355,-99.540703,74.653625,0.21875,-0.73291,0.136963,-77.690125,142.662048,-107.582085
-0.094727,-0.941162,-0.050049,-26.68762,-30.113218,176.841721,0.185791,-0.750244,0.120117,-76.98822,146.17157,-103.538506
-0.032471,-0.85083,-0.154785,26.611326,4.470825,194.86998,0.149658,-0.777832,0.079102,-77.62146,141.143799,-99.441521
-0.026855,-0.907959,-0.222412,36.727905,24.780272,199.501022,0.124023,-0.799561,0.037598,-79.978943,129.417419,-96.237175
-0.020752,-0.953125,-0.284668,42.640682,45.372005,200.241074,0.10376,-0.823486,0.005859,-82.786552,113.69323,-93.460075
0.019531,-0.934082,-0.301025,51.87225,64.476013,195.144638,0.069336,-0.849365,-0.010986,-86.242668,94.520561,-89.49279
0.061035,-0.865723,-0.307129,64.445496,79.475403,186.073288,0.032715,-0.864746,-0.031738,-93.841545,67.306519,-83.602898
0.080078,-0.824707,-0.328613,72.868347,89.988701,175.033554,0.017334,-0.880371,-0.033936,-105.232231,29.502867,-76.23291
0.080322,-0.839355,-0.346436,74.203491,98.007195,161.315903,0.268799,-0.731445,0.120117,-74.920654,90.354912,-116.111748
0.072754,-0.856445,-0.365479,70.602417,105.308525,144.90509,0.037598,-1.168213,0.13208,-67.848206,-21.537779,-104.194633
0.054199,-0.855957,-0.368896,64.63623,112.922661,126.495354,0.024902,-0.929443,-0.020752,-116.897575,-15.205382,-68.519592
0.038818,-0.824707,-0.362793,59.463497,121.849052,107.589714,-0.030029,-1.114502,0.094482,-51.048275,0.137329,-100.692741
-0.057861,-0.865479,-0.099365,4.447937,-14.10675,187.866196,0.064941,-1.48291,0.032715,124.061577,27.915953,242.675766
-0.07251,-1.51123,-0.436035,-249.992355,-111.953728,72.883606,0.051758,-1.48877,0.058594,133.804321,2.975464,244.323715
0.365479,-0.970703,-0.268066,-0.205994,-249.992355,57.594296,0.043701,-1.476807,0.053467,145.401001,-23.048399,242.767319
0.013428,-1.505615,-0.513672,-214.012131,-123.611443,80.696098,0.075195,-1.452637,0.017334,157.852173,-47.241207,237.533554
0.222412,-0.994629,-0.260254,-6.072998,-249.992355,51.925655,0.123291,-1.410156,-0.052002,166.633591,-63.438412,227.523788
0.169922,-1.005859,-0.242188,-6.614685,-249.946579,51.582333,0.16333,-1.355469,-0.149658,170.661911,-70.487976,212.0056
0.124023,-1.017578,-0.215088,-5.851745,-249.946579,54.481503,-0.005859,-1.150146,0.118896,-59.333797,-11.749267,-102.119438
0.088379,-1.026611,-0.185791,-4.905701,-249.992355,59.539791,0.210938,-1.256836,-0.32666,163.681015,-60.111996,170.448288
0.086426,-1.054932,-0.153564,-5.523681,-248.336777,66.459656,0.219482,-1.228516,-0.396484,150.550842,-42.579647,145.446777
0.080811,-1.074707,-0.119141,-7.011413,-238.456711,74.455261,0.217285,-1.229004,-0.416992,135.96344,-20.347593,117.202751
-0.022217,-1.515381,-0.492432,-244.003281,-120.391838,74.287415,0.209473,-1.238281,-0.404541,121.009819,1.708984,86.952202
0.046143,-1.032471,-0.108154,-1.220703,-211.441025,92.460625,0.193604,-1.30127,-0.23584,170.562729,-69.503784,192.634567
0.077393,-1.030762,-0.09668,5.149841,-196.571335,100.898735,0.237549,-1.092041,-0.328857,81.535332,35.011292,22.90344
0.084961,-1.070313,-0.111572,7.759094,-180.084213,108.238213,0.160156,-0.977783,-0.294434,56.488033,48.255917,-9.674072
0.041504,-1.118164,-0.117188,5.783081,-160.484314,117.378227,0.025879,-0.912598,-0.251221,34.858704,58.074947,-33.26416
0.053955,-1.058838,-0.106934,-5.355834,-225.128159,82.740776,-0.084229,-0.920654,-0.19165,18.539429,60.997005,-49.491879
0.059814,-1.13916,-0.12915,4.760742,-106.38427,131.584167,-0.124023,-1.004395,-0.111328,7.781982,54.542538,-62.843319
0.020508,-1.12085,-0.09375,8.049011,-133.499146,126.358025,-0.102051,-1.088135,-0.007813,1.029968,43.319698,-74.104309
0.062988,-1.474121,-0.523682,-143.203735,-113.845818,92.658989,-0.056396,-1.12915,0.047119,-6.019592,33.309937,-83.213799
0.08667,-1.426514,-0.490723,-107.788078,-102.455132,98.999016,-0.021484,-1.12207,0.065674,-16.319275,25.68054,-91.201775
0.110352,-1.359131,-0.435303,-76.858521,-88.661186,105.758659,-0.04126,-1.090332,0.069336,-29.998777,20.164488,-97.007744
0.140869,-1.296387,-0.38501,-54.313656,-73.356628,114.685051,-0.038818,-1.085938,0.070313,-41.969296,11.878966,-99.678032
0.037598,-1.487793,-0.520752,-178.428635,-121.307365,86.898796,0.224609,-1.196533,-0.37207,103.713982,19.882202,56.610104
0.108154,-1.232178,-0.293457,-22.926329,-46.95892,134.284973,0.288574,-1.729004,0.137207,6.340026,129.859924,249.992355
0.029297,-1.197021,-0.228516,-12.649535,-48.21014,140.411377,0.306396,-1.653809,0.083252,1.556396,149.925232,249.93895
0.002197,-1.184082,-0.175293,-6.904602,-63.072201,141.220093,0.35376,-1.580322,0.018799,-1.075745,174.110397,249.969467
0.035156,-1.170898,-0.149658,-1.495361,-84.045403,137.35199,0.370117,-1.470215,-0.065918,-0.87738,200.111374,249.992355
0.144775,-1.269043,-0.345703,-37.42218,-58.067318,125.251762,0.481934,-1.115479,-0.197021,43.151852,228.881821,234.077438
0.325928,-0.928711,-0.165771,28.152464,-184.02861,-1.159668,0.425049,-1.322998,-0.165527,16.265869,228.286728,249.992355
0.303467,-0.906006,-0.160156,30.326841,-182.922348,4.623413,0.504395,-1.284912,-0.174316,24.200438,229.713425,248.718246
0.292236,-0.899902,-0.182129,30.929564,-179.931625,8.613586,0.506104,-1.189209,-0.204102,31.158445,228.988632,242.439255
0.280273,-0.911865,-0.19751,28.030394,-175.819382,11.894225,0.383057,-1.366699,-0.13623,5.065917,218.330368,249.992355
0.265869,-0.934326,-0.199463,22.102354,-171.409592,14.823913,0.292236,-1.753906,0.172363,13.038634,116.111748,249.122604
0.250488,-0.947754,-0.194824,14.572143,-168.319687,16.983032,0.068604,-0.812012,-0.2146,139.251709,79.360962,90.026848
0.251465,-0.945557,-0.169922,7.43103,-166.938766,18.028259,0.229248,-1.712891,0.219727,37.414551,100.311272,232.460007
0.265625,-0.927246,-0.146973,1.800537,-167.533859,18.135071,0.205322,-1.643555,0.22876,50.4837,96.481316,221.359238
0.259766,-0.901123,-0.115479,-1.274109,-169.425949,17.00592,0.164795,-1.555908,0.2229,63.941952,95.207207,209.327682
0.240234,-0.877686,-0.086914,-1.838684,-171.623215,13.999938,0.105225,-1.470947,0.19458,79.483032,93.879692,198.371872
0.020752,-1.261963,-0.124756,-75.561523,-162.078842,36.949158,0.059814,-1.399414,0.150879,97.724907,91.682426,188.858017
0.197266,-0.893311,-0.118164,-5.706787,-176.177963,7.492065,0.04834,-1.325195,0.097412,116.424553,89.904778,179.023727
0.188721,-0.918701,-0.126953,-8.651733,-180.564865,4.486084,0.057129,-1.240967,0.02832,131.874084,89.424126,166.465744
0.177002,-0.968994,-0.153809,-14.411925,-186.950668,1.617432,0.069092,-1.135986,-0.047363,140.892029,88.722221,150.367737
0.166992,-1.040283,-0.166992,-25.459288,-193.321213,-0.259399,0.070068,-1.021729,-0.107178,144.775391,86.357109,132.003784
0.151123,-1.085693,-0.160889,-38.475037,-197.395309,0.579834,0.066895,-0.909912,-0.157715,144.592285,82.771294,111.824028
0.125,-1.0979,-0.156006,-49.262997,-197.563156,4.516602,0.490234,-1.097412,-0.13208,54.924007,221.855148,224.624619
0.07251,-1.087402,-0.148193,-56.28204,-192.85582,9.353638,0.260986,-1.749512,0.202393,24.131773,107.452385,241.889938
0.036133,-1.063965,-0.130371,-58.41827,-184.53215,15.045165,0.520264,-1.086914,-0.081787,59.661861,199.142441,213.127121
0.04834,-1.056152,-0.104736,-57.02972,-177.192673,20.713804,0.308838,-0.986816,0.091797,10.307311,-49.949642,79.574585
0.073486,-1.139648,-0.115234,-61.637875,-172.56926,26.618956,0.519043,-1.031982,-0.039307,57.296749,123.825066,194.068893
0.340332,-0.94873,-0.15625,25.314329,-183.303818,-8.201599,0.083252,-0.737793,-0.284668,127.319328,77.606201,68.580627
0.216797,-0.875,-0.10498,-2.983093,-173.645004,10.490417,0.343994,-1.130615,-0.113037,13.656615,143.562317,-64.987183
0.341064,-0.982422,-0.140381,20.195005,-181.022629,-15.266418,0.317627,-1.112061,-0.105713,6.660461,130.195618,-56.167599
0.52124,-1.217041,-0.164795,-29.396055,73.982239,-124.534599,0.307373,-1.083984,-0.103271,-2.037048,114.105217,-46.783443
0.400879,-1.061035,-0.130127,7.408142,-170.265182,-29.243467,0.301758,-1.059326,-0.09082,-10.215758,96.153252,-36.598206
-0.079102,-1.276611,-0.090088,-84.022514,-139.511108,54.031368,0.284912,-1.057129,-0.071533,-16.090393,76.667786,-24.993895
0.082031,-1.85376,-0.345703,83.95385,217.010483,-244.125351,0.262451,-1.073975,-0.054688,-19.813538,55.450436,-12.252807
0.071533,-1.893066,-0.357422,75.6073,213.294968,-239.273056,0.256348,-1.088867,-0.031006,-22.575377,34.103394,1.052856
0.040527,-1.865234,-0.339844,67.230225,218.536362,-231.002792,0.267334,-1.103516,-0.009521,-23.277281,15.586852,14.86206
0.028809,-1.802979,-0.325439,60.508724,227.767929,-218.43718,0.297607,-1.125732,-0.001953,-20.39337,0.778198,29.174803
0.07666,-1.73999,-0.302979,53.840633,234.703049,-206.100449,0.539307,-1.074219,-0.06665,58.776852,162.948593,201.721176
0.160156,-1.682129,-0.294434,44.883724,233.886703,-195.068344,0.328125,-1.133057,-0.004395,-14.053344,-10.681151,42.732235
0.243408,-1.625732,-0.307373,32.150269,225.189194,-185.081467,0.322754,-1.045898,0.058105,2.26593,-34.912109,67.573547
0.307861,-1.578125,-0.301514,16.784668,209.442123,-174.560532,0.325195,-0.945313,0.093018,19.416809,-61.43951,89.645378
0.353516,-1.525391,-0.268311,3.097534,188.011154,-164.573654,0.354248,-0.916504,0.085449,29.548643,-63.385006,99.235527
0.358887,-1.026367,-0.13916,13.618468,-176.956161,-22.384642,0.390625,-0.875732,0.073975,35.888672,-54.618832,110.16082
0.39624,-1.461182,-0.246094,-8.834839,162.528976,-155.563354,0.433594,-0.835938,0.056641,37.29248,-36.575317,120.773308
0.487793,-1.30127,-0.195313,-25.894163,104.820244,-136.024475,0.470703,-0.811279,0.049805,37.857056,-11.268615,131.55365
0.542236,-1.148926,-0.138428,-30.357359,42.488094,-112.602226,0.507813,-0.819092,0.055176,40.90118,17.478943,144.439697
0.55835,-1.116699,-0.109131,-30.120848,10.040282,-101.135246,0.506836,-0.855225,0.051514,45.471188,44.746395,160.819992
0.579834,-1.128174,-0.077393,-29.998777,-23.231504,-89.767448,0.468994,-0.907471,0.031494,50.010677,69.252014,177.22319
0.5896,-1.165771,-0.061523,-31.700132,-55.282589,-79.01001,0.481689,-0.970215,-0.002441,54.473873,92.7658,187.705978
0.562744,-1.201416,-0.053711,-32.752991,-83.564751,-68.618774,0.336182,-1.103516,0.012695,-5.935668,-21.301268,55.114742
0.527588,-1.204834,-0.049316,-29.182432,-107.040398,-59.158321,0.102539,-0.696533,-0.35376,109.78698,78.399658,48.698421
0.498779,-1.168701,-0.047363,-20.553587,-126.930229,-50.437923,0.384766,-1.135254,-0.121582,19.302368,152.427673,-73.112488
0.474609,-1.119873,-0.069092,-9.384155,-144.683838,-42.053219,0.072021,-0.702637,-0.399658,72.875977,76.599121,15.090941
0.441895,-1.084717,-0.102295,0.305176,-159.622192,-35.339355,0.108887,-0.820801,0.125,-48.202511,176.086411,-130.401611
0.441895,-1.388916,-0.222656,-18.890381,134.597778,-146.255493,0.047852,-0.827148,0.117676,-45.379635,154.296875,-128.067017
0.043945,-1.800781,-0.323242,86.303703,225.463852,-244.01091,0.009277,-0.825684,0.09082,-44.952389,121.711723,-127.220146
-0.095215,-1.271484,-0.065918,-84.655754,-112.228386,73.699951,0.009277,-0.841309,0.05249,-48.622128,85.731499,-126.647942
-0.064697,-1.317627,-0.127197,-91.26281,-72.090149,108.726494,0.029541,-0.864746,0.030029,-55.404659,50.071712,-125.358574
-0.253906,-0.516602,-0.021484,-71.853638,-32.829285,42.66357,0.042725,-0.891357,0.025146,-61.851498,12.443542,-125.808708
-0.279785,-0.499023,-0.044434,-53.939816,0.999451,37.29248,0.013916,-0.907471,-0.001709,-70.411682,-32.997131,-124.999992
-0.286621,-0.509277,-0.062988,-37.757874,35.835266,32.684326,0.008789,-0.933838,-0.037109,-83.32061,-84.472649,-121.467583
-0.278564,-0.509521,-0.062988,-21.316526,70.747375,28.915403,0.049072,-1.010742,-0.052002,-98.075859,-137.260437,-119.453423
-0.258545,-0.515869,-0.068115,-4.577637,103.599541,24.696348,0.06665,-1.098633,-0.054443,-116.233818,-196.88414,-118.713371
-0.231689,-0.536865,-0.084717,10.108947,133.338928,19.462585,0.147461,-0.806641,0.112793,-50.285336,184.699997,-131.965637
-0.203125,-0.562988,-0.096436,22.430418,159.355164,13.381957,0.019531,-1.182129,-0.076416,-138.755798,-244.483932,-115.470879
-0.172852,-0.594238,-0.113525,31.913755,180.870041,5.66101,-0.116943,-1.329834,-0.019775,-183.792099,-249.992355,-113.342278
-0.150879,-0.628906,-0.147949,38.490295,199.264511,-3.509521,-0.140381,-1.426758,0.090332,-199.104294,-249.992355,-114.860527
-0.113525,-0.696533,-0.184326,48.332211,227.867111,-25.55084,-0.11377,-1.526367,0.223633,-207.771286,-249.992355,-116.073601
-0.099609,-0.73877,-0.193115,51.719662,237.350449,-37.567139,-0.032227,-1.588135,0.319824,-211.448654,-249.992355,-123.786919
-0.083496,-0.805176,-0.192871,52.139278,243.492111,-49.774166,0.017578,-1.610107,0.371582,-212.76091,-249.992355,-133.666992
-0.063232,-0.875,-0.190186,50.758358,245.666489,-62.355038,0.070557,-1.637451,0.398193,-210.098251,-249.992355,-143.249512
-0.039551,-0.931152,-0.192383,49.240108,243.2556,-75.752258,0.138672,-1.731445,0.427246,-193.725571,-249.992355,-150.276184
-0.008301,-0.958496,-0.192383,48.133846,236.82402,-89.645378,0.188965,-1.749756,0.412354,-165.1306,-249.771103,-154.624939
0.023682,-0.940918,-0.177734,49.583431,226.577744,-104.293816,0.237061,-1.674316,0.355469,-141.479492,-249.824509,-160.064697
0.043457,-0.89624,-0.1521,55.130001,213.088974,-119.392387,0.318848,-1.644287,0.322754,-119.827263,-249.992355,-163.86412
0.054932,-0.865234,-0.140625,62.309261,196.922287,-133.865356,-0.061279,-1.259766,-0.075439,-162.544235,-249.992355,-112.220757
0.073242,-0.854736,-0.158203,67.871094,178.87114,-147.453308,0.173096,-0.802246,0.070801,-50.811764,182.14415,-132.217407
0.085449,-0.85498,-0.190918,71.014404,160.781845,-158.950806,0.097168,-0.683838,-0.397461,90.721123,79.795837,30.532835
-0.072754,-1.308838,-0.108887,-89.584343,-89.981071,91.804497,0.237793,-0.832764,0.095215,-47.492977,148.300171,-132.469177
-0.216797,-0.559082,-0.018799,-92.414848,-65.078735,49.041744,0.032471,-0.75,-0.320068,58.814999,65.910339,2.601623
-0.180176,-0.604736,-0.022949,-113.609306,-94.940178,57.79266,-0.009766,-0.816406,-0.187988,47.622677,47.698971,-8.651733
-0.129639,-0.662842,-0.171143,43.640133,215.095505,-14.022826,-0.059082,-0.886963,-0.080078,37.04071,24.330137,-19.340515
-0.121094,-0.689453,-0.054443,-147.949219,-144.699097,81.581108,-0.08667,-0.954834,-0.024414,25.245665,-0.732422,-29.869078
-0.048096,-1.335449,-0.166748,-90.965263,-60.012814,123.908989,-0.093018,-1.014648,-0.012695,12.733459,-25.207518,-39.840698
-0.148682,-0.649902,-0.040039,-132.156372,-121.582024,69.061279,-0.075684,-1.064453,-0.006836,0.167847,-47.752377,-48.622128
-0.012695,-1.422607,-0.240234,-97.137444,-56.083675,138.710022,0.204346,-0.814453,0.061768,-49.690243,170.097336,-132.56073
0.005859,-1.552246,-0.321777,-115.005486,-58.395382,155.197144,0.00293,-1.125488,-0.01001,-26.56555,-79.338074,-60.9436
-0.027832,-1.609375,-0.370117,-134.910583,-59.379574,174.499496,0.053711,-1.147461,-0.019775,-39.924622,-86.662285,-66.207886
-0.035889,-1.634521,-0.401123,-150.810242,-56.503292,192.230209,0.099609,-1.165527,-0.01709,-52.391048,-89.431755,-71.464539
-0.022949,-1.698242,-0.441895,-167.388901,-54.710384,208.97673,0.135742,-1.168213,-0.00415,-63.247677,-89.889519,-76.942444
0.038574,-1.817139,-0.51709,-209.854111,-63.613888,238.250717,-0.036377,-1.104248,-0.003174,-12.939452,-66.474915,-55.610653
0.078857,-1.848633,-0.516602,-233.512863,-73.959351,246.833786,0.192383,-1.115234,0.097168,-75.660706,-86.326591,-87.783806
0.114502,-1.843262,-0.476807,-248.54277,-88.302605,249.847397,0.171875,-1.14502,0.041992,-70.732117,-89.439384,-82.214348
0.141357,-1.792236,-0.405518,-249.992355,-105.331413,247.993454,0.272461,-0.866455,0.14917,-49.09515,86.402885,-129.364014
0.003418,-1.756836,-0.488281,-186.981186,-57.15942,225.036606,0.260742,-0.892822,0.177979,-52.597042,54.199215,-125.877373
-0.093994,-0.835938,-0.086426,-180.427536,-181.00737,107.551567,0.253662,-0.938477,0.189209,-56.015011,26.115416,-120.429985
0.179688,-1.69751,-0.269043,-249.992355,-145.324707,230.773911,0.268311,-1.011719,0.157715,-59.669491,3.486633,-115.753166
0.164063,-1.666992,-0.236572,-249.908432,-164.886459,217.041,0.261719,-0.847656,0.12915,-46.852108,119.148247,-131.256104
0.114746,-1.637207,-0.209229,-249.916061,-181.373581,201.957687,0.263428,-1.138672,0.136963,-70.671082,-36.247253,-109.611504
0.069336,-1.558838,-0.177734,-249.992355,-193.305954,185.996994,0.244385,-1.138672,0.126221,-77.438354,-53.657528,-105.476372
0.026611,-1.421875,-0.133057,-246.948227,-201.004013,169.815048,0.225586,-1.11377,0.111572,-80.230713,-68.16864,-100.227348
-0.005859,-1.257324,-0.108643,-231.094345,-204.254135,153.266907,0.209717,-1.10376,0.109619,-78.933716,-79.208374,-94.024651
-0.041016,-1.093262,-0.103516,-214.134201,-201.904282,137.306213,0.278564,-1.093018,0.140625,-64.01825,-16.799927,-112.777702
-0.068359,-0.95166,-0.0979,-197.364792,-193.832382,121.910088,0.471924,-1.207031,-0.199463,98.114006,112.121574,122.718803
0.16748,-1.742432,-0.328125,-249.992355,-124.732964,241.516098,0.498535,-1.19458,-0.219238,117.141716,103.500359,121.345512
-0.107178,-0.751221,-0.06958,-163.673386,-164.527878,94.329826,0.433105,-1.159668,-0.229736,132.209778,97.251884,117.195122
-0.189209,-1.133057,-0.289063,110.649101,-144.233704,-91.590874,0.335938,-1.116211,-0.217529,145.515442,88.333122,111.92321
-0.181396,-1.047363,-0.248291,126.945488,-167.663559,-107.048027,0.254395,-1.090088,-0.172607,159.790039,73.318481,106.285088
-0.161133,-0.971436,-0.208984,136.421204,-193.550095,-121.780388,0.183838,-1.073486,-0.155029,172.096237,51.23138,101.333611
-0.136963,-0.906494,-0.183594,140.281677,-220.771774,-134.216309,0.15332,-1.060547,-0.163574,178.832993,23.185728,96.572868
0.037842,-0.770996,-0.162598,105.262749,-249.992355,-165.916428,0.17627,-1.050049,-0.174072,178.390488,-5.53894,91.018669
-0.060547,-0.787109,-0.123291,132.720947,-249.992355,-151.100159,0.212891,-1.053467,-0.209229,172.019943,-31.242369,85.426323
-0.032227,-0.789307,-0.126709,121.307365,-249.778732,-157.88269,0.219482,-1.067871,-0.239746,159.584045,-51.422115,79.89502
0.003418,-0.790283,-0.143555,111.221306,-249.877914,-163.139328,0.274414,-1.023926,0.124512,-50.682064,-41.702267,-11.116027
-0.194824,-1.220947,-0.324463,88.23394,-122.398369,-75.09613,0.165527,-1.097168,-0.192627,120.208733,-66.581726,67.298889
-0.095703,-0.822998,-0.150635,140.113831,-246.40654,-143.676758,0.151367,-1.095459,-0.159668,100.051872,-66.497803,61.43951
-0.208984,-1.290771,-0.355957,61.042782,-101.394646,-56.716915,0.150635,-1.075928,-0.133789,79.246521,-65.605164,56.076046
-0.052734,-1.294434,-0.050781,-247.390732,-15.296935,150.024414,0.162354,-1.046143,-0.113037,56.53381,-64.346313,49.911495
-0.230713,-1.326172,-0.375488,4.730225,-57.342525,-18.234253,0.182617,-1.002441,-0.094482,32.661438,-63.491817,43.205257
-0.208252,-1.353516,-0.386475,-26.519773,-38.833618,0.610352,0.207275,-0.9646,-0.062256,10.429381,-63.20953,36.346436
-0.172119,-1.367432,-0.38208,-62.088009,-26.107786,18.814087,0.225586,-0.945801,-0.012451,-8.598328,-62.347408,29.014585
-0.144775,-1.346924,-0.355225,-97.610466,-18.074036,37.30011,0.240967,-0.950439,0.025146,-24.726866,-59.463497,20.492552
-0.138672,-1.313477,-0.305176,-129.608154,-12.237548,55.702206,0.264893,-0.973389,0.051025,-37.475586,-54.695126,10.437011
-0.12207,-1.310303,-0.250977,-158.13446,-8.712769,74.211121,0.275391,-1.003418,0.090088,-45.890804,-48.71368,-0.152588
-0.08252,-1.345459,-0.213623,-186.599716,-9.918213,94.612114,0.412109,-1.203857,-0.170654,75.881958,125.114433,120.193474
-0.050049,-1.35083,-0.168457,-213.706955,-15.724181,116.699211,0.191895,-1.083984,-0.225342,141.136169,-62.995907,73.654175
-0.055908,-1.322754,-0.098389,-234.931931,-18.447876,135.513306,0.396973,-1.201416,-0.136963,50.064083,141.212463,117.080681
0.064209,-0.712891,-0.166748,101.371758,-249.992355,-164.703354,0.579102,-0.852295,-0.022705,-108.375542,249.992355,-158.77533
-0.229248,-1.317871,-0.369873,32.38678,-79.582214,-37.384033,0.437744,-1.133057,-0.023926,3.341675,143.028259,104.293816
0.094482,-0.657959,-0.169189,94.825737,-249.992355,-159.866333,0.282227,-1.019775,0.148193,-52.970882,-31.364439,-23.323057
0.409424,-1.637695,-0.039795,-117.912285,-0.038147,126.861565,0.57251,-0.454834,0.093506,5.874633,109.603874,-40.626522
0.156738,-0.612549,-0.173584,75.500488,-249.992355,-142.562866,0.562988,-0.421875,0.078369,-4.15802,141.860962,-53.680416
-0.022949,-1.337158,-0.019775,-249.992355,-16.464233,165.618881,0.541992,-0.414063,0.068604,-15.838622,168.838486,-66.673279
0.37085,-1.623291,-0.071289,-112.487785,-16.624451,122.695915,0.534424,-0.42334,0.057861,-25.909422,189.857468,-74.119568
0.34375,-1.557373,-0.061523,-104.774467,-30.059813,115.295403,0.547363,-0.446045,0.056641,-34.118652,205.757126,-77.804565
0.305664,-1.419678,-0.021973,-90.5075,-40.000916,107.414238,0.571533,-0.474121,0.041504,-44.30389,219.711288,-85.494987
0.267578,-1.231689,-0.026367,-70.625305,-47.752377,97.923271,0.645996,-0.502441,0.021729,-56.594845,237.396225,-100.090019
0.240479,-1.036865,-0.067139,-50.773617,-53.680416,88.500969,0.761719,-0.516113,0.011719,-70.571899,249.473557,-118.690483
0.230713,-0.907227,-0.080811,-34.324646,-58.868404,79.856873,0.864258,-0.5354,-0.018799,-86.441032,249.992355,-140.167236
0.223877,-0.831055,-0.092529,-20.812986,-64.064026,70.487976,0.420898,-1.172363,-0.082764,24.009703,149.795532,112.884514
0.214355,-0.787354,-0.108887,-10.154723,-70.175171,59.410091,0.917725,-0.558105,-0.037598,-102.447502,249.992355,-162.147507
0.208008,-0.75708,-0.119629,-2.174377,-77.522278,46.966549,0.709961,-0.715576,-0.004395,-118.148796,249.343857,-176.040634
0.126221,-0.62793,-0.17334,85.533134,-249.992355,-152.206421,0.518066,-0.982666,-0.005127,-89.538567,247.985825,-123.481743
0.220215,-0.732178,-0.125977,3.570556,-87.081902,33.943176,0.351318,-1.080322,0.008057,-63.110348,201.286301,-74.310303
0.258301,-0.641846,-0.129395,19.515991,-118.049614,4.776001,0.197021,-1.12085,-0.033691,-38.368225,152.816772,-26.512144
0.266602,-0.611816,-0.131348,27.626036,-139.480591,-11.192321,0.241211,-1.111572,-0.007813,-27.9541,111.129753,8.758545
0.265625,-0.595703,-0.138916,33.813477,-163.169846,-27.236937,0.367676,-1.105957,0.016846,-31.501768,88.920586,31.639097
0.265869,-0.5896,-0.148926,38.215637,-188.018784,-43.319698,0.411865,-1.135254,0.008301,-32.943726,89.591972,49.087521
0.26001,-0.597168,-0.154053,41.366573,-214.729294,-59.066769,0.422607,-1.128906,0.030029,-29.266356,98.274223,64.39209
0.252441,-0.610352,-0.161621,43.647762,-240.928635,-74.699402,0.422363,-1.106934,0.035156,-22.02606,110.847466,78.170776
0.243652,-0.620361,-0.169189,46.600338,-249.992355,-90.042107,0.433838,-1.106445,0.019043,-11.398314,126.647942,91.613762
0.234375,-0.62207,-0.170654,51.513668,-249.992355,-104.820244,0.861816,-0.612061,-0.025391,-115.310661,249.862656,-176.071152
0.218994,-0.615967,-0.173828,58.235165,-249.992355,-118.621819,0.56958,-0.500732,0.123047,12.794494,74.546814,-30.288694
0.19165,-0.61084,-0.177979,66.253662,-249.992355,-131.240845,0.296143,-0.943359,0.192627,-52.11639,7.415771,-50.079342
0.234619,-0.6875,-0.124512,10.604857,-100.563042,20.080564,0.261475,-0.90332,0.212891,-47.515865,29.113768,-62.263485
0.019287,-1.373291,0.000488,-249.839767,-23.41461,180.442795,0.06665,-1.807617,0.468506,-99.365227,-249.992355,-129.707336
0.434082,-1.60791,0.020752,-119.163506,17.234802,123.115532,0.148926,-1.845459,0.444336,-81.30645,-249.992355,-128.990173
0.095215,-1.36792,0.045166,-249.992355,-43.540951,197.593674,0.250488,-1.875244,0.374268,-57.640072,-249.992355,-126.144402
-0.064941,-0.433105,-0.060547,29.914854,56.03027,-57.937618,0.305908,-1.791016,0.282227,-39.581299,-249.992355,-119.377129
-0.075439,-0.427979,-0.05835,39.772034,56.930538,-70.617676,0.337646,-1.631836,0.20166,-30.891417,-249.80925,-117.485039
-0.080078,-0.44873,-0.062012,46.882626,58.563229,-81.977837,0.362305,-1.496826,0.15625,-24.002073,-249.816879,-118.942253
-0.090088,-0.474854,-0.061523,52.490231,61.149593,-91.331474,0.388672,-1.409668,0.13916,-13.549804,-249.992355,-118.774406
-0.092529,-0.500488,-0.054443,57.388302,65.551758,-99.143974,0.413818,-1.342041,0.111328,-1.487732,-243.972763,-118.240349
-0.095947,-0.526855,-0.046875,62.19482,72.08252,-106.460564,0.436768,-1.272705,0.074463,7.743835,-211.944565,-116.699211
-0.111084,-0.543945,-0.043701,67.649841,81.80999,-113.677971,0.462646,-1.153076,0.043213,22.712706,-143.943787,-111.816399
-0.127686,-0.55249,-0.041748,74.897766,95.29113,-120.376579,0.013428,-1.75293,0.481934,-112.17498,-249.992355,-131.752014
-0.134277,-0.563477,-0.045166,82.893364,111.28997,-126.632683,0.484131,-1.096924,0.022949,28.892515,-108.627312,-108.497612
-0.138428,-0.579346,-0.058594,91.064445,128.196716,-132.133484,0.504883,-1.009521,-0.006104,35.461426,-35.942078,-102.066032
-0.057617,-0.470215,-0.066895,18.188477,55.412289,-44.097897,0.508789,-0.993652,-0.024658,36.521912,-1.686096,-98.976128
-0.145996,-0.609375,-0.070068,99.174492,146.949768,-137.786865,0.523682,-0.99292,-0.05127,36.499023,31.372068,-96.466057
-0.149658,-0.813232,-0.143066,105.415337,192.466721,-154.388428,0.526367,-1.013916,-0.081787,36.453247,63.133236,-94.146721
-0.121582,-0.947021,-0.171875,99.70092,212.211594,-164.962753,0.518066,-1.039795,-0.112061,35.385132,91.812126,-91.926567
-0.081787,-1.04248,-0.172607,94.696037,225.028976,-177.436813,0.506348,-1.066406,-0.116455,33.416748,116.493217,-89.775078
-0.001709,-1.140869,-0.166992,92.048637,228.561386,-194.404587,0.490967,-1.091797,-0.113281,31.173704,136.047363,-87.287895
0.017334,-1.273926,-0.182129,89.698784,223.190292,-208.22142,0.464355,-1.115234,-0.12085,28.511045,148.933411,-84.266655
-0.041016,-1.41333,-0.219727,87.738029,220.474228,-216.949448,0.426025,-1.129639,-0.124023,24.345396,154.502869,-79.780579
-0.073486,-1.537598,-0.245361,86.21978,222.602829,-224.273666,0.302734,-0.985352,0.172852,-53.672787,-14.312743,-36.705017
-0.098633,-1.647949,-0.255615,85.571281,228.034958,-230.804428,0.501221,-1.045898,0.003906,33.103943,-72.059631,-105.308525
-0.064697,-1.734375,-0.264648,86.09771,232.261642,-235.786423,-0.035645,-1.640381,0.434082,-125.709526,-249.992355,-130.088806
-0.009277,-1.778076,-0.296631,86.151115,230.445847,-238.937363,0.448242,-1.206787,0.052246,15.312194,-177.955612,-114.334099
-0.159912,-0.680664,-0.10498,105.468742,169.097885,-144.920349,-0.218506,-1.31665,0.223389,-139.503479,-249.992355,-115.402214
-0.054932,-0.534668,-0.074707,6.484985,54.38232,-29.197691,-0.109619,-1.496826,0.339111,-135.543823,-249.992355,-122.917168
0.06543,-1.368652,0.023682,-249.992355,-32.592773,191.307053,0.223145,-0.811035,0.217041,-39.894104,76.004028,-82.641594
-0.03125,-0.644043,-0.078857,-11.260985,50.628658,4.951477,0.21875,-0.753418,0.198975,-38.970947,105.934135,-91.590874
-0.048096,-0.601318,-0.07666,-3.486633,52.757259,-12.695312,0.217041,-0.710938,0.172852,-38.9328,137.557983,-100.5783
0.120117,-1.395508,0.015869,-227.706894,-67.474365,198.783859,0.20874,-0.691162,0.145508,-39.321899,167.52623,-108.406059
0.117188,-1.434082,-0.036865,-214.195236,-78.330994,195.899948,0.194824,-0.687012,0.117188,-39.230347,193.939194,-115.70739
0.110107,-1.48999,-0.115234,-203.704819,-86.044304,191.3452,0.184326,-0.682129,0.087158,-40.626522,214.935287,-122.459404
0.089355,-1.554932,-0.194336,-196.342453,-89.378349,185.493454,0.172607,-0.689209,0.067383,-42.640682,229.835495,-128.349304
0.050049,-1.598877,-0.264893,-190.978989,-87.905876,178.98558,0.149658,-0.702637,0.049072,-44.56329,237.152084,-133.499146
-0.006836,-1.587646,-0.299072,-186.080917,-82.199089,171.890244,0.093506,-0.71167,0.022705,-47.653194,233.627304,-137.084961
-0.050537,-1.527344,-0.312256,-180.679306,-74.066162,164.710983,0.015137,-0.70752,-0.001709,-52.932735,215.179428,-138.389587
-0.081787,-1.432617,-0.308105,-174.140915,-64.613342,158.119202,0.234375,-0.863525,0.217529,-42.533871,50.598141,-73.188782
-0.095459,-1.309814,-0.297607,-165.679916,-54.527279,151.931763,-0.060791,-0.711426,-0.003174,-63.041683,148.887634,-140.87677
-0.092773,-1.189453,-0.260742,-154.922485,-44.479366,146.057129,-0.046143,-0.708496,-0.006104,-58.1665,184.516891,-138.816833
0.111816,-1.379395,0.039307,-241.836533,-55.282589,199.859604,-0.224854,-1.091064,0.056885,-134.605408,-249.992355,-116.83654
-0.081055,-1.008789,-0.185791,-133.987427,-24.459837,135.765076,-0.138672,-1.006348,0.008545,-128.204346,-244.270309,-124.183647
-0.087402,-1.089355,-0.21875,-144.020081,-34.568787,140.762329,-0.133301,-0.936768,0.010742,-119.003288,-183.639511,-130.4245
-0.002441,-0.658691,-0.063721,-26.68762,44.30389,41.236874,-0.155029,-0.881592,-0.000732,-112.358086,-101.768486,-138.580322
0.009277,-0.676025,-0.064209,-38.139343,39.337158,58.403011,-0.280762,-1.175537,0.130371,-137.550354,-249.992355,-112.831108
0.015137,-0.708984,-0.066406,-51.292416,33.309937,73.417664,-0.124512,-0.754639,-0.024902,-94.825737,30.97534,-148.05603
0.011475,-0.746582,-0.074463,-64.399719,26.824949,86.540215,-0.054688,-0.728516,-0.014893,-82.015984,79.582214,-147.644043
-0.014648,-0.660156,-0.074219,-18.2724,48.027035,23.094175,-0.039063,-0.713867,-0.009033,-70.510864,115.028374,-145.202637
-0.01416,-0.795898,-0.103516,-86.669914,12.847899,108.833305,-0.161865,-0.806641,-0.020996,-105.560295,-31.257627,-145.881653
-0.039795,-0.824951,-0.121582,-98.861687,4.776001,117.675774,0.347656,-0.957275,0.106201,80.55114,-249.572739,60.127254
-0.05957,-0.876465,-0.138428,-111.778252,-4.173279,124.938957,0.012207,-1.257324,0.010986,0.083923,-103.301994,-20.797728
-0.072998,-0.938965,-0.162109,-123.725883,-14.205932,130.737305,0.026855,-1.221191,0.091309,17.349243,-137.619019,-4.600525
0.002686,-0.777588,-0.087158,-75.790405,20.095823,98.335258,0.062012,-1.207764,0.119873,35.614014,-170.089706,10.963439
0.55542,-1.385986,-0.167969,-206.443771,-54.801937,186.782822,0.132324,-1.187256,0.097656,51.475521,-196.319565,23.887632
-0.135742,-1.073242,-0.323242,-249.992355,249.893173,129.013062,0.214111,-1.152588,0.049316,62.248226,-214.988693,33.676147
0.081543,-1.064697,-0.336426,-249.992355,249.229416,155.61676,0.29126,-1.118896,-0.002197,67.596436,-227.661118,42.480465
0.320801,-1.092529,-0.260254,-249.992355,249.992355,176.986679,-0.024414,-1.317383,-0.005371,-11.848449,-70.610046,-36.376953
0.517334,-1.135254,-0.146973,-249.893173,249.43541,191.696152,0.340088,-1.087891,-0.020752,71.357727,-237.07579,49.736019
0.66748,-1.164307,-0.026367,-249.824509,196.952805,198.829636,0.347168,-1.028564,0.038086,75.630188,-245.056137,55.366512
0.752686,-1.188721,0.049561,-249.992355,128.53241,198.77623,0.368164,-0.90918,0.119873,84.159843,-249.992355,63.896175
0.729736,-1.243164,0.047363,-246.871933,60.005184,195.388779,0.431152,-0.762207,0.082764,80.574028,-216.552719,69.572449
0.651367,-1.313232,-0.011719,-226.135239,-2.26593,191.0858,0.425049,-0.835693,0.10498,85.914604,-247.749313,68.29834
-0.293213,-1.116455,-0.293945,-240.776047,249.992355,95.825188,0.438477,-0.813721,0.095215,84.770195,-238.746628,69.107056
0.019531,-1.468262,-0.449951,-143.699646,-99.868767,191.879257,0.441895,-0.791992,0.080811,82.908623,-227.920517,69.572449
0.188232,-1.546631,-0.508301,-165.725693,-125.938408,186.630234,0.423584,-0.730469,0.090088,76.881409,-204.3228,68.283081
0.101074,-1.565186,-0.514648,-155.601501,-123.374931,189.498886,0.419434,-0.710693,0.092529,72.235107,-190.734848,66.711426
0.050537,-1.546143,-0.500488,-148.971558,-113.357536,192.008957,0.410889,-0.69458,0.09082,66.879272,-176.399216,65.170288
-0.006348,-1.366455,-0.366211,-136.558533,-85.685722,189.94902,0.39917,-0.689453,0.094727,61.119076,-161.972031,63.667294
-0.021729,-1.265381,-0.289551,-126.327507,-71.754456,187.622055,0.38623,-0.692383,0.101807,54.794308,-148.025513,62.911983
-0.013672,-1.167236,-0.222412,-113.502495,-58.906551,184.02861,0.374756,-0.701904,0.116455,47.927853,-134.880066,62.599178
0.000732,-1.082275,-0.17749,-98.94561,-47.554012,178.787216,-0.088623,-1.39502,0.070801,-20.454405,-36.476135,-52.604671
0.021973,-1.009521,-0.139404,-83.412163,-37.597656,172.370895,0.398193,-0.871582,0.113525,85.754387,-249.992355,66.711426
0.0354,-0.943115,-0.103271,-66.558838,-29.029844,165.817245,-0.129395,-1.456543,0.139404,-32.722473,2.151489,-69.969177
-0.475342,-1.237305,-0.286377,-208.572372,246.994003,56.564327,0.369873,-0.711426,0.134766,40.817257,-122.146599,61.859127
0.429688,-1.455566,-0.334961,-190.635666,-93.856804,184.28801,-0.126953,-1.490723,0.094482,-60.394283,81.863396,-107.185356
-0.548828,-1.320313,-0.375,-165.641769,202.110275,4.096985,0.192871,-1.023926,0.122559,-24.391172,-117.179863,42.839046
-0.126465,-0.864746,-0.216064,146.774292,-249.992355,-249.992355,0.194336,-0.978516,0.115234,-23.651121,-111.618034,31.890867
-0.552979,-1.290771,-0.388916,-56.945797,102.439873,-50.788876,0.194336,-0.921143,0.099854,-22.445677,-100.975029,20.851133
0.19751,-0.856689,-0.35083,198.371872,-249.992355,-125.526421,0.199951,-0.865723,0.078857,-22.094725,-84.640495,9.513855
0.218018,-0.85083,-0.350586,193.939194,-249.992355,-139.213562,0.201416,-0.814453,0.061768,-22.941587,-63.049313,-2.418518
0.179932,-0.802002,-0.346191,194.198593,-249.992355,-160.293579,0.202881,-0.781738,0.041504,-24.330137,-36.315918,-13.710021
0.127441,-0.784668,-0.330322,192.459091,-249.992355,-186.325058,0.21582,-0.78125,0.022949,-24.55139,-4.455566,-24.124144
0.142334,-0.791992,-0.388916,188.31633,-249.992355,-196.655258,0.236572,-0.801025,0.013428,-22.583006,30.876158,-34.347534
0.189209,-0.803467,-0.452148,180.519089,-249.992355,-195.281967,0.263184,-0.813965,0.008789,-19.447327,67.070007,-45.013424
0.133789,-0.772949,-0.448975,173.393234,-249.992355,-200.820908,0.28418,-0.792725,-0.005859,-18.707275,101.165764,-56.800838
0.04541,-0.756348,-0.393066,173.751816,-249.992355,-208.885178,-0.14209,-1.485107,0.135498,-48.042294,42.907711,-88.371269
0.020996,-0.851318,-0.395752,168.495163,-249.992355,-223.793015,0.290771,-0.749023,-0.033203,-21.415709,130.401611,-70.594788
0.00415,-0.977783,-0.390869,155.784607,-249.992355,-236.282333,0.248047,-0.674072,-0.090576,-31.623838,167.037949,-99.723808
-0.437256,-1.338135,-0.37915,-109.748833,152.763367,-26.992796,0.21875,-0.687988,-0.133301,-38.070679,175.308212,-114.418022
-0.000977,-1.040771,-0.335205,142.730713,-249.992355,-247.016891,0.198975,-0.753662,-0.187988,-43.815609,178.901657,-128.196716
0.042969,-0.880127,-0.07373,-47.760006,-21.690367,158.294678,0.179688,-0.865234,-0.231934,-48.561092,180.145248,-137.924194
-0.263672,-0.782227,-0.190186,164.413437,-249.656662,-249.992355,0.152588,-1.000732,-0.248779,-53.237911,179.649338,-142.944336
-0.432617,-0.846924,-0.246826,173.774704,-249.534592,-249.908432,0.118408,-1.137207,-0.22876,-58.67004,176.551804,-145.492554
-0.73877,-1.044434,-0.295898,164.459213,-249.992355,-249.847397,0.07373,-1.250732,-0.178223,-64.796448,169.944748,-146.606445
-0.914551,-1.150391,-0.300293,150.405884,-239.509567,-249.992355,0.016113,-1.329346,-0.099365,-69.824219,159.255981,-144.889832
-0.884766,-1.191406,-0.348877,132.30896,-178.581223,-247.444138,-0.039795,-1.397949,-0.020752,-71.792603,142.01355,-137.985229
-0.914795,-1.318604,-0.398438,92.445366,-116.813652,-224.655136,-0.087891,-1.461182,0.042236,-68.588257,115.936272,-124.855034
-0.902832,-1.363281,-0.37915,51.162716,-51.666256,-185.302719,0.2771,-0.698975,-0.061035,-26.023863,152.442932,-85.304253
-0.843506,-1.299805,-0.362793,18.707275,6.210327,-130.882263,0.374512,-0.726074,0.151367,33.493042,-109.260551,60.653683
-0.69751,-1.250977,-0.366211,-12.832641,56.587215,-85.403435,0.37915,-0.751221,0.170166,25.917051,-95.878593,58.692928
-0.014404,-0.989502,-0.270752,137.695313,-249.992355,-249.992355,0.56543,-0.562988,0.151611,17.692566,40.870663,-18.829346
0.046387,-0.822998,-0.062012,-28.305052,-14.801024,148.597717,0.648438,-1.304688,0.231934,13.931273,45.81451,26.077269
0.297852,-1.511963,-0.44751,-177.490219,-117.08831,184.509262,0.624756,-1.283447,0.180176,25.985716,57.777401,27.893064
0.023682,-0.764893,-0.103271,0.595093,-1.098633,123.443596,0.579346,-1.237061,0.114746,35.247803,63.987728,30.731199
-0.025391,-1.237549,-0.08667,158.889771,50.277706,-172.210678,0.532959,-1.166016,0.043213,38.238525,61.523434,34.767151
-0.002686,-1.339844,-0.115967,157.920837,51.895138,-174.919113,0.51709,-1.088379,-0.006836,35.743713,48.431393,38.108826
-0.032227,-1.43042,-0.13501,154.006958,57.060238,-174.652084,0.523438,-1.019043,-0.025879,30.433653,28.907774,38.604736
-0.041504,-1.488281,-0.131104,148.55957,65.567017,-174.056992,0.543945,-0.976563,-0.023438,24.162291,10.513305,37.071228
-0.011475,-1.49707,-0.106689,145.118713,73.616028,-173.385605,0.551758,-0.941406,-0.004883,19.233704,-4.53949,36.453247
0.008789,-1.480957,-0.105225,142.372131,79.978943,-170.67717,0.535156,-0.918457,0.009766,15.731811,-17.662048,38.154602
0.034668,-1.496094,-0.138184,134.140015,88.134758,-168.434128,0.487061,-0.922607,0.052002,10.253905,-48.454281,42.678829
0.066162,-1.575439,-0.188232,113.700859,94.589226,-165.1306,0.660645,-1.301025,0.272461,0.488281,28.411863,25.070189
0.062744,-1.623779,-0.183105,83.778374,101.173393,-160.095215,0.45752,-0.937256,0.098145,7.637023,-66.78772,44.639584
0.096191,-1.604736,-0.119629,52.558895,105.575554,-154.121399,0.469482,-0.988281,0.204102,7.545471,-94.90966,44.18182
-0.066162,-1.143066,-0.051514,156.814575,45.654293,-165.107712,0.514648,-1.00708,0.239014,11.589049,-96.244804,42.579647
0.138916,-1.498291,-0.02002,29.663084,102.645866,-143.440247,0.55127,-1.001465,0.256104,17.425537,-89.653008,39.398193
0.152832,-1.164307,0.063721,9.414673,94.528191,-105.392448,0.553467,-0.960938,0.266846,22.819517,-78.605652,33.935547
0.16333,-1.016846,0.061279,5.142211,95.268242,-81.893913,0.550781,-0.896973,0.26001,26.199339,-65.383911,26.672361
0.188721,-0.919434,0.045654,3.349304,95.840446,-56.663509,0.562012,-0.821045,0.245605,27.725218,-49.896236,19.630432
0.228027,-0.891846,0.037842,0.511169,94.749443,-28.95355,0.576904,-0.748535,0.222412,27.046202,-31.98242,13.420104
0.29834,-0.932617,0.041504,-8.06427,90.682976,1.625061,0.57373,-0.688477,0.201172,24.490355,-11.825561,5.79071
0.38208,-1.019043,0.036377,-25.772093,83.45031,31.09741,0.56665,-0.630127,0.172119,21.453856,12.023925,-5.439758
0.42334,-1.134277,0.0354,-51.307674,72.669983,56.846615,0.382324,-0.783936,0.190186,18.890381,-82.557671,56.320187
0.428711,-1.274414,0.059326,-80.101013,59.715267,79.856873,0.450439,-0.959473,0.155029,6.41632,-83.885185,45.158382
0.432129,-1.414063,0.094482,-102.561943,46.661373,99.83062,0.647461,-1.269775,0.30127,-15.037536,7.087707,24.261473
0.434082,-1.529785,0.071777,-114.807121,33.096313,114.387505,0.516113,-0.914795,0.023926,13.099669,-31.623838,40.252682
0.154541,-1.333252,0.047607,17.044067,97.015373,-126.41906,0.525391,-1.068604,0.337891,-52.864071,-38.665771,14.663695
-0.067871,-1.0625,0.002686,152.191162,39.237976,-158.706665,0.38916,-0.827881,0.206299,12.878417,-69.572449,53.932186
0.038574,-0.782227,-0.073486,-11.20758,-8.094788,136.650085,0.603516,-1.188232,0.320801,-33.340454,-16.471863,20.774839
-0.072998,-0.973145,0.051025,132.255554,22.613523,-146.16394,0.396484,-0.876221,0.221191,7.606506,-57.380672,50.659176
-0.077393,-0.998291,0.059082,143.676758,31.738279,-152.626038,0.395996,-0.921387,0.231201,2.685547,-46.455379,45.577999
0.004395,-0.72583,-0.115479,9.986877,6.462097,109.451286,0.382568,-0.948975,0.244873,-1.289368,-38.024902,39.009094
-0.013672,-0.676514,-0.124023,17.883301,14.022826,94.741814,0.371094,-0.965332,0.250977,-4.524231,-32.600403,31.784056
-0.019531,-0.608154,-0.123047,25.894163,21.369932,80.032349,0.359131,-0.966797,0.245117,-7.919311,-29.46472,24.67346
-0.022705,-0.529297,-0.11377,35.827637,27.931211,65.811157,0.345215,-0.960693,0.235596,-11.360168,-29.08325,17.868042
-0.019775,-0.469238,-0.097656,45.234676,33.035278,51.719662,0.301758,-0.913818,0.181396,-20.286558,-37.811279,6.538391
-0.024658,-0.442627,-0.074463,52.398678,36.834717,37.437439,0.301758,-0.871338,0.147705,-26.756285,-45.654293,1.914978
-0.035645,-0.420166,-0.040527,63.308712,42.434689,10.528563,0.323486,-0.813721,0.106689,-36.689758,-53.245541,-2.311707
-0.026367,-0.413086,-0.021729,69.068909,43.884274,-2.296448,0.345703,-0.771484,0.07251,-49.072262,-60.073849,-6.050109
-0.012207,-0.41626,-0.012939,75.454712,43.510433,-14.86206,0.323242,-0.942383,0.209961,-15.373229,-31.936644,11.718749
-0.004395,-0.429199,-0.003662,82.069389,41.923519,-27.381895,0.357666,-0.806396,0.335449,-82.229607,-65.2771,5.981445
-0.039307,-0.43042,-0.058594,58.120724,39.840698,23.620604,0.336426,-0.756592,0.072021,-68.618774,-72.685242,-9.811401
0.005615,-0.491455,-0.003662,92.735283,33.782959,-51.818844,0.338867,-0.772705,0.10376,-72.776794,-78.041077,-9.147644
0.020264,-0.531738,-0.005371,95.802299,26.908873,-64.331055,0.349854,-0.779541,0.139404,-74.21875,-79.574585,-7.17926
0.032715,-0.57666,-0.001465,98.678581,18.218994,-76.652527,0.342041,-0.752441,0.177002,-76.637268,-77.049255,-4.989624
-0.041992,-0.943848,0.017334,123.741142,13.809203,-140.396118,0.316895,-0.712646,0.214111,-81.062309,-73.34137,-3.364563
0.026855,-0.615479,0.005371,102.60009,9.727478,-88.310234,0.297363,-0.686523,0.253418,-85.403435,-72.006226,-1.953125
0.015137,-0.659912,0.008057,107.017509,3.39508,-99.052422,0.293213,-0.683105,0.284424,-88.24157,-71.907043,0.267029
0.005615,-0.717529,0.005127,110.336296,-0.534058,-108.688347,0.314453,-0.718018,0.311768,-88.005058,-70.404053,2.883911
-0.012939,-0.763916,0.006592,113.342278,-0.923157,-117.103569,0.344971,-0.75415,0.063232,-60.462948,-66.383362,-8.644104
-0.023193,-0.817627,0.005859,116.638176,1.960754,-125.198357,0.428467,-0.939453,0.346191,-70.175171,-55.458065,9.597778
-0.027344,-0.883545,0.004395,119.651787,6.67572,-133.331299,0.275635,-0.929443,0.199219,-45.341488,-112.586967,-79.902649
0.0,-0.456299,-0.001221,88.279716,38.665771,-39.833069,0.25708,-0.885254,0.206543,-29.617308,-123.146049,-76.881409
0.994385,-0.815674,-0.155518,-21.850584,-118.499748,-32.958984,0.251221,-0.866943,0.22583,-15.594481,-131.156921,-73.074341
1.043701,-0.904541,-0.102051,-6.988525,-6.362915,27.984617,0.238281,-0.837402,0.229492,-4.432678,-137.695313,-69.229126
1.012695,-0.946777,-0.094238,15.411376,118.10302,80.154419,0.231201,-0.762695,0.221191,36.338806,-129.096985,-56.465145
-0.583008,-0.825195,-0.166016,11.070251,249.992355,211.37999,0.209961,-0.789551,0.228271,17.059326,-140.037537,-62.126156
0.796631,-0.80542,-0.168945,60.409542,249.992355,175.384506,0.216553,-0.785889,0.227783,25.886534,-136.032104,-59.135433
0.320068,-0.754883,-0.193848,56.716915,248.80217,204.528793,0.231689,-0.780029,0.223633,31.654356,-132.118225,-57.716366
-0.226318,-0.761475,-0.229004,39.001465,249.473557,219.299301,0.281738,-1.016357,0.232422,-56.678768,-101.867668,-82.649223
0.844238,-0.707275,-0.219971,-29.426573,-212.768539,-92.063896,0.21875,-0.809814,0.230957,6.622314,-141.075134,-65.52887
0.963135,-0.911377,-0.122803,42.953487,236.213669,129.241943,0.257568,-1.104492,0.277832,-61.592098,-97.93853,-85.189812
0.60791,-0.598145,-0.233154,-27.496336,-249.664291,-126.579277,0.19458,-0.939697,0.082031,-29.434202,-162.277206,-66.497803
0.314941,-0.914551,-0.480469,-47.950741,249.992355,27.603148,0.214355,-1.172852,0.350342,-62.683102,-110.763542,-94.169609
-0.076904,-0.417236,-0.166992,9.819031,-249.992355,-159.27124,0.252686,-1.204102,0.354248,-58.013912,-116.981499,-96.443169
-0.52002,-0.416016,-0.063721,24.559019,-249.992355,-151.496887,0.213623,-1.166992,0.330566,-49.865719,-122.817986,-94.779961
-0.938232,-0.439209,0.087402,40.390011,-212.913498,-122.772209,0.152588,-1.099609,0.234863,-45.81451,-136.558533,-93.490593
-1.251465,-0.49292,0.166992,57.266232,-71.342468,-89.073174,0.146729,-1.079102,0.166504,-44.548031,-149.604797,-91.712944
-1.329834,-0.625977,0.12085,61.912533,114.532463,-50.384518,0.159668,-1.07959,0.132324,-42.854305,-157.501221,-87.417595
-1.11792,-0.777344,-0.047852,45.875546,240.707382,-6.790161,0.184814,-1.084229,0.118408,-39.390564,-161.338791,-82.176201
-0.758789,-0.846436,-0.221924,19.821167,249.992355,25.001524,0.200684,-1.064209,0.101318,-34.667969,-162.223801,-76.972961
-0.389893,-0.859619,-0.347412,-4.79126,249.992355,42.076107,0.207031,-1.013184,0.084473,-31.059263,-162.261948,-71.846008
-0.049561,-0.862305,-0.415527,-21.293638,249.992355,48.782345,0.221436,-0.763916,0.227295,41.65649,-125.610344,-52.940365
0.175781,-0.884277,-0.460205,-34.988403,249.992355,41.427608,0.218262,-1.148438,0.330811,-62.461849,-102.279655,-89.073174
-0.789551,-0.966309,-0.121338,-18.226624,249.992355,173.431381,0.219482,-0.781982,0.227051,45.143124,-121.940605,-49.057003
0.291504,-0.479248,-0.20752,-10.650634,-249.000534,-146.118164,0.088135,-0.981445,0.188965,38.238525,-134.963989,-32.432556
-0.944336,-1.085938,-0.098633,-33.973694,230.247482,126.266472,0.244873,-0.821777,0.20459,48.202511,-117.767326,-42.739864
0.594482,-1.038086,0.009033,-87.242119,-132.255554,81.222527,0.187988,-0.866699,0.078125,-31.829832,-162.849411,-60.546871
-0.984131,-1.207764,0.018555,-47.294613,-11.184691,48.423763,-0.158691,-1.293701,0.160645,20.210264,39.329529,-48.500057
-0.141846,-1.045654,-0.183838,1.487732,-169.708237,-42.304989,-0.264648,-1.26709,0.137695,27.175901,14.976501,-52.001949
0.406982,-0.951416,-0.499512,-60.9436,249.992355,9.017944,-0.310791,-1.26416,0.094727,32.615662,-10.581969,-51.666256
-0.253174,-1.050049,-0.16626,-9.346008,-112.731926,-18.310547,-0.304199,-1.268311,0.050049,35.774231,-29.907225,-52.268978
-0.296631,-1.036377,-0.147949,-15.769958,-78.681946,-0.63324,-0.212646,-1.260986,-0.008545,35.507202,-39.245605,-56.312557
-0.338135,-1.02417,-0.138428,-22.712706,-43.495174,20.599363,-0.071289,-1.226807,-0.059326,32.012939,-44.326778,-60.028072
-0.361572,-1.013916,-0.123047,-30.410765,-7.247924,43.922421,-0.027588,-1.185547,-0.071289,27.160643,-49.301144,-59.623714
-0.349609,-1.00415,-0.099609,-37.93335,28.778074,66.825867,-0.059326,-1.14624,-0.040527,23.91815,-55.77087,-55.435177
-0.332764,-0.996338,-0.087402,-44.326778,62.301632,88.287346,-0.092773,-1.108643,0.022461,23.551939,-65.52124,-49.34692
-0.29541,-0.994629,-0.077148,-49.827572,89.012138,109.725945,0.231201,-0.799561,0.221436,46.997066,-119.049065,-45.913692
-0.185791,-0.993896,-0.048828,-55.229183,102.645866,130.569458,-0.116211,-1.073486,0.090576,25.039671,-79.353333,-43.121334
0.010742,-0.992432,-0.027588,-60.714718,96.939079,145.072937,-0.085205,-0.993896,0.19751,28.472898,-113.494865,-36.2854
0.265869,-1.033203,-0.009033,-69.602966,65.666199,144.78302,-0.006348,-0.972412,0.225342,33.317566,-127.006523,-34.057617
0.509277,-1.076172,0.033203,-78.788757,9.025574,130.821228,0.161133,-0.990479,0.124512,41.000362,-138.618469,-31.990049
0.628174,-1.080566,0.056396,-84.411613,-63.476559,108.01696,0.216553,-0.986084,0.105469,42.732235,-138.755798,-32.455444
0.492676,-1.016602,-0.054199,-91.690056,-184.486374,53.207394,0.273438,-0.966797,0.112549,43.41888,-136.657715,-33.111572
0.398682,-1.058838,-0.102539,-97.885124,-217.330917,25.245665,0.300781,-0.955566,0.12793,45.44067,-132.148743,-32.699585
0.341553,-1.136963,-0.162598,-102.180473,-231.796249,-1.167297,0.295898,-0.97168,0.148438,49.858089,-126.976006,-31.524656
0.267578,-1.237061,-0.197266,-105.094902,-237.243637,-23.910521,0.280762,-0.982178,0.165039,52.490231,-123.481743,-31.990049
0.159668,-1.285889,-0.202148,-105.155937,-241.760239,-40.267941,0.272461,-0.94751,0.181396,51.048275,-120.559685,-35.881042
0.019043,-1.279785,-0.177246,-99.31945,-239.822372,-47.546383,0.26416,-0.873291,0.195313,49.003597,-118.362419,-39.833069
-0.165527,-1.253174,-0.15332,-89.515678,-221.214279,-45.577999,-0.116943,-1.031738,0.149902,26.351927,-96.443169,-38.841248
-0.463623,-1.208008,-0.133301,-76.446533,-182.365402,-29.220579,0.207764,-0.823242,0.076416,-37.254333,-163.383469,-53.184505
-0.78418,-1.207031,-0.039063,-60.409542,-113.243095,4.951477,0.241211,-0.835693,0.085205,-40.710445,-161.834702,-45.722958
-1.035889,-1.161621,-0.034424,-39.94751,118.324272,87.707512,0.281494,-0.890869,0.096436,-39.367676,-157.905579,-39.367676
-0.20166,-1.05249,-0.183594,-3.067016,-144.012451,-32.165527,0.29248,-0.896484,-0.03833,41.328426,-81.779472,65.2771
0.452637,-1.017822,-0.548828,-77.949524,249.992355,-14.320373,0.309814,-0.866211,-0.04126,40.313717,-77.972412,66.078186
0.648926,-1.17749,-0.580811,-116.45507,249.992355,-67.146301,0.322021,-0.835205,-0.028564,38.894653,-72.380066,68.16864
0.224609,-1.525391,-0.144531,-110.862724,-113.93737,167.9077,0.336182,-0.826172,0.008301,39.138794,-64.437866,70.793152
0.142578,-1.398193,-0.135254,-97.694389,-106.75811,161.514267,0.341064,-0.836914,0.030273,41.137691,-53.894039,72.380066
0.107666,-1.250244,-0.142334,-84.70916,-97.045891,157.119751,0.339355,-0.841797,0.026123,43.334957,-43.144222,73.028564
0.112549,-1.101318,-0.152832,-70.617676,-87.890617,153.961182,0.334229,-0.851074,0.017578,43.762203,-32.524109,74.783325
0.123047,-0.984863,-0.148682,-56.434628,-82.321159,148.384094,0.320068,-0.869629,0.020508,44.006344,-22.796629,77.682495
0.124268,-0.895752,-0.126709,-41.900631,-78.781128,141.349792,0.295166,-0.86792,0.018066,43.151852,-15.876769,79.208374
0.109863,-0.80957,-0.098389,-25.375364,-74.745178,132.400513,0.294922,-0.866699,0.004395,39.260864,-11.642455,79.597473
0.119141,-0.709961,-0.064697,-5.004883,-70.838928,121.261589,0.285645,-0.922852,-0.044189,40.534969,-84.297173,63.934322
0.159424,-0.616455,-0.033936,17.593384,-70.487976,109.680168,0.299072,-0.881836,0.016846,36.018372,-7.034301,80.917351
0.192871,-0.546387,-0.005371,40.740963,-75.889587,96.572868,0.235352,-0.9104,0.025146,31.242369,-12.039184,86.647026
0.352539,-1.60791,-0.173096,-124.580376,-116.004936,173.973068,0.213623,-0.903564,0.015137,25.703428,-22.621153,88.668816
0.212158,-0.518311,0.012939,63.362118,-85.868828,80.642693,0.210938,-0.899658,0.010742,19.485474,-34.568787,87.532036
0.236816,-0.549316,-0.006836,103.98864,-111.305229,40.443417,0.216553,-0.907959,0.016113,11.474608,-43.968197,85.815422
0.22583,-0.571777,-0.030273,122.596733,-124.130241,17.967224,0.208496,-0.914307,0.016113,1.594543,-53.031918,83.991997
0.207031,-0.582031,-0.066162,140.4953,-136.390686,-4.142761,0.201904,-0.936035,0.034912,-7.133483,-63.407894,81.329338
0.185547,-0.596924,-0.117188,155.555725,-149.032593,-24.375914,0.192871,-0.974609,0.061035,-13.755797,-74.462891,78.140259
0.161865,-0.599121,-0.158447,168.78508,-163.391098,-41.046139,0.177979,-1.013672,0.084717,-18.859863,-86.669914,73.959351
0.142578,-0.605469,-0.195068,181.289658,-179.260239,-55.725094,0.159668,-1.037354,0.109131,-22.438047,-99.494926,68.695068
0.133057,-0.626709,-0.246826,192.161545,-197.845444,-69.374084,0.157227,-1.051758,0.123047,-24.253843,-110.809319,61.69128
0.134766,-0.652832,-0.281738,202.285751,-222.198471,-82.466118,0.271484,-0.902832,0.026123,34.515381,-6.225585,83.297722
0.1521,-0.715576,-0.31958,208.030685,-245.452866,-96.099846,0.27417,-0.935059,-0.055664,38.223267,-84.411613,62.57629
0.174072,-0.799072,-0.342529,205.680832,-249.992355,-110.893242,0.178711,-1.049316,0.124512,-24.574278,-117.156975,52.970882
0.232666,-0.527344,0.009521,84.434502,-98.152153,61.836239,0.24292,-0.9729,-0.059082,35.202026,-70.358276,60.791012
0.475098,-1.683105,-0.143066,-135.490417,-115.554802,175.254807,0.250977,-0.945801,-0.063965,36.430359,-79.910278,61.882015
0.527344,-1.103027,-0.593994,-98.06823,249.977097,-39.268494,0.366943,-1.106934,0.073975,-28.297422,-144.233704,-23.91815
0.499756,-1.702637,-0.12207,-120.399467,-140.579224,149.475098,0.415527,-1.240723,0.065918,-19.454956,-133.010864,-15.441894
0.763428,-1.244629,-0.545166,-131.233215,249.992355,-98.31237,0.467529,-1.35791,0.057861,-9.353638,-118.362419,-7.881164
0.845703,-1.318604,-0.483643,-144.584656,249.069199,-128.097534,0.50415,-1.421143,0.044434,-0.015259,-101.280205,-1.861572
0.931885,-1.383545,-0.446533,-158.477783,249.992355,-156.12793,0.497314,-1.424316,0.026611,7.92694,-84.732048,3.532409
1.09375,-1.438965,-0.438232,-173.263535,249.992355,-192.718491,0.467041,-1.38501,0.014893,14.266967,-72.288513,7.751464
1.26001,-1.445313,-0.404297,-183.792099,211.914047,-237.609848,0.450439,-1.326172,-0.001709,18.592834,-62.126156,10.864257
1.26001,-1.397949,-0.343994,-185.585007,121.314995,-249.992355,0.438721,-1.267822,-0.014404,21.385191,-51.284786,13.778686
0.51001,-1.738281,-0.110352,-135.84137,-122.467033,165.901169,0.431641,-1.215332,-0.032715,23.170469,-40.023804,17.181396
0.986572,-1.169434,-0.283203,-164.443954,-47.370907,-249.992355,0.41626,-1.168213,-0.044922,24.780272,-29.281614,21.492002
0.826416,-1.059814,-0.249512,-141.014099,-118.164055,-249.992355,0.318604,-0.980225,0.091309,-34.919739,-152.130127,-32.279968
0.6521,-0.94751,-0.187744,-113.159172,-177.345261,-249.572739,0.404541,-1.089844,-0.064941,26.206968,-10.82611,30.128477
0.553711,-0.754639,-0.151855,-77.148438,-224.616989,-249.969467,0.244141,-0.992676,-0.058838,33.050537,-57.487484,58.532711
1.125,-1.309326,-0.307617,-179.962143,33.866882,-249.992355,0.416992,-1.053223,-0.090576,24.92523,-2.075195,33.233643
0.420166,-0.375488,-0.115479,23.53668,-249.992355,-234.840378,0.414063,-1.019287,-0.121094,22.331236,4.478455,36.254883
0.30835,-0.278809,-0.105469,86.753838,-249.992355,-174.270615,0.394775,-1.000732,-0.13623,19.630432,7.057189,39.543152
0.196777,-0.252686,-0.167725,147.766113,-249.992355,-108.322136,0.361084,-0.993652,-0.125244,18.974304,5.348205,42.533871
0.125244,-0.386475,-0.365723,188.034042,-249.992355,-51.025387,0.326172,-0.996094,-0.105469,19.683838,-0.984192,45.211788
0.104492,-0.694092,-0.705322,184.699997,-249.542221,-8.712769,0.293457,-1.000977,-0.087158,22.087095,-11.634826,48.248287
0.21875,-1.138672,-0.813477,130.577087,-249.992355,16.609192,0.269287,-1.006836,-0.074463,26.077269,-25.817869,51.818844
0.488525,-1.388916,-0.627686,50.170895,-249.992355,37.384033,0.244629,-1.002686,-0.068604,30.067442,-41.946407,55.435177
0.689209,-1.437256,-0.413574,-16.281128,-227.714523,70.091248,0.397461,-1.124512,-0.051758,25.886534,-19.737244,26.237486
0.692627,-1.465332,-0.271484,-60.005184,-195.327744,102.615349,0.368652,-0.998047,0.055664,-6.141662,-11.428832,-22.247313
0.572998,-1.566895,-0.173584,-92.681877,-166.984543,128.456116,0.35791,-0.942139,0.07251,-3.608703,-30.288694,-25.009153
0.509277,-0.53418,-0.151123,-32.226563,-248.947128,-249.992355,0.334473,-0.899414,0.070801,-1.167297,-48.96545,-28.114317
-0.571045,-1.184082,-0.198486,68.733215,64.994812,-100.044243,0.289795,-0.977539,0.093994,14.968871,-109.191887,-48.72131
-0.461914,-1.104736,-0.210449,76.660156,-25.329588,-132.423401,0.320557,-0.883301,0.074951,6.42395,-83.328239,-37.528992
-0.351807,-1.022461,-0.253418,82.458488,-100.288383,-162.513718,0.325195,-0.925781,0.071045,11.642455,-97.900383,-43.220516
-0.246582,-0.964355,-0.282227,85.578911,-160.194397,-188.758835,0.383057,-1.07251,0.04126,-7.324218,6.645202,-19.78302
0.178223,-0.735107,-0.381592,61.614986,-249.740585,-249.992355,0.232422,-0.999756,0.120605,13.96942,-115.653984,-53.489681
-0.101563,-0.905518,-0.34668,82.077019,-239.799484,-228.76738,0.314697,-0.875488,0.073486,1.861572,-66.65802,-32.249451
-0.0354,-0.865479,-0.360352,78.300476,-249.992355,-243.270859,0.393066,-1.148193,0.037842,-7.698059,22.331236,-17.677307
0.053223,-0.807129,-0.357422,71.632385,-249.992355,-249.992355,0.29541,-1.270996,0.114258,-11.32965,36.338806,-10.490417
-0.162842,-0.931396,-0.308594,85.067741,-205.802902,-210.807785,0.32959,-1.238525,0.039795,-9.70459,36.575317,-13.732909
-0.595703,-1.244873,-0.208984,58.715816,174.095139,-68.840027,0.2854,-1.253906,0.06543,-10.887145,35.606384,-12.756347
0.563965,-0.837891,-0.143311,-10.658263,114.19677,-111.587517,0.276367,-1.263916,0.092041,-11.680602,34.690857,-11.871337
-0.352051,-1.312744,-0.365723,32.066345,249.992355,-18.417358,0.297607,-1.266602,0.114258,-10.253905,40.809628,-9.475708
-0.160645,-1.341064,-0.419434,18.035889,249.992355,-9.58252,0.279541,-1.251221,0.109131,-8.407593,45.700069,-8.987427
0.047119,-1.370605,-0.425781,6.362915,249.984726,-3.791809,0.246338,-1.225342,0.108643,-5.622863,48.97308,-7.759094
0.185791,-1.377441,-0.40332,-1.38855,249.992355,-3.372192,0.215332,-1.187988,0.106934,-2.075195,49.011227,-5.455017
0.358643,-1.377197,-0.378174,-9.95636,249.992355,-10.467528,0.208252,-1.15625,0.095703,1.976013,47.08099,-3.692627
0.564697,-1.334229,-0.337646,-18.806458,249.336227,-19.91272,0.227295,-1.118408,0.061768,5.279541,46.310421,-3.349304
0.755615,-1.26001,-0.275146,-25.856016,249.992355,-32.157898,0.192139,-1.004395,0.128662,10.833739,-120.140068,-59.020992
0.789551,-1.163086,-0.199951,-30.815123,249.992355,-46.752926,0.25415,-1.062744,0.032471,7.308959,48.408504,-4.211426
0.705566,-1.027344,-0.139893,-29.304502,222.190842,-67.878723,0.373535,-1.204346,0.033691,-8.499146,33.081055,-15.571593
0.630127,-0.907471,-0.128418,-21.026609,163.688644,-91.537468,0.151855,-0.995605,0.121826,6.660461,-121.093742,-65.467834
0.357666,-0.691162,-0.361084,47.744747,-235.06926,-241.081223,0.312988,-0.915039,0.146973,-23.895262,-51.712032,-12.84027
-0.48999,-1.288574,-0.259033,46.646114,245.231613,-39.367676,0.120361,-0.994385,0.196533,-1.586914,-117.126457,-73.303223
0.529785,-0.723633,-0.304199,29.861448,-181.106552,-217.269882,0.310547,-0.907471,0.123047,9.475708,-61.302181,-35.247803
-0.613037,-0.796387,-0.368896,24.620054,249.992355,125.022881,0.241699,-1.009033,0.016113,9.284973,50.399776,-3.89862
0.851807,-0.992188,-0.246826,13.183593,3.974914,-129.501343,0.282959,-0.884766,0.127197,15.541076,-62.431332,-33.195496
0.497803,-0.823486,-0.167236,-4.188538,71.586609,-124.855034,0.271729,-0.854492,0.117432,18.333435,-66.131592,-30.3421
0.182861,-0.853271,-0.398926,-96.237175,-249.992355,-151.306152,0.276611,-0.822021,0.11377,20.03479,-69.55719,-26.397703
-0.023438,-0.895508,-0.362061,-91.743462,-249.969467,-181.968674,0.238037,-0.786133,0.135986,21.820066,-70.388794,-20.851133
-0.224609,-0.921875,-0.323975,-75.416565,-249.992355,-188.796982,0.226807,-0.764648,0.12793,22.842405,-69.892883,-18.486023
-0.436768,-0.974121,-0.308594,-56.701656,-249.946579,-186.187729,0.249756,-0.747314,0.092285,19.706726,-64.216614,-17.654419
-0.509521,-1.013184,-0.289795,-40.328976,-248.085007,-178.2379,0.315918,-0.733643,0.045898,10.215758,-50.85754,-17.76886
-0.623779,-0.984619,-0.209961,-18.127441,-249.992355,-153.152466,0.347412,-0.765137,0.028076,1.220703,-32.867432,-20.454405
-0.947754,-0.954102,-0.118896,9.475708,-249.992355,-110.588066,0.310791,-0.80835,0.033447,-2.746582,-26.222227,-22.460936
-1.300781,-0.979248,-0.082764,30.502317,-143.302917,-62.377926,0.294189,-0.829834,0.050293,-5.187988,-30.944822,-18.760681
-1.368408,-1.023193,-0.077393,38.246155,30.158995,-14.73236,0.290771,-0.850098,0.064453,-11.627196,-35.980225,-13.633727
0.677002,-0.846191,-0.257568,14.503478,-100.166313,-178.344711,0.305908,-0.900146,0.102295,-17.631531,-40.718075,-12.413024
-1.148193,-1.015381,-0.133545,34.683228,198.890671,32.63092,0.197998,-0.904053,0.164307,-31.150816,-71.495056,-12.107848
-0.695801,-0.846436,-0.312744,24.124144,249.992355,107.490532,0.122314,-0.94751,0.229004,-32.241821,-105.361931,-17.501831
-0.531006,-0.800537,-0.389648,27.534483,249.992355,134.32312,0.199707,-0.984375,0.198486,-38.162231,-128.082275,-35.865784
-0.417725,-0.808594,-0.45166,32.951355,249.992355,140.235901,0.174805,-1.033203,0.221924,-45.227047,-127.227776,-43.739315
-0.192139,-0.796631,-0.522461,40.061951,249.977097,136.329651,0.194824,-1.039551,0.31543,-42.602535,-130.355835,-53.443905
0.146484,-0.761475,-0.526367,52.284237,249.992355,121.040337,0.173096,-1.036377,0.29541,-32.669067,-123.374931,-64.117432
0.494385,-0.739502,-0.506348,66.055298,249.732956,91.308586,0.090576,-1.045898,0.310791,-22.453306,-119.560234,-70.106506
0.801758,-0.805176,-0.441406,71.098328,248.252853,49.934383,0.123779,-1.040283,0.264648,-14.434813,-127.738945,-74.577332
1.056641,-0.937256,-0.332275,62.217709,249.992355,4.615784,0.139893,-0.999756,0.229492,-8.003235,-123.01635,-75.492859
1.161133,-1.061768,-0.267578,42.930599,248.016342,-39.611816,0.099854,-0.988525,0.170166,3.52478,-115.997307,-69.244385
1.06665,-1.085205,-0.232422,24.848936,130.310059,-81.855766,0.212891,-0.971436,-0.001221,11.802672,48.355099,-1.777649
-0.880615,-0.941162,-0.224365,27.404783,249.992355,74.615479,-0.053223,-1.339844,0.15918,13.427733,59.265133,-40.016174
0.529541,-0.818604,-0.286133,-93.635551,-249.992355,-100.173943,0.191895,-0.933594,-0.008545,17.64679,37.765503,7.225036
0.425293,-0.834229,-0.165527,-1.686096,35.049438,-131.317139,0.148926,-1.063232,0.105957,48.96545,-72.052002,37.094116
0.312744,-0.805664,-0.108887,6.477355,-14.305114,-118.186943,0.159424,-1.048828,0.105713,56.625362,-70.892334,40.016174
-0.447266,-0.906738,0.140381,-17.318726,-116.477959,94.91729,0.163818,-1.020508,0.094727,64.064026,-67.199707,42.92297
-0.449707,-0.80542,0.125732,5.401611,-40.863033,124.053947,0.157227,-0.979492,0.072998,68.748474,-62.652584,45.173641
-0.389404,-0.778809,0.042236,26.473997,35.682678,153.97644,0.137451,-0.92627,0.05127,71.044922,-60.577389,48.057552
-0.295166,-0.790771,-0.011719,41.435238,100.357048,174.865707,0.128418,-0.873535,0.029297,72.761536,-62.065121,53.207394
-0.143555,-0.806396,-0.077637,49.430843,142.623901,183.845505,0.127441,-0.833496,0.000244,73.371887,-64.559937,59.860226
0.042725,-0.773926,-0.154541,54.901119,157.783508,182.060226,0.135254,-0.805176,-0.03833,70.869446,-65.02533,66.001892
0.239746,-0.727783,-0.20459,59.204098,146.720886,168.601974,0.156494,-0.784668,-0.074707,65.170288,-60.455318,70.152283
0.523926,-0.743164,-0.21875,54.664608,103.538506,145.324707,0.196777,-0.947998,-0.009521,14.579772,43.258663,2.510071
0.777344,-0.823975,-0.22876,37.460327,24.459837,113.258354,0.147949,-1.060791,0.09082,43.350216,-71.136475,34.40094
0.570068,-0.787109,-0.258057,19.973755,-163.74205,46.310421,0.193115,-0.755615,-0.121094,46.07391,-35.629272,69.42749
0.218506,-0.753174,-0.282471,22.636412,-227.088913,9.45282,0.15918,-0.751465,-0.14624,20.355223,-3.89862,63.011166
0.052979,-0.804443,-0.256348,19.134521,-249.458298,-16.899109,0.15332,-0.818848,-0.111572,11.398314,13.870238,58.303829
0.045898,-0.875244,-0.195068,14.488219,-249.992355,-27.366636,0.160889,-0.912842,-0.084473,5.203247,31.234739,52.558895
0.056152,-0.923096,-0.162842,12.046813,-243.400558,-33.432007,0.169922,-1.029297,-0.063721,0.541687,47.195431,45.600887
0.075928,-0.970947,-0.136719,11.07788,-234.992966,-39.405823,0.164063,-1.146484,-0.02832,-2.372742,61.546322,37.261963
0.106201,-1.020264,-0.123535,9.689331,-229.049667,-45.211788,0.155518,-1.240967,0.021729,-3.784179,72.799683,26.94702
0.094238,-1.062256,-0.141113,6.538391,-224.647507,-50.659176,0.137695,-1.296875,0.068848,-5.203247,79.64325,14.72473
0.039795,-1.085938,-0.162842,3.166198,-218.170151,-54.153439,0.081543,-1.331787,0.109619,-4.951477,81.512444,1.235962
-0.033203,-1.077393,-0.176758,1.88446,-206.779465,-53.558346,0.009766,-1.361328,0.136719,-0.480652,79.322815,-12.611388
-0.092041,-1.054688,-0.18042,2.464294,-190.155014,-49.385067,-0.019531,-1.369873,0.149414,6.805419,72.868347,-27.19116
0.360107,-0.836914,-0.118408,0.915527,6.660461,-128.662109,0.171631,-0.734131,-0.137695,32.470703,-19.615173,66.642761
-0.425537,-1.004883,0.118408,-34.568787,-185.218796,71.95282,0.12085,-1.046875,0.063232,39.543152,-65.834045,32.608032
-0.388916,-1.047607,0.076904,-46.600338,-243.331894,49.621578,0.18335,-0.773926,-0.102783,57.296749,-50.148006,71.235657
0.819336,-0.849365,-0.234619,21.308897,-72.20459,79.902649,0.135498,-0.981689,0.021484,32.112122,-37.68158,29.220579
-0.147705,-1.014404,-0.078125,-61.790462,-249.42778,7.835388,0.103516,-1.011475,0.037354,34.576416,-52.848812,31.272886
0.255859,-0.761963,-0.119141,14.709472,-28.854368,-102.424614,0.195557,-0.914063,0.006348,20.523069,33.966064,10.307311
-0.305908,-1.0354,0.000977,-54.908749,-249.992355,26.847837,0.205566,-0.894043,0.00415,23.452757,31.631468,12.96997
0.1875,-0.731445,-0.129395,24.29962,-33.714294,-82.656853,0.215088,-0.871582,-0.011963,26.130674,29.281614,15.960692
0.125,-0.739258,-0.14209,32.936096,-25.878904,-62.377926,0.218262,-0.864502,-0.027344,27.847288,27.091978,18.623352
0.067627,-0.787109,-0.146973,37.67395,-3.921509,-42.221066,0.22583,-0.871826,-0.045166,29.663084,25.405882,21.675108
0.052734,-0.885498,-0.154297,36.689758,28.373716,-21.40045,0.233154,-0.92334,-0.057617,35.568237,23.933409,29.434202
0.126953,-1.012695,-0.149658,28.45764,62.049862,-0.785828,0.250732,-0.956543,-0.052246,38.642883,23.681639,33.14209
0.424316,-1.155762,-0.165771,5.91278,97.373955,43.998714,0.272705,-0.992188,-0.033447,43.457027,26.199339,35.804749
0.554199,-1.185791,-0.200439,-2.02179,91.117851,59.791561,0.282227,-0.989258,-0.033203,46.112057,31.120298,36.994934
0.684814,-1.213379,-0.230225,-7.5531,64.956665,67.520142,0.285645,-0.962402,-0.030273,45.761105,36.201477,37.384033
0.842529,-1.277832,-0.237305,-13.641356,17.89093,70.037842,0.227783,-0.896484,-0.052246,32.63855,24.917601,25.474546
0.271973,-1.10791,-0.14624,16.304016,86.784355,21.972654,0.25293,-0.940186,-0.036377,46.981808,39.56604,37.536621
0.16626,-1.043213,-0.214355,-72.769165,-249.992355,-14.236449,0.271973,-0.943848,-0.026855,46.226498,38.925171,37.872314
0.936768,-1.363525,-0.31665,-31.623838,-116.638176,61.912533,0.184326,-0.945557,-0.006592,31.166075,-12.168883,29.792784
0.843262,-1.350098,-0.365479,-41.610714,-192.573532,48.126217,0.217041,-0.926025,-0.026367,32.356262,-5.531311,33.050537
0.743408,-1.310059,-0.392822,-50.933834,-244.468674,33.576965,0.18335,-0.937744,-0.028809,36.605835,1.167297,37.757874
0.643311,-1.260742,-0.387207,-58.700558,-249.992355,21.598814,0.178711,-0.953857,-0.019775,39.718628,10.711669,38.223267
0.54126,-1.203613,-0.377197,-64.239502,-249.992355,11.596679,0.156006,-0.961426,0.012939,31.616209,-23.719786,29.006956
0.454102,-1.142822,-0.363281,-68.084717,-249.992355,1.701355,0.221436,-0.956055,-0.041748,38.192749,30.84564,33.630371
0.37085,-1.106201,-0.341797,-72.006226,-249.992355,-7.614135,0.250732,-0.936279,-0.061279,39.520264,35.545349,32.653809
0.265381,-1.076172,-0.289551,-74.211121,-249.992355,-13.885497,0.251709,-0.932129,-0.062012,43.449398,38.002014,35.392761
0.963623,-1.349121,-0.257324,-22.331236,-44.197079,69.725037,0.183594,-0.963623,-0.02002,38.833618,22.079466,37.193298
0.035156,-1.016357,-0.142334,-67.985535,-249.748215,-6.530761,0.444092,-0.942383,-0.05957,10.757445,-37.605286,110.809319
0.162109,-0.901855,0.123779,-72.753906,42.526241,-157.440186,0.481689,-1.433105,-0.129395,59.097286,-11.718749,77.346802
0.222412,-1.038818,0.129639,-81.230156,33.615112,-181.777939,0.461426,-1.348389,-0.135742,58.219906,-12.611388,83.358757
0.216553,-1.197754,0.069824,-86.196892,26.115416,-200.576767,0.431396,-1.247559,-0.141602,54.298397,-16.555786,89.202873
0.188965,-1.354248,-0.071045,-84.556572,18.455505,-214.981064,0.404785,-1.159424,-0.138672,49.339291,-23.15521,94.993584
0.199463,-1.430664,-0.309814,29.289244,-13.72528,-249.93132,0.391113,-1.083496,-0.133301,43.472286,-31.005857,100.036613
0.240723,-1.542969,-0.299805,-51.284786,3.845215,-240.768417,0.397949,-1.025391,-0.13623,35.949707,-37.773132,104.454033
0.24707,-1.572266,-0.324951,-23.315428,-1.342773,-249.031052,0.416992,-0.985596,-0.135742,27.748106,-41.381832,108.482353
0.220215,-1.529785,-0.325684,5.706787,-6.759643,-249.992355,0.437744,-0.964355,-0.121094,20.492552,-41.992184,110.649101
0.088867,-0.800781,0.109131,-63.674923,53.62701,-131.736755,0.427246,-0.951416,-0.084473,15.258788,-40.481564,110.885612
0.19873,-1.46875,-0.214355,-72.998047,10.345458,-228.462204,0.435059,-0.933105,-0.017822,7.835388,-33.233643,111.755363
0.079346,-0.734375,0.101807,-56.846615,64.109802,-109.306328,0.489502,-1.485596,-0.102539,56.27441,-14.045714,68.626404
0.734375,-1.459473,-0.229004,-16.548157,-157.707214,61.080929,0.325684,-0.866455,0.0271,4.951477,-39.215088,111.145012
0.218506,-0.628418,0.106934,-38.711548,67.6651,-66.093445,0.438965,-0.903564,0.038818,6.240844,-27.328489,102.584831
0.291992,-0.596436,0.095215,-23.971556,54.931637,-41.763302,0.454102,-0.943604,0.036133,8.003235,-5.332946,98.243706
0.352539,-0.594971,0.04834,-8.712769,35.179138,-17.64679,0.437988,-0.971436,0.037842,12.916564,13.442992,97.404472
0.414063,-0.654785,-0.0271,0.839233,12.916564,3.250122,0.376465,-0.959961,0.020996,15.762328,27.542112,97.419731
0.486328,-0.783447,-0.111572,1.052856,-8.44574,21.217344,0.36792,-0.953125,-0.001953,15.48767,37.017822,90.782158
0.550049,-0.959717,-0.16626,-5.462646,-30.303953,35.980225,0.455566,-0.991943,0.0,22.117613,53.009029,78.536987
0.623535,-1.151611,-0.197998,-13.961791,-55.633541,47.393795,0.42334,-0.980225,-0.007324,27.816771,78.201294,76.74408
0.699463,-1.311768,-0.217773,-19.058228,-85.456841,55.587765,0.343018,-0.899902,-0.024658,27.435301,97.358696,76.522827
0.743652,-1.41333,-0.234375,-19.546509,-120.300285,60.478207,0.310547,-0.831055,-0.035889,22.270201,106.658928,71.289063
0.176758,-1.324951,-0.266357,44.235226,-24.559019,-248.626694,0.323242,-0.889893,0.027344,6.538391,-33.782959,113.975517
0.137207,-0.681641,0.104736,-49.758907,70.007324,-88.508598,0.478027,-1.510498,-0.064941,50.048824,-17.997742,57.723995
0.188477,-1.246094,-0.237793,50.354,-37.307739,-245.231613,0.304443,-0.809326,-0.025146,17.814636,113.151543,65.963745
-0.040039,-0.682617,-0.051758,-37.261963,218.788132,107.749931,0.415771,-1.452637,-0.001953,26.916502,-23.605345,32.157898
0.26709,-1.151855,-0.192627,55.282589,-46.966549,-234.06218,0.14209,-0.994385,0.034668,-55.282589,-125.823967,-42.022701
0.684326,-1.463135,-0.212158,-9.338379,-193.748459,57.54089,0.16333,-1.0271,0.040771,-66.062927,-142.242432,-45.646664
-0.019287,-0.639404,-0.062744,-23.101805,221.717819,106.010429,0.216797,-1.075684,0.065918,-76.576233,-150.680542,-54.649349
0.00708,-0.606934,-0.081055,-9.674072,221.557602,102.699272,0.266602,-1.14209,0.093018,-84.114067,-151.435852,-66.894531
0.035645,-0.589844,-0.101074,1.045227,219.100937,97.625725,0.288086,-1.185547,0.097412,-90.286247,-147.590637,-77.178955
0.068115,-0.57373,-0.119141,9.45282,214.714035,90.553276,0.289307,-1.221436,0.10376,-91.583244,-142.868042,-85.58654
0.089355,-0.560547,-0.135254,15.945434,209.472641,80.92498,0.258545,-1.24707,0.10083,-87.867729,-141.166687,-93.292229
0.095215,-0.540039,-0.137207,23.406981,204.246506,69.839478,0.224365,-1.26001,0.08252,-82.481377,-141.815186,-100.555412
0.102783,-0.52417,-0.137695,32.440186,198.890671,58.410641,0.205811,-1.25415,0.069336,-74.829102,-138.694763,-106.597893
0.122559,-0.525635,-0.143066,39.642334,192.779526,46.165462,0.200195,-1.208984,0.038086,-69.107056,-130.92804,-112.42675
0.150146,-0.550537,-0.140381,42.755123,184.356674,31.486509,0.212891,-1.143799,0.004639,-67.825317,-119.781487,-118.865959
0.235352,-1.198242,-0.216553,52.49786,-45.921322,-241.088852,0.2229,-1.097656,-0.015381,-67.672729,-104.980461,-120.315544
0.188721,-0.57666,-0.12915,44.334408,172.668442,14.427184,0.215576,-1.070313,-0.020996,-64.52179,-90.095512,-115.135185
0.291748,-0.615723,-0.093506,48.583981,136.909485,-24.520872,0.193848,-1.011963,0.000977,-58.433529,-80.54351,-108.062737
0.328125,-0.64502,-0.080566,50.056454,113.05999,-46.340939,0.169678,-0.932373,0.010986,-54.252621,-75.141907,-101.058952
0.343506,-0.676514,-0.067627,51.467892,87.181084,-69.511414,0.165039,-0.875244,0.015381,-52.8717,-70.732117,-93.65081
0.336914,-0.714355,-0.068359,53.192135,61.202999,-93.566887,0.175049,-0.828125,0.028076,-54.38995,-65.467834,-83.641045
0.320801,-0.748047,-0.075439,55.358883,36.613464,-118.164055,0.192383,-0.814941,0.039795,-54.298397,-58.647152,-71.327209
0.306641,-0.794922,-0.093506,57.762142,14.328002,-142.204285,0.217529,-0.861084,0.04834,-50.651546,-51.460262,-57.678219
0.286377,-0.839355,-0.110596,60.6842,-4.333496,-164.413437,0.253906,-0.95166,0.044922,-42.282101,-43.975826,-42.930599
0.264893,-0.899414,-0.12915,63.232418,-19.432068,-184.738144,0.303223,-1.073486,0.034424,-29.884336,-35.957336,-26.771544
0.259277,-0.985596,-0.152344,63.301083,-31.822203,-203.781113,0.347412,-1.219238,0.031982,-12.96234,-29.014585,-7.774353
0.265381,-1.080811,-0.176758,59.761044,-41.717525,-220.993027,0.378662,-1.355225,0.023926,7.774353,-25.222776,13.374328
0.240479,-0.593506,-0.108398,46.287533,156.974792,-4.333496,0.450928,-1.503662,-0.034424,40.550228,-21.575926,46.56982
0.641602,-1.425781,-0.206055,0.968933,-228.271469,51.635738,0.286133,-0.807861,-0.017822,14.85443,118.049614,64.125061
0.613525,-1.355469,-0.218018,10.772704,-248.664841,44.05975,0.268066,-0.81958,-0.019287,11.688231,117.797844,64.369202
0.562256,-1.264893,-0.228027,19.424438,-249.992355,37.033081,0.264404,-0.839355,-0.025391,8.499146,111.587517,63.446041
-0.597168,-0.883057,-0.096191,-13.412475,-249.992355,-113.677971,0.135498,-0.995117,-0.005859,-16.464233,117.988579,-38.764954
-0.631592,-0.99292,-0.0625,-8.766174,-249.992355,-83.030693,0.098633,-1.039795,0.021973,-23.406981,113.151543,-45.761105
-0.607422,-1.090088,-0.059082,-5.958557,-190.788254,-43.991085,0.062744,-1.075928,0.05249,-30.113218,103.118889,-51.528927
-0.631836,-1.162354,-0.086182,-5.043029,-103.965752,-1.472473,0.024902,-1.101563,0.088135,-36.521912,89.012138,-55.549618
-0.679199,-1.221436,-0.117676,-7.377624,-24.726866,38.116455,-0.00293,-1.134521,0.11377,-41.778561,72.83783,-57.655331
-0.696777,-1.254395,-0.164307,-13.786315,48.896786,76.225281,-0.009766,-1.19043,0.126221,-45.3186,54.962154,-57.952877
-0.667969,-1.273926,-0.231689,-25.871275,118.896477,112.93792,0.0,-1.257324,0.134277,-47.882076,35.766602,-57.258602
-0.634277,-1.25708,-0.279541,-41.90826,193.85527,150.291443,0.021973,-1.303467,0.138184,-50.018307,16.494751,-55.381771
-0.646484,-1.175781,-0.324463,-55.541988,245.674118,187.721237,0.044678,-1.30542,0.132813,-52.070614,-1.876831,-53.199764
-0.673828,-1.077881,-0.38208,-65.788269,249.992355,218.124374,0.065918,-1.283447,0.116699,-53.840633,-20.26367,-51.551815
-0.424561,-0.807373,-0.175537,-21.759031,-248.847946,-138.893127,0.175049,-0.953125,-0.034912,-8.354187,116.973869,-29.922483
-0.588135,-1.01001,-0.453125,-75.942993,249.992355,240.951523,0.08374,-1.246582,0.121094,-54.504391,-38.650513,-49.011227
-0.335938,-0.941162,-0.545654,-100.608818,249.984726,249.992355,0.105713,-1.192383,0.128662,-53.268429,-72.883606,-43.182369
-0.170654,-0.915283,-0.558594,-117.042534,249.992355,249.786362,0.12793,-1.192871,0.136475,-50.666805,-84.342949,-40.100098
0.138184,-0.840576,-0.49292,-126.274101,249.755844,249.992355,0.171387,-1.203857,0.131348,-46.455379,-89.897148,-37.30011
0.380127,-0.750488,-0.37207,-117.790215,248.702988,249.992355,0.213867,-1.202637,0.12085,-41.763302,-90.476982,-35.102844
0.526611,-0.684082,-0.21875,-102.98156,249.992355,240.951523,0.256836,-1.176514,0.114502,-38.154602,-86.799614,-33.935547
0.70459,-0.645264,-0.066162,-87.341301,246.696457,224.34996,0.302002,-1.134521,0.116211,-34.767151,-80.131531,-33.584595
0.991699,-0.720947,0.060059,-80.238342,151.245117,204.177841,0.322998,-1.090576,0.125977,-27.671812,-74.020386,-33.409119
1.303467,-0.859863,0.143311,-86.891167,12.153625,164.642319,0.319336,-1.03418,0.134033,-18.844604,-71.029663,-34.057617
1.400879,-0.897217,0.092285,-96.80175,-162.246689,105.026237,0.31543,-0.979004,0.139404,-11.611938,-69.824219,-35.957336
0.889404,-0.819092,-0.125732,-93.605034,-249.992355,-36.499023,0.316162,-0.937012,0.140381,-5.363464,-67.184448,-37.30011
-0.436768,-0.965332,-0.501709,-87.150566,249.992355,249.893173,0.094238,-1.2146,0.125732,-54.298397,-56.426998,-46.096798
-0.196289,-0.784912,-0.273438,-29.685972,-249.992355,-157.180786,0.194336,-0.909668,-0.04834,-0.480652,110.78643,-20.835875
1.225586,-0.849121,-0.029297,-97.984306,-248.237595,34.767151,0.320313,-0.918945,0.131836,1.502991,-63.392635,-36.92627
0.105225,-0.76001,-0.379395,-30.540464,-249.977097,-163.063034,0.172852,-0.854736,-0.045654,10.795592,88.249199,-3.52478
0.492188,-1.169678,-0.2146,30.227659,-249.992355,33.64563,0.262451,-0.859131,-0.026611,5.767822,102.737419,61.340328
0.395996,-1.074463,-0.212646,43.464657,-249.748215,33.462524,0.251465,-0.873291,-0.020996,2.861023,92.628471,58.898922
0.268799,-0.998291,-0.230713,55.816647,-249.992355,34.629822,0.228516,-0.879883,-0.017822,-1.190186,81.420891,56.396481
0.164063,-0.971191,-0.241455,63.499447,-249.992355,35.415649,0.213623,-0.895752,-0.008301,-5.889892,69.404602,52.978512
0.104492,-0.986328,-0.251465,65.109253,-240.577682,36.79657,0.200684,-0.927979,0.014404,-8.056641,57.960506,50.247189
0.114258,-1.014893,-0.238281,63.499447,-211.280807,41.015621,0.178223,-0.957031,0.032227,-9.185791,47.492977,48.629757
-0.015625,-0.778076,-0.347412,-32.37915,-249.992355,-165.275558,0.182861,-0.876221,-0.051758,5.737304,101.081841,-12.428283
0.20874,-1.009033,-0.262207,55.717464,-170.776352,46.226498,0.148682,-1.005127,0.053711,-8.666992,26.412962,46.646114
0.227783,-0.984131,-0.266113,51.376339,-163.078293,42.716976,0.135742,-1.020264,0.064941,-5.813598,16.357422,46.310421
0.213867,-0.958984,-0.276611,47.5769,-159.828186,35.675049,0.12085,-1.02124,0.070801,-2.075195,6.317138,46.874996
0.215576,-0.955811,-0.296387,40.985104,-159.507751,28.633116,0.101318,-1.008057,0.081543,2.044678,-3.410339,46.691891
0.169434,-1.021973,-0.238525,60.386654,-186.149582,45.532223,0.160889,-0.980469,0.04248,-9.69696,36.811829,47.561642
0.324707,-0.925537,-0.317139,21.987913,-177.131638,14.999389,0.08667,-0.936035,0.085205,8.285522,-15.892028,43.212887
0.349609,-0.904053,-0.310303,14.411925,-197.326645,4.516602,0.096436,-0.905518,0.079102,12.306212,-17.951965,41.770931
0.355957,-0.879639,-0.295654,7.987976,-226.150497,-7.766723,0.111328,-0.875977,0.059326,15.960692,-17.745972,40.52734
0.337158,-0.861816,-0.294922,1.419067,-248.008713,-20.507811,0.124512,-0.864746,0.039551,18.218994,-13.381957,39.093018
0.32251,-0.862549,-0.287598,-6.301879,-249.992355,-33.370972,0.141846,-0.875244,0.022705,21.041868,-4.104614,35.667419
0.334717,-0.861084,-0.271484,-14.289855,-249.992355,-47.782894,0.162354,-0.861084,-0.006836,21.095274,8.171082,31.799314
0.36499,-0.837891,-0.270508,-21.041868,-249.992355,-65.52124,0.187256,-0.843262,-0.017578,20.126341,23.971556,27.023314
0.4021,-0.793701,-0.286377,-25.779722,-249.992355,-86.509697,0.187012,-0.836426,-0.027832,19.325256,41.603085,21.293638
0.40332,-0.744873,-0.318604,-27.366636,-249.992355,-108.581535,0.17627,-0.836914,-0.040283,17.578125,58.555599,14.47296
0.329102,-0.720215,-0.36084,-26.55792,-249.992355,-130.630493,0.174072,-0.838379,-0.044922,14.785766,74.050903,5.91278
0.268555,-0.950195,-0.305176,31.09741,-164.649948,22.239683,0.089355,-0.975342,0.086182,5.424499,-11.161803,45.089718
0.213135,-0.735107,-0.382568,-27.343748,-249.992355,-150.83313,0.348877,-0.920898,-0.120361,27.465818,-28.366087,71.487427
0.375732,-1.234131,-0.056152,-130.691528,-81.245415,102.828972,0.318604,-0.891113,-0.123291,34.805298,-34.500122,69.992065
0.4104,-1.442139,-0.064697,-143.959045,-62.561031,108.261101,0.296875,-0.88916,-0.117432,41.107174,-34.263611,67.840576
0.481445,-1.63623,-0.104492,-150.016785,-43.29681,112.022392,0.318359,-0.899414,-0.105469,44.860836,-32.88269,65.681458
0.561768,-1.762207,-0.171387,-144.088745,-23.53668,113.853447,0.443359,-0.915771,-0.0271,34.851074,-106.50634,69.892883
0.471436,-1.233398,-0.180176,-17.845154,79.185486,73.84491,0.399658,-0.905762,-0.087646,43.632504,-46.379086,63.911434
0.589844,-1.706543,-0.25,-96.343987,18.859863,108.375542,0.406982,-0.905762,-0.067383,42.381283,-62.461849,65.734863
0.552979,-1.557373,-0.224121,-67.756653,40.077209,100.524895,0.42749,-0.914551,-0.043213,39.627075,-82.611076,67.710876
0.507568,-1.394043,-0.18457,-42.091366,59.616085,89.75219,0.364014,-0.902588,-0.094971,44.967648,-35.575867,64.147949
0.591797,-1.782715,-0.231445,-124.130241,-2.906799,112.915031,0.359619,-0.973145,-0.105957,20.614622,-14.22119,69.915771
0.36377,-1.111572,-0.030518,-120.628349,-99.998466,95.680229,0.234619,-1.086914,-0.026611,79.490662,-43.945309,42.274471
0.137939,-0.748291,-0.134277,-21.080015,-231.452927,-1.663208,0.334717,-1.052734,-0.134521,10.337829,-11.154174,63.285824
0.318848,-0.965088,0.058838,-103.767387,-132.713318,78.971863,0.250732,-1.069092,-0.116211,10.246276,-29.869078,63.117977
0.272705,-0.893311,0.053467,-92.712395,-145.347595,70.228577,0.289307,-1.080811,-0.091309,9.857178,-42.953487,56.716915
0.23877,-0.831055,0.022705,-82.18383,-156.341553,61.164852,0.431641,-1.091064,-0.056641,7.873535,-39.94751,46.409603
0.223389,-0.778564,-0.013428,-72.311401,-166.961655,52.413937,0.461914,-1.144775,-0.036377,2.433777,-31.188963,38.864136
0.212402,-0.735107,-0.051758,-62.248226,-178.390488,42.900082,0.237305,-1.203125,-0.075684,9.864807,-26.741026,42.251583
0.200195,-0.713623,-0.084473,-53.489681,-191.200241,32.569885,0.197021,-1.191162,-0.001709,25.466917,-36.659241,48.522945
0.182129,-0.707031,-0.104492,-45.722958,-203.269943,22.789,0.229492,-1.233887,0.032959,38.261414,-45.234676,50.186153
0.158936,-0.710693,-0.114258,-37.620544,-213.226303,13.740539,0.231445,-1.233154,0.030029,54.061886,-47.492977,49.423214
0.143799,-0.72998,-0.126709,-29.58679,-222.09166,5.569458,0.234863,-1.183105,0.005859,69.046021,-46.463009,46.936031
0.405273,-1.070068,-0.172363,6.805419,99.502556,54.420467,0.411133,-0.910645,-0.004639,28.938292,-129.40979,73.326111
0.352051,-1.029785,0.026855,-112.67852,-117.668144,87.493889,0.373779,-1.022461,-0.116455,14.175414,-4.165649,65.315247
0.306152,-0.92334,-0.114746,24.719236,117.729179,34.538269,0.361328,-0.902832,0.008789,21.415709,-144.91272,76.087952
0.123535,-1.049072,-0.2146,119.712822,153.739929,-56.816097,0.237061,-1.034424,0.023193,-18.005371,-64.872742,28.182981
0.166748,-0.812988,-0.077148,27.816771,142.494202,-0.228882,0.385254,-0.865967,0.015137,6.034851,-168.334946,75.447083
0.133545,-0.751709,-0.140137,-11.291503,-241.11937,-8.506775,0.212402,-0.982178,-0.062256,85.350029,-40.237423,37.17804
0.027344,-0.876221,-0.19043,95.512383,19.493103,-74.386597,0.374512,-0.938965,0.126709,-33.821106,-44.250484,-57.693478
0.036865,-0.894043,-0.175781,97.984306,30.563353,-67.970276,0.39624,-1.04541,0.121582,-31.616209,-29.327391,-53.092953
0.032471,-0.923584,-0.164551,100.013725,42.060848,-62.606808,0.425293,-1.164307,0.117676,-28.656004,-15.747069,-48.46191
0.024658,-0.948242,-0.156006,101.531975,54.38995,-57.586666,0.443604,-1.27832,0.106689,-25.978086,-4.646301,-43.67828
0.051514,-0.981934,-0.155029,102.508537,66.299438,-52.74963,0.435791,-1.380127,0.099854,-23.139952,1.663208,-37.849426
0.064453,-0.999512,-0.150146,103.469841,77.888489,-48.149105,0.400391,-1.448486,0.103516,-20.187376,1.922607,-30.906675
0.050049,-0.995605,-0.139404,106.224052,92.842094,-44.120785,0.359375,-1.468262,0.104004,-16.983032,-2.838135,-22.674559
0.046631,-0.991211,-0.13501,111.122124,110.557549,-41.603085,0.334229,-1.447754,0.104492,-13.458251,-10.429381,-12.290954
0.068359,-0.988281,-0.141602,116.813652,126.708977,-41.78619,0.318115,-1.403076,0.080566,-10.581969,-19.737244,-1.220703
0.220703,-0.83252,-0.072998,30.426023,131.93512,16.372681,0.368164,-0.888672,0.008789,12.252807,-155.319214,76.469421
0.101074,-1.002441,-0.174072,119.964592,139.36615,-46.203609,0.300293,-1.316162,0.056396,-10.963439,-29.106138,6.79779
0.115479,-1.095459,-0.220947,115.135185,158.744812,-57.449337,0.25293,-1.088623,0.034668,-16.921997,-50.498959,19.523621
0.087158,-1.158203,-0.238281,104.026787,168.258652,-57.510372,0.234131,-1.004639,0.01709,-17.211914,-80.047607,37.841797
0.068359,-1.191406,-0.219727,90.49987,180.6259,-58.067318,0.239746,-0.979004,0.009521,-15.830993,-94.398491,46.615597
0.106201,-1.197998,-0.193115,78.338623,188.789352,-60.150143,0.241699,-0.952881,0.000977,-14.320373,-107.452385,53.993221
0.143311,-1.195557,-0.178467,64.338684,186.668381,-60.523983,0.24292,-0.921387,-0.002686,-12.153625,-119.468681,60.096737
0.14624,-1.170654,-0.158447,48.896786,179.885849,-58.570858,0.244629,-0.88208,-0.001465,-9.529114,-130.989075,64.994812
0.144043,-1.110107,-0.124023,36.079407,172.828659,-52.978512,0.240967,-0.8396,0.000488,-7.942199,-143.699646,69.458008
0.140869,-1.024902,-0.10083,26.840208,164.642319,-43.022152,0.21875,-0.806641,0.008545,-7.858276,-158.737183,74.691772
0.134033,-0.929932,-0.098145,22.315977,157.409668,-30.578611,0.202881,-0.803711,0.013428,-5.722045,-173.927292,79.551697
0.142578,-0.850586,-0.098633,23.54431,150.474548,-16.029358,0.313232,-0.836426,0.011963,-0.091553,-179.893478,77.278137
0.118652,-1.022705,-0.208496,120.727531,148.208618,-52.917477,0.278076,-1.192139,0.044189,-14.129638,-38.902283,12.367248
0.123291,-0.750488,-0.141113,-0.396728,-248.626694,-14.648437,0.196289,-0.886963,-0.086426,86.730949,-35.964966,32.897949
0.027588,-0.873535,-0.207764,93.055717,8.224487,-81.848137,0.358154,-0.858643,0.135498,-34.317017,-60.913082,-62.370296
0.093018,-0.750977,-0.12793,24.581907,-249.992355,-24.581907,0.177734,-0.794922,-0.109619,92.277519,-22.071836,26.535032
-0.009033,-1.035889,0.106201,-96.282951,-230.590805,59.486385,0.222168,-1.006348,0.141602,-25.260923,-67.321777,-21.64459
-0.015625,-1.033936,0.11084,-93.299858,-231.590256,74.203491,0.221924,-0.976074,0.131836,-25.741575,-68.130493,-22.956846
-0.018799,-1.043701,0.082031,-91.621391,-225.395187,84.510796,0.229248,-0.942383,0.124023,-25.611876,-67.28363,-24.909971
-0.044678,-1.049805,0.040039,-88.455193,-213.561996,93.872063,0.243896,-0.904785,0.116943,-25.756834,-63.591,-27.763365
-0.064697,-1.071289,0.019287,-80.032349,-195.938095,104.660027,0.249023,-0.863037,0.116699,-26.06201,-57.563778,-31.455992
-0.046143,-1.16626,-0.052246,-79.01001,-175.735458,108.688347,0.252197,-0.833984,0.122803,-26.077269,-49.98016,-35.812378
-0.051514,-1.281982,-0.126221,-83.587639,-156.089783,110.305779,0.254639,-0.824951,0.118896,-24.826048,-40.969845,-39.894104
-0.060547,-1.405518,-0.209229,-93.223564,-134.933472,109.802238,0.249023,-0.828369,0.107422,-21.995543,-31.806944,-43.350216
-0.106934,-1.481689,-0.277344,-104.034416,-109.580986,108.978264,0.246826,-0.831787,0.09668,-18.280029,-23.559568,-45.829769
-0.153076,-1.492676,-0.313232,-112.04528,-78.88031,107.376091,0.240479,-0.824463,0.092285,-14.717101,-16.448975,-47.660824
-0.026123,-1.054932,0.068604,-99.136345,-224.067673,42.861935,0.217529,-1.022705,0.137939,-24.436949,-65.078735,-21.080015
-0.169434,-1.479736,-0.330811,-120.010368,-46.607967,104.331963,0.221191,-0.80835,0.086914,-12.161254,-12.7182,-48.538204
-0.232422,-1.355957,-0.2854,-134.056091,22.735594,98.724358,0.17334,-0.78125,0.083008,-7.667541,-15.907287,-49.079891
-0.244385,-1.272461,-0.228271,-136.58905,58.769222,97.732536,0.15625,-0.760986,0.06958,-7.522583,-20.88928,-49.659725
-0.224365,-1.171875,-0.176514,-132.614136,91.354362,97.831718,0.150146,-0.748047,0.057861,-9.056091,-25.695799,-49.888607
-0.186279,-1.072754,-0.128174,-123.626701,118.782036,97.778313,0.149658,-0.750244,0.057861,-11.688231,-30.494688,-49.354549
-0.157715,-0.996094,-0.07373,-113.319389,141.166687,98.136894,0.150879,-0.771484,0.056152,-15.525817,-36.056519,-47.676083
-0.135986,-0.938965,-0.035156,-103.019707,160.316467,99.44915,0.137451,-0.803711,0.050537,-19.676208,-45.143124,-44.868465
-0.118652,-0.881104,-0.022217,-91.964714,177.345261,101.737968,0.124512,-0.828125,0.042969,-24.528502,-59.364315,-41.145321
-0.104248,-0.825439,-0.023438,-79.231262,192.016586,104.454033,0.155518,-0.852539,0.023682,-30.815123,-74.836731,-39.047241
-0.085938,-0.771973,-0.029785,-65.299988,204.009995,106.834404,0.179688,-0.898193,0.014648,-38.978577,-88.516228,-38.803101
-0.063477,-0.730225,-0.040283,-51.261898,212.936386,108.02459,0.159912,-0.946289,0.020996,-47.348019,-105.812065,-40.115356
-0.196533,-1.432861,-0.326416,-127.960197,-13.183593,101.097099,0.197754,-0.791992,0.084229,-10.0708,-12.916564,-48.736568
-0.039307,-1.112305,-0.004395,-99.159233,-213.233932,25.642393,0.210449,-1.031006,0.124023,-23.170469,-60.56213,-21.995543
0.106934,-0.75,-0.134277,11.70349,-249.992355,-19.950867,0.197998,-0.822754,-0.101563,87.882988,-29.632566,29.159544
-0.028076,-1.166992,-0.176025,-71.540833,-179.946884,-2.166748,0.193115,-1.029541,0.085693,-17.578125,-45.837399,-26.489256
-0.03125,-1.165771,-0.098145,-90.00396,-198.204025,10.093688,0.17041,-0.777588,-0.134277,96.55761,-16.334534,25.352476
0.084229,-0.748779,-0.128662,36.933899,-249.992355,-28.373716,0.175781,-0.746582,-0.146484,98.56414,-10.284423,24.208067
0.071045,-0.735596,-0.121826,49.377438,-249.900803,-30.700682,0.188965,-0.708252,-0.164795,97.572319,-3.738403,21.751402
0.063965,-0.726318,-0.112793,62.133785,-249.992355,-31.646727,0.212646,-0.672607,-0.196289,92.781059,3.173828,18.470764
0.067383,-0.728271,-0.111084,73.234558,-249.992355,-31.509398,0.232666,-0.650391,-0.214355,85.395805,12.069701,15.167235
0.052979,-0.727295,-0.118896,82.519524,-246.078476,-30.052183,0.240967,-0.643066,-0.223877,78.155518,21.629332,11.718749
0.020264,-0.728027,-0.12793,91.468803,-233.238205,-27.038572,0.202393,-1.027832,0.109863,-20.935057,-54.092403,-23.818968
-0.023193,-0.737549,-0.148682,109.840385,-193.6035,-20.858763,0.276611,-0.713867,-0.237061,64.468384,39.100647,0.87738
-0.01123,-0.775635,-0.176758,114.19677,-172.019943,-19.676208,0.291992,-0.80835,-0.220215,56.259151,49.171444,-5.447387
-0.007324,-0.835205,-0.213623,112.884514,-152.061462,-19.546509,0.294434,-0.92041,-0.173828,50.4837,57.78503,-12.329101
0.002441,-0.895264,-0.226074,108.886711,-133.926392,-20.111082,0.269043,-1.036865,-0.103271,46.06628,63.560482,-18.600464
-0.012939,-0.726318,-0.134277,100.982658,-215.042099,-23.460386,0.256348,-0.664063,-0.233887,72.105408,30.303953,6.690979
0.034668,-1.023193,-0.256836,98.0606,-106.88781,-22.621153,0.217529,-1.256836,0.023682,36.209106,64.26239,-31.433104
0.043457,-1.107422,-0.293701,86.196892,-97.923271,-24.642942,0.184082,-1.322998,0.069336,32.089233,59.631344,-37.078857
0.047119,-1.181885,-0.322754,69.580078,-91.964714,-27.008055,0.154785,-1.337158,0.098633,28.114317,51.99432,-40.496822
-0.012451,-1.131836,-0.227783,-51.277157,-160.301208,-12.092589,0.138672,-1.292725,0.111084,22.605894,42.251583,-43.106075
0.052002,-1.234131,-0.345947,48.515316,-89.729301,-29.022215,0.13208,-1.215332,0.105713,15.853881,30.72357,-44.166561
0.052734,-1.255371,-0.3479,25.161741,-91.705315,-29.58679,0.124756,-1.145508,0.10376,9.83429,17.01355,-42.701717
0.045898,-1.234619,-0.333008,4.03595,-97.778313,-28.70941,0.125732,-1.090576,0.102539,4.005432,2.151489,-40.313717
0.04248,-1.17749,-0.312012,-11.894225,-107.971184,-27.275084,0.139404,-1.04541,0.089355,-2.311707,-11.96289,-37.765503
0.034424,-1.124268,-0.288818,-23.643492,-122.909538,-24.627684,0.158447,-1.027588,0.074707,-8.155823,-24.688719,-34.172058
0.013428,-1.105713,-0.265137,-35.202026,-140.937805,-19.859314,0.177002,-1.03125,0.071777,-13.397216,-35.926819,-30.204771
0.021729,-0.948975,-0.226318,104.698174,-118.9804,-21.186827,0.238037,-1.154297,-0.040283,41.419979,65.658569,-24.665831
0.165527,-0.774658,-0.078125,-11.161803,-152.099609,30.021666,0.135986,-1.014648,-0.054199,68.79425,-25.329588,36.193848
0.19751,-0.781006,-0.018555,-14.739989,-140.113831,40.176388,0.12793,-1.019775,-0.052246,67.070007,-26.535032,34.324646
0.243652,-0.806641,0.029053,-20.088194,-125.289909,52.49786,0.121094,-1.026855,-0.05249,63.96484,-24.627684,33.149719
0.283447,-1.017822,0.05957,-51.124569,-29.251097,119.186394,0.125977,-1.02417,-0.061035,59.005733,-19.584656,32.180786
0.324219,-0.882568,0.067139,-33.554077,-82.351677,80.848686,0.121094,-0.865723,-0.105713,20.347593,49.667355,12.199401
0.31665,-0.932373,0.068604,-40.695187,-60.554501,95.268242,0.121094,-0.987305,-0.070313,44.700619,-1.594543,27.976988
0.299805,-0.980225,0.061279,-46.852108,-42.549129,108.299248,0.12085,-0.953857,-0.088867,35.03418,12.46643,23.338316
0.158936,-0.773193,-0.105713,-9.437561,-163.146957,21.293638,0.121094,-0.910156,-0.093018,26.954649,29.869078,17.623901
0.302246,-0.840332,0.053711,-26.725767,-105.560295,66.329956,0.132324,-1.007813,-0.052979,53.085323,-12.260436,30.738829
0.160156,-0.763428,-0.111572,-7.6828,-173.675522,15.151977,0.12915,-1.012451,-0.055176,71.617126,-22.598265,39.375305
-0.05127,-0.902588,-0.077637,84.877007,-42.251583,47.20306,0.194824,-1.236084,0.040283,14.259337,89.591972,19.40918
0.064453,-0.748047,-0.092773,-0.839233,-182.128891,11.482238,0.137207,-0.985352,-0.094971,71.525574,-17.944336,46.791073
0.031738,-0.736328,-0.070801,5.950927,-178.039536,11.009215,0.159912,-0.966064,-0.109131,65.048218,-12.939452,49.957272
0.004883,-0.735352,-0.058105,14.015197,-170.402512,12.222289,0.174316,-0.951416,-0.108643,56.419369,-4.112244,52.055355
-0.007568,-0.742676,-0.050537,22.02606,-160.736069,14.572143,0.178223,-0.935791,-0.100586,47.195431,6.54602,52.848812
0.001953,-0.762939,-0.029541,30.052183,-150.390625,17.410278,0.183105,-0.938232,-0.087402,38.848877,18.035889,52.452084
-0.002686,-0.774902,-0.010986,39.215088,-138.473511,20.835875,0.185303,-0.962402,-0.071045,32.951355,30.502317,51.025387
-0.01709,-0.762207,0.008545,51.048275,-123.64959,25.352476,0.204346,-1.005859,-0.060791,27.809141,42.785641,48.263546
-0.035889,-0.747559,0.011719,65.177917,-105.781548,30.693052,0.227295,-1.06958,-0.046143,23.361204,55.755611,43.632504
-0.061279,-0.77124,-0.006836,77.74353,-84.854118,36.842346,0.229736,-1.139893,-0.022217,19.866943,69.709778,37.254333
-0.073242,-0.83667,-0.042236,84.495537,-62.713619,42.808529,0.21582,-1.200684,0.000488,16.654968,81.43615,28.724669
0.265381,-1.054443,0.035889,-53.75671,-21.453856,127.220146,0.149658,-0.822998,-0.130371,14.61029,72.616577,6.240844
0.114502,-0.760742,-0.111328,-5.561828,-181.053146,12.908935,0.123291,-1.000732,-0.071045,73.570251,-20.332335,43.144222
0.250732,-1.081543,-0.004639,-54.13055,-17.89093,133.636475,0.208496,-0.812256,-0.162109,10.345458,96.038811,-0.602722
0.527344,-1.344727,-0.111816,37.734985,4.53186,70.236206,0.364014,-0.961914,0.012939,-10.490417,-9.19342,48.347469
0.257324,-1.127197,-0.093018,-52.307125,-15.724181,143.463135,0.319336,-0.759033,-0.141113,7.438659,115.005486,-0.831604
0.224121,-1.209961,-0.30542,119.705193,190.315231,-127.052299,0.155029,-1.249023,0.078125,12.344359,94.070427,10.688781
-0.034912,-0.9375,-0.086426,85.197441,-25.421141,50.628658,0.175049,-0.915527,-0.026611,-25.314329,7.003784,8.903503
0.22998,-1.206787,-0.291504,99.655144,179.527267,-127.288811,0.186279,-0.911865,-0.022705,-28.945921,-10.879516,17.929077
0.219971,-1.187744,-0.287109,85.182182,171.539291,-123.733513,0.207764,-0.92627,-0.023682,-32.157898,-28.724669,27.931211
0.202637,-1.143066,-0.282715,71.281433,163.185104,-117.691032,0.236572,-0.946777,-0.015137,-35.171509,-44.30389,37.93335
0.187744,-1.077148,-0.264893,60.203548,154.769897,-108.497612,0.254883,-0.962402,0.00293,-37.384033,-57.128902,46.401974
0.182861,-1.007324,-0.226563,53.977962,145.446777,-95.848076,0.277588,-0.976074,0.018799,-38.291931,-67.16156,51.933285
0.200439,-0.948486,-0.18457,52.047726,134.208679,-80.978386,0.291016,-0.983887,0.037354,-37.361145,-72.402954,55.793758
0.224365,-0.928467,-0.148193,52.848812,119.758598,-63.71307,0.314453,-0.991211,0.050049,-34.461975,-72.463989,58.082577
0.256592,-0.952393,-0.113281,53.840633,101.608269,-43.319698,0.338623,-0.988281,0.053711,-30.509947,-67.123413,58.868404
0.297363,-1.007568,-0.081055,53.466793,81.146233,-20.1416,0.281006,-0.799316,-0.177979,6.92749,112.419121,-4.341125
0.344727,-1.071533,-0.065674,52.162167,59.417721,4.898071,0.348389,-0.982666,0.046875,-26.18408,-57.403561,58.143612
0.39917,-1.14917,-0.069336,49.758907,37.963867,29.46472,0.369873,-0.956543,0.020264,-17.799377,-25.634764,51.23901
0.469727,-1.239502,-0.087402,45.173641,18.829346,51.155087,0.319824,-0.966553,0.000732,1.045227,1.342773,48.767086
0.558105,-1.44751,-0.151855,27.427671,-4.447937,87.387077,0.310059,-0.948242,-0.031494,12.603759,3.463745,47.95837
0.572266,-1.541992,-0.194092,13.885497,-11.253356,103.958122,0.341553,-0.907715,-0.066895,20.26367,4.821777,45.516964
0.559082,-1.621582,-0.204834,-0.816345,-18.714905,121.109001,0.360107,-0.843018,-0.110107,20.729063,9.414673,42.152401
0.508545,-1.670898,-0.205811,-16.448975,-26.496885,134.124756,0.341064,-0.780762,-0.132324,17.906189,17.700195,35.491943
0.437012,-1.674316,-0.209961,-34.835815,-30.143736,143.066406,0.331543,-0.73584,-0.128174,16.357422,30.525206,26.977537
0.36084,-1.587402,-0.2146,-49.354549,-27.435301,148.765564,0.37915,-0.713379,-0.145752,15.144347,44.677731,21.499632
0.313721,-1.430176,-0.211426,-54.069515,-21.560667,150.016785,0.380371,-0.714355,-0.139404,13.328551,67.611694,17.593384
0.298584,-1.281982,-0.195801,-53.215023,-17.662048,148.513794,0.34082,-0.727783,-0.108643,10.406493,97.724907,9.292603
0.277344,-1.185791,-0.148682,-52.291866,-16.304016,146.354675,0.35498,-0.970459,0.034668,-22.048948,-43.205257,55.587765
0.246338,-1.093018,-0.046875,-53.024288,-16.265869,139.274597,0.174805,-0.943359,-0.021973,-19.065857,24.139402,0.419617
0.233887,-1.192627,-0.290039,111.946098,185.897812,-128.219604,0.101807,-1.264893,0.104492,10.597228,93.734734,2.952575
-0.053711,-0.966553,-0.108887,87.638847,-8.94165,53.710934,0.022949,-1.348145,0.153076,13.84735,82.427971,-14.427184
-0.02002,-1.104004,-0.233643,77.980042,19.622803,57.487484,0.172852,-0.782959,0.242676,45.089718,-111.434929,-45.555111
0.067871,-1.147217,-0.146484,-21.080015,42.022701,-0.160217,0.174561,-0.79248,0.263672,42.221066,-121.780388,-46.020504
0.080078,-1.153564,-0.216797,-12.321471,38.520813,-16.601563,0.175781,-0.82373,0.273926,39.047241,-132.888794,-46.859737
0.075928,-1.130615,-0.249268,-2.761841,34.896851,-31.440733,0.193115,-0.867432,0.262939,34.095764,-143.447876,-48.187252
0.078857,-1.079102,-0.235352,9.44519,30.647276,-45.44067,0.221436,-0.92749,0.253662,27.786253,-150.535583,-50.155636
0.076904,-1.049561,-0.219482,20.347593,26.130674,-58.334347,0.246826,-0.986816,0.250977,19.821167,-153.953552,-54.046627
0.067383,-1.030273,-0.222412,29.21295,22.27783,-69.847107,0.262207,-1.030273,0.246338,9.95636,-154.754639,-59.730526
0.062256,-1.003418,-0.234619,36.972046,19.126892,-79.864502,0.26709,-1.049561,0.248535,-0.900268,-154.045105,-65.971375
0.065186,-0.968018,-0.249756,45.112606,16.479492,-87.936394,0.256592,-1.049316,0.260498,-11.314391,-152.420044,-71.159363
0.071045,-0.921875,-0.26001,53.909298,13.34381,-94.459526,0.220215,-1.074463,0.282959,-28.991697,-154.724121,-79.460144
0.075195,-0.861572,-0.265137,67.871094,6.889343,-104.11071,0.172119,-0.805664,0.2229,48.370358,-101.852409,-44.662472
0.049072,-1.141113,-0.098633,-32.974243,46.95892,16.242981,0.197998,-1.061279,0.29541,-33.943176,-160.209656,-82.702629
0.077637,-0.847412,-0.265381,74.951172,3.334045,-107.673637,0.173828,-1.001465,0.275635,-36.804199,-171.379074,-86.082451
0.0979,-0.867676,-0.271484,83.038322,-5.088806,-111.854546,0.185791,-1.01001,0.27417,-34.53064,-171.546921,-85.411064
0.102783,-0.888184,-0.273682,84.899895,-9.780884,-112.853996,0.213623,-1.04834,0.2854,-30.204771,-165.405258,-81.29882
0.106201,-0.896973,-0.270996,86.517326,-14.183043,-112.93792,0.258301,-1.071777,0.293945,-24.185179,-153.701782,-75.645447
0.109131,-0.902588,-0.275879,88.066093,-18.234253,-112.022392,0.296631,-1.041016,0.280762,-16.403198,-140.266418,-72.70813
0.101563,-0.906494,-0.270996,89.126579,-20.64514,-109.924309,0.282959,-0.945801,0.239258,-12.359618,-127.868645,-72.105408
0.090576,-0.912354,-0.269287,89.385979,-20.111082,-106.460564,0.278809,-0.851807,0.17627,-17.700195,-115.562431,-71.037292
0.073486,-0.911865,-0.270264,89.515678,-16.441345,-101.47094,0.314453,-0.810303,0.147949,-26.19171,-99.433891,-69.129944
