ax,ay,az,gx,gy,gz,ax,ay,az,gx,gy,gz
0.331787,1.049316,-0.00708,-25.611876,-197.570786,-10.330199,0.16626,-0.868408,-0.031006,-4.470825,-25.131224,-96.954338
0.32251,1.022461,0.005371,-23.101805,-197.76915,-11.672973,0.147705,-0.861084,-0.043701,-2.883911,-40.428158,-94.894402
0.310791,0.99707,0.010742,-20.561216,-197.235092,-12.016295,0.331055,-0.997559,0.043457,-24.063108,-18.226624,-40.542599
0.30249,0.980957,0.014648,-17.776489,-195.762619,-11.192321,0.393555,-0.993408,-0.11377,-0.167847,3.707886,52.803036
0.218506,0.954834,0.054443,2.02179,-154.876709,6.91986,0.402344,-0.995605,-0.127197,-1.075745,-0.778198,60.241695
0.267334,0.951416,0.021484,-10.612487,-187.17955,-5.485534,0.191406,-0.885498,-0.027344,-13.21411,-35.736084,-63.919064
0.24707,0.943359,0.026855,-6.187438,-178.749069,-1.342773,0.223877,-0.804688,-0.120605,-9.056091,14.373778,-4.692078
0.230713,0.945313,0.039307,-1.937866,-167.640671,2.89917,0.226074,-0.796143,-0.125,-9.651184,19.927979,-11.550902
0.290039,0.964844,0.018066,-14.503478,-192.703232,-8.987427,0.231689,-0.782959,-0.119873,-11.352538,28.923033,-18.165588
0.348633,1.066406,-0.022461,-27.992247,-196.075424,-8.010864,0.234863,-0.77124,-0.113037,-13.97705,41.702267,-24.253843
0.225342,0.798584,-0.03833,-11.611938,-83.732597,16.242981,0.228271,-0.762451,-0.107422,-17.01355,56.594845,-30.235289
0.368896,1.058838,-0.02832,-31.425474,-187.026962,-2.044678,0.216553,-0.754395,-0.105469,-21.186827,72.052002,-35.675049
0.367432,1.048828,-0.02417,-32.279968,-179.260239,2.319336,0.205811,-0.758057,-0.104248,-25.80261,87.615959,-39.375305
0.365234,1.036865,-0.02002,-32.424927,-169.731125,6.820678,0.200684,-0.771729,-0.105957,-30.921934,102.180473,-41.687008
0.354736,1.017578,-0.016357,-32.058716,-158.828735,11.383056,0.194336,-0.796387,-0.101563,-36.254883,114.425652,-43.090816
0.336914,0.989502,-0.003662,-30.685423,-147.567749,15.632628,0.165771,-0.884766,-0.057129,-43.403622,125.930779,-46.783443
0.324951,0.954102,0.003906,-28.419493,-136.367798,18.608093,0.222168,-0.819092,-0.117432,-8.575439,11.619567,2.166748
0.314697,0.902832,0.006592,-25.207518,-125.541679,19.996643,0.149414,-0.933838,-0.032715,-45.577999,122.772209,-48.301693
0.293457,0.864014,0.004395,-21.446226,-115.19622,20.156858,0.116943,-1.027344,-0.002686,-46.760555,96.611015,-51.727291
0.265869,0.841553,-0.006836,-18.089294,-104.99572,19.699097,0.095215,-1.059082,-0.015137,-45.486446,76.843262,-53.436275
0.232178,0.822021,-0.023926,-15.068053,-95.008842,18.814087,0.073486,-1.084717,-0.027344,-43.395992,54.824825,-55.77087
0.215332,0.965088,0.068359,5.744934,-142.051697,10.345458,0.070557,-1.115723,-0.030518,-40.298458,32.287598,-58.67004
0.36499,1.069336,-0.026123,-30.075071,-192.626938,-5.500793,0.089844,-1.137207,-0.025391,-35.377502,11.848449,-62.45422
0.218018,0.970459,0.078125,8.81958,-130.41687,13.061522,0.118164,-1.132324,-0.020264,-29.624937,-4.821777,-65.658569
0.268066,1.053467,0.053711,26.31378,-43.693539,40.245052,0.142822,-1.092529,-0.009766,-24.093626,-17.707825,-67.7948
0.240479,0.964111,0.092285,13.09204,-113.471977,16.227722,0.162354,-1.02832,-0.001465,-18.981934,-27.091978,-68.229675
0.25415,0.786621,-0.037842,-7.286071,-69.488525,11.604308,0.178955,-0.955078,-0.009521,-15.228271,-33.027649,-66.764832
0.200439,1.0,-0.008057,21.675108,15.754699,74.34082,0.398438,-0.992432,-0.123291,-0.839233,0.526428,56.983944
0.205078,1.012207,-0.003174,22.544859,13.71765,72.494507,0.13623,-0.982178,-0.01123,-46.82159,112.709038,-49.911495
0.216064,1.025635,0.005859,23.262022,11.756896,69.953918,0.219971,-0.832275,-0.12085,-8.262634,10.391234,9.32312
0.228516,1.03125,0.020752,24.009703,9.567261,67.237854,0.181396,-0.835205,-0.085449,-40.512081,122.863762,-44.647213
0.236084,1.03418,0.03418,24.971006,7.087707,64.285278,0.228516,-0.865967,-0.120361,-7.522583,13.008117,23.345945
0.245117,1.04126,0.041992,26.069639,4.104614,61.126705,0.224609,-0.848877,-0.120361,-7.621765,10.70404,16.487122
0.24585,1.044922,0.045166,27.19879,-0.305176,58.067318,0.416992,-0.976074,-0.125244,-1.922607,2.334595,65.078735
0.239746,1.049072,0.044678,27.778624,-6.607055,55.007931,0.408203,-0.9646,-0.123047,-2.670288,5.172729,66.871643
0.235107,1.053955,0.041992,28.015135,-14.503478,51.971432,0.391357,-0.953125,-0.121338,-2.906799,6.141662,67.909241
0.225586,0.969727,0.084961,11.245727,-120.834343,14.945983,0.376709,-0.94165,-0.121094,-2.624511,4.653931,68.237305
0.236816,1.057861,0.036621,27.618406,-23.056028,49.118038,0.357178,-0.936035,-0.125977,-1.747131,1.052856,67.03949
0.259521,1.057129,0.046875,26.603697,-37.376404,43.289181,0.355957,-0.921875,-0.142334,-1.579285,-0.816345,64.865112
0.269287,1.047119,0.056152,25.81024,-50.559994,37.239075,0.379395,-0.898438,-0.15918,-2.89154,1.296997,64.193726
0.267578,1.046143,0.060791,24.963377,-58.364864,34.355164,0.384277,-0.883057,-0.179199,-4.096985,4.455566,63.926693
0.262451,1.041992,0.063232,23.597715,-67.443848,31.639097,0.366943,-0.871826,-0.178467,-4.631042,7.942199,62.629696
0.262451,1.034912,0.062744,21.675108,-77.171326,28.945921,0.357666,-0.851563,-0.181152,-5.378723,11.810302,61.202999
0.266113,1.023438,0.064209,19.371033,-86.318962,26.420591,0.412109,-0.990967,-0.125977,-1.152039,-0.312805,62.751766
0.272705,1.004639,0.078125,17.562866,-93.994133,23.941038,0.358643,-0.836914,-0.192871,-7.30133,20.88928,58.41827
0.277588,0.987061,0.089111,16.25824,-99.990837,21.499632,0.359131,-0.84082,-0.188477,-6.515502,16.418457,59.745785
0.272949,0.973145,0.094238,15.052794,-104.583733,19.210815,0.254883,-0.892822,-0.13916,-7.202148,19.607544,37.506104
0.261719,0.963135,0.09375,14.152526,-108.489983,17.463684,0.294434,-0.891602,-0.148682,-7.705688,22.956846,43.228146
0.246094,1.058838,0.036133,26.870726,-30.738829,46.272274,0.308105,-0.88623,-0.160889,-7.698059,24.223326,47.317501
0.290283,0.783691,-0.024902,-2.540588,-55.000301,4.493713,0.319092,-0.881836,-0.164307,-7.751464,25.100706,50.682064
0.314941,0.80542,-0.011475,2.601623,-44.754025,-5.638122,0.233643,-0.87915,-0.124512,-6.996154,15.968322,30.46417
0.331543,0.88208,-0.033936,7.118225,-39.985657,-15.762328,0.344238,-0.860352,-0.179443,-7.972717,26.123045,54.733273
0.239014,1.009277,-0.214355,-15.327453,-20.606993,-8.491516,0.346436,-0.84668,-0.185059,-8.155823,25.390623,56.091305
0.230469,0.994873,-0.225586,-15.922545,-20.050049,-8.529663,0.35498,-0.838379,-0.19043,-7.919311,24.055479,57.312008
0.212158,0.974365,-0.240723,-16.685486,-20.118711,-8.636475,0.336182,-0.871338,-0.174072,-7.911682,26.168821,53.222652
0.199219,0.9646,-0.25293,-18.127441,-20.629881,-8.415222,0.145752,-1.136475,0.072998,-60.676571,92.857353,-70.304871
0.191162,0.961426,-0.27002,-20.355223,-21.873472,-8.178711,0.260742,-0.681885,-0.072021,-60.928341,160.484314,-44.219967
0.186035,0.963867,-0.280762,-23.117064,-23.712156,-7.881164,0.240234,-0.708252,-0.061523,-63.636776,167.663559,-48.934933
0.184082,0.967285,-0.275879,-25.840757,-25.482176,-7.225036,0.220215,-0.750488,-0.048828,-66.215515,169.898972,-53.276058
0.189453,0.969482,-0.265137,-28.991697,-27.488707,-6.301879,0.19873,-0.808838,-0.025635,-67.909241,166.954025,-57.53326
0.185303,0.955566,-0.24707,-31.311033,-30.761717,-5.241394,0.180664,-0.872559,0.003174,-68.054199,158.622742,-61.904903
0.191895,0.943359,-0.227539,-32.142639,-33.14209,-3.730774,0.170166,-0.94458,0.023682,-67.199707,146.30127,-65.368652
0.243408,1.02124,-0.19873,-14.73236,-21.926878,-8.926392,0.2854,-0.669922,-0.072998,-57.922359,149.307251,-38.864136
0.213623,0.934326,-0.185303,-31.784056,-32.104492,-0.999451,0.157959,-1.015869,0.045898,-65.452576,131.240845,-68.031311
0.236084,0.922852,-0.161621,-28.778074,-24.185179,6.484985,0.149414,-1.083008,0.061035,-63.552853,113.281242,-69.572449
0.23291,0.914551,-0.150146,-26.756285,-21.27075,11.024474,0.149414,-1.168945,0.083984,-56.304928,71.578979,-70.266724
0.228271,0.902344,-0.143311,-24.528502,-18.806458,15.785216,0.246582,-0.979248,-0.014404,-40.000916,19.378662,-49.072262
0.224854,0.89209,-0.142578,-22.193907,-16.403198,20.820616,0.185547,-1.161133,0.065674,-46.287533,36.514282,-66.299438
0.222656,0.88208,-0.14209,-19.966125,-14.10675,25.573729,0.209229,-1.116455,0.040283,-42.625423,25.794981,-61.912533
0.219482,0.872559,-0.146729,-18.066406,-12.619018,29.800413,0.226807,-1.053223,0.016602,-40.473934,19.996643,-56.228634
0.218018,0.864014,-0.152588,-16.532898,-11.688231,33.51593,0.269043,-0.904785,-0.042725,-40.351864,24.108885,-40.878292
0.232178,0.862793,-0.160645,-15.167235,-8.995056,36.209106,0.287109,-0.846436,-0.070313,-40.893551,33.714294,-32.50885
0.237549,0.858398,-0.169189,-13.923644,-4.951477,38.17749,0.294189,-0.808594,-0.095703,-41.717525,45.898434,-24.154661
0.240723,0.859131,-0.172119,-12.847899,0.015259,39.276123,0.284424,-0.783691,-0.115723,-43.060299,57.052608,-15.586852
0.230469,0.925537,-0.160889,-30.334471,-28.045652,2.418518,0.277344,-0.773193,-0.143066,-44.227596,65.757751,-6.683349
0.244873,1.026855,-0.190186,-13.84735,-23.384092,-9.780884,0.292236,-0.756592,-0.170166,-46.203609,72.44873,3.356933
0.24585,0.869629,-0.171631,-11.734008,5.1651,39.558411,0.302734,-0.666992,-0.075928,-54.740902,134.994507,-32.531738
0.26416,1.034912,-0.191162,-12.298583,-26.107786,-12.031554,0.162109,-1.179199,0.078857,-51.147457,52.062984,-69.152832
0.358887,1.019775,-0.111328,8.628845,-38.360596,-24.566648,0.310059,-0.668213,-0.071289,-51.643368,119.117729,-25.665281
0.379639,1.166504,-0.168213,6.04248,-37.246704,-31.837461,0.330078,-0.758789,-0.179932,-49.934383,76.980591,15.899657
0.395996,1.310303,-0.178955,1.63269,-34.599304,-36.186218,0.321777,-0.668701,-0.077148,-45.989986,86.174004,-8.201599
0.411621,1.411133,-0.165527,-2.746582,-29.029844,-37.246704,0.468262,-1.00415,-0.167236,-22.78137,47.142025,116.981499
0.415771,1.431396,-0.137939,-5.760192,-20.88928,-35.873413,0.513184,-0.996826,-0.174072,-25.260923,53.230282,121.215813
0.386475,1.378906,-0.117676,-6.54602,-13.008117,-32.569885,0.543701,-1.000488,-0.198242,-27.549742,61.134335,126.869194
0.251953,1.02832,-0.187988,-12.825011,-24.482725,-11.245727,0.536377,-1.00708,-0.217773,-26.672361,66.734314,132.514954
0.339355,1.227295,-0.11377,-3.532409,-1.937866,-26.168821,0.487793,-0.983643,-0.20459,-24.482725,69.458008,135.749817
0.298584,1.158203,-0.121826,-2.548218,-1.243591,-23.28491,0.455566,-0.943848,-0.192139,-23.841856,71.807861,136.901855
0.285645,1.10376,-0.126465,-1.472473,-0.457764,-21.430967,0.436035,-0.915039,-0.179443,-23.658751,73.234558,137.519836
0.253662,1.052002,-0.134521,-0.88501,-1.51062,-19.256592,0.385498,-0.895264,-0.176758,-23.239134,71.807861,136.016846
0.370361,1.293945,-0.108643,-5.134582,-6.744384,-29.151915,0.352295,-0.87793,-0.169434,-23.399351,69.534302,131.378174
0.225586,0.982666,-0.151123,-1.655578,-7.629394,-17.478943,0.351318,-0.852539,-0.169434,-24.864195,68.862915,125.190727
0.220459,0.971924,-0.159668,-2.540588,-11.878966,-16.921997,0.322266,-0.672363,-0.065674,-48.690792,102.333061,-17.601013
0.218262,0.982422,-0.162354,-3.944397,-16.693115,-16.792297,0.353516,-0.824219,-0.182861,-26.519773,69.046021,118.34716
0.208252,0.981201,-0.166992,-5.630493,-23.063658,-16.654968,0.328613,-0.764893,-0.181396,-29.006956,67.474365,101.951591
0.210449,0.987061,-0.167969,-7.141113,-29.33502,-16.181946,0.316406,-0.739014,-0.174072,-30.860899,65.742493,92.247002
0.221191,0.994629,-0.165283,-7.888793,-32.50885,-15.281676,0.302979,-0.718262,-0.166016,-33.119202,63.285824,81.718437
0.240479,0.997559,-0.16748,-7.942199,-31.85272,-14.305114,0.288574,-0.707031,-0.155518,-35.812378,60.295101,70.587158
0.254639,1.007813,-0.176514,-8.659363,-29.525755,-13.916015,0.274658,-0.702148,-0.143555,-37.765503,57.708736,58.990475
0.241211,1.017578,-0.18457,-9.796143,-28.717039,-13.381957,0.270264,-0.687744,-0.135254,-38.925171,56.289669,47.492977
0.244629,1.028809,-0.189453,-11.322021,-28.259275,-12.46643,0.273926,-0.668701,-0.128174,-40.206905,56.297298,35.812378
0.24292,1.007568,-0.141357,-0.88501,-3.684997,-18.371582,0.279297,-0.65918,-0.117188,-41.41235,58.54797,24.009703
0.209473,0.89917,-0.202637,-24.116514,-38.154602,-8.804321,0.288818,-0.659424,-0.107178,-42.350765,63.819881,12.702941
0.203857,0.89917,-0.202148,-24.04785,-39.405823,-9.613037,0.305664,-0.663574,-0.090332,-43.823238,73.043823,1.968384
0.196045,0.901611,-0.19873,-23.674009,-39.787292,-10.147094,0.342041,-0.792969,-0.185791,-27.595518,68.67981,110.671989
0.193848,0.914795,-0.197754,-23.071287,-39.054871,-10.803222,0.375244,-0.810303,-0.165771,-53.985592,80.360405,30.502317
0.201172,0.979248,-0.193359,-18.806458,-24.848936,-15.899657,0.433594,-1.018311,-0.149658,-21.377562,44.548031,113.18206
0.188477,0.946289,-0.192139,-21.766661,-35.293579,-12.145995,0.462402,-1.025391,-0.088623,-58.303829,84.991447,53.215023
0.191406,0.9646,-0.189697,-20.820616,-32.012939,-13.069152,0.467529,-0.773193,-0.19751,6.034851,19.065857,19.920349
0.193115,0.974609,-0.190186,-19.767761,-28.350828,-14.35852,0.470947,-0.749512,-0.19165,7.942199,21.186827,16.021729
0.188965,0.932129,-0.194824,-22.468565,-37.590027,-11.352538,0.465088,-0.734619,-0.176514,10.284423,22.445677,11.840819
0.212402,0.9021,-0.199219,-24.253843,-36.933899,-7.690429,0.457275,-0.72998,-0.145508,12.573241,22.338865,7.019042
0.25415,0.879883,-0.173828,-2.548218,0.839233,33.752441,0.44751,-0.728027,-0.109619,14.297484,20.912169,1.487732
0.228027,0.905518,-0.185547,-23.490904,-34.057617,-4.341125,0.439453,-0.733643,-0.083252,15.434264,17.745972,-4.669189
0.226807,0.907715,-0.174805,-22.514341,-33.203125,-1.876831,0.431396,-0.741211,-0.067627,16.395569,13.09204,-11.138915
0.223145,0.910645,-0.165771,-21.484373,-33.050537,1.480102,0.424316,-0.742188,-0.060303,17.486572,7.324218,-17.822266
0.219727,0.918213,-0.154785,-20.225523,-32.592773,5.653381,0.415039,-0.744629,-0.061279,19.14978,0.785828,-24.246214
0.217773,0.919678,-0.143555,-18.539429,-31.257627,10.421752,0.409912,-0.750488,-0.061523,20.866392,-5.638122,-30.273436
0.219727,0.911377,-0.138184,-16.12854,-28.297422,15.686034,0.45874,-0.797119,-0.203125,4.28009,17.372131,24.063108
0.223633,0.901611,-0.137207,-13.420104,-23.963926,20.782469,0.404785,-0.763184,-0.058594,22.483824,-10.345458,-35.873413
0.234375,0.895752,-0.135254,-10.726928,-18.02063,25.527952,0.375732,-0.789551,-0.022949,24.200438,-12.496947,-46.791073
0.248047,0.88623,-0.139893,-7.659912,-11.062621,29.403685,0.362793,-0.797852,0.000977,23.651121,-11.978148,-51.284786
0.255127,0.882568,-0.156494,-4.78363,-4.257202,32.25708,0.351563,-0.796631,0.024414,22.041319,-11.444091,-54.161068
0.209961,0.983398,-0.195068,-18.035889,-21.629332,-17.425537,0.352539,-0.792236,0.043457,19.134521,-9.07135,-54.656979
0.217285,0.902588,-0.192871,-24.063108,-35.552979,-6.141662,0.359131,-0.789795,0.05249,15.441894,-3.341675,-52.894588
0.216553,0.985352,-0.19458,-17.173767,-18.852234,-18.77594,0.368896,-0.798096,0.053467,11.222838,5.012512,-48.942562
0.275879,1.132324,-0.147461,-9.857178,2.586365,-16.998291,0.35791,-0.802246,0.052979,7.278442,13.885497,-44.609066
0.231201,0.996094,-0.192871,-15.655517,-14.808654,-21.064756,0.326416,-0.806152,0.046143,2.960205,22.583006,-41.16058
0.249023,0.87793,-0.192627,-1.38855,4.592896,34.568787,0.296387,-0.816895,0.03418,-1.724243,30.815123,-38.948059
0.30835,0.751709,-0.025146,-10.406493,-75.920105,11.054992,0.273193,-0.832764,0.037842,-5.66101,37.635803,-37.712097
0.341797,0.773682,-0.022461,-6.370544,-64.071655,0.144958,0.391602,-0.776855,-0.049316,23.704527,-12.489318,-41.473385
0.371094,0.872314,-0.070801,-2.349854,-54.237362,-9.651184,0.453857,-0.81543,-0.205322,2.655029,16.784668,28.465269
0.393799,1.022217,-0.143799,-1.556396,-45.3186,-17.608643,0.422607,-0.906494,-0.128906,-57.044979,83.396904,43.525692
0.406982,1.177979,-0.177734,-4.547119,-36.888123,-23.353575,0.449951,-0.844727,-0.211426,-1.785278,20.713804,37.216187
0.418457,1.312012,-0.179199,-8.728027,-28.114317,-26.596067,0.477539,-1.164795,-0.062744,-58.715816,83.030693,60.279842
0.422607,1.382568,-0.156494,-12.153625,-18.531799,-27.45056,0.47998,-1.325684,-0.041748,-57.678219,79.64325,64.750671
0.40625,1.384033,-0.137939,-14.114379,-9.70459,-26.168821,0.49585,-1.449951,-0.016846,-54.603573,78.117371,65.711975
0.382813,1.339111,-0.125977,-14.053344,-3.570556,-24.124144,0.498535,-1.457764,0.000977,-51.704403,78.773499,65.452576
0.22168,0.988037,-0.193604,-16.273499,-16.426086,-19.973755,0.480225,-1.386963,0.001221,-51.025387,78.948975,64.52179
0.35376,1.289307,-0.125488,-13.023376,1.00708,-21.751402,0.449951,-1.300049,-0.013916,-51.048275,75.698853,63.049313
0.29541,1.184326,-0.137695,-10.82611,3.257751,-17.913818,0.449951,-0.831299,-0.205566,0.442505,18.15033,32.943726
0.260742,1.084717,-0.158691,-9.178162,1.373291,-16.784668,0.442139,-1.156982,-0.063721,-48.171993,65.284729,60.852047
0.256104,1.042969,-0.169678,-8.911133,-0.831604,-17.51709,0.435059,-1.089355,-0.094238,-45.951839,60.791012,60.035702
0.246826,1.008545,-0.184082,-8.987427,-3.723144,-18.844604,0.437012,-1.021973,-0.118408,-43.144222,58.494564,59.471127
0.245361,1.005371,-0.200684,-9.773254,-6.67572,-20.294188,0.440186,-0.954346,-0.142334,-41.15295,57.579037,58.814999
0.246094,1.018066,-0.207764,-11.024474,-8.911133,-21.720884,0.439941,-1.226318,-0.03418,-49.926754,70.648193,62.187191
0.245117,1.029541,-0.204834,-12.535094,-10.841369,-22.575377,0.456299,-0.89502,-0.187744,-35.28595,55.953976,57.28149
0.243652,1.034424,-0.19873,-13.740539,-12.184142,-22.850035,0.464355,-0.894531,-0.200195,-30.776976,54.824825,55.999752
0.240479,1.026855,-0.192871,-14.595031,-13.137816,-22.476194,0.466309,-0.897705,-0.213135,-26.931761,54.420467,54.336544
0.237305,1.011475,-0.190186,-15.151977,-13.900756,-21.881102,0.46167,-0.894531,-0.224365,-23.559568,52.352901,52.970882
0.32373,1.239502,-0.132324,-11.871337,2.990722,-19.508362,0.461914,-0.899414,-0.23291,-19.599915,48.118587,50.880428
0.251709,0.88501,-0.210693,-0.793457,7.92694,34.660339,0.45752,-0.902588,-0.239502,-15.144347,42.526241,48.812862
0.244141,0.897217,-0.220459,-0.88501,10.06317,33.821106,0.452637,-0.901611,-0.242432,-11.566161,37.384033,47.592159
0.229492,0.906738,-0.222168,-1.686096,10.055541,31.936644,0.448975,-0.895264,-0.243408,-8.56781,32.569885,46.264645
0.228516,0.842285,-0.278076,-40.748592,34.759521,-39.657593,0.450684,-0.883301,-0.233643,-5.744934,28.152464,43.975826
0.21582,0.892822,-0.246094,-35.804749,43.411251,-33.790588,0.450928,-0.864502,-0.222168,-3.684997,24.147032,40.855404
0.204346,0.944092,-0.209473,-30.326841,48.400875,-27.252195,0.444336,-0.909668,-0.167969,-38.581848,56.549068,58.708187
0.184814,1.003906,-0.178955,-25.077818,49.026485,-19.935608,0.493652,-0.692627,-0.073486,-4.257202,28.526304,22.750853
0.173096,1.079102,-0.154297,-20.416258,46.203609,-12.275695,0.500977,-0.696289,-0.088867,-4.600525,28.800962,27.740477
0.173584,1.137695,-0.132324,-16.021729,41.366573,-4.173279,0.507324,-0.704346,-0.118164,-5.371093,28.625486,32.12738
0.179688,1.149414,-0.11084,-11.45935,35.232544,3.761291,0.514648,-0.715332,-0.148438,-6.904602,28.312681,35.827637
0.179688,1.128174,-0.103027,-7.003784,27.06146,11.19995,0.51001,-0.82666,-0.133789,-19.630432,37.67395,49.72076
0.177246,1.109131,-0.109375,-3.417969,17.692566,18.058777,0.513184,-0.754883,-0.167236,-11.802672,28.388975,41.198727
0.180664,1.112793,-0.119873,-1.205444,8.346558,24.55139,0.510986,-0.790039,-0.156982,-14.137267,30.044554,43.632504
0.247559,0.804932,-0.307617,-44.883724,22.216795,-45.135494,0.506836,-0.81665,-0.142822,-16.769409,33.592224,46.638485
0.186035,1.121826,-0.124756,-0.480652,0.656128,31.280516,0.517334,-0.729736,-0.167236,-9.284973,28.19824,38.757324
0.193604,1.082031,-0.11792,0.679016,-7.850646,44.746395,0.489502,-0.693115,-0.064941,-3.852844,27.412413,17.730713
0.197021,1.049805,-0.117188,1.846313,-8.895874,50.98724,0.312744,-0.758301,0.030273,-5.073547,24.085997,-47.8363
0.200439,1.018066,-0.115234,3.318786,-8.140564,56.77795,0.465088,-0.711182,-0.050049,-2.220154,22.40753,6.843566
0.204346,0.995117,-0.112549,4.981995,-5.760192,61.897274,0.455322,-0.716309,-0.041504,-0.602722,19.416809,0.473022
0.206787,0.990234,-0.102295,6.484985,-1.907349,66.268921,0.450928,-0.718018,-0.036133,0.900268,17.707825,-5.92041
0.212158,0.996826,-0.079346,8.232117,3.15094,69.717407,0.441162,-0.716797,-0.025635,2.006531,16.88385,-12.405395
0.214355,1.003906,-0.051758,10.44464,8.262634,72.669983,0.418457,-0.721191,-0.01416,2.708435,16.746521,-19.340515
0.212891,1.00708,-0.032471,13.09204,12.84027,74.737549,0.396484,-0.725098,-0.002441,3.074646,16.334534,-26.603697
0.209473,1.007813,-0.016113,15.632628,16.342163,75.935364,0.380371,-0.730469,0.018311,2.441406,15.922545,-33.363342
0.205078,0.998535,-0.007813,18.325806,17.76123,76.179504,0.371338,-0.740234,0.022949,1.052856,16.548157,-38.856506
0.191162,1.112305,-0.123535,-0.167847,-4.66156,38.085938,0.363525,-0.743896,0.032959,-0.892639,18.722534,-42.251583
0.258545,0.780273,-0.336182,-48.042294,5.546569,-49.774166,0.345215,-0.74585,0.032715,-3.234863,21.553038,-44.647213
0.197998,0.994385,-0.006348,20.454405,17.402649,75.592041,0.511963,-0.835693,-0.127441,-21.614073,40.771481,52.093502
0.273926,0.772949,-0.382568,-50.926205,-33.248901,-57.464596,0.479492,-0.700439,-0.05542,-3.219604,25.352476,12.512206
0.217041,0.914063,-0.221436,-2.525329,8.522034,29.258726,0.509521,-0.850342,-0.124268,-22.460936,42.854305,53.871151
0.210205,0.925049,-0.20874,-2.89917,6.66809,26.130674,0.487305,-1.122559,-0.101807,-38.734436,31.059263,62.271114
0.189697,0.944092,-0.192627,-3.128052,4.386902,22.575377,0.50293,-0.877686,-0.118408,-25.039671,46.188351,55.870052
0.16626,0.963379,-0.180908,-3.02124,1.274109,19.035339,0.286865,-0.777344,0.028809,-6.149292,27.107237,-51.445004
0.147461,0.983643,-0.166016,-3.005981,-2.540588,15.678405,0.33374,-0.721924,-0.139893,-42.579647,101.333611,17.753601
0.138672,1.003906,-0.153809,-2.700805,-6.034851,12.329101,0.351807,-0.801758,-0.132568,-44.235226,99.662773,28.236387
0.264893,0.767578,-0.363037,-50.23193,-13.687133,-54.000851,0.382813,-0.931396,-0.120117,-45.394894,95.893852,37.879944
0.152344,1.026855,-0.12793,0.762939,-7.659912,5.500793,0.419678,-1.085938,-0.087891,-45.158382,92.90313,45.753475
0.140625,1.054443,-0.121338,1.953125,-10.932921,0.007629,0.440918,-1.229492,-0.035889,-43.914791,92.14019,51.162716
0.096436,1.09082,-0.106934,0.312805,-20.248411,-5.401611,0.445557,-1.32666,0.002686,-43.914791,91.186516,54.51202
0.085449,1.122559,-0.094482,-2.63977,-33.836365,-10.391234,0.427246,-1.35376,0.013916,-44.731136,86.029045,56.221004
0.138672,1.016113,-0.14209,-1.502991,-7.629394,9.315491,0.412842,-1.319824,0.009277,-45.761105,76.095581,56.365963
0.133301,1.142578,-0.107178,-10.803222,-61.286922,-22.91107,0.410645,-1.27832,-0.008789,-45.837399,63.018795,56.503292
0.155762,1.118896,-0.12085,-15.693664,-73.669434,-29.029844,0.508057,-0.866943,-0.123047,-23.689268,44.692989,55.053707
0.181885,1.069824,-0.144531,-20.614622,-83.976738,-34.919739,0.42041,-1.253662,-0.033691,-44.68536,50.834652,57.624813
0.207031,1.02124,-0.177979,-25.321959,-91.201775,-40.611263,0.473633,-1.182373,-0.080566,-41.076656,35.118103,60.470577
0.227051,0.974121,-0.220703,-30.227659,-95.008842,-46.06628,0.501221,-1.057617,-0.110596,-36.659241,29.21295,63.308712
0.244385,0.929199,-0.267822,-35.224915,-94.970695,-50.933834,0.515137,-1.001709,-0.119385,-35.118103,29.96063,63.568111
0.259521,0.888428,-0.313477,-39.810181,-90.370171,-54.695126,0.520996,-0.963135,-0.125732,-33.592224,33.26416,63.926693
0.272949,0.8479,-0.351074,-43.975826,-81.115715,-57.357784,0.526855,-0.954346,-0.121094,-31.799314,38.414001,63.621517
0.281982,0.813477,-0.376709,-47.546383,-67.909241,-58.937069,0.523926,-0.949951,-0.108154,-30.067442,43.022152,62.088009
0.277588,0.788086,-0.388916,-50.025936,-51.589962,-59.112545,0.513672,-0.933838,-0.104492,-28.717039,46.379086,60.707088
0.106934,1.143066,-0.099365,-6.484985,-48.080441,-16.578674,0.503906,-0.912842,-0.104736,-27.679441,48.027035,59.310909
0.212158,0.986084,-0.277588,-9.033203,69.297791,-32.852173,0.500488,-0.898438,-0.10498,-26.901243,48.606869,57.79266
0.21167,0.898438,-0.307861,-12.130736,61.416622,-31.082151,0.499023,-0.885986,-0.109619,-25.871275,47.615047,56.587215
0.214111,0.822998,-0.334961,-15.510558,48.805233,-29.197691,0.44751,-1.22583,-0.054932,-42.92297,41.488644,58.868404
0.22583,0.760742,-0.359375,-18.714905,32.409668,-27.206419,0.268311,-0.793945,0.038574,-7.759094,31.890867,-54.412838
0.226563,0.71582,-0.308838,-18.325806,-59.791561,-12.763976,0.332275,-0.693115,-0.13623,-40.206905,98.632805,7.591247
0.244385,0.685791,-0.390869,-21.621702,-8.384705,-22.28546,0.241943,-0.813721,0.06665,-14.907836,39.1922,-57.182308
0.240967,0.674072,-0.38208,-21.408079,-28.800962,-19.485474,0.348389,-1.101074,-0.049316,0.244141,-28.244017,-49.163815
0.236572,0.683838,-0.351074,-20.195005,-46.363827,-16.212463,0.39624,-1.152344,-0.053711,2.685547,-32.493591,-38.917542
0.239502,0.713135,-0.379395,-20.797728,12.924193,-24.955748,0.458984,-1.207764,-0.055908,4.600525,-30.96771,-29.739378
0.222168,1.077637,-0.242676,-6.050109,72.647095,-34.484863,0.50708,-1.265381,-0.060303,6.66809,-22.499083,-22.247313
0.186768,1.025635,-0.073486,9.109497,26.535032,16.433716,0.539307,-1.297607,-0.060791,8.666992,-9.048462,-16.487122
0.260986,1.31543,-0.18042,-1.670837,70.510864,-34.713745,0.548096,-1.284424,-0.055176,9.544373,6.912231,-11.695861
0.267822,1.412354,-0.148682,-0.595093,66.398621,-31.936644,0.538818,-1.235107,-0.053955,8.834839,21.560667,-6.858825
0.261475,1.446533,-0.126221,0.030518,59.417721,-27.557371,0.508545,-1.188477,-0.061035,7.034301,30.85327,-1.945495
0.246338,1.428223,-0.116455,0.488281,50.506588,-22.140501,0.469971,-1.187744,-0.077881,6.774902,33.226013,2.304077
0.229248,1.381592,-0.119629,0.63324,41.450497,-15.899657,0.438965,-1.199463,-0.0979,8.224487,30.3421,6.622314
0.216797,1.323975,-0.118896,0.457764,33.889771,-9.529114,0.313721,-1.04248,-0.054443,-1.625061,-23.406981,-60.173031
0.203125,1.257568,-0.100342,0.946045,28.793333,-2.922058,0.426025,-1.186768,-0.121582,8.964539,25.42877,12.001037
0.193359,1.18042,-0.087891,2.326965,25.726316,3.387451,0.415039,-1.092773,-0.156006,5.516052,17.578125,27.847288
0.187012,1.114502,-0.08252,4.394531,24.665831,8.720398,0.416992,-1.04126,-0.14624,3.639221,14.61029,37.689209
0.188477,1.065186,-0.076904,6.805419,25.398252,13.038634,0.424805,-1.02124,-0.119629,1.312256,11.978148,48.187252
0.218018,0.765137,-0.261963,-16.136169,-68.992615,-9.712219,0.44043,-1.040771,-0.101807,-1.335144,10.780334,58.944698
0.240723,1.189941,-0.210938,-3.471374,72.555542,-35.385132,0.456299,-1.067871,-0.098633,-4.417419,11.70349,68.565369
0.208496,0.82373,-0.209473,-13.633727,-74.310303,-7.110595,0.463379,-1.0896,-0.099365,-7.56073,15.838622,77.911377
0.162354,0.95874,-0.183105,3.540039,5.332946,7.484436,0.466309,-1.093262,-0.109863,-10.887145,21.77429,86.921684
0.175049,0.956543,-0.114746,-8.720398,-72.113037,-3.684997,0.448486,-1.076904,-0.119873,-14.35089,28.625486,95.16143
0.185059,0.990479,-0.074219,10.971068,26.748655,18.714905,0.430908,-1.048584,-0.118408,-17.326355,35.621643,102.233879
0.193359,0.867432,-0.155762,-4.554749,-10.215758,32.524109,0.426758,-1.028564,-0.128906,-19.950867,41.290279,108.505241
0.195068,0.865967,-0.162354,-2.906799,-6.393432,33.508301,0.41748,-1.144043,-0.144043,7.652282,20.965574,19.035339
0.195557,0.864746,-0.176514,-1.594543,-3.036499,34.072876,0.279297,-0.994141,-0.058594,-2.166748,-19.821167,-71.403503
0.195313,0.865967,-0.194824,-0.488281,-0.099182,33.866882,0.257568,-0.804932,0.052979,-10.765075,36.613464,-56.175228
0.199219,0.869385,-0.216309,0.137329,2.487183,32.661438,0.210205,-0.926025,-0.062012,-2.967834,-12.077331,-92.14782
0.199951,0.873047,-0.236084,0.473022,4.646301,30.59387,0.236572,-0.828369,0.076172,-19.348145,39.756775,-57.373043
0.197021,0.877686,-0.248291,0.656128,6.660461,27.908323,0.240234,-0.849854,0.07373,-22.949217,38.360596,-56.678768
0.194092,0.878906,-0.251465,0.87738,8.529663,24.414061,0.233154,-0.872559,0.066895,-25.459288,33.973694,-55.419918
0.188721,0.885498,-0.248291,1.419067,9.689331,20.668028,0.22876,-0.893555,0.059082,-27.053831,26.985167,-54.695126
0.194092,0.889893,-0.15625,-11.222838,-75.553894,-5.065917,0.237549,-0.917969,0.053711,-28.19824,19.828796,-55.038448
0.178955,0.898926,-0.234863,1.724243,9.712219,16.998291,0.240723,-0.939697,0.04248,-28.144835,12.474059,-56.808468
0.16626,0.93335,-0.203125,2.784729,7.087707,10.353087,0.239014,-0.95459,-0.064209,-2.616882,-16.639709,-82.336418
0.161865,0.986816,-0.162109,4.615784,3.181457,4.844666,0.273438,-0.958496,0.021484,-24.253843,-3.837585,-63.468929
0.161377,1.010254,-0.140625,5.485534,0.045776,2.380371,0.296631,-0.967285,0.018799,-21.057127,-10.749816,-67.687988
0.156494,1.031738,-0.120117,5.836486,-4.951477,0.236511,0.311768,-0.973389,0.020264,-17.776489,-15.716552,-72.906494
0.148438,1.053955,-0.102295,5.691528,-12.184142,-1.869202,0.322998,-0.976318,0.024902,-14.785766,-17.112732,-78.819275
0.136963,1.077881,-0.086914,4.837036,-22.109983,-3.723144,0.246338,-0.950928,0.031006,-26.679991,4.150391,-59.989925
0.125732,1.105225,-0.070557,2.700805,-33.432007,-4.333496,0.318848,-0.973145,0.032715,-8.491516,-11.566161,-93.078606
0.13208,1.114014,-0.0625,-0.160217,-44.609066,-3.944397,0.330566,-0.977051,0.026367,-11.657714,-15.289306,-85.578911
0.143555,1.084961,-0.068115,-3.349304,-55.14526,-3.211975,0.194092,-0.883301,-0.04248,-2.723694,-0.900268,-107.89489
0.156494,1.0271,-0.084717,-6.332397,-64.842224,-3.067016,0.19751,-0.880615,-0.031982,-2.02179,3.494262,-114.044182
0.169922,0.917236,-0.220459,2.296448,8.621216,13.656615,0.204834,-0.887451,-0.018066,-1.441955,5.592346,-118.537895
0.181885,0.96875,-0.084229,12.313842,25.459288,20.195005,0.21582,-0.893555,-0.005859,-1.121521,5.638122,-120.567314
0.183594,0.959473,-0.095215,12.542724,23.330687,20.690916,0.194824,-0.901611,-0.053955,-3.189087,-6.576538,-100.654594
0.185059,0.955566,-0.0979,11.734008,20.89691,20.881651,0.239502,-0.918945,0.01416,-1.182556,2.540588,-117.919914
0.201172,0.903809,0.030273,-2.792358,-107.162468,30.46417,0.255615,-0.928711,0.024902,-2.296448,-0.160217,-113.891594
0.211914,0.895752,0.024658,-4.302979,-114.112846,27.107237,0.280273,-0.945557,0.031494,-4.074097,-3.364563,-108.184807
0.215088,0.902344,0.019531,-6.774902,-123.069756,23.193357,0.304199,-0.963379,0.033447,-5.958557,-7.514953,-101.074211
0.220459,0.909668,0.015381,-9.384155,-132.545471,19.546509,0.22583,-0.90625,0.003418,-0.854492,4.524231,-120.23925
0.238525,0.924561,0.011963,-11.70349,-139.137268,16.616821,0.253906,-0.794189,-0.001709,14.98413,-62.408443,-86.334221
0.254395,0.942383,0.002197,-13.618468,-143.531799,14.373778,0.249023,-0.781738,-0.012451,15.457152,-64.376831,-82.115166
0.243164,0.971436,-0.01416,-16.212463,-149.909973,13.038634,0.255127,-0.786865,-0.01709,15.518188,-65.742493,-76.133728
0.243164,1.01123,-0.029785,-19.989014,-157.730103,12.519835,0.263916,-0.814697,-0.02002,16.281128,-67.558289,-69.160461
0.284912,1.033936,-0.04248,-22.315977,-160.041809,12.649535,0.280029,-0.852051,-0.028809,16.166687,-68.916321,-61.172482
0.30835,1.062988,-0.049805,-25.222776,-159.667969,13.137816,0.309082,-0.909424,-0.029297,15.136718,-68.061829,-51.803585
0.193604,0.92749,0.033447,-1.541138,-100.997917,32.88269,0.34375,-0.969971,-0.021729,14.266967,-66.413879,-41.931149
0.290283,1.058594,-0.037598,-27.770994,-163.551315,13.610839,0.377197,-1.024414,-0.015381,13.137816,-64.193726,-31.318663
0.326172,1.072021,-0.013916,-29.693602,-158.64563,18.630981,0.428467,-1.087891,-0.004395,12.260436,-59.913631,-20.866392
0.320068,1.088135,-0.003418,-29.846189,-153.518677,22.308348,0.477539,-1.160156,-0.008545,10.330199,-52.711483,-10.467528
0.306641,1.091064,0.008545,-29.762266,-149.185181,26.138304,0.448486,-1.070313,-0.111084,-8.651733,30.97534,83.290092
0.297119,1.071045,0.022461,-28.938292,-145.195007,29.548643,0.578857,-1.377686,-0.028076,6.240844,-27.44293,8.422852
0.29834,1.032227,0.03125,-27.06909,-140.213013,31.707762,0.571777,-1.446289,-0.02002,7.759094,-14.808654,14.457702
0.29248,0.985107,0.033936,-24.42169,-133.758545,32.432556,0.538574,-1.441406,-0.021484,9.994507,-6.935119,20.202635
0.273682,0.936035,0.018799,-21.697996,-126.266472,32.463074,0.506836,-1.395996,-0.03418,10.391234,-3.364563,27.221678
0.237061,0.900635,-0.002441,-19.866943,-119.140617,32.241821,0.481201,-1.3396,-0.047119,9.109497,-2.052307,35.53009
0.209229,0.859131,-0.025391,-18.562317,-112.289421,30.769346,0.474121,-1.279297,-0.053955,7.347106,-1.068115,44.357296
0.223633,0.805664,-0.040771,-16.815186,-102.920525,27.099607,0.479004,-1.21582,-0.070801,4.676819,2.357483,53.146358
0.317383,1.058838,-0.024902,-29.136656,-162.841782,15.396117,0.487793,-1.159668,-0.08374,1.075745,8.857727,61.668392
0.197754,0.941406,0.038574,-0.030518,-95.931999,34.370422,0.487549,-1.122314,-0.09082,-2.510071,17.01355,69.839478
0.263672,0.768799,-0.040039,-13.931273,-89.965813,20.606993,0.473145,-1.09375,-0.101074,-5.851745,24.841307,76.889038
0.21875,0.957764,0.045654,2.357483,-91.056816,35.461426,0.261719,-0.813477,0.010742,13.97705,-61.546322,-88.714592
0.181885,0.955566,-0.088135,10.345458,17.730713,21.408079,0.539795,-1.256348,-0.024902,7.377624,-41.519161,0.12207
0.17749,0.96167,-0.081299,8.842468,13.526916,22.354124,0.268555,-0.844971,0.019043,13.175963,-61.790462,-89.637749
0.176025,0.966553,-0.061768,7.232666,8.377075,23.208616,0.239502,-0.981201,0.069824,-22.064207,-11.611938,-48.439022
0.182129,0.96875,-0.033447,6.080627,2.708435,24.04785,0.287842,-0.919922,0.029785,10.108947,-62.171932,-85.807793
0.183594,0.966797,-0.008545,5.775451,-3.196716,25.253294,0.42334,-1.04126,-0.111572,-11.337279,34.179688,89.317314
0.191406,0.961426,0.006836,5.989074,-8.728027,26.275633,0.30127,-0.797363,0.093262,-0.175476,39.627075,-52.108761
0.209229,0.950195,0.04126,1.205444,-92.864983,35.095215,0.288574,-0.80835,0.109375,-4.356384,42.068478,-53.443905
0.200684,0.961426,0.025879,7.881164,-19.302368,27.801512,0.275146,-0.815186,0.105957,-8.895874,43.16711,-54.214474
0.202637,0.972656,0.032471,8.842468,-25.024412,28.617857,0.256104,-0.832031,0.097168,-12.443542,42.930599,-54.832455
0.205078,0.987549,0.034912,9.628296,-31.112669,29.449461,0.243896,-0.857422,0.098389,-14.320373,42.251583,-56.060787
0.206543,1.001465,0.031738,10.353087,-37.498474,30.204771,0.237061,-0.87085,0.097168,-16.441345,41.831966,-56.40411
0.197754,0.956543,0.019531,6.774902,-14.007567,27.107237,0.228027,-0.882324,0.096924,-19.378662,40.580746,-55.6488
0.20874,1.023926,0.030029,10.719298,-50.910946,32.196045,0.220459,-0.905029,0.097168,-22.087095,36.819458,-54.550167
0.210693,1.025879,0.026611,10.581969,-57.350155,33.287048,0.219727,-0.927979,0.092285,-23.826597,30.883787,-52.978512
0.212646,1.02124,0.030029,10.116576,-63.255306,34.309387,0.276367,-0.881348,0.024902,11.894225,-61.897274,-88.684074
0.213379,1.013916,0.028564,9.590149,-68.695068,35.15625,0.223145,-0.945801,0.087402,-24.482725,22.865294,-51.246639
0.216797,1.000732,0.03125,8.895874,-73.699951,35.964966,0.227539,-0.973633,0.074951,-23.559568,0.854492,-48.59161
0.220215,0.987549,0.031006,8.026123,-78.117371,36.361694,0.265625,-0.98584,0.061279,-19.775391,-22.979734,-48.851009
0.225098,0.978516,0.034912,6.965637,-81.909172,36.315918,0.288574,-0.992676,0.049805,-16.937256,-32.722473,-50.010677
0.227295,0.973389,0.041504,5.836486,-85.09063,36.178589,0.311523,-0.997314,0.043213,-13.450622,-41.503902,-51.948544
0.227539,0.970703,0.041504,4.722595,-87.524406,36.026001,0.317871,-1.001465,0.041504,-9.82666,-49.133297,-55.183407
0.224121,0.964355,0.043945,3.509521,-89.485161,35.743713,0.32251,-1.007568,0.03833,-6.011962,-55.191036,-59.43298
0.208496,1.013428,0.031738,10.69641,-44.128414,31.150816,0.326416,-1.01416,0.041016,-1.89209,-58.92944,-64.575195
0.216064,0.937012,-0.010254,13.801574,-118.202202,30.700682,0.322754,-1.009766,0.045166,1.808166,-60.508724,-70.236206
0.205811,0.936768,0.013184,16.700745,-110.321037,36.04126,0.310059,-0.991699,0.04248,5.1651,-61.431881,-76.126099
0.201904,0.936768,0.036621,19.256592,-101.501457,41.145321,0.299805,-0.95752,0.037842,8.026123,-62.263485,-81.474297
0.204102,0.938232,0.060303,20.721434,-93.231194,45.661922,0.224365,-0.959717,0.081299,-24.459837,12.7182,-49.591061
0.228271,0.971924,0.102539,18.424988,-77.651978,56.03027,0.311035,-0.787842,0.074707,3.852844,35.766602,-49.911495
0.216309,0.949707,0.101563,20.805357,-82.695,52.36816,0.414795,-0.989502,-0.135742,-15.670775,37.055969,95.390312
0.222168,0.962158,0.10376,20.271299,-80.42144,54.428097,0.454834,-0.966553,-0.139648,-19.638062,40.740963,100.006096
0.227051,0.967285,0.105225,19.485474,-79.086304,55.564877,0.31665,-0.6604,-0.088623,-49.247738,136.497498,-46.279903
0.209473,0.941162,0.084717,21.049498,-86.753838,49.545284,0.295898,-0.683838,-0.089844,-52.909847,149.551392,-48.927303
0.229004,0.937012,-0.034668,10.551452,-123.76403,25.466917,0.272705,-0.715332,-0.083008,-55.252071,156.593323,-51.193233
0.305908,1.023438,-0.042725,-7.186889,-93.200676,11.848449,0.249756,-0.753906,-0.074951,-57.174679,158.111572,-53.192135
0.263916,0.948975,-0.05542,5.40924,-127.30407,16.670227,0.230225,-0.798584,-0.066895,-59.097286,155.227661,-54.466244
0.286377,0.960205,-0.05835,3.570556,-126.625053,13.122558,0.208008,-0.854736,-0.049072,-60.592648,148.597717,-55.160519
0.311768,0.977051,-0.059814,2.281189,-124.694817,10.292052,0.187012,-0.919434,-0.034668,-60.485836,138.259888,-55.824276
0.343018,0.999512,-0.072021,1.266479,-121.017448,8.041382,0.172363,-0.986084,-0.009521,-59.547421,124.458305,-56.365963
0.365479,1.018066,-0.080078,0.007629,-116.111748,6.256103,0.152344,-1.038818,0.023438,-58.662411,106.483452,-57.144161
0.37915,1.019531,-0.075195,-1.365662,-110.900871,4.905701,0.145508,-1.113525,0.03833,-54.038998,60.905453,-58.120724
0.378906,1.008545,-0.065674,-2.746582,-106.285088,4.692078,0.332031,-0.661377,-0.091553,-44.639584,118.217461,-43.121334
0.35791,0.999756,-0.053955,-3.784179,-102.958672,5.561828,0.1604,-1.129883,0.032227,-49.514767,38.551331,-56.823727
0.338623,1.010498,-0.047607,-5.325317,-100.807182,7.026672,0.215576,-1.118896,0.007324,-38.787842,5.752563,-51.948544
0.321777,1.020508,-0.045654,-6.576538,-98.175041,9.002686,0.256104,-1.067627,-0.008789,-34.706116,-1.197815,-47.676083
0.224365,0.980469,0.096924,17.539978,-74.874878,56.289669,0.293701,-0.993896,-0.02417,-32.00531,-0.495911,-41.992184
0.244873,0.94043,-0.050293,7.637023,-126.579277,20.805357,0.32959,-0.910889,-0.052002,-30.937193,7.392883,-34.851074
0.225098,0.984131,0.097412,16.868591,-70.922852,55.870052,0.362061,-0.839111,-0.069824,-30.761717,21.591185,-27.671812
0.25293,0.948486,0.02124,-5.073547,-16.784668,22.90344,0.375732,-0.790527,-0.083496,-31.265257,39.428711,-21.293638
0.234131,0.990479,0.095215,14.450072,-62.644955,52.734371,0.375244,-0.756836,-0.09375,-32.585144,58.174129,-14.442443
0.29126,1.018311,-0.032471,-6.965637,-85.830681,14.427184,0.368164,-0.733154,-0.106934,-34.622192,75.790405,-7.507324
0.225586,1.034668,-0.104492,-13.549804,-4.554749,23.872374,0.3479,-0.707275,-0.121338,-37.223816,89.775078,-0.679016
0.213379,1.02417,-0.086914,-11.20758,-2.807617,24.55139,0.39624,-1.023926,-0.125977,-13.031005,34.461975,92.77343
0.206787,1.015137,-0.091064,-9.353638,-4.440308,24.612425,0.186279,-1.135498,0.023926,-44.067379,19.630432,-54.809566
0.203125,1.011475,-0.104004,-8.789063,-8.491516,24.101255,0.333984,-0.674561,-0.084961,-40.374752,97.610466,-38.841248
0.204346,1.010254,-0.114258,-9.750366,-13.671874,23.04077,0.140625,-1.082764,0.037354,-57.235714,84.526054,-57.945248
0.219482,1.003174,-0.119629,-11.764525,-17.936707,21.575926,0.313232,-0.710938,-0.089111,-34.90448,61.973568,-24.353025
0.240723,0.987549,-0.105957,-13.420104,-18.623352,19.798279,0.326172,-0.697754,-0.084473,-37.109375,77.796936,-32.814026
0.257813,0.967285,-0.076416,-14.015197,-15.899657,18.539429,0.478271,-0.972412,-0.195557,-21.965025,40.695187,107.742302
0.260742,0.956543,-0.035645,-13.389586,-12.313842,18.226624,0.489014,-0.978027,-0.209229,-21.888731,40.794369,110.420219
0.227539,0.991699,0.099854,15.747069,-66.665649,54.679867,0.501465,-0.959473,-0.208008,-21.133421,43.029781,113.410942
0.262695,0.960205,0.003662,-11.619567,-9.994507,18.577576,0.492188,-0.944336,-0.206299,-18.928528,44.204708,116.752617
0.260498,0.961914,0.030518,-6.942749,-11.878966,20.935057,0.450928,-0.911133,-0.193359,-16.609192,44.136044,118.186943
0.240967,0.93335,0.018555,-3.684997,-24.208067,25.367735,0.418701,-0.871582,-0.188721,-16.25061,45.150753,117.805473
0.228516,0.917236,0.019287,-2.456665,-33.378601,28.007505,0.416016,-0.844727,-0.181885,-16.319275,46.905514,116.989128
0.227051,0.90918,0.028076,-1.014709,-42.396542,30.891417,0.380127,-0.833496,-0.17749,-16.479492,47.134396,114.601128
0.236328,0.906494,0.035156,0.640869,-48.805233,34.072876,0.342529,-0.822998,-0.186279,-16.166687,47.256466,108.840935
0.251221,0.916748,0.041992,2.563476,-51.940914,37.307739,0.350342,-0.789307,-0.183594,-17.478943,48.881527,101.768486
0.255371,0.924316,0.064209,4.745483,-53.092953,40.481564,0.468018,-0.971436,-0.180664,-21.667479,41.343685,104.080193
0.252197,0.938477,0.082764,7.415771,-54.550167,43.869015,0.333252,-0.751221,-0.197021,-20.690916,51.582333,84.564201
0.247559,0.95459,0.091064,10.2005,-56.648251,47.119137,0.349365,-0.77002,-0.19873,-19.447327,50.704952,93.696587
0.240479,0.975586,0.091064,12.550353,-59.280392,50.132748,0.295166,-0.71167,-0.110596,-33.187866,45.219418,-3.730774
0.262207,0.965576,0.03125,-9.208679,-9.658813,19.470215,0.297607,-0.70459,-0.11377,-32.913208,42.503353,7.530212
0.276611,0.986328,-0.026855,-4.981995,-76.087952,15.838622,0.294434,-0.695557,-0.115723,-31.791685,42.144772,19.058228
0.244141,0.947021,-0.018799,-1.548767,-64.567566,16.845703,0.296631,-0.694824,-0.121582,-30.067442,43.823238,30.372618
0.225586,0.919189,-0.010742,3.028869,-51.650997,17.608643,0.298828,-0.713623,-0.101563,-33.584595,51.322933,-14.47296
0.202881,1.005859,-0.202393,-9.254456,29.655455,-19.508362,0.310303,-0.715088,-0.154541,-26.016233,49.781796,52.726742
0.192383,0.999512,-0.209961,-8.529663,27.526854,-15.11383,0.31665,-0.725342,-0.175537,-23.963926,51.216122,63.796993
0.194824,0.993896,-0.227295,-8.033752,24.993895,-11.222838,0.321533,-0.73999,-0.19043,-22.247313,51.61285,74.493408
0.200684,0.985352,-0.235352,-8.460999,23.223875,-7.629394,0.303467,-0.703857,-0.135498,-28.137205,46.95129,41.618343
0.20459,0.973145,-0.234375,-8.69751,22.392271,-4.432678,0.246338,-0.74292,-0.079346,-44.639584,134.338379,-24.520872
0.20752,0.964111,-0.231934,-8.911133,21.575926,-1.937866,0.271729,-0.807617,-0.115967,-26.80969,40.565487,16.021729
0.197998,0.954346,-0.230469,-9.20105,19.638062,-0.213623,0.271973,-0.791016,-0.095459,-27.648924,47.012325,7.911682
0.176025,0.949219,-0.23291,-9.757996,16.265869,1.76239,0.282959,-0.768555,-0.076172,-29.754637,56.335445,-0.053406
0.165527,0.944336,-0.234863,-10.45227,12.725829,3.753662,0.292236,-0.750977,-0.070068,-32.112122,69.084167,-7.003784
0.161865,0.939941,-0.242188,-11.093139,9.346008,5.615234,0.297607,-0.73877,-0.068848,-34.423828,83.862297,-12.855529
0.217773,1.005371,-0.189453,-10.589599,30.418394,-23.864744,0.300049,-0.72998,-0.077393,-37.101746,99.311821,-17.318726
0.157471,0.932373,-0.241455,-12.031554,5.79071,7.186889,0.273682,-0.817383,-0.126953,-26.634214,36.430359,23.612974
0.154053,0.915283,-0.217773,-13.46588,-0.083923,10.627746,0.291748,-0.725342,-0.082275,-40.176388,114.608757,-20.332335
0.160156,0.91748,-0.202393,-13.72528,-1.739502,12.496947,0.272217,-0.726563,-0.082031,-42.91534,127.30407,-22.308348
0.157227,0.918213,-0.179443,-13.565063,-3.097534,14.72473,0.215332,-0.768311,-0.063965,-44.998165,134.925842,-27.687071
0.156738,0.914307,-0.161133,-12.992858,-4.890442,17.26532,0.070068,-0.977539,-0.00708,-47.7066,80.810539,-46.493526
0.158203,0.912842,-0.15625,-12.031554,-7.286071,19.53125,0.171143,-0.829346,-0.02124,-46.607967,124.893181,-36.338806
0.156982,0.909424,-0.153564,-11.245727,-9.910583,21.797178,0.156494,-0.877686,-0.008301,-47.622677,117.073051,-40.161129
0.160156,0.907715,-0.153564,-10.536193,-12.474059,23.971556,0.118408,-0.931885,-0.005859,-47.737118,104.301445,-43.525692
0.167725,0.902588,-0.149902,-9.918213,-14.35852,25.917051,0.065674,-1.023193,-0.006836,-46.058651,52.36816,-48.835751
0.170898,0.895264,-0.146973,-9.109497,-15.60974,27.748106,0.093506,-1.052246,-0.007568,-43.121334,25.619505,-50.567623
0.177979,0.885986,-0.148682,-8.003235,-15.495299,29.602049,0.113525,-1.081543,-0.009277,-39.207458,3.067016,-49.34692
0.153809,0.920166,-0.230957,-12.908935,2.304077,8.796692,0.142334,-1.107666,0.003906,-34.057617,-14.030456,-45.494076
0.224609,1.009033,-0.185303,-12.893676,29.159544,-28.106688,0.177979,-1.099609,0.015381,-29.014585,-26.458738,-41.221615
0.185303,0.875977,-0.152344,-6.41632,-13.59558,31.249998,0.20459,-1.060791,0.016846,-25.80261,-34.515381,-35.980225
0.238525,0.997314,-0.19043,-16.738892,23.803709,-35.797119,0.275391,-0.821777,-0.131592,-25.695799,35.331726,30.563353
0.213135,0.891113,-0.012451,8.232117,-38.978577,16.304016,0.185059,-0.793213,-0.047119,-45.57037,131.095886,-31.768797
0.195801,0.850098,-0.024902,12.351989,-30.494688,12.351989,0.280518,-0.827148,-0.133789,-24.108885,37.239075,37.109375
0.192139,0.812012,-0.063965,15.61737,-28.480528,5.523681,0.235107,-1.000244,0.007568,-25.352476,-36.628723,-29.08325
0.217285,0.801758,-0.123535,16.815186,-30.120848,-4.981995,0.301514,-0.842773,-0.138184,-20.248411,45.761105,47.798153
0.252686,0.828369,-0.176514,15.716552,-32.424927,-17.921448,0.476074,-0.942627,-0.123779,-7.43103,21.949766,50.964352
0.29834,0.914795,-0.226807,12.138366,-33.096313,-31.936644,0.450928,-0.951904,-0.129639,-7.354736,20.03479,52.055355
0.231689,1.007568,-0.186768,-14.945983,26.794432,-32.173157,0.47876,-0.943115,-0.119873,-7.705688,22.323606,51.719662
0.381104,1.195313,-0.281494,0.328064,-24.475096,-57.106014,0.528564,-0.92334,-0.130371,-9.239197,28.549192,54.428097
0.412354,1.320068,-0.28125,-5.889892,-15.403747,-65.750122,0.511475,-0.912842,-0.186523,-10.421752,33.050537,55.755611
0.430176,1.416992,-0.270264,-11.756896,-5.393981,-71.365356,0.491455,-0.889893,-0.152832,-10.231017,38.024902,57.861324
0.416992,1.455322,-0.245361,-16.777039,2.555847,-73.959351,0.450928,-0.895508,-0.159424,-10.047912,38.925171,59.204098
0.344727,1.054688,-0.261963,6.683349,-30.548094,-45.600887,0.41748,-0.895508,-0.150391,-9.353638,38.223267,57.41119
0.359375,1.374756,-0.204102,-21.804808,13.183593,-68.984985,0.434814,-0.887207,-0.159668,-9.979248,37.963867,55.595394
0.346924,1.322754,-0.20166,-21.514891,20.462034,-64.811707,0.433594,-0.880371,-0.187012,-10.108947,38.200378,53.88641
0.311523,1.261963,-0.198975,-20.996092,25.588987,-60.531612,0.291504,-0.835693,-0.135742,-22.28546,41.320797,42.770382
0.284912,1.201904,-0.192871,-20.599363,27.931211,-56.518551,0.428223,-0.858154,-0.196533,-10.040282,38.551331,53.115841
0.249023,1.131348,-0.191895,-20.233152,26.931761,-52.726742,0.407959,-0.832764,-0.218262,-8.712769,38.627625,53.955074
0.226807,1.054688,-0.193848,-19.813538,24.04785,-49.041744,0.401611,-0.818604,-0.211914,-8.163452,39.573669,54.428097
0.220215,1.000488,-0.202148,-19.493103,20.233152,-45.967098,0.407471,-0.815918,-0.202881,-8.338928,41.923519,55.450436
0.224854,0.972412,-0.207275,-19.187927,17.990112,-43.731686,0.40625,-0.819824,-0.191895,-9.223938,44.593807,56.266781
0.233887,0.974365,-0.203857,-18.608093,18.226624,-41.648861,0.401611,-0.826172,-0.180664,-11.062621,47.393795,57.090755
0.237305,0.986816,-0.196045,-17.982483,20.660398,-38.94043,0.385254,-0.840332,-0.181641,-13.34381,50.003048,57.136532
0.376953,1.429443,-0.220703,-20.301817,7.67517,-72.70813,0.360596,-0.844238,-0.184814,-14.72473,52.024837,57.067867
0.535645,0.779053,-0.260742,-3.974914,4.79126,-37.277222,0.349121,-0.842285,-0.176514,-15.754699,52.818295,57.388302
0.567139,0.785889,-0.198242,-2.388,-9.338379,-40.611263,0.314209,-0.852051,-0.169434,-16.304016,51.406857,55.709835
0.590088,0.78125,-0.142578,-3.105163,-27.137754,-42.556759,0.302246,-0.849609,-0.147705,-17.692566,48.988338,52.101131
0.580078,0.802734,-0.105713,-6.965637,-44.845577,-42.602535,0.424561,-0.842285,-0.209473,-9.70459,38.726807,53.596493
0.513916,0.91748,-0.191406,-11.383056,-64.224243,-37.231445,0.275146,-0.933594,-0.012451,-27.114866,-31.745909,-21.125792
0.510254,0.83667,-0.11499,-9.643555,-55.572506,-40.473934,0.330566,-0.770264,0.056396,7.30133,30.303953,-47.294613
0.536377,0.874268,-0.147705,-11.306762,-56.755062,-42.79327,0.354248,-0.8396,-0.056885,-31.303404,-5.485534,-4.272461
0.538818,0.885254,-0.18042,-10.406493,-60.096737,-40.840145,0.486572,-0.898438,-0.12915,-0.267029,14.381408,27.595518
0.5271,0.830078,-0.101074,-9.727478,-56.228634,-41.236874,0.491211,-0.894531,-0.150391,3.059387,13.450622,27.19116
0.533691,0.77417,-0.306641,-7.202148,19.378662,-35.209656,0.491455,-0.883545,-0.158691,6.652832,13.511657,26.771544
0.206299,0.821289,-0.101074,-20.26367,-28.297422,37.117004,0.486816,-0.866943,-0.164063,9.597778,13.031005,26.428221
0.473877,0.782959,-0.285889,-16.479492,42.968746,-29.060362,0.481689,-0.848145,-0.15918,12.092589,11.07788,25.917051
0.42749,0.77002,-0.227783,-19.241333,46.989437,-24.429319,0.472168,-0.827881,-0.146973,14.297484,8.110046,25.794981
0.375977,0.745361,-0.182861,-19.851685,44.631954,-19.699097,0.469238,-0.807617,-0.141113,15.586852,3.974914,25.283812
0.324463,0.731689,-0.156494,-19.187927,37.643433,-13.374328,0.465332,-0.787354,-0.125244,16.365051,-0.518799,24.826048
0.280762,0.732422,-0.152832,-18.943787,28.770445,-5.584716,0.461914,-0.771729,-0.110107,16.647339,-5.546569,23.849485
0.241943,0.74585,-0.157715,-18.959045,18.493652,2.983093,0.450928,-0.765137,-0.092529,17.196655,-10.749816,21.911619
0.208252,0.770264,-0.154541,-19.996643,7.316589,12.069701,0.487061,-0.902832,-0.112305,-3.311157,16.624451,28.350828
0.18335,0.787842,-0.137207,-21.560667,-4.249573,19.943237,0.44165,-0.760742,-0.074951,17.799377,-14.595031,19.081116
0.183838,0.79541,-0.112549,-22.094725,-16.25824,26.69525,0.436768,-0.765869,-0.049805,19.180298,-14.038085,10.459899
0.196289,0.813477,-0.100098,-21.621702,-23.605345,32.318115,0.428223,-0.767334,-0.035889,20.042419,-11.283874,4.486084
0.467285,0.960449,-0.185547,-11.894225,-67.649841,-35.583496,0.418945,-0.765869,-0.023438,20.507811,-7.995605,-2.388
0.515869,0.783936,-0.319336,-12.153625,33.096313,-33.187866,0.406738,-0.759766,-0.018066,20.370481,-4.348755,-9.315491
0.443359,0.981689,-0.191895,-10.032654,-66.596985,-34.866333,0.397217,-0.75415,-0.003662,19.90509,-0.404358,-16.38031
0.506348,1.351074,-0.014648,-30.548094,-68.000793,-54.183956,0.38623,-0.752441,0.006348,19.050598,3.684997,-23.193357
0.415039,1.017822,-0.176025,-8.69751,-56.449886,-29.884336,0.378174,-0.749512,0.017578,17.532349,8.079529,-29.533384
0.205566,0.805176,-0.114014,-18.89801,-32.76825,41.488644,0.363281,-0.750977,0.028809,15.876769,12.573241,-35.65979
0.207764,0.811523,0.060059,-20.729063,-63.179012,-6.599426,0.348389,-0.753174,0.034912,13.885497,17.555237,-40.466305
0.209473,0.791504,0.060547,-16.685486,-62.438961,-6.782531,0.341797,-0.757324,0.042725,10.917663,23.582457,-44.021603
0.215088,0.776611,0.056396,-13.305663,-65.002441,-9.803772,0.437744,-0.762451,-0.060059,18.379211,-15.602111,15.228271
0.244629,0.775879,0.045898,-10.833739,-71.220398,-16.075134,0.49292,-0.909912,-0.094238,-5.66101,19.432068,28.877256
0.300781,0.794678,0.029541,-9.529114,-79.162598,-25.733946,0.320313,-0.877197,-0.033691,-29.342649,-20.790098,-12.542724
0.356445,0.849121,0.006348,-9.628296,-87.646477,-37.155151,0.519287,-0.929199,-0.085205,-8.895874,18.836975,29.70886
0.414063,0.936768,-0.032471,-11.299132,-94.543449,-48.33984,0.373291,-0.820068,-0.07666,-32.875061,11.596679,2.937317
0.465576,1.052734,-0.075684,-14.98413,-97.900383,-57.052608,0.390137,-0.783936,-0.098633,-34.446716,28.503416,10.19287
0.521729,1.183594,-0.105957,-19.554138,-96.687309,-63.308712,0.400879,-0.735352,-0.12793,-36.933899,44.593807,18.569946
0.453125,0.994385,-0.182373,-8.766174,-61.668392,-33.248901,0.414063,-0.733154,-0.157715,-39.070129,58.975216,27.221678
0.549561,1.31958,-0.113525,-25.177,-91.865532,-65.567017,0.431152,-0.79126,-0.15918,-39.855957,70.19043,34.919739
0.553955,1.407959,-0.051025,-32.409668,-74.882507,-59.448238,0.439453,-0.884277,-0.135498,-39.131165,77.384949,40.946957
0.441162,1.286621,-0.009521,-27.313231,-64.453125,-47.241207,0.441162,-0.998779,-0.107422,-37.834167,80.688469,45.31097
0.419678,1.237793,-0.022705,-23.574827,-61.790462,-41.336056,0.44751,-1.126953,-0.067383,-36.048889,81.481926,47.20306
0.391113,1.191406,-0.04541,-20.39337,-61.424252,-35.903931,0.440918,-1.233398,-0.020264,-34.202576,80.787651,46.607967
0.378174,1.142578,-0.060303,-18.234253,-61.912533,-28.854368,0.42749,-1.286865,0.019287,-33.378601,78.277588,44.418331
0.417236,1.079346,-0.073486,-12.954711,-58.280941,-23.704527,0.40918,-1.283691,0.03833,-33.760071,72.7005,41.633602
0.463379,1.03833,-0.125,-8.407593,-52.11639,-22.613523,0.509277,-0.921143,-0.088135,-7.17926,20.484922,29.243467
0.479248,1.009277,-0.149902,-6.187438,-47.630306,-23.757933,0.380859,-1.231934,0.02832,-33.638,50.796505,36.514282
0.487061,1.018311,-0.172363,-4.898071,-45.82214,-27.847288,0.383301,-1.212402,0.013184,-32.096863,37.849426,34.378052
0.427246,1.029053,-0.183594,-6.500244,-50.140377,-29.495237,0.39209,-1.191162,-0.003906,-29.58679,25.985716,32.020569
0.564209,1.411377,-0.088379,-30.616758,-84.304802,-63.598629,0.403564,-1.150391,-0.020996,-26.847837,15.327453,30.120848
0.189697,0.768311,-0.131348,-16.25061,-38.093567,46.340939,0.422363,-1.089355,-0.048584,-24.650572,7.278442,29.098509
0.171631,0.729248,-0.14624,-14.160155,-48.797604,50.537106,0.453369,-1.019043,-0.078857,-22.804258,3.540039,29.014585
0.203613,0.683105,-0.154297,-10.757445,-62.728878,53.176876,0.476318,-0.960938,-0.09668,-20.179747,3.494262,29.46472
0.241211,0.783936,-0.30249,-43.838497,5.371093,-28.755186,0.498535,-0.930664,-0.109375,-17.13562,6.217956,29.792784
0.275635,0.79248,-0.31665,-47.698971,22.102354,-28.678892,0.514893,-0.925537,-0.109375,-13.816833,10.749816,29.975889
0.268311,0.794922,-0.277832,-47.973629,38.780212,-28.434752,0.520264,-0.93042,-0.095215,-10.94818,15.243529,29.96826
0.245605,0.814697,-0.228516,-46.531673,50.155636,-26.962278,0.388916,-1.257568,0.037842,-34.133911,63.156124,38.780212
0.222656,0.844482,-0.178711,-44.479366,56.571957,-25.375364,0.453125,-0.802979,-0.140137,-9.70459,33.699036,52.223202
0.20459,0.883057,-0.106689,-40.435787,58.0368,-23.590086,0.466309,-0.814453,-0.141357,-12.016295,33.927917,54.00848
0.21582,0.966309,-0.052734,-33.042908,57.136532,-20.751951,0.477783,-0.82666,-0.142578,-14.122008,32.38678,55.534359
0.221191,1.081055,-0.055176,-26.420591,55.404659,-17.807007,0.491455,-0.837158,-0.141357,-15.800475,29.273985,56.732174
0.218262,1.180664,-0.046631,-22.254942,51.345821,-14.762877,0.485352,-0.918213,-0.14209,-22.048948,14.045714,54.084774
0.226318,1.249756,-0.03418,-18.714905,46.058651,-11.550902,0.505859,-0.861328,-0.145264,-18.753052,20.614622,57.174679
0.212158,0.785889,-0.232666,-38.215637,-5.775451,-28.96118,0.505859,-0.878906,-0.151123,-19.836426,16.784668,56.549068
0.237061,1.283691,-0.028809,-15.213012,40.52734,-8.422852,0.495117,-0.896484,-0.150391,-20.973204,14.236449,55.496212
0.232422,1.262207,-0.050049,-8.644104,27.9541,-0.87738,0.448975,-0.795166,-0.136963,-7.095336,32.073975,50.209042
0.21875,1.239258,-0.08667,-7.011413,19.592285,2.960205,0.501709,-0.848633,-0.140137,-17.410278,25.039671,57.28912
0.207031,1.202393,-0.123291,-6.217956,9.941101,6.568908,0.443115,-0.78833,-0.122559,-4.425049,29.518126,47.767635
0.198975,1.160889,-0.161621,-6.446838,-0.289917,9.666443,0.343506,-0.819824,-0.077148,6.607055,-7.04956,15.632628
0.19458,1.121338,-0.193604,-8.056641,-9.620667,11.970519,0.406494,-0.803955,-0.067139,-0.030518,17.547607,35.133362
0.190186,1.079102,-0.214355,-10.612487,-17.463684,13.961791,0.379395,-0.811768,-0.063232,1.502991,10.597228,28.671263
0.193359,1.049072,-0.224365,-13.488769,-22.994993,15.701293,0.355469,-0.817383,-0.06665,3.822326,1.823425,21.980284
0.205811,1.050537,-0.221436,-16.464233,-24.520872,17.288208,0.338135,-0.81958,-0.088135,9.963989,-14.488219,9.620667
0.220215,1.057861,-0.196045,-18.333435,-21.568296,18.981934,0.337158,-0.817139,-0.081055,13.374328,-19.569397,4.005432
0.22876,1.054443,-0.157959,-18.058777,-15.663146,20.89691,0.334229,-0.817627,-0.056152,15.724181,-21.530149,-1.342773
0.242676,1.279785,-0.029785,-11.421203,34.736633,-4.943848,0.341064,-0.820557,-0.02417,16.777039,-19.615173,-5.813598
0.194092,0.806641,-0.118652,-32.89032,-9.58252,-27.748106,0.341309,-0.812988,0.012451,16.212463,-14.991759,-9.895325
0.229004,1.04541,-0.128174,-16.098022,-9.269714,22.6593,0.327881,-0.799805,0.034424,14.343261,-9.040833,-13.71765
0.258545,0.911133,0.146729,-28.312681,-7.835388,-21.636961,0.475098,-0.937988,-0.130615,-23.345945,16.479492,52.993771
0.254639,0.647217,-0.163574,-7.43103,-65.078735,58.013912,0.435303,-0.789307,-0.103516,-2.624511,26.336668,44.609066
0.287842,0.624023,-0.117432,-3.433227,-61.683651,64.941406,0.474854,-0.95459,-0.12793,-24.879454,19.920349,52.185055
0.308594,0.625732,-0.047852,-0.007629,-57.312008,72.769165,0.394043,-1.390137,0.076172,-32.661438,83.503716,32.348633
0.338379,0.630615,0.043945,3.486633,-52.200314,81.062309,0.478027,-0.989014,-0.137939,-27.893064,24.879454,50.338741
0.383057,0.652588,0.129395,7.469177,-40.863033,89.927666,0.314453,-0.684082,-0.099121,-18.730164,38.917542,-10.345458
0.449951,0.716553,0.168945,10.169982,-21.354673,97.106926,0.319092,-0.674316,-0.114014,-21.507261,61.614986,-7.8125
0.221191,0.845215,0.011475,-28.991697,-8.911133,-25.405882,0.321289,-0.675537,-0.135742,-24.04785,79.216003,-4.310608
0.494141,0.785645,0.084717,18.112183,30.784605,109.428398,0.333252,-0.65918,-0.164063,-26.008604,91.88842,1.022339
0.514404,0.807861,-0.022705,29.441832,53.283688,114.807121,0.355225,-0.653076,-0.193604,-28.663633,100.517265,8.621216
0.495605,0.960205,-0.219238,38.322449,63.507076,113.792412,0.380615,-0.709229,-0.202637,-31.09741,105.224602,17.402649
0.33374,1.179688,-0.604248,35.209656,54.489132,107.078545,0.400146,-0.821533,-0.183838,-31.280516,105.331413,26.05438
0.501465,0.777344,0.147217,10.95581,3.601074,102.806084,0.421143,-0.956543,-0.133545,-31.326292,102.279655,33.64563
0.381592,1.230957,-1.222412,26.603697,37.147522,95.657341,0.439453,-1.122803,-0.060303,-31.410215,98.632805,38.825989
0.439941,1.224609,-1.001953,15.541076,96.595757,86.85302,0.44873,-1.313232,0.003662,-30.555723,95.855705,40.107727
0.406738,1.148926,-0.525391,17.486572,123.840324,68.626404,0.476807,-0.971191,-0.129639,-26.420591,22.773741,51.521297
0.263916,1.178223,-0.286865,14.205932,112.739555,62.057491,0.438965,-1.437988,0.057617,-29.594419,93.582146,38.078308
0.325928,1.155273,-0.12085,11.352538,82.298271,50.85754,0.323975,-0.783936,0.028076,11.901855,-1.945495,-16.685486
0.358887,1.180908,-0.055664,2.738952,54.64172,32.592773,0.387207,-1.322998,0.047607,-35.179138,75.22583,31.684874
0.331543,1.212402,0.039795,-11.116027,31.372068,15.167235,0.390869,-1.270752,0.020508,-36.743164,66.093445,31.684874
0.301758,1.184326,0.196777,-23.750303,13.71765,1.89209,0.400391,-1.2229,-0.009277,-37.109375,56.617733,32.241821
0.312988,1.119385,0.273438,-29.96826,1.930237,-9.429932,0.413086,-1.172607,-0.043945,-36.78894,47.027584,33.790588
0.288818,1.009521,0.263916,-30.303953,-4.753113,-16.723633,0.436035,-1.119385,-0.078857,-36.155701,39.199829,36.735535
0.220459,1.262451,-1.038574,31.044004,31.73065,100.868217,0.45752,-1.066162,-0.109131,-35.224915,33.866882,40.184017
0.199463,1.216309,-0.026367,8.514404,49.987789,-15.182494,0.470947,-1.019287,-0.12915,-33.836365,30.34973,43.441769
0.196533,1.199951,-0.023438,8.18634,64.880371,-15.388488,0.483398,-0.99707,-0.143799,-32.203674,28.152464,46.485897
0.21167,1.142822,-0.019043,6.996154,78.735352,-15.914916,0.48584,-0.992676,-0.144287,-29.914854,26.649473,48.759457
0.237549,1.06543,-0.023193,3.982544,89.302055,-16.441345,0.414795,-1.450684,0.083252,-30.319212,89.881889,34.629822
0.290527,0.778076,-0.232178,-19.40155,55.046078,-12.176513,0.324463,-0.770508,0.013916,9.109497,7.286071,-18.493652
0.276855,0.912354,-0.075439,-6.515502,93.917839,-15.342711,0.426514,-0.794434,-0.088135,-1.243591,22.422789,40.489193
0.294434,0.854492,-0.130615,-12.229918,86.753838,-14.137267,0.311035,-0.769531,-0.015625,5.142211,28.671263,-21.507261
0.299561,0.807373,-0.194824,-16.51001,72.776794,-13.114928,0.154785,-0.875732,-0.028076,-2.677917,-38.040161,-89.790337
0.260742,0.984619,-0.040771,-0.770569,94.573967,-16.38031,0.168213,-0.902344,-0.020752,-2.937317,-48.324581,-82.031242
0.203125,1.196777,-0.028809,8.804321,35.53772,-15.174865,0.208496,-0.938477,-0.006836,-2.868652,-59.471127,-71.357727
0.243896,1.029053,-0.108643,-1.014709,-16.616821,-4.219055,0.266602,-0.993408,-0.00415,-2.563476,-68.885803,-57.258602
0.2146,1.172119,-0.050293,7.774353,11.489867,-13.488769,0.34082,-1.062988,-0.014893,-2.807617,-75.6073,-41.40472
0.232178,1.177002,-0.05835,6.507873,4.173279,-12.489318,0.408203,-1.132813,-0.029053,-3.166198,-78.979492,-25.55847
0.229248,1.158936,-0.058105,5.310058,-1.113892,-11.230468,0.469727,-1.204346,-0.048584,-2.13623,-80.566399,-11.840819
0.21875,1.114014,-0.0625,4.745483,-5.79071,-9.597778,0.518555,-1.280762,-0.065186,1.457214,-78.887939,-1.037598
0.20752,1.053223,-0.077637,4.547119,-10.406493,-8.094788,0.558594,-1.32373,-0.080566,5.897521,-72.998047,6.805419
0.210449,1.009521,-0.102295,4.005432,-14.85443,-7.186889,0.593262,-1.331787,-0.080566,8.850098,-62.095638,12.161254
0.216309,1.004639,-0.125,2.693176,-18.035889,-6.935119,0.608398,-1.314941,-0.071533,10.398864,-46.691891,15.075683
0.228516,1.016602,-0.130371,0.976562,-19.454956,-6.774902,0.593506,-1.286133,-0.054932,11.642455,-30.586241,16.319275
0.23877,1.024414,-0.128418,-0.267029,-19.233704,-6.088256,0.555908,-1.241699,-0.059326,11.70349,-17.814636,17.173767
0.243164,1.028564,-0.120117,-0.984192,-18.074036,-5.279541,0.535889,-1.191895,-0.07251,10.94818,-7.781982,17.959595
0.283447,0.761719,-0.231445,-21.469114,37.559509,-11.802672,0.511963,-1.132324,-0.08374,9.757996,-0.114441,18.920898
0.202393,1.175293,-0.037354,8.666992,22.178648,-14.556884,0.487305,-1.066895,-0.101074,7.80487,5.233764,20.599363
0.298096,0.759521,-0.211914,-22.445677,21.339415,-11.695861,0.475098,-0.99707,-0.119141,5.455017,8.804321,23.071287
0.153809,1.139648,-0.108887,-1.853943,-42.907711,40.344234,0.467041,-0.932373,-0.13623,3.250122,11.047362,26.68762
0.351807,0.797363,-0.188232,-24.04785,-13.000487,-11.314391,0.460938,-0.908203,-0.145996,1.228333,12.580871,30.85327
0.243164,1.030029,-0.09668,-0.900268,-15.090941,-3.189087,0.469238,-0.916748,-0.136475,-0.473022,13.786315,34.858704
0.223389,0.864502,-0.162354,-6.439209,-40.206905,53.115841,0.478027,-0.930664,-0.119385,-2.502441,15.541076,38.864136
0.226807,0.871094,-0.171631,-4.142761,-34.637451,56.045528,0.482666,-0.937256,-0.119141,-4.882813,18.035889,42.8009
0.224365,0.885986,-0.182617,-3.265381,-30.494688,58.021542,0.323486,-0.767334,-0.005127,7.034301,17.814636,-19.889832
0.2146,0.901367,-0.185059,-3.326416,-28.488157,58.723446,0.15918,-0.844727,-0.031494,-1.686096,-29.609678,-95.6726
0.187744,0.916504,-0.180664,-4.295349,-29.396055,59.112545,0.157959,-0.820068,-0.031982,-0.350952,-20.973204,-99.57885
0.161377,0.939941,-0.177734,-6.347656,-33.874512,58.914181,0.485352,-0.940674,-0.124512,-6.614685,20.988462,46.783443
0.174561,0.957031,-0.170166,-7.4234,-36.170959,57.968136,0.195557,-0.826904,-0.009033,0.724792,-6.103515,-104.423515
0.193359,0.974854,-0.151123,-7.141113,-33.77533,56.373592,0.171875,-0.815918,-0.020508,0.770569,-12.222289,-102.485649
0.205566,0.993896,-0.125244,-5.279541,-28.541563,53.62701,0.269775,-0.776855,0.005371,-1.625061,49.545284,-25.016783
0.323486,0.774414,-0.19751,-23.056028,5.195617,-11.520385,0.245361,-0.785645,0.031738,-6.91986,56.930538,-26.603697
0.189697,1.017822,-0.111328,-2.571106,-24.597166,50.422665,0.2229,-0.805176,0.048584,-12.039184,60.455318,-27.679441
0.151611,1.099854,-0.101807,-0.579834,-33.119202,44.281002,0.199463,-0.832031,0.064209,-16.273499,58.143612,-28.800962
0.169922,1.168701,-0.120605,-5.073547,-54.412838,35.568237,0.183838,-0.863037,0.080811,-19.78302,50.773617,-30.181883
0.186768,1.179443,-0.133789,-9.460449,-66.322327,30.258177,0.185547,-0.895996,0.091064,-22.583006,40.451046,-31.318663
0.216797,1.163086,-0.147705,-14.533996,-76.278687,24.772642,0.198242,-0.924805,0.094971,-24.79553,28.900145,-32.226563
0.257813,1.114014,-0.153564,-18.730164,-82.260124,18.318176,0.217285,-0.947021,0.096436,-26.115416,17.349243,-33.699036
0.299072,1.056885,-0.161377,-21.89636,-82.839958,11.108397,0.239746,-0.973145,0.093018,-26.481627,5.905151,-36.5448
0.333496,1.000488,-0.162842,-24.505613,-77.629089,4.264832,0.267334,-1.002686,0.082031,-25.154112,-5.15747,-40.679928
0.351563,0.939941,-0.159424,-26.176451,-67.54303,-1.51062,0.290771,-0.775146,-0.012939,2.616882,39.749146,-23.323057
0.365967,0.879883,-0.165039,-26.43585,-52.314754,-6.324768,0.302979,-1.029297,0.071777,-22.247313,-14.266967,-45.94421
0.371338,0.832764,-0.177002,-25.520323,-33.058167,-9.719849,0.344971,-1.042725,0.065186,-18.760681,-19.004822,-52.291866
0.163574,1.055176,-0.106201,-0.831604,-26.199339,47.538754,0.37793,-1.0354,0.054932,-15.808105,-17.448425,-59.204098
0.240723,1.027832,-0.092285,-0.411987,-13.702392,-2.212524,0.395508,-1.013184,0.043701,-12.954711,-10.82611,-66.375732
0.210938,0.85791,-0.171631,-8.750916,-45.936581,49.507137,0.39209,-0.983154,0.038574,-10.353087,-2.14386,-73.448181
0.235107,1.016846,-0.082764,0.915527,-11.718749,-0.38147,0.375,-0.951904,0.037354,-7.408142,5.28717,-80.757133
0.156982,0.924316,0.050293,-6.652832,-76.004028,27.671812,0.349854,-0.921631,0.035645,-4.631042,10.040282,-88.043205
0.165039,0.93457,0.048096,-7.400512,-85.350029,24.375914,0.314941,-0.899658,0.026367,-2.349854,11.367797,-94.352715
0.186279,0.944336,0.037354,-8.537292,-92.887871,20.095823,0.275146,-0.881836,0.019775,-0.457764,9.552002,-99.281303
0.208984,0.948975,0.029053,-10.002136,-98.709099,14.694213,0.238281,-0.859131,0.014893,0.366211,5.1651,-102.622978
0.234375,0.953125,0.024902,-11.657714,-103.500359,8.605957,0.2146,-0.838623,0.003906,0.328064,-0.526428,-104.339592
0.256104,0.961426,0.017334,-13.496398,-107.055656,2.037048,0.496582,-1.243652,-0.097656,7.415771,-118.461601,5.859375
0.285645,0.970947,0.001465,-15.327453,-108.52813,-4.699707,0.430908,-1.213135,-0.076172,4.676819,-130.363464,-4.714966
0.310547,0.97998,-0.009277,-17.166138,-107.734673,-10.803222,0.355957,-1.155273,-0.074951,0.915527,-134.384155,-17.028809
0.33252,0.989746,-0.018311,-19.165039,-104.988091,-15.594481,0.286865,-1.095947,-0.078369,-2.799988,-129.119873,-31.166075
0.353516,1.003418,-0.033936,-21.118162,-100.730888,-19.439697,0.11499,-0.966553,-0.087646,-18.783569,-83.106987,-86.036674
0.160645,0.920654,0.050293,-6.446838,-65.834045,29.907225,0.21875,-0.998047,-0.08667,-10.604857,-108.108513,-59.341427
0.373047,1.014404,-0.045898,-23.246763,-96.015923,-22.216795,0.17627,-0.977051,-0.097168,-13.359069,-100.700371,-72.227478
0.4104,1.018555,-0.073242,-27.915953,-87.158195,-25.077818,0.150879,-0.95166,-0.094238,-16.342163,-90.545647,-81.901543
0.417969,1.006836,-0.072998,-30.113218,-83.305351,-25.627134,0.244141,-1.040527,-0.080811,-6.851196,-118.057243,-45.707699
0.411865,0.98291,-0.063965,-31.967161,-80.184937,-25.390623,0.556152,-1.241699,-0.114502,8.270264,-98.274223,16.357422
0.392578,0.962158,-0.049805,-33.279419,-77.262878,-23.933409,0.452148,-1.107666,-0.178467,12.33673,15.159606,34.790039
0.374512,0.948486,-0.029053,-34.095764,-74.485779,-21.614073,0.640625,-1.242188,-0.140381,9.429932,-39.855957,25.619505
0.350098,0.935791,-0.006348,-33.843994,-72.303772,-18.966675,0.532959,-1.200684,-0.180664,12.405395,-0.686645,31.127928
0.318115,0.920654,0.017822,-32.646179,-70.755005,-15.86914,0.491455,-1.167236,-0.184326,12.550353,9.19342,33.065796
0.297363,0.895996,0.038818,-30.448912,-68.702698,-13.114928,0.406494,-0.991211,-0.135986,0.305176,34.164429,58.944698
0.268799,0.870605,0.050781,-27.633665,-66.108704,-10.734557,0.425293,-1.048828,-0.166992,11.222838,19.355774,37.231445
0.234375,0.841064,0.057373,-24.406431,-64.346313,-8.529663,0.411377,-0.98877,-0.160156,8.880615,21.888731,40.351864
0.39209,1.018799,-0.061523,-25.459288,-91.453545,-23.971556,0.409424,-0.96167,-0.152588,6.591796,23.330687,44.654842
0.17749,0.921143,0.043945,-6.54602,-56.587215,31.059263,0.416748,-0.9729,-0.152344,4.821777,25.772093,49.545284
0.237793,1.022949,-0.088379,0.198364,-12.542724,-1.220703,0.421387,-0.987305,-0.151611,3.166198,28.671263,53.199764
0.206787,0.920898,0.032715,-7.850646,-45.31097,29.548643,0.414795,-0.991699,-0.145996,1.647949,31.616209,56.312557
0.231201,1.015869,-0.079102,1.63269,-11.634826,0.358582,0.061768,-0.964844,-0.0896,-22.178648,-72.593689,-89.164726
0.226807,1.019043,-0.075195,2.212524,-12.496947,0.961304,0.611328,-1.23291,-0.127441,8.049011,-70.137024,23.735044
0.222656,1.02417,-0.067627,2.494812,-14.22119,1.548767,0.082275,-0.972412,-0.093018,-24.688719,-58.555599,-90.576164
0.216309,1.025635,-0.05957,2.700805,-16.815186,2.326965,0.321777,-0.982422,0.056885,-47.8363,43.93005,-68.267822
0.215576,1.022705,-0.059326,2.685547,-19.897461,3.097534,0.168701,-0.985352,-0.078857,-30.647276,-16.967773,-93.940727
0.215332,1.015381,-0.063721,2.357483,-23.239134,3.562927,0.400635,-0.990234,-0.130615,-1.144409,36.92627,60.676571
0.193115,0.920898,0.041016,-7.118225,-49.827572,30.883787,0.225586,-0.802002,0.046143,-10.612487,17.326355,-64.38446
0.218506,0.984863,-0.064941,1.319885,-28.060911,4.40979,0.215332,-0.806396,0.04248,-14.572143,21.324156,-65.010071
0.225098,0.970703,-0.058838,0.968933,-28.228758,4.981995,0.209717,-0.810547,0.042236,-18.821716,25.100706,-65.109253
0.231445,0.959961,-0.047607,0.976562,-27.435301,5.638122,0.209473,-0.818604,0.041992,-23.178099,29.090879,-64.804077
0.234863,0.952393,-0.04126,1.106262,-26.634214,6.492614,0.217285,-0.832764,0.043701,-27.45056,33.096313,-64.598083
0.213623,1.001953,-0.065918,1.800537,-26.153563,3.921509,0.232178,-0.849365,0.045898,-31.60095,36.911011,-64.025879
0.238525,0.932861,-0.047363,0.846863,-27.679441,9.20105,0.241943,-0.86377,0.049072,-35.461426,39.848328,-63.163754
0.249756,0.931641,-0.06543,-0.022888,-28.96118,10.513305,0.254883,-0.882813,0.050537,-38.955688,41.488644,-62.362667
0.261475,0.932129,-0.078369,-1.335144,-29.693602,11.772155,0.267578,-0.901367,0.054443,-41.938778,42.007442,-62.339779
0.269531,0.929443,-0.079346,-2.830505,-30.044554,13.298034,0.115479,-0.989258,-0.081787,-26.168821,-38.619995,-92.216484
0.266113,0.924316,-0.069092,-4.272461,-30.72357,14.945983,0.277344,-0.923096,0.053955,-44.082638,41.984554,-63.438412
0.260498,0.92627,-0.056641,-5.729675,-32.089233,16.88385,0.313965,-0.95752,0.057373,-47.592159,43.457027,-65.811157
0.250488,0.930664,-0.04126,-7.133483,-34.004211,19.371033,0.323486,-1.008301,0.054932,-47.45483,44.334408,-71.723938
0.240234,0.93335,-0.028809,-8.369446,-36.315918,22.109983,0.322266,-1.030762,0.057129,-45.974728,44.441219,-76.568604
0.230225,0.931152,-0.008545,-9.117126,-38.894653,24.780272,0.329102,-1.036865,0.054932,-44.006344,44.845577,-81.657402
0.218994,0.925781,0.017822,-8.857727,-41.763302,27.45056,0.322998,-1.032959,0.049072,-41.572567,44.448849,-84.526054
0.234863,0.94165,-0.039551,1.190186,-26.679991,7.698059,0.297852,-1.020752,0.029297,-39.787292,39.596558,-87.265007
0.309326,0.918457,-0.094727,-5.233764,-110.771172,26.084898,0.233398,-1.009033,0.008057,-38.848877,33.355713,-92.90313
0.279297,0.901367,-0.081055,-3.410339,-117.210381,23.986814,0.224609,-0.992188,0.00415,-36.91864,27.8244,-98.007195
0.270508,0.888428,-0.063965,-1.213074,-120.399467,22.994993,0.287354,-0.982666,-0.009277,-34.896851,16.891479,-97.549431
0.258301,0.874268,-0.050781,0.75531,-123.123161,23.185728,0.243408,-0.979492,-0.042725,-33.836365,1.88446,-95.100395
0.23291,0.890625,0.009521,13.130187,-128.471375,19.378662,0.296387,-0.937744,0.052979,-46.203609,42.5415,-64.529419
0.24585,0.864746,-0.031006,5.149841,-128.479004,21.636961,0.39209,-0.983398,-0.128174,-2.220154,39.382935,61.378475
0.242676,0.866211,-0.020996,7.713317,-130.432129,20.729063,0.586914,-1.230225,-0.161377,11.512755,-16.075134,27.938841
0.236084,0.875732,-0.005371,10.292052,-130.592346,20.004272,0.378662,-0.948486,-0.133057,-3.997802,40.893551,62.034603
0.246094,0.865479,-0.039551,2.555847,-125.846855,22.735594,0.196289,-0.854248,-0.172852,-15.86914,75.59967,2.326965
0.327393,0.948242,-0.105957,-7.5531,-105.300896,26.870726,0.182861,-0.849365,-0.181641,-16.578674,81.039421,-1.083374
0.147461,1.048096,0.082764,-18.127441,-129.699707,32.25708,0.174805,-0.842529,-0.184082,-17.417908,87.051384,-4.379272
0.311279,1.0,-0.118164,-12.481688,-99.273674,25.329588,0.18335,-0.831299,-0.172607,-19.691467,94.215385,-5.744934
0.288086,1.013428,-0.102051,-14.686584,-95.848076,27.305601,0.183105,-0.820801,-0.162354,-22.872923,100.524895,-5.935668
0.296631,1.014893,-0.084961,-16.395569,-93.353264,28.846739,0.165039,-0.822998,-0.147949,-25.93231,104.011528,-6.324768
0.274902,1.028076,-0.082764,-18.058777,-93.345634,30.433653,0.156982,-0.838623,-0.147217,-28.320311,104.11071,-6.828308
0.249268,1.04834,-0.066895,-19.386292,-96.359245,32.13501,0.165039,-0.857666,-0.154053,-30.235289,102.676384,-6.607055
0.225098,1.082275,-0.041748,-20.072937,-101.348869,34.049988,0.169922,-0.878174,-0.148193,-32.25708,101.348869,-6.072998
0.204346,1.117432,-0.018311,-21.064756,-107.582085,35.232544,0.166504,-0.898193,-0.111084,-34.118652,100.349419,-6.484985
0.185059,1.133301,0.008789,-21.842955,-114.547722,35.675049,0.204346,-0.866455,-0.16333,-14.778136,70.770264,5.226135
0.172363,1.122559,0.042969,-21.545408,-120.719902,35.301208,0.152832,-0.928711,-0.059326,-34.683228,97.31292,-8.155823
0.162109,1.093262,0.071533,-20.172117,-125.320427,34.248352,0.096436,-1.002441,0.017822,-32.234192,76.73645,-14.060973
0.226074,0.907959,0.029785,16.082764,-124.168388,18.920898,0.082275,-1.038574,0.03418,-30.487059,59.532162,-17.333984
0.341064,0.971436,-0.116699,-10.139464,-102.790825,25.260923,0.074707,-1.047363,0.040039,-28.564451,40.740963,-20.301817
0.220947,0.928955,0.046631,18.920898,-118.072502,18.569946,0.079102,-1.038574,0.04541,-26.199339,21.804808,-22.216795
0.236572,1.044922,0.077881,38.551331,25.695799,15.876769,0.092529,-1.024658,0.056152,-22.78137,3.425598,-23.658751
0.205811,0.966309,0.062012,23.994444,-102.516167,16.792297,0.114258,-0.999512,0.04834,-18.77594,-12.306212,-24.345396
0.157715,0.997559,0.080322,-16.319275,-134.07135,27.770994,0.141357,-0.953125,0.02832,-15.830993,-23.269651,-23.704527
0.252197,0.909668,0.009766,5.081176,29.579161,26.237486,0.173096,-0.895508,-0.001709,-14.694213,-27.099607,-21.812437
0.250244,0.91748,0.013672,8.491516,33.760071,27.137754,0.216553,-0.835449,-0.035889,-14.961242,-21.766661,-19.187927
0.248047,0.922852,0.012939,11.734008,36.53717,27.511595,0.256592,-0.777832,-0.06665,-15.518188,-7.164001,-16.067505
0.240234,0.927246,0.011475,14.335631,37.757874,27.557371,0.123291,-0.967773,-0.011475,-33.630371,89.866631,-10.94818
0.239746,0.935791,0.007568,16.479492,38.528442,27.214048,0.220215,-0.878662,-0.153809,-13.549804,66.329956,8.239746
0.243652,0.942627,0.007813,18.661499,39.703369,26.405333,0.293457,-0.724121,-0.085449,-16.494751,14.259337,-13.038634
0.242188,0.945068,0.02002,21.324156,41.145321,25.466917,0.242432,-0.884033,-0.135498,-10.215758,56.678768,14.678954
0.245605,0.94873,0.035156,24.238585,42.770382,24.147032,0.236572,-0.884277,-0.144531,-12.107848,61.576839,11.535644
0.255127,0.958252,0.052979,27.412413,43.823238,22.422789,0.384033,-0.936768,-0.138672,-5.088806,41.877743,62.019344
0.212158,0.950439,0.058105,21.423338,-110.740654,17.791748,0.38501,-0.944092,-0.144287,-5.676269,44.105526,61.355587
0.251953,0.96875,0.069336,30.685423,43.136593,20.690916,0.382324,-0.950439,-0.137939,-5.981445,47.45483,60.493465
0.241211,1.013184,0.073975,36.651611,33.905029,17.234802,0.372803,-0.950195,-0.120361,-6.309509,51.193233,58.914181
0.227295,1.073975,0.07666,39.611816,15.2359,14.816283,0.358887,-0.939453,-0.106934,-6.881713,53.741451,56.221004
0.216064,1.086426,0.074219,39.741516,2.6474,14.076232,0.344482,-0.92334,-0.100098,-7.820129,54.069515,53.512569
0.206787,1.083252,0.067871,39.199829,-11.863708,13.488769,0.318604,-0.914795,-0.099854,-7.537841,51.223751,50.308224
0.196777,1.064453,0.059814,38.002014,-27.633665,13.191222,0.30127,-0.90625,-0.112549,-6.950378,47.058102,46.028133
0.19165,1.044922,0.05249,36.148071,-43.388363,13.130187,0.313721,-0.888428,-0.136719,-8.140564,45.867916,42.381283
0.188721,1.026855,0.048828,33.996582,-58.273312,13.404845,0.342529,-0.874268,-0.161621,-9.674072,48.103329,40.260311
0.187744,1.013184,0.053955,31.410215,-71.670532,13.877868,0.346436,-0.875244,-0.168945,-9.529114,51.254269,39.031982
0.1875,1.000488,0.061279,28.884886,-83.57238,14.671325,0.383301,-0.96582,-0.12915,-3.02124,40.435787,61.668392
0.196045,0.984863,0.064453,26.519773,-93.772881,15.701293,0.331055,-0.877197,-0.156494,-8.750916,53.894039,37.719727
0.246094,0.984375,0.074951,33.905029,39.81781,18.882751,0.306885,-0.872314,-0.144287,-8.560181,54.64172,35.957336
0.187012,0.947754,0.064697,-14.98413,-137.748718,19.874573,0.291504,-0.872314,-0.152344,-8.560181,52.696224,33.546448
0.229248,0.908691,0.032715,-14.47296,-140.419006,8.964539,0.283691,-0.86377,-0.162842,-9.262085,49.575802,31.745909
0.280518,0.893066,-0.014648,-15.258788,-141.25824,-4.379272,0.269775,-0.86377,-0.174072,-9.719849,45.249935,29.891966
0.19751,0.968018,-0.125732,-14.564513,-20.545958,-3.990173,0.256836,-0.865723,-0.183838,-9.33075,40.412899,27.809141
0.193604,0.958984,-0.133057,-15.251159,-25.451658,-1.625061,0.259033,-0.868652,-0.188477,-8.895874,36.849976,25.482176
0.185547,0.951904,-0.137207,-15.998839,-30.197142,0.640869,0.271729,-0.874756,-0.197754,-9.025574,37.574768,23.208616
0.174805,0.950684,-0.140625,-17.127991,-35.072327,2.662658,0.277832,-0.88208,-0.197998,-8.880615,42.106625,21.629332
0.166016,0.945801,-0.141846,-18.043518,-40.252682,4.180908,0.271484,-0.885986,-0.177246,-8.613586,47.21069,20.179747
0.161377,0.934326,-0.140381,-18.745422,-45.288082,5.180358,0.250732,-0.888916,-0.152588,-8.987427,51.841732,17.64679
0.167236,0.922607,-0.139404,-19.355774,-49.804684,5.371093,0.093262,-0.863281,0.023438,-57.403561,214.347824,-25.611876
0.179688,0.911377,-0.132813,-19.836426,-53.596493,4.882813,0.140381,-0.837402,-0.013672,-52.452084,211.700424,-23.674009
0.188965,0.903564,-0.129883,-20.088194,-56.617733,3.921509,0.167236,-0.8125,-0.054932,-47.805782,203.369125,-21.614073
0.196777,0.907227,-0.134521,-20.370481,-59.448238,2.746582,0.169434,-0.791748,-0.071045,-42.282101,191.261276,-19.416809
0.202881,0.974854,-0.122803,-13.885497,-15.380858,-6.393432,0.131348,-0.79541,-0.175781,-17.288208,93.086235,-0.732422
0.203125,0.91333,-0.139893,-20.820616,-62.080379,1.609802,0.203125,-0.759521,-0.101318,-30.265806,153.297424,-18.508911
0.217773,0.934326,-0.151611,-22.323606,-64.819336,0.785828,0.17041,-0.770264,-0.121094,-23.109434,129.112244,-15.655517
0.223389,0.938232,-0.1521,-22.842405,-64.941406,1.480102,0.138672,-0.7854,-0.1521,-18.791199,108.64257,-9.19342
0.226807,0.937988,-0.147705,-22.880552,-64.064026,3.349304,0.182373,-0.770752,-0.083984,-36.613464,174.82756,-18.417358
0.229492,0.933838,-0.139648,-22.041319,-62.408443,6.484985,0.047119,-0.897217,0.051758,-61.210629,209.365829,-27.458189
0.22583,0.919434,-0.135986,-20.736692,-60.607906,10.559081,-0.065186,-1.019043,0.125732,-48.728939,89.202873,-42.243954
0.227295,0.902832,-0.136719,-19.081116,-58.502193,15.724181,-0.033691,-0.993652,0.113037,-59.700008,175.292953,-36.354065
0.221191,0.891357,-0.141602,-17.14325,-56.114193,21.926878,-0.05249,-1.018555,0.119873,-57.03735,149.69635,-39.955139
0.214111,0.880859,-0.14917,-15.35797,-54.038998,28.343199,-0.051514,-1.022461,0.127686,-53.657528,120.452873,-41.107174
0.203125,0.870605,-0.15918,-13.511657,-52.925106,34.103394,0.118652,-0.811035,-0.168213,-16.349792,83.038322,7.728576
0.192383,0.861816,-0.171875,-11.825561,-52.215572,39.672852,-0.069336,-1.013916,0.104004,-42.755123,59.112545,-43.235775
0.208984,0.924561,-0.143555,-21.598814,-63.896175,0.900268,-0.060791,-0.998535,0.067871,-36.849976,31.707762,-43.037411
0.213867,0.986572,-0.119385,-13.656615,-10.482787,-9.101868,-0.044922,-0.967041,0.027344,-31.089781,9.58252,-41.793819
0.192871,0.856201,-0.175781,-10.375976,-50.239559,45.013424,0.00415,-0.911377,-0.01709,-26.077269,-3.555298,-40.466305
0.227295,1.01416,-0.113525,-14.503478,-3.128052,-15.342711,0.066895,-0.854736,-0.065186,-22.727964,-6.523132,-36.552429
0.352295,0.91333,-0.073975,-16.571045,-137.863159,-19.889832,0.133789,-0.797119,-0.115234,-20.408628,0.244141,-30.654905
0.421631,0.972656,-0.135254,-18.539429,-128.883362,-36.453247,0.194824,-0.740723,-0.156006,-19.615173,14.541625,-24.002073
0.458984,1.064941,-0.192383,-23.15521,-116.470329,-51.185604,0.005615,-0.950195,0.084961,-61.744686,195.976242,-31.150816
0.482178,1.171631,-0.224854,-29.067991,-102.21862,-62.278744,0.148193,-0.836182,-0.128174,-14.839171,79.772949,16.395569
0.504883,1.283203,-0.228516,-35.27832,-86.616508,-69.969177,0.241699,-0.903809,-0.187988,1.449585,26.298521,50.689693
0.514404,1.377686,-0.196533,-40.992733,-69.389343,-74.577332,0.257324,-0.891113,-0.077393,-9.223938,70.472717,31.051634
0.218506,0.999756,-0.113281,-13.923644,-6.362915,-12.001037,0.234863,-0.714355,-0.174072,-20.065308,32.554626,-17.356873
0.477783,1.385986,-0.105957,-46.188351,-33.126831,-68.939209,0.317627,-0.980469,-0.167236,7.034301,27.809141,42.182919
0.442627,1.316895,-0.085205,-44.448849,-16.906738,-62.416073,0.305908,-0.96582,-0.170166,7.659912,25.123594,44.364925
0.388672,1.22583,-0.072754,-41.389462,-6.095886,-55.3894,0.286377,-0.956299,-0.177002,8.506775,20.950315,46.272274
0.357178,1.143066,-0.067139,-37.284851,1.174927,-48.97308,0.266846,-0.950684,-0.186035,9.483337,16.044617,48.103329
0.496338,1.415771,-0.148682,-45.127865,-51.208492,-73.783875,0.255859,-0.942871,-0.195313,10.32257,10.971068,50.277706
0.275391,1.023193,-0.073975,-29.754637,5.836486,-38.81073,0.248047,-0.929688,-0.205322,10.925292,6.202697,52.558895
0.261963,0.96875,-0.085205,-26.298521,6.141662,-35.240173,0.241211,-0.922119,-0.220459,11.146544,2.380371,54.916378
0.250732,0.927002,-0.109375,-23.16284,5.828857,-32.623291,0.248047,-0.920898,-0.236328,11.367797,-0.076294,57.28912
0.25,0.913818,-0.128906,-21.011351,5.088806,-31.242369,0.26123,-0.924561,-0.240234,11.215209,-0.511169,59.997555
0.247559,0.928711,-0.13916,-19.668579,4.03595,-30.181883,0.213135,-0.864258,-0.091064,-12.596129,77.423096,24.223326
0.248047,0.952637,-0.139648,-18.829346,2.502441,-28.884886,0.274658,-0.937988,-0.242188,10.765075,0.152588,62.44659
0.249512,0.98291,-0.13501,-17.738342,1.472473,-27.107237,0.283936,-0.982666,-0.228027,8.964539,3.105163,66.490173
0.248535,1.011719,-0.133545,-16.899109,0.953674,-24.726866,0.263428,-1.00708,-0.203369,8.918762,1.350403,67.123413
0.245605,1.025879,-0.125244,-16.326904,0.175476,-21.965025,0.24707,-0.99292,-0.213867,8.529663,-0.961304,66.146851
0.238281,1.024414,-0.118652,-15.289306,-1.075745,-18.867493,0.229736,-0.964844,-0.224854,7.522583,-2.304077,64.590454
0.317383,1.076904,-0.071533,-33.187866,4.821777,-43.525692,0.223877,-0.931641,-0.234619,5.584716,-1.411438,62.866207
0.204102,0.950684,-0.143799,-16.624451,-44.586178,-14.60266,0.221191,-0.908447,-0.246338,3.822326,3.585815,60.493465
0.195313,0.955322,-0.139893,-16.815186,-43.373104,-15.274047,0.227051,-0.904541,-0.235596,3.02124,12.954711,56.396481
0.186768,0.959229,-0.137939,-16.487122,-40.328976,-15.975951,0.327148,-0.987305,-0.166016,6.782531,29.624937,40.351864
0.179443,0.961426,-0.134277,-15.937804,-35.446167,-16.792297,0.265137,-0.912598,-0.138672,-1.678467,42.343136,44.242855
0.217285,0.976807,-0.12915,-14.389037,-11.421203,-22.27783,0.273926,-0.911377,-0.095215,-5.455017,58.067318,37.559509
0.185547,0.969727,-0.128174,-14.762877,-23.910521,-18.569946,0.285889,-0.95752,-0.238281,9.880066,1.571655,64.704895
0.193359,0.9729,-0.125732,-14.366149,-18.661499,-19.554138,0.271484,-1.002197,-0.211914,8.895874,3.219604,67.489624
0.205566,0.975586,-0.125977,-14.266967,-14.251708,-20.88928,0.294189,-0.745605,-0.17334,-22.506712,61.592098,-4.432678
0.181396,0.969238,-0.132568,-15.335082,-29.647825,-17.616272,0.332031,-0.792236,-0.165039,-23.727415,69.793701,5.844116
0.20874,0.947998,-0.148682,-16.326904,-44.631954,-13.664245,0.381836,-0.875732,-0.255371,-4.524231,53.276058,79.734802
0.223877,0.860596,-0.137451,-13.351439,-36.865234,22.697447,0.369385,-0.854248,-0.239258,-3.829956,55.130001,73.425293
0.208008,0.94043,-0.177979,-15.907287,-44.952389,-10.284423,0.360596,-0.84375,-0.217041,-3.39508,56.198116,66.421509
0.22876,0.936279,-0.195313,-15.922545,-44.113155,-7.92694,0.350098,-0.835938,-0.197998,-2.479553,55.686947,58.761593
0.25415,0.93457,-0.215332,-15.983581,-42.175289,-5.91278,0.339111,-0.820557,-0.176514,-1.670837,53.657528,50.514217
0.263672,0.934082,-0.232422,-17.181396,-40.611263,-4.074097,0.32666,-0.800049,-0.162109,-1.052856,50.643917,42.098995
0.252197,0.928955,-0.224854,-18.974304,-40.618893,-2.159119,0.311035,-0.781494,-0.148193,-0.015259,45.959469,33.508301
0.229004,0.917236,-0.198486,-20.500181,-42.068478,0.427246,0.294189,-0.765381,-0.142578,1.831055,38.772583,24.826048
0.205078,0.903564,-0.178467,-21.133421,-44.097897,3.707886,0.282471,-0.754395,-0.147461,4.257202,29.945372,16.151428
0.188477,0.893066,-0.162842,-20.874022,-45.585629,7.972717,0.275879,-0.750732,-0.123047,10.231017,15.151977,-0.328064
0.192139,0.877441,-0.141846,-19.40155,-44.967648,12.96234,0.390137,-0.897705,-0.260986,-5.622863,50.819393,85.319511
0.210205,0.869141,-0.138428,-16.75415,-41.938778,18.066406,0.271484,-0.750244,-0.086426,12.702941,10.505675,-9.033203
0.229004,0.966309,-0.13501,-14.869689,-10.040282,-23.475645,0.239258,-0.757813,-0.010742,12.947082,3.14331,-27.595518
0.204102,0.94458,-0.160645,-16.082764,-44.746395,-12.222289,0.228271,-0.770508,0.007568,11.589049,0.495911,-36.262512
0.232666,0.9646,-0.140381,-15.373229,-9.33075,-24.513243,0.219727,-0.780518,0.019775,10.047912,-0.991821,-44.120785
0.255859,1.017822,-0.140137,-19.325256,4.554749,-29.823301,0.217041,-0.785156,0.031006,8.209229,-1.426697,-50.682064
0.234375,0.96582,-0.150391,-15.922545,-6.813049,-26.550291,0.220459,-0.790771,0.038818,5.897521,-0.114441,-55.671688
0.221436,0.851563,-0.138916,-9.94873,-31.738279,27.168272,0.224854,-0.793213,0.045654,3.280639,2.26593,-59.371944
0.324951,0.872314,-0.173584,3.387451,-46.279903,-13.984679,0.226807,-0.792236,0.051758,0.312805,5.271911,-61.912533
0.347168,0.9729,-0.214111,-0.518799,-44.013973,-24.360655,0.227295,-0.796387,0.052002,-3.257751,9.063721,-63.301083
0.370361,1.099365,-0.248535,-6.149292,-40.039063,-32.737732,0.231201,-0.801025,0.048828,-6.91986,13.061522,-63.858028
0.404541,1.229004,-0.258301,-12.321471,-32.63855,-38.619995,0.260986,-0.720703,-0.175781,-20.988462,49.179073,-11.573791
0.423584,1.326416,-0.239746,-17.959595,-22.369383,-41.648861,0.257324,-0.751953,-0.039307,13.549804,6.652832,-18.280029
0.417969,1.367188,-0.209717,-21.820066,-12.023925,-41.984554,0.395508,-0.919678,-0.257324,-7.080078,50.338741,90.400688
0.391602,1.351563,-0.182129,-23.925779,-4.28772,-40.313717,0.276611,-0.750977,-0.140625,7.194519,21.728514,7.919311
0.361084,1.308105,-0.161133,-24.765013,0.541687,-37.742615,0.41333,-0.984863,-0.212646,-12.351989,52.192684,101.989738
0.337646,1.255127,-0.14502,-24.009703,3.814697,-35.15625,0.405029,-0.95166,-0.240967,-9.368896,51.261898,96.099846
0.233154,0.964355,-0.146729,-15.701293,-8.430481,-25.482176,0.393066,-0.944824,-0.155273,-27.046202,74.699402,30.448912
0.308105,1.202148,-0.136963,-22.880552,5.950927,-32.814026,0.404053,-1.054932,-0.143066,-27.366636,73.661804,41.419979
0.265381,1.085205,-0.130615,-20.591734,6.41632,-29.724119,0.407227,-1.185059,-0.115479,-26.985167,72.929382,49.781796
0.243896,0.969238,-0.162354,-18.554688,1.602173,-30.372618,0.406006,-1.330322,-0.076172,-25.924681,73.173523,55.511471
0.250732,0.963623,-0.179443,-18.77594,-0.724792,-31.486509,0.411621,-1.433838,-0.038574,-25.741575,74.409485,59.646603
0.256836,0.974121,-0.182373,-18.90564,-1.541138,-32.485962,0.414795,-1.452881,-0.015137,-26.756285,75.683594,64.77356
0.262695,0.992676,-0.177979,-18.951416,-1.396179,-32.814026,0.415283,-1.400391,-0.009033,-29.617308,76.293945,71.090698
0.264893,1.003174,-0.170166,-18.882751,-0.663757,-32.455444,0.41748,-1.327148,-0.014893,-33.683777,74.920654,78.834534
0.25708,0.999268,-0.161133,-18.211365,-0.312805,-31.509398,0.414795,-1.268311,-0.032715,-37.605286,70.365906,87.394707
0.250488,0.988525,-0.153809,-17.38739,-0.823975,-30.311583,0.415283,-1.240967,-0.049072,-39.764404,63.957211,96.092216
0.240967,0.979004,-0.153076,-16.693115,-2.494812,-28.907774,0.369141,-0.856934,-0.161133,-25.527952,73.959351,18.02063
0.234131,0.974121,-0.152344,-16.288757,-4.806519,-27.618406,0.415527,-1.166748,-0.08374,-39.993286,49.21722,109.970085
0.281982,1.148926,-0.130127,-21.858213,6.843566,-30.868528,0.416016,-1.214111,-0.064209,-40.184017,56.915279,103.775017
0.220459,0.846924,-0.145752,-6.835937,-27.076719,31.593321,0.43042,-1.054443,-0.169189,-18.981934,49.255367,113.365166
0.220459,0.848877,-0.157471,-4.196167,-22.796629,35.621643,0.439941,-1.081055,-0.159424,-21.804808,44.326778,118.270866
0.218994,0.857666,-0.177002,-2.120972,-19.500732,38.825989,0.449951,-1.095215,-0.150879,-24.894712,38.871765,122.25341
0.295654,0.913086,-0.357178,-31.341551,8.56781,-41.862484,0.457031,-1.09668,-0.153076,-28.07617,33.729553,124.748222
0.284424,0.952148,-0.34082,-32.714844,20.881651,-46.226498,0.42041,-1.020508,-0.188721,-15.724181,52.078243,107.818596
0.275146,0.991455,-0.318848,-33.302307,30.364988,-49.568172,0.439453,-1.083008,-0.151611,-34.973145,31.082151,123.725883
0.260742,1.03125,-0.286621,-33.226013,36.148071,-51.86462,0.429199,-1.08252,-0.140381,-37.605286,34.706116,120.36132
0.255371,1.080078,-0.252441,-32.745361,37.475586,-53.085323,0.419922,-1.111816,-0.114746,-39.108276,41.206356,115.562431
0.254883,1.143799,-0.216553,-32.371521,35.263062,-53.199764,0.449219,-1.093262,-0.154053,-31.387327,30.754087,125.465385
0.256348,1.213379,-0.184082,-32.196045,30.731199,-51.62048,0.41626,-0.808838,-0.091797,3.158569,48.545834,-1.319885
0.257813,1.262939,-0.1521,-31.738279,25.146482,-48.309322,0.449463,-0.858398,-0.139404,3.097534,13.305663,25.093077
0.264893,1.277344,-0.12085,-30.769346,19.27948,-43.655392,0.451416,-0.844238,-0.151367,3.814697,16.937256,21.156309
0.273438,1.265381,-0.095215,-29.266356,14.060973,-38.017273,0.452148,-0.825684,-0.160889,4.470825,21.003721,17.272949
0.302246,0.875244,-0.35791,-29.228209,-5.218505,-36.132813,0.448975,-0.807129,-0.169922,5.020141,25.085447,13.961791
0.277588,1.234375,-0.06543,-26.847837,9.773254,-31.700132,0.438721,-0.794434,-0.169189,5.500793,29.090879,10.879516
0.266357,1.168213,-0.038818,-20.614622,4.257202,-16.464233,0.430908,-0.7854,-0.164063,6.04248,33.172607,7.667541
0.255615,1.112793,-0.035889,-17.059326,2.380371,-9.078979,0.443848,-0.869141,-0.126465,2.243042,10.475158,28.839109
0.240479,1.050781,-0.052979,-13.450622,0.465393,-2.258301,0.426514,-0.782959,-0.148682,6.095886,37.658691,4.66156
0.223145,0.984375,-0.081787,-10.528563,-1.327515,3.684997,0.420654,-0.789795,-0.120361,5.149841,43.037411,1.747131
0.206543,0.921143,-0.108643,-8.201599,-2.563476,9.353638,0.400879,-0.828613,-0.062256,0.87738,52.825924,-4.737854
0.199219,0.883789,-0.129883,-6.752014,-2.601623,14.22882,0.317383,-0.893311,0.000732,-8.239746,41.084286,-26.290892
0.203613,0.870117,-0.135742,-6.309509,-0.679016,17.677307,0.32373,-0.884277,-0.019531,-5.714416,50.354,-17.402649
0.2146,0.868652,-0.11792,-6.050109,3.52478,20.332335,0.314941,-0.893311,-0.018311,-6.896972,46.70715,-21.072386
0.22998,0.874512,-0.081055,-4.66156,9.780884,22.346495,0.313965,-0.893799,-0.011719,-7.728576,43.403622,-23.979185
0.245605,0.884277,-0.037598,-2.105713,17.26532,23.818968,0.319092,-0.895752,0.016846,-8.81958,40.542599,-27.885435
0.272949,1.202148,-0.048096,-23.750303,6.614685,-24.276731,0.30957,-0.894531,0.043457,-9.895325,41.183468,-29.289244
0.304199,0.841797,-0.352783,-26.481627,-19.889832,-29.243467,0.273926,-0.886475,0.069336,-11.306762,40.534969,-31.448362
0.25293,0.897949,-0.005615,1.426697,24.185179,25.0473,0.231201,-0.868896,0.075928,-12.451171,37.109375,-34.461975
0.278809,0.81543,-0.297852,-19.973755,-46.081539,-12.161254,0.206543,-0.855469,0.069092,-12.817382,30.792234,-37.17804
0.214111,0.869141,-0.196533,-1.075745,-17.410278,41.435238,0.19458,-0.840576,0.052979,-12.611388,22.987364,-38.711548
0.224121,0.879639,-0.216309,-0.62561,-14.343261,43.518063,0.436035,-0.87793,-0.118896,1.014709,8.552551,32.501221
0.240234,0.893066,-0.229492,-0.1297,-8.682251,44.769283,0.373047,-0.850098,-0.0354,-1.617432,54.450985,-8.781433
0.244385,0.904053,-0.228271,0.541687,-2.220154,45.120235,0.430176,-0.891357,-0.115234,-0.343323,7.781982,35.644531
0.243896,0.919189,-0.224609,1.243591,3.410339,44.784542,0.190674,-0.827148,0.036133,-12.481688,15.190124,-38.887024
0.236816,0.933594,-0.233643,1.876831,7.17926,43.861385,0.40918,-0.907471,-0.115479,-2.5177,9.101868,39.955139
0.296631,0.820313,-0.33667,-23.368834,-34.049988,-21.171568,0.30542,-0.727539,-0.176514,-26.649473,86.654655,3.623962
0.197998,0.981201,-0.223877,1.647949,7.148742,41.053768,0.326172,-0.825195,-0.151855,-29.251097,95.046989,10.459899
0.175293,0.998779,-0.210938,1.152039,3.204345,39.649963,0.349121,-0.948486,-0.12207,-30.3421,99.685661,16.76178
0.163086,1.020264,-0.194824,1.00708,-1.899719,38.482666,0.368408,-1.087891,-0.098633,-30.067442,101.234428,22.193907
0.157471,1.048828,-0.177979,0.564575,-7.415771,37.277222,0.378906,-1.216064,-0.059082,-28.671263,101.196281,26.069639
0.219727,0.95874,-0.231445,1.998901,8.552551,42.526241,0.378418,-1.290039,-0.019287,-27.809141,98.915092,28.770445
0.14624,1.101563,-0.124756,-2.174377,-19.508362,34.866333,0.366211,-1.314941,0.012451,-28.373716,93.376152,30.815123
0.136719,1.113281,-0.090088,-3.27301,-26.733397,33.39386,0.343262,-1.31958,0.020996,-28.739927,83.038322,31.959532
0.13208,1.109863,-0.068359,-4.135132,-34.622192,32.073975,0.332275,-1.315674,0.015137,-27.305601,68.80188,32.50885
0.134521,1.091553,-0.048828,-5.027771,-41.91589,30.677794,0.330566,-1.304443,-0.003174,-25.001524,53.985592,32.897949
0.144287,1.062988,-0.052246,-5.928039,-48.133846,28.526304,0.421631,-0.899658,-0.116455,-1.686096,8.125305,38.093567
0.159912,1.031982,-0.071289,-6.828308,-52.795406,25.146482,0.341553,-1.276367,-0.032715,-22.422789,41.435238,33.370972
0.17749,0.994141,-0.105713,-8.506775,-56.510921,20.484922,0.359131,-1.130615,-0.095459,-19.172668,24.322508,36.430359
0.192383,0.943115,-0.148438,-10.963439,-59.204098,14.465331,0.369873,-1.052979,-0.121338,-17.852783,18.798828,38.452148
0.219238,0.884033,-0.200684,-13.740539,-59.242245,6.500244,0.383057,-0.998779,-0.138916,-15.960692,15.663146,40.641781
0.251221,0.834473,-0.251953,-16.578674,-54.817196,-2.655029,0.394531,-0.976318,-0.138428,-13.923644,15.228271,42.907711
0.149658,1.078125,-0.157471,-0.63324,-13.236999,36.170959,0.400391,-0.980469,-0.127686,-11.734008,16.365051,44.273373
0.150879,1.143311,-0.102783,-7.041931,28.816221,-28.57971,0.397217,-0.980469,-0.11499,-9.681702,17.631531,44.654842
0.153076,1.17334,-0.071533,-9.895325,40.428158,-33.348083,0.389893,-0.973145,-0.104004,-8.132935,17.730713,44.30389
0.172119,1.212158,-0.057617,-13.107299,50.491329,-38.322449,0.387207,-0.954834,-0.099365,-6.469726,16.143799,43.312069
0.197021,1.233398,-0.071045,-16.845703,57.739254,-43.16711,0.393555,-0.930176,-0.0979,-4.837036,13.671874,42.259212
0.269287,1.028809,-0.299805,-28.167723,66.375732,-60.165401,0.398926,-0.91626,-0.105957,-3.517151,11.070251,41.145321
0.226318,1.172852,-0.144043,-24.185179,66.169739,-51.887508,0.354492,-1.212158,-0.065186,-20.309446,31.822203,34.622192
0.243408,1.119629,-0.19043,-26.588438,68.588257,-55.625912,0.190674,-0.824463,0.028564,-11.940001,8.468628,-38.551331
0.258545,1.074463,-0.250488,-27.931211,68.725586,-58.601376,0.343506,-0.869629,-0.023926,-3.967285,53.291317,-13.130187
0.213623,1.217529,-0.104736,-20.713804,62.660213,-47.8363,0.197754,-0.826416,0.041748,-11.314391,-1.00708,-36.941528
0.1604,1.140381,-0.143066,-5.760192,17.478943,-24.467466,-0.054688,-0.967041,-0.082275,-10.162353,7.759094,-61.973568
0.22168,0.893311,-0.162598,-11.535644,9.849548,16.288757,-0.026855,-1.012207,-0.081055,-8.522034,-3.997802,-54.924007
0.182861,1.103027,-0.207764,-7.659912,-2.700805,-16.792297,0.001709,-1.063232,-0.068115,-7.057189,-17.26532,-46.249386
0.192383,1.063965,-0.239014,-9.391785,-10.971068,-13.275146,0.047119,-1.121582,-0.060547,-4.753113,-32.112122,-36.659241
0.202637,1.026855,-0.266846,-11.344909,-16.830444,-10.353087,0.102783,-1.182129,-0.063721,-2.182007,-46.249386,-26.550291
0.213867,0.998291,-0.283936,-13.748168,-20.004272,-7.408142,0.158203,-1.250244,-0.075439,1.220703,-57.853695,-16.731262
0.226807,0.982422,-0.286865,-16.342163,-20.13397,-4.516602,0.21875,-1.296631,-0.095947,4.882813,-66.482544,-7.484436
0.235352,0.972168,-0.267822,-18.432617,-16.921997,-1.197815,0.285645,-1.321045,-0.120117,8.003235,-68.107605,1.853943
0.236328,0.95752,-0.238525,-19.226074,-11.909484,2.586365,0.357422,-1.314941,-0.141602,10.169982,-60.6842,10.231017
0.229492,0.940918,-0.205322,-18.52417,-6.378173,6.41632,0.412598,-1.287598,-0.161621,11.352538,-46.157833,17.288208
0.220459,0.916748,-0.184814,-16.868591,-1.144409,9.925842,0.443848,-1.264648,-0.185303,12.573241,-28.32794,22.40753
0.21582,0.895752,-0.169434,-14.495849,4.051208,13.183593,0.434326,-1.234863,-0.20166,14.175414,-12.741088,26.023863
0.28125,0.979736,-0.33667,-27.648924,62.355038,-60.379025,0.428467,-1.200928,-0.207764,15.289306,0.816345,28.335569
0.174561,1.130127,-0.176025,-6.271362,6.958007,-20.591734,0.420166,-1.160156,-0.205566,15.441894,13.610839,29.975889
0.293213,0.924316,-0.359619,-26.618956,55.625912,-59.55505,0.412598,-1.102539,-0.202393,14.289855,25.344847,31.455992
0.192383,1.080078,-0.073242,-2.27356,-10.833739,-4.760742,0.396729,-1.039307,-0.19043,12.855529,34.52301,32.310486
0.3125,0.814697,-0.349609,-25.192259,32.669067,-56.266781,0.373047,-0.984131,-0.181641,11.161803,39.405823,33.248901
0.231934,0.906494,-0.1604,-9.254456,16.731262,18.959045,0.356201,-0.947021,-0.179199,9.468079,40.573116,34.370422
0.237549,0.903564,-0.194336,-10.276793,-8.110046,36.254883,0.351563,-0.940674,-0.181396,8.094788,39.604187,35.369873
0.225342,0.903809,-0.179443,-9.33075,-6.103515,34.812927,0.3479,-0.946777,-0.186768,6.92749,37.475586,36.361694
0.216309,0.908691,-0.165771,-8.018494,-4.730225,32.783508,0.342285,-0.956543,-0.187012,6.278991,34.896851,37.094116
0.207764,0.918457,-0.154785,-6.568908,-3.27301,30.311583,0.340332,-0.972412,-0.180908,6.301879,32.737732,38.040161
0.196533,0.93042,-0.144043,-5.134582,-2.296448,27.755735,0.334229,-0.981201,-0.169922,6.523132,31.10504,39.253235
0.193604,0.946045,-0.137207,-3.967285,-1.457214,24.67346,-0.085449,-0.911133,-0.076904,-12.21466,17.951965,-66.459656
0.191406,0.967529,-0.126953,-2.76947,-0.488281,21.072386,-0.106445,-0.868164,-0.075195,-14.366149,29.563902,-68.832397
0.196045,0.993896,-0.117188,-1.419067,1.121521,16.906738,0.195068,-0.824951,0.027344,-11.238097,3.181457,-37.666321
0.199219,1.033691,-0.102051,-0.205994,2.944946,12.527465,-0.126465,-0.828857,-0.050049,-19.432068,59.394833,-71.868896
0.304688,0.865967,-0.368164,-25.642393,45.707699,-58.242794,-0.124268,-0.838867,-0.063477,-16.937256,43.55621,-70.701599
0.192139,1.074463,-0.087891,0.068665,3.265381,8.171082,0.19458,-0.843018,0.046875,-13.687133,-9.216309,-36.231995
0.189209,1.102295,-0.071533,-1.152039,-3.990173,-0.495911,0.191406,-0.862305,0.040283,-15.045165,-13.633727,-36.148071
0.196533,1.034912,-0.098389,-3.799438,-18.951416,-9.216309,0.194824,-0.883789,0.03833,-16.311646,-17.875671,-36.193848
0.201416,0.987061,-0.139404,-6.034851,-27.404783,-14.389037,0.203857,-0.909668,0.033691,-17.341614,-21.347044,-36.651611
0.209717,0.948242,-0.18457,-9.338379,-35.140991,-19.874573,0.206543,-0.936523,0.033936,-18.4021,-24.147032,-37.261963
0.223633,0.913818,-0.232422,-13.580321,-40.214535,-25.917051,0.211426,-0.96582,0.037598,-18.90564,-26.473997,-38.551331
0.249512,0.878906,-0.275879,-18.432617,-39.802551,-32.470703,0.214355,-0.999756,0.049316,-19.226074,-28.480528,-40.603634
0.2854,0.836914,-0.30249,-22.14813,-31.524656,-38.909912,0.213379,-1.027344,0.050781,-18.966675,-29.548643,-43.441769
0.31543,0.800537,-0.310059,-23.811338,-17.227173,-44.631954,0.212891,-1.04248,0.05127,-18.257141,-28.480528,-47.149654
0.321777,0.782471,-0.313965,-24.604795,-0.022888,-49.415585,0.218506,-1.044678,0.057861,-18.547058,-23.239134,-50.97961
0.318604,0.78833,-0.329102,-24.887083,17.112732,-53.344723,0.196045,-0.829346,0.04834,-12.161254,-5.027771,-36.506653
0.186279,1.10376,-0.07666,-0.305176,0.87738,3.845215,0.234619,-1.047119,0.063232,-20.072937,-11.70349,-54.656979
0.245361,0.921143,-0.128906,-6.866455,24.635313,21.087645,-0.039063,-0.856201,-0.001465,-23.834227,88.958733,-71.235657
0.248291,0.926758,-0.091064,-3.707886,32.112122,23.147581,0.019043,-0.880859,0.016357,-25.344847,97.671501,-71.327209
0.244873,0.926025,-0.069092,-0.205994,37.704468,25.016783,0.089355,-0.906982,0.028564,-25.848387,100.151054,-71.022034
0.224609,0.886475,-0.002197,14.328002,-108.047478,57.075497,0.15918,-0.940918,0.040771,-25.642393,95.054619,-70.426941
0.230225,0.88623,-0.017822,13.46588,-109.802238,52.413937,-0.092041,-0.83667,-0.025391,-21.812437,75.492859,-71.739197
0.210205,0.911377,-0.031494,11.428832,-113.945,48.08807,0.242676,-1.011475,0.06665,-23.429869,63.430782,-71.82312
0.207764,0.920898,-0.043945,9.208679,-120.140068,44.174191,0.232666,-1.039795,0.069824,-22.521971,43.922421,-69.763184
0.2229,0.945801,-0.061768,7.034301,-124.633781,39.924622,0.240234,-1.054199,0.070068,-21.972654,24.29199,-65.437317
0.217773,0.988525,-0.070068,3.845215,-131.072998,35.568237,0.242676,-1.053955,0.06958,-21.278379,5.187988,-59.394833
0.250977,1.014648,-0.078369,0.785828,-136.405945,31.051634,0.219727,-0.975098,0.051025,-24.940489,81.367485,-71.372986
0.2854,1.049316,-0.088379,-2.105713,-138.061523,27.137754,0.449707,-1.162109,-0.140625,13.664245,3.074646,12.374877
0.309814,1.085938,-0.083984,-5.012512,-138.977051,23.864744,0.050781,-1.130371,0.004883,-6.29425,-95.848076,-20.76721
0.34375,1.101807,-0.073975,-7.43103,-138.73291,20.576475,0.178955,-1.181641,-0.005127,-3.379822,-105.407707,-9.82666
0.226563,0.897949,0.012939,15.35797,-107.254021,60.317989,0.279785,-1.239014,-0.022949,0.701904,-102.844231,1.022339
0.368896,1.10791,-0.064697,-9.567261,-136.894226,17.715454,0.342041,-1.271729,-0.047607,4.020691,-93.719475,10.520934
0.382324,1.156006,-0.0625,-13.191222,-128.997803,14.47296,0.373535,-1.2771,-0.07666,6.67572,-80.200195,16.906738
0.373047,1.177734,-0.054688,-15.1062,-122.573845,15.480041,0.390869,-1.251709,-0.107178,9.048462,-63.003536,19.813538
0.351563,1.165771,-0.042725,-16.448975,-114.776604,17.64679,0.419922,-1.216309,-0.121582,11.520385,-41.717525,18.676758
0.319824,1.112793,-0.03418,-16.693115,-106.765739,19.775391,0.455566,-1.187744,-0.13501,13.061522,-18.1427,15.312194
0.287598,1.040039,-0.02832,-15.663146,-97.946159,21.629332,-0.035889,-1.083252,-0.003906,-9.208679,-75.126648,-29.792784
0.254395,0.960693,-0.016846,-12.863158,-87.059013,23.429869,0.389893,-1.002686,-0.170898,8.232117,28.038023,11.924743
0.23877,0.87793,-0.00708,-8.44574,-74.462891,24.139402,0.39209,-1.065674,-0.141357,12.992858,32.653809,7.537841
0.237305,0.799316,-0.006836,-3.570556,-63.133236,21.995543,0.381104,-1.032715,-0.144287,11.566161,32.37915,7.949829
0.243164,0.755615,-0.020752,0.869751,-55.664059,16.319275,0.383301,-1.010254,-0.158936,9.742737,30.334471,9.475708
0.266602,0.759277,-0.063965,4.112244,-51.605221,7.591247,0.417236,-1.0,-0.145508,0.274658,36.16333,31.234739
0.382324,1.124512,-0.060303,-11.344909,-133.758545,15.426635,0.4021,-0.999268,-0.16748,6.950378,26.908873,14.961242
0.232666,0.90625,0.026611,16.25061,-107.833855,62.301632,0.410645,-0.999268,-0.155518,5.821228,27.534483,18.112183
0.299561,0.802979,-0.126221,4.997253,-48.660275,-2.89917,0.411133,-0.996338,-0.153076,4.516602,29.20532,21.781919
0.232178,0.925537,0.053467,17.272949,-109.085075,63.560482,0.411133,-0.998291,-0.150635,3.15094,30.578611,25.375364
0.243408,0.926514,-0.03833,3.456115,41.41235,26.30615,0.415527,-1.003418,-0.149658,1.89209,31.845091,28.129576
0.235107,0.921631,-0.011475,7.30133,42.762753,27.313231,-0.086914,-1.024658,-0.023193,-13.000487,-51.422115,-37.033081
0.218018,0.926025,0.002686,10.82611,40.534969,28.488157,0.431885,-1.137695,-0.147461,14.045714,18.959045,10.292052
0.202637,0.940186,0.013672,13.702392,35.079956,29.411314,-0.110596,-0.965332,-0.051758,-15.884398,-28.015135,-42.449947
0.192139,0.947998,0.026123,16.052246,26.56555,29.861448,0.300049,-0.993408,0.070801,-22.964476,28.923033,-48.774715
0.179199,0.957764,0.024658,17.936707,15.815734,30.494688,-0.082275,-0.867188,-0.084229,-18.501282,17.00592,-46.669003
0.231445,0.915527,0.043213,16.906738,-108.566277,63.644405,0.225586,-0.887207,0.065186,-10.017395,11.474608,-46.70715
0.185791,0.9729,0.027344,20.355223,-7.293701,31.402586,0.216553,-0.897461,0.066162,-12.046813,8.06427,-44.906612
0.191406,0.977539,0.039307,21.179197,-18.516541,31.661985,0.217285,-0.909912,0.0625,-14.10675,2.861023,-42.602535
0.195313,0.981934,0.041992,22.117613,-29.762266,32.341003,0.228516,-0.923828,0.060791,-15.907287,-2.632141,-39.863586
0.198242,0.981934,0.040527,22.918699,-41.519161,33.248901,0.237061,-0.944336,0.059814,-17.242432,-8.18634,-37.437439
0.176758,0.964844,0.023926,19.309998,4.188538,31.082151,0.249023,-0.958984,0.062988,-18.318176,-13.435363,-35.148621
0.205322,0.979004,0.049072,23.811338,-66.856384,35.40802,0.259766,-0.975586,0.060303,-19.515991,-16.937256,-33.676147
0.217529,0.977783,0.04834,23.925779,-78.681946,36.758423,0.271484,-0.995361,0.057129,-20.103453,-18.295288,-33.302307
0.22876,0.987549,0.042725,23.506163,-88.638298,38.520813,0.278564,-1.015381,0.056885,-20.553587,-17.608643,-34.088135
0.235352,0.998047,0.037842,22.460936,-96.763603,41.137691,0.279053,-1.027344,0.059814,-20.675657,-14.808654,-35.957336
0.238525,1.003418,0.035645,21.163939,-103.347771,44.853207,-0.121338,-0.909668,-0.079834,-17.578125,-5.142211,-45.616146
0.241211,1.006592,0.03418,19.950867,-107.89489,48.96545,0.281494,-1.032715,0.065186,-20.729063,-8.956909,-38.887024
0.243896,1.003418,0.037842,18.722534,-110.28289,52.978512,0.29248,-1.018311,0.073975,-22.003172,13.359069,-45.745846
0.245117,0.988525,0.043457,17.852783,-110.877983,56.78558,0.406494,-1.000488,-0.135742,-1.060486,41.717525,34.393311
0.248535,0.964355,0.052979,17.311096,-110.275261,59.92889,0.29834,-0.955078,0.068604,-23.582457,44.029232,-50.811764
0.240234,0.940186,0.056885,17.288208,-109.580986,62.187191,0.280518,-0.924561,0.061523,-23.719786,55.976864,-51.99432
0.199463,0.980713,0.047119,23.41461,-54.100033,34.233093,0.254639,-0.898682,0.04834,-23.521421,62.973019,-51.902767
0.318848,0.962891,-0.045898,6.614685,-82.710258,17.066956,0.215088,-0.873291,0.029541,-23.124693,65.658569,-51.025387
0.30249,0.938232,-0.039795,7.095336,-88.050835,17.196655,0.158203,-0.847168,0.01123,-22.834776,64.659119,-50.941463
0.2854,0.923584,-0.03125,7.194519,-92.887871,17.997742,0.106201,-0.825195,-0.000977,-23.468016,61.027523,-50.4837
0.262451,0.920654,-0.018311,7.118225,-96.343987,19.416809,0.079346,-0.828369,-0.010742,-22.521971,52.505489,-48.866268
0.239502,0.889893,0.036621,4.66156,-109.03167,30.639647,0.002441,-0.837158,-0.048828,-20.179747,37.513733,-47.386166
0.255859,0.897217,0.006104,7.148742,-99.739067,22.895811,0.282959,-1.028809,0.071533,-21.232603,0.259399,-42.327877
0.252686,0.885254,0.013916,6.492614,-102.310173,25.634764,0.386963,-1.001709,-0.141357,-1.38855,45.104977,37.322998
0.249268,0.882568,0.025391,5.584716,-105.529778,28.221128,0.412354,-1.107178,-0.144043,13.954162,28.83148,8.56781
0.256348,0.910889,-0.006348,7.354736,-97.915642,20.736692,0.359619,-1.00293,-0.158691,0.015259,42.045589,41.107174
0.324219,0.984375,-0.049072,5.737304,-77.835083,17.448425,0.205322,-0.733154,-0.099121,-37.864685,125.755302,-13.160705
0.152832,0.875244,-0.015869,7.728576,-78.735352,26.229856,0.218506,-0.743652,-0.105713,-41.923519,146.408081,-16.540527
0.315918,0.985352,-0.053223,3.852844,-71.800232,19.210815,0.228516,-0.765381,-0.104736,-47.042843,163.475021,-19.27948
0.301514,0.995605,-0.057129,3.181457,-70.335388,21.133421,0.20752,-0.79126,-0.092285,-52.162167,174.209579,-21.110533
0.293457,1.02124,-0.058594,2.288818,-68.79425,23.674009,0.165039,-0.836182,-0.071777,-55.892941,174.71312,-23.628233
0.284912,1.039795,-0.048828,1.922607,-67.03186,26.123045,0.132568,-0.884521,-0.05249,-56.854244,165.069565,-28.213499
0.267578,1.035889,-0.032227,2.502441,-65.39917,28.335569,0.113037,-0.924316,-0.025146,-56.549068,149.299622,-32.997131
0.256104,1.015625,-0.020996,3.921509,-63.71307,29.579161,0.07373,-0.956787,-0.023438,-56.137081,129.379272,-36.560059
0.217773,0.982178,-0.020996,5.325317,-63.911434,30.311583,0.038818,-0.989258,-0.041992,-56.762691,104.62188,-40.664669
0.171631,0.951904,-0.020264,6.179809,-67.451477,30.97534,0.041748,-1.103271,-0.052246,-51.712032,59.234615,-43.655392
0.131348,0.931152,-0.013428,6.835937,-72.441101,31.494139,0.204102,-0.738525,-0.071045,-34.347534,104.301445,-7.827758
0.126953,0.912354,-0.01123,7.377624,-76.538086,30.662535,0.052246,-1.168213,-0.017334,-43.258663,38.909912,-43.67065
0.230713,0.901123,0.041992,3.990173,-111.991875,32.867432,0.105225,-1.130127,0.012451,-24.604795,5.020141,-44.418331
0.322266,0.989014,-0.048096,4.737854,-74.08905,18.135071,0.153076,-1.04248,-0.036621,-22.087095,-3.356933,-41.625973
0.228271,0.914063,0.046143,3.639221,-113.899223,34.660339,0.186768,-0.958252,-0.075195,-20.378111,-5.577087,-37.559509
0.152832,0.95166,0.021484,15.960692,-8.514404,25.283812,0.220947,-0.875977,-0.101563,-18.745422,-1.396179,-32.157898
0.228027,0.946045,0.044922,3.692627,-114.166252,37.094116,0.25,-0.803467,-0.118896,-17.486572,9.010315,-26.588438
0.187256,0.837402,-0.010254,8.140564,-79.399109,18.264771,0.271973,-0.744385,-0.139648,-16.921997,24.208067,-21.278379
0.243164,0.911377,-0.032471,-6.805419,28.434752,-4.402161,0.283936,-0.695068,-0.157227,-18.035889,41.389462,-15.73944
0.238281,0.925049,-0.026855,-4.043579,29.006956,-2.487183,0.290283,-0.668457,-0.169189,-20.301817,58.784481,-9.963989
0.236572,0.936279,-0.0271,-2.052307,28.137205,-0.457764,0.29248,-0.673096,-0.177246,-23.239134,74.569702,-3.349304
0.23291,0.936523,-0.027832,-0.75531,26.847837,1.625061,0.346191,-0.987305,-0.181152,1.564026,32.409668,44.219967
0.232666,0.927246,-0.030029,0.411987,26.344297,3.90625,0.063721,-1.1875,0.013672,-32.463074,19.332886,-44.998165
0.231689,0.914063,-0.030029,1.64032,27.282713,6.523132,0.21167,-0.747803,-0.041748,-31.364439,84.938042,-1.159668
0.236084,0.90918,-0.020264,3.387451,29.472349,9.284973,0.039063,-1.04248,-0.061768,-55.984493,79.658508,-43.685909
0.237061,0.911133,0.001709,5.92041,31.906126,12.184142,0.249268,-0.790527,-0.003418,-24.688719,55.122372,12.96997
0.230957,0.920654,0.025391,9.078979,32.531738,15.083312,0.224121,-0.765625,-0.019775,-28.137205,68.222046,5.79071
0.229004,0.931152,0.048584,3.509521,-114.540092,36.04126,0.345703,-0.954102,-0.137451,2.708435,18.333435,48.408504
0.222656,0.925049,0.037109,12.145995,29.701231,17.76886,0.345703,-0.948975,-0.145264,3.746032,13.320922,49.644466
0.177734,0.943604,0.034424,15.792846,8.94928,22.621153,0.344727,-0.931885,-0.151367,4.631042,7.591247,51.078793
0.136963,0.967285,0.009766,14.488219,-28.930662,27.648924,0.339111,-0.922119,-0.155273,5.424499,1.747131,52.421566
0.130859,0.985596,0.000488,11.993407,-49.392696,30.067442,0.334961,-0.920654,-0.156494,6.576538,-3.250122,53.680416
0.144043,1.001953,-0.00415,8.880615,-66.741943,32.546997,0.336182,-0.916992,-0.156006,7.911682,-7.369995,54.496761
0.172852,1.008057,0.009766,6.446838,-79.414368,34.515381,0.333252,-0.907715,-0.162842,8.514404,-10.19287,55.587765
0.195557,1.001953,0.04126,5.28717,-88.386528,35.957336,0.337646,-0.893555,-0.169678,8.598328,-11.19995,56.411739
0.205322,0.994141,0.060791,5.187988,-96.015923,36.964417,0.335205,-0.878174,-0.169678,8.682251,-10.932921,57.975765
0.210938,0.98584,0.060791,5.088806,-102.97393,37.460327,0.331787,-0.871582,-0.16748,8.407593,-9.033203,59.448238
0.216064,0.973877,0.05249,4.478455,-108.634941,37.628174,0.325684,-0.862549,-0.148682,7.514953,-5.41687,60.31036
0.220703,0.958496,0.045166,4.043579,-112.419121,37.521362,0.353271,-0.96582,-0.169678,2.006531,23.628233,46.432491
0.200684,0.934814,0.040527,14.427184,22.018431,20.217894,0.278809,-0.816406,0.006836,-20.812986,43.67065,19.737244
0.250488,0.817627,-0.025879,10.772704,-76.148987,8.041382,0.295166,-0.867676,-0.12085,4.165649,-0.396728,59.028622
0.315674,0.864014,-0.091064,13.580321,-69.404602,-3.761291,0.288086,-0.881592,-0.112061,1.960754,0.656128,56.503292
0.351563,0.975098,-0.15332,12.489318,-62.026974,-15.464782,0.280762,-0.887207,-0.105957,-0.343323,0.747681,53.344723
0.187744,0.931396,-0.139648,-20.76721,-17.601013,-1.113892,0.282715,-0.897705,-0.098145,-2.120972,0.511169,49.743649
0.184814,0.919922,-0.138428,-20.858763,-19.798279,-1.800537,0.290527,-0.901855,-0.080078,-4.013062,1.88446,45.768734
0.181641,0.920166,-0.136963,-21.171568,-22.521971,-2.746582,0.29541,-0.901611,-0.051514,-6.477355,5.882263,41.366573
0.182373,0.93042,-0.138428,-21.675108,-25.924681,-3.65448,0.298584,-0.891357,-0.029053,-9.490967,12.672423,36.201477
0.190674,0.937744,-0.138916,-22.697447,-29.510496,-4.615784,0.302979,-0.871826,-0.013916,-12.603759,21.713255,30.72357
0.200195,0.940918,-0.139648,-23.66638,-32.585144,-5.462646,0.297607,-0.842529,0.00293,-16.448975,32.38678,25.505064
0.213379,0.940918,-0.144531,-24.307249,-34.767151,-5.935668,0.309814,-0.857666,-0.141846,6.072998,-2.532959,60.340878
0.225098,0.94458,-0.145264,-24.887083,-36.132813,-5.744934,0.07666,-1.00415,0.031738,-47.874447,157.325745,-29.365538
0.226807,0.950684,-0.144775,-25.527952,-37.452698,-4.852295,0.106201,-0.963379,0.026367,-46.874996,167.625412,-25.886534
0.226563,0.94751,-0.149414,-26.298521,-39.237976,-3.196716,0.138672,-0.923828,0.008057,-44.151302,170.585617,-22.3999
0.195557,0.955566,-0.144287,-20.561216,-15.525817,-0.663757,0.16626,-0.895508,-0.012939,-39.68811,166.870102,-19.348145
0.225098,0.938232,-0.159668,-27.236937,-40.618893,-0.740051,0.175293,-0.791992,-0.093506,-20.576475,72.792053,-6.057739
0.236084,0.896973,-0.167236,-26.916502,-37.605286,6.347656,0.197754,-0.844482,-0.101318,-31.814573,140.335083,-12.649535
0.241943,0.881348,-0.158936,-25.711058,-33.699036,10.780334,0.202881,-0.809814,-0.134033,-28.45764,116.600029,-9.994507
0.239258,0.870117,-0.150146,-23.765562,-30.143736,15.220641,0.197021,-0.786377,-0.123779,-24.284361,91.423027,-8.590698
0.242432,0.864746,-0.150879,-21.469114,-26.893614,19.66095,0.035645,-1.030273,0.02417,-47.592159,140.342712,-31.127928
0.245605,0.859619,-0.160645,-18.936157,-23.345945,23.986814,0.176025,-0.874023,-0.051025,-35.232544,157.058716,-16.082764
0.247803,0.859131,-0.171875,-16.38031,-19.943237,27.763365,-0.003418,-1.051025,0.018066,-46.287533,116.806023,-32.112122
0.241943,0.854004,-0.179443,-14.10675,-17.684937,31.234739,0.127441,-0.911133,-0.025635,-25.527952,4.02832,-27.832029
0.240234,0.863281,-0.193359,-12.596129,-15.86151,34.172058,-0.023193,-1.097656,0.030273,-40.267941,62.271114,-34.78241
0.239746,0.876709,-0.203125,-11.627196,-14.122008,35.919189,0.008545,-1.104492,0.032227,-35.27832,37.818909,-34.721375
0.234131,0.893555,-0.211914,-11.161803,-12.619018,36.964417,0.031738,-1.067871,0.025635,-30.426023,18.516541,-33.843994
0.226807,0.918457,-0.166504,-27.595518,-40.252682,2.304077,0.06543,-0.996826,0.002441,-27.153013,6.332397,-31.906126
0.209961,0.977783,-0.150879,-20.103453,-13.549804,-0.556946,0.186768,-0.822021,-0.053955,-24.993895,11.413573,-21.934507
0.237061,0.901611,-0.208008,-10.879516,-10.757445,37.147522,0.223633,-0.753418,-0.080078,-25.329588,24.589537,-15.579223
0.239746,1.00293,-0.158936,-18.890381,-10.833739,-0.946045,0.231445,-0.715088,-0.098877,-25.344847,38.017273,-9.628296
0.377441,1.122803,-0.196289,8.049011,-55.252071,-25.337217,0.227539,-0.703369,-0.123047,-24.848936,47.668453,-3.387451
0.412354,1.288086,-0.21875,1.373291,-47.241207,-32.669067,0.22876,-0.69458,-0.150879,-24.177549,54.51202,2.983093
0.455566,1.423096,-0.215576,-5.119323,-35.385132,-37.200928,0.245605,-0.673584,-0.191406,-25.199888,61.714169,10.81848
0.464844,1.492432,-0.19043,-10.398864,-20.614622,-37.734985,-0.029541,-1.076904,0.021729,-43.998714,89.599602,-33.683777
0.431641,1.481689,-0.162842,-13.671874,-8.117676,-34.14917,0.160645,-0.810547,-0.073242,-18.516541,64.086914,-1.983642
0.391602,1.415039,-0.145996,-14.762877,-0.442505,-28.915403,0.273682,-0.674561,-0.221191,-28.20587,69.473267,20.172117
0.227295,0.989258,-0.1521,-19.584656,-11.96289,-0.686645,0.198242,-0.838135,-0.069824,-13.954162,55.27496,9.490967
0.314209,1.255371,-0.142822,-14.465331,4.394531,-18.241882,0.339111,-0.982178,-0.160156,7.720947,61.309811,40.847775
0.29248,1.186523,-0.140381,-13.748168,4.325867,-13.748168,0.309326,-0.98999,-0.120117,9.056091,49.293514,40.702816
0.277588,1.122559,-0.138428,-12.680053,4.15802,-10.56671,0.299805,-0.990723,-0.121826,11.795043,38.612366,40.916439
0.252686,1.060059,-0.141113,-11.848449,2.227783,-8.300781,0.307373,-0.976074,-0.165771,14.335631,26.512144,43.151852
0.355225,1.334473,-0.14209,-14.785766,3.555298,-23.780821,0.289795,-0.955566,-0.158691,16.563416,16.487122,44.258114
0.249512,1.01123,-0.164551,-11.19995,-2.952575,-7.118225,0.283203,-0.932617,-0.126953,17.189026,11.734008,44.097897
0.243164,1.027344,-0.17334,-12.245177,-5.897521,-7.04956,0.30127,-0.90918,-0.111328,16.914368,11.184691,45.494076
0.240967,1.049316,-0.176758,-13.771056,-8.560181,-6.690979,0.281494,-0.907959,-0.096436,16.792297,10.742187,46.386715
0.242432,1.055176,-0.175049,-15.11383,-9.796143,-5.851745,0.23999,-0.905762,-0.07251,16.00647,11.138915,45.860287
0.24585,1.045166,-0.169922,-15.808105,-9.788513,-4.768372,0.243408,-0.898193,-0.066406,13.900756,13.031005,45.974728
0.249023,1.032227,-0.165039,-16.052246,-9.223938,-3.486633,0.265381,-0.895264,-0.073975,11.650084,14.778136,46.897884
0.25,1.027344,-0.164551,-16.311646,-8.827209,-2.624511,0.280518,-0.887207,-0.083252,9.651184,15.892028,48.263546
0.249756,1.023193,-0.163818,-16.807556,-8.995056,-2.235413,0.286377,-0.881836,-0.084961,7.308959,17.50946,49.369808
0.251709,1.022217,-0.163818,-17.578125,-9.620667,-1.785278,0.296143,-0.891357,-0.089111,5.218505,20.065308,49.751278
0.247559,1.012207,-0.162598,-18.264771,-10.169982,-1.38092,0.294678,-0.903809,-0.092041,3.250122,22.750853,49.682613
0.248047,1.014648,-0.149658,-11.161803,-0.549316,-7.339477,0.278809,-0.918945,-0.0979,1.747131,24.383543,48.408504
0.121826,0.889648,-0.192627,10.086059,21.789549,-9.506226,0.256836,-0.922607,-0.094971,0.663757,25.436399,45.707699
0.155518,0.871338,-0.166992,7.865905,27.45056,-16.548157,0.234619,-0.923584,-0.099121,-0.236511,25.634764,41.458126
0.195557,0.866699,-0.169434,3.64685,27.229307,-23.567198,0.214111,-0.914551,-0.100586,-1.274109,25.665281,36.254883
0.203857,0.871094,-0.191162,-0.572205,21.919249,-29.953001,0.205811,-0.901855,-0.10083,-2.662658,27.145384,30.624388
0.21582,0.905273,-0.263672,-14.045714,-3.814697,-61.523434,0.212891,-0.885254,-0.094727,-4.859924,32.455444,24.978636
0.202148,0.862061,-0.239502,-7.591247,9.712219,-43.022152,0.219482,-0.869629,-0.081787,-7.415771,40.176388,19.569397
0.20874,0.875488,-0.256104,-10.246276,5.104064,-49.087521,0.211914,-0.854248,-0.072754,-10.536193,48.126217,14.656066
0.213379,0.885986,-0.264893,-12.413024,0.320435,-55.282589,0.176758,-0.825439,-0.068359,-16.593933,60.447689,3.623962
0.202393,0.861084,-0.216309,-4.226685,15.213012,-36.697388,0.360107,-0.991699,-0.175781,6.317138,77.163696,40.130615
0.099365,0.899658,-0.229248,10.032654,12.741088,-2.906799,0.302246,-0.738281,-0.211914,-31.028746,76.934814,28.053282
0.222656,0.847168,-0.168457,13.504027,-12.893676,67.222595,0.348877,-1.017822,-0.109863,-31.806944,83.930962,36.392212
