ax,ay,az,gx,gy,gz,ax,ay,az,gx,gy,gz
0.30542,1.033447,0.036865,-18.928528,-75.721741,17.913818,0.273193,-1.119385,-0.090088,-34.576416,50.331112,-87.173454
0.295898,0.998291,0.022949,-17.684937,-71.640015,18.959045,0.265137,-1.146729,-0.071777,-30.624388,35.957336,-87.676994
0.296387,1.024902,0.052002,-18.981934,-78.75061,17.150879,0.300049,-0.804443,-0.207275,-42.16003,46.249386,-66.345215
0.291504,1.014648,0.064209,-18.806458,-80.528252,16.098022,0.265137,-1.157715,-0.06958,-26.786802,21.545408,-87.10479
0.289063,0.999756,0.069092,-18.226624,-81.520073,14.083861,0.268555,-1.128174,-0.081299,-19.447327,-2.258301,-83.679192
0.276367,0.987793,0.068604,-17.433167,-82.023613,11.398314,0.270508,-1.089111,-0.088623,-16.983032,-12.001037,-79.978943
0.254639,0.975586,0.072021,-16.815186,-83.061211,8.506775,0.26001,-1.03833,-0.09082,-14.564513,-21.65222,-74.97406
0.243896,0.960938,0.076904,-16.113281,-84.976189,4.829407,0.243408,-0.975586,-0.089844,-11.116027,-33.409119,-68.580627
0.240967,0.946777,0.074707,-15.663146,-87.944023,0.0,0.24292,-0.902344,-0.086914,-7.987976,-45.913692,-61.378475
0.243652,0.934082,0.071289,-15.403747,-91.63665,-5.569458,0.260742,-0.836914,-0.090088,-7.400512,-54.580685,-52.192684
0.245361,0.923584,0.066406,-15.419005,-96.038811,-11.848449,0.291992,-0.793701,-0.088623,-8.285522,-57.609554,-40.985104
0.255615,0.920898,0.060547,-15.800475,-101.348869,-18.455505,0.334229,-0.768555,-0.090576,-9.399414,-55.732723,-30.250547
0.302002,1.032227,0.043945,-19.088745,-77.079773,17.684937,0.382813,-0.77002,-0.090576,-11.520385,-49.606319,-20.935057
0.147217,0.873779,0.026367,5.79071,-46.752926,6.866455,0.428467,-0.804688,-0.082764,-13.633727,-41.358944,-11.421203
0.200684,0.92334,0.030273,3.036499,-47.561642,0.87738,0.264893,-1.148926,-0.075195,-23.048399,8.94928,-85.884087
0.262207,0.971191,0.050049,0.274658,-48.118587,-4.653931,0.289063,-0.775146,-0.212402,-44.631954,40.428158,-62.45422
0.332031,1.013428,0.076416,-1.991272,-47.676083,-9.635925,0.399414,-0.896729,-0.078125,-58.715816,101.623528,131.30188
0.44751,1.022217,0.071777,-11.398314,-61.355587,-32.615662,0.263672,-0.735596,-0.205322,-50.392147,34.690857,-51.818844
0.4375,1.069092,0.105713,-6.286621,-49.293514,-20.1416,0.375488,-0.835205,-0.098877,-63.08746,105.041496,120.681755
0.464111,1.065674,0.104248,-8.056641,-52.688595,-25.688169,0.367676,-0.813477,-0.11084,-65.2771,106.079094,115.19622
0.467773,1.044189,0.091553,-9.811401,-56.892391,-30.052183,0.354736,-0.799561,-0.127197,-67.138672,105.827324,109.924309
0.394775,1.049072,0.09668,-4.081726,-47.729488,-14.778136,0.349365,-0.793213,-0.138428,-68.717957,104.598991,105.148308
0.147217,0.824219,0.032227,9.841919,-45.051571,10.208129,0.344971,-0.799072,-0.139893,-69.465637,103.088371,100.509636
0.539551,1.221924,-0.130859,22.735594,99.693291,-31.463621,0.339111,-0.797119,-0.137939,-69.999695,100.929253,95.375053
0.218994,0.79541,-0.017578,16.265869,-39.505005,10.0708,0.335449,-0.80127,-0.145508,-70.846558,98.350517,89.767448
0.303955,0.803467,-0.036621,19.348145,-31.448362,5.195617,0.333252,-0.807861,-0.152832,-71.289063,95.832817,83.877556
0.363281,0.799561,-0.046631,22.193907,-23.056028,-2.540588,0.329346,-0.813232,-0.153809,-71.311951,93.170158,77.186584
0.44165,0.815918,-0.045654,25.733946,-12.283324,-11.749267,0.327881,-0.816895,-0.148438,-71.166992,89.935295,69.580078
0.499512,0.891602,-0.05542,27.832029,0.679016,-21.957396,0.320068,-0.815674,-0.144287,-70.953369,86.074821,61.370846
0.470947,0.98877,-0.063232,26.664732,9.078979,-30.319212,0.275391,-0.750244,-0.209229,-47.676083,36.399841,-57.548519
0.450439,1.062012,-0.067871,24.688719,16.365051,-35.316467,0.295898,-0.812012,-0.156006,-68.992615,75.775146,43.121334
0.476318,1.119873,-0.0625,23.925779,30.433653,-38.047791,0.28125,-0.798828,-0.168213,-67.634583,68.443298,32.814026
0.501221,1.166016,-0.061279,24.55139,50.506588,-37.193298,0.261719,-0.786865,-0.177979,-65.795898,59.616085,21.697996
0.526855,1.198242,-0.090332,24.711607,75.233459,-33.996582,0.25293,-0.773438,-0.181396,-63.591,51.033016,9.971619
0.422119,1.004395,0.045654,-12.771605,-66.299438,-33.859253,0.252441,-0.756592,-0.180176,-61.965939,44.044491,-1.152039
0.165771,0.795654,0.009033,13.961791,-42.884823,10.833739,0.255615,-0.74292,-0.18042,-60.18066,39.237976,-11.253356
0.392334,0.987549,0.024414,-13.931273,-70.831299,-33.508301,0.256348,-0.734131,-0.175293,-58.1665,36.521912,-21.14105
0.267334,0.890137,-0.044189,-7.003784,-29.533384,35.797119,0.25415,-0.72998,-0.170166,-56.434628,34.973145,-30.418394
0.351563,0.943604,-0.018799,-15.129088,-74.821472,-29.045103,0.258545,-0.727295,-0.179199,-54.740902,34.393311,-38.543701
0.48999,1.217285,-0.16333,20.164488,118.034355,-27.671812,0.26123,-0.729248,-0.193604,-52.658077,34.385681,-45.547482
0.453369,0.895264,-0.071289,1.197815,-13.786315,50.956722,0.310791,-0.812988,-0.147949,-70.335388,81.466667,52.658077
0.448486,0.90625,-0.062744,0.770569,-12.33673,51.10931,0.396484,-1.002686,-0.023438,-28.221128,-39.375305,12.870788
0.445801,0.9104,-0.054932,-0.144958,-11.878966,51.223751,0.36377,-1.041748,-0.018311,-30.174253,-39.802551,8.705139
0.448975,0.912842,-0.040039,-1.251221,-11.924743,51.040646,0.33252,-1.071533,0.001465,-32.493591,-33.615112,4.875183
0.465576,0.917725,-0.031982,-2.655029,-11.230468,49.987789,0.303223,-1.092529,0.025391,-34.912109,-20.545958,2.578735
0.482178,0.921875,-0.016357,-4.142761,-9.140015,47.782894,0.265869,-0.918945,-0.032227,-48.370358,75.248718,-4.905701
0.472168,0.91626,-0.010254,-5.1651,-6.690979,45.303341,0.272217,-1.064453,0.023438,-43.586727,18.096924,0.160217
0.441162,0.905518,-0.010498,-5.592346,-4.776001,43.792721,0.258789,-1.014893,0.009766,-46.585079,38.825989,-2.197266
0.406738,0.901367,-0.008545,-5.653381,-4.219055,43.30444,0.260986,-0.964355,-0.009521,-47.805782,58.120724,-4.135132
0.367676,0.968506,0.002441,-14.953612,-73.516846,-31.845091,0.41333,-0.947998,-0.001953,-27.465818,-33.538818,16.098022
0.372803,0.900146,-0.008545,-5.836486,-6.263732,42.602535,0.284668,-1.092529,0.036133,-38.970947,-2.250671,1.464844
0.295654,0.888428,-0.017822,-5.653381,-20.378111,38.818359,0.422852,-0.888916,-0.001709,-28.434752,-25.238035,19.203186
0.269287,0.88916,-0.057617,-9.140015,-37.887573,31.616209,0.522949,-0.738281,-0.091797,-36.659241,40.809628,49.522396
0.276855,0.87915,-0.046387,-11.383056,-46.188351,25.924681,0.445313,-0.740967,-0.077637,-32.066345,1.098633,30.921934
0.29248,0.869141,-0.036133,-13.236999,-54.672237,18.547058,0.474365,-0.710205,-0.108154,-34.072876,14.060973,37.368774
0.313965,0.860352,-0.028076,-14.404296,-62.767025,9.742737,0.50293,-0.709229,-0.112061,-35.423279,27.656553,44.189449
0.323486,0.860596,-0.0271,-14.648437,-69.450378,0.419617,0.537842,-0.786865,-0.056885,-39.1922,52.864071,53.596493
0.328613,0.87085,-0.03833,-14.495849,-73.806763,-8.018494,0.553467,-0.851563,-0.028076,-41.885372,63.011166,56.457516
0.328369,0.885498,-0.042725,-14.266967,-75.775146,-14.900207,0.562012,-0.932129,-0.009277,-43.495174,70.663452,57.472225
0.332031,0.902832,-0.041504,-14.419555,-75.813293,-20.507811,0.554199,-1.005371,0.002686,-44.761654,72.639465,57.319637
0.338379,0.922852,-0.032471,-14.915465,-75.302124,-25.123594,0.539795,-1.049805,-0.00415,-45.684811,67.756653,55.572506
0.334473,0.894043,-0.006592,-5.599975,-11.932372,41.122433,0.535156,-1.066162,-0.01709,-45.364376,57.250973,52.726742
0.426025,1.191162,-0.196777,18.325806,126.045219,-22.384642,0.27417,-0.872559,-0.050537,-48.71368,89.385979,-5.119323
0.445557,0.877441,-0.08374,1.51062,-15.312194,50.430294,0.43042,-0.779053,-0.034912,-30.822752,-8.743286,26.351927
0.349609,1.142578,-0.288086,13.916015,116.668694,-9.70459,0.287598,-0.835205,-0.060059,-48.553463,98.663322,-5.493164
0.225586,0.907471,-0.197021,-30.677794,-33.157349,10.131835,0.396973,-0.722168,-0.086182,-30.036924,44.517513,36.552429
0.222412,0.912842,-0.162598,-33.470154,-35.209656,9.33075,0.309082,-0.763672,-0.052002,-48.08807,106.201164,-5.149841
0.206299,0.9104,-0.125977,-35.400391,-37.574768,9.376526,0.483398,-0.85376,-0.161377,-15.205382,4.920959,93.330376
0.188477,0.912842,-0.09668,-36.361694,-41.114803,10.154723,0.482178,-0.854492,-0.150635,-16.471863,7.949829,95.390312
0.170898,0.912354,-0.06958,-36.651611,-46.394344,11.383056,0.47876,-0.853271,-0.148926,-17.539978,11.238097,95.91674
0.164063,0.907471,-0.04834,-35.705566,-52.955624,13.122558,0.473633,-0.84082,-0.144775,-18.77594,14.86206,94.863884
0.163086,0.897949,-0.042969,-34.217834,-59.539791,15.441894,0.465332,-0.830078,-0.146973,-19.775391,18.608093,92.155449
0.164551,0.891602,-0.037109,-32.287598,-65.811157,17.951965,0.458496,-0.815186,-0.148926,-20.553587,22.445677,87.760918
0.16748,0.882813,-0.033447,-30.34973,-71.357727,20.63751,0.456055,-0.800293,-0.146484,-21.469114,26.466368,81.878654
0.176514,0.872803,-0.026611,-28.228758,-76.011658,23.559568,0.450439,-0.778564,-0.140137,-22.644041,30.708311,75.180054
0.217041,0.904541,-0.218506,-27.618406,-30.334471,11.215209,0.440918,-0.755615,-0.129395,-23.956297,34.751892,68.054199
0.188477,0.866455,-0.026611,-26.06201,-79.238892,26.43585,0.428711,-0.737061,-0.121826,-25.382994,38.276672,60.287472
0.219238,0.858154,-0.028809,-21.232603,-78.903198,32.691956,0.302002,-0.796875,-0.061523,-48.629757,103.584282,-5.523681
0.240967,0.858887,-0.03125,-18.089294,-74.08905,36.209106,0.414307,-0.726074,-0.104004,-26.985167,40.954586,52.009579
0.252686,0.861816,-0.041016,-14.869689,-65.605164,39.733887,0.54541,-1.05127,-0.036865,-44.609066,43.815609,50.140377
0.259766,0.86792,-0.045654,-11.680602,-54.725643,43.449398,0.386475,-0.712646,-0.077393,-31.509398,46.966549,28.625486
0.263184,0.877197,-0.049561,-8.102417,-42.28973,46.760555,0.382324,-0.708008,-0.077148,-32.714844,51.23138,21.39282
0.256104,0.888672,-0.054443,-4.486084,-30.548094,49.46899,0.376465,-0.702881,-0.071533,-34.103394,58.28857,15.060424
0.249023,0.900635,-0.054443,-0.778198,-19.805908,51.605221,0.371094,-0.695068,-0.065674,-35.675049,67.092896,9.086609
0.23291,0.916504,-0.057373,3.082275,-10.803222,53.207394,0.369385,-0.689209,-0.066895,-37.719727,77.110291,4.272461
0.216064,0.932617,-0.05835,6.851196,-3.746032,54.077145,0.362061,-0.69043,-0.062744,-40.023804,87.898247,1.174927
0.196289,0.953369,-0.051514,10.70404,0.732422,54.450985,0.351074,-0.699219,-0.052979,-42.205807,97.30529,-0.778198
0.203857,0.861816,-0.026367,-23.780821,-80.253601,29.350279,0.335449,-0.713623,-0.042725,-44.31152,103.843681,-2.593994
0.202393,0.89917,-0.22583,-24.627684,-26.18408,11.894225,0.318604,-0.734375,-0.040527,-46.501156,106.590263,-4.310608
0.387939,1.174316,-0.247803,16.487122,124.572746,-16.716003,0.404297,-0.724121,-0.095703,-28.625486,42.66357,44.021603
0.177734,0.903809,-0.221924,-19.851685,-15.48767,11.756896,0.567871,-1.02832,-0.068604,-42.846676,30.029295,48.774715
0.357666,1.05835,-0.291016,13.687133,109.321587,-3.082275,0.428955,-0.829102,-0.013672,-29.815672,-16.670227,22.705076
0.391113,0.993652,-0.287842,13.183593,107.376091,1.770019,0.625977,-0.98877,-0.112061,-35.873413,7.865905,47.264095
0.446777,0.970459,-0.290527,12.725829,110.79406,3.410339,0.56543,-0.650635,-0.060791,13.679503,8.155823,-25.650023
0.440918,0.972168,-0.302734,11.672973,112.67852,1.88446,0.555664,-0.662842,-0.05127,13.320922,12.893676,-30.578611
0.384766,0.99585,-0.313477,7.537841,108.02459,1.152039,0.53418,-0.677734,-0.040283,13.511657,16.349792,-36.552429
0.380615,1.017578,-0.315186,2.868652,102.447502,-0.114441,0.508545,-0.702637,-0.025635,14.053344,16.868591,-42.900082
0.187744,0.900879,-0.227051,-22.071836,-21.118162,12.107848,0.483887,-0.724854,-0.007324,14.35089,13.580321,-49.537655
0.327881,1.014893,-0.287842,-4.646301,91.239922,-2.799988,0.462158,-0.742432,-0.001221,15.480041,7.484436,-56.045528
0.308105,0.98999,-0.254639,-7.865905,84.014885,-3.52478,0.452881,-0.758057,-0.003418,17.486572,1.831055,-61.69128
0.285156,0.973877,-0.226563,-10.06317,75.134277,-4.135132,0.457275,-0.769531,0.003662,19.134521,-0.213623,-65.841675
0.265869,0.96582,-0.219482,-11.245727,65.185547,-4.66156,0.464355,-0.775879,0.013428,19.859314,2.426147,-69.259644
0.365723,1.024902,-0.302979,-0.701904,97.320549,-2.037048,0.461914,-0.77832,0.020996,19.264221,8.003235,-73.005676
0.236572,0.973389,-0.213623,-12.176513,44.56329,-5.691528,0.562012,-0.635498,-0.072754,13.572692,4.737854,-22.132872
0.214844,0.984863,-0.210449,-13.542174,33.64563,-5.41687,0.448486,-0.779053,0.037354,18.035889,14.22119,-77.384949
0.196289,0.986572,-0.207031,-15.441894,23.422239,-4.478455,0.386719,-0.803955,0.057373,13.710021,19.927979,-84.976189
0.190186,0.969482,-0.202881,-16.197205,16.319275,-2.708435,0.357422,-0.822021,0.06665,11.779784,16.326904,-87.425224
0.186035,0.951904,-0.210693,-15.663146,12.512206,-0.152588,0.330566,-0.830078,0.065186,10.44464,8.285522,-88.294975
0.173828,0.939453,-0.216309,-15.830993,9.941101,2.967834,0.307129,-0.836914,0.051514,10.009766,-1.861572,-87.173454
0.172852,0.929199,-0.211914,-16.319275,6.851196,5.805969,0.298828,-0.846924,0.036377,10.025024,-11.779784,-83.915703
0.167969,0.919922,-0.209229,-16.777039,2.281189,8.056641,0.306396,-0.860596,0.028564,10.95581,-21.499632,-79.277039
0.166016,0.91333,-0.214111,-17.501831,-3.356933,9.82666,0.329346,-0.878662,0.029297,11.665343,-30.548094,-74.073792
0.168701,0.906738,-0.220703,-18.39447,-9.429932,10.993957,0.363037,-0.902344,0.035889,11.901855,-35.369873,-69.580078
0.258545,0.963379,-0.21167,-11.367797,54.870602,-5.401611,0.390869,-0.922363,0.044922,12.268065,-33.615112,-64.987183
0.224609,0.82251,-0.134521,-1.403808,43.197628,-27.6947,0.595703,-1.006836,-0.095703,-39.764404,17.555237,48.309322
0.2146,0.826172,-0.125977,-4.135132,41.999813,-30.021666,0.417236,-0.786377,0.048096,16.00647,18.814087,-81.504814
0.215576,0.837891,-0.122314,-6.67572,42.16003,-32.218933,0.550537,-0.628662,-0.096436,13.404845,3.601074,-19.371033
0.219971,0.8479,-0.119385,-9.58252,42.396542,-34.477234,0.394043,-0.925537,0.056885,12.138366,-28.289793,-59.509274
0.230957,0.902588,-0.19873,-23.628233,35.40802,-43.952938,0.553223,-0.627686,-0.132813,10.894774,7.720947,-14.884948
0.232422,0.864014,-0.131348,-16.563416,40.466305,-39.085388,0.546875,-0.631348,-0.117432,12.847899,5.134582,-16.700745
0.236084,0.880371,-0.151367,-19.760132,38.658142,-40.946957,0.662109,-0.904541,-0.133545,-30.616758,-2.998352,43.922421
0.236084,0.89502,-0.179688,-22.087095,36.827087,-42.556759,0.67334,-0.851563,-0.138916,-28.144835,-6.500244,42.16003
0.22876,0.85376,-0.119873,-12.954711,41.732784,-36.933899,0.684326,-0.803711,-0.136963,-25.29907,-8.956909,40.313717
0.245117,0.822266,-0.13501,1.228333,46.737667,-25.848387,0.696533,-0.769531,-0.134766,-22.438047,-10.215758,38.467407
0.186768,0.961914,-0.100098,22.65167,44.410702,-19.90509,0.708984,-0.760498,-0.114746,-19.752502,-10.917663,36.254883
0.241699,0.823975,-0.126221,6.195068,54.023739,-21.919249,0.709473,-0.750244,-0.099365,-17.715454,-10.910033,33.187866
0.22998,0.831787,-0.135986,8.323669,54.924007,-20.172117,0.714111,-0.733398,-0.090576,-16.403198,-10.528563,29.296873
0.218506,0.839355,-0.151123,9.498596,54.77142,-18.745422,0.720459,-0.712402,-0.092285,-15.319823,-9.83429,24.726866
0.2146,0.843994,-0.163574,10.421752,54.89349,-17.776489,0.726318,-0.69043,-0.106201,-13.931273,-9.155273,20.172117
0.217041,0.8479,-0.162598,11.07788,56.083675,-17.295837,0.733643,-0.672852,-0.131104,-12.069701,-7.942199,15.892028
0.217529,0.85376,-0.14502,11.96289,57.502743,-17.242432,0.647705,-0.955078,-0.121826,-32.867432,1.464844,45.776363
0.21167,0.865967,-0.128662,13.450622,57.66296,-17.39502,0.75293,-0.662354,-0.163574,-9.979248,-5.653381,12.001037
0.206055,0.881348,-0.116699,15.434264,56.541439,-18.104553,0.761719,-0.66626,-0.19458,-7.453918,-1.708984,8.743286
0.199463,0.900879,-0.105957,17.578125,54.077145,-18.966675,0.757568,-0.667236,-0.217529,-5.058288,1.602173,6.271362
0.193848,0.927734,-0.100342,20.484922,50.125118,-19.477844,0.741455,-0.657227,-0.230957,-2.990722,2.792358,3.746032
0.230713,0.905762,-0.207764,-24.429319,35.171509,-45.021053,0.726563,-0.650146,-0.239502,-0.12207,2.624511,1.075745
0.25,0.819824,-0.125977,3.791809,51.048275,-24.002073,0.715332,-0.641357,-0.234863,2.319336,2.670288,-1.487732
0.234131,0.910889,-0.210205,-24.940489,36.155701,-45.829769,0.698242,-0.633057,-0.217285,4.295349,3.90625,-4.051208
0.285645,1.090576,-0.242676,-22.857664,17.547607,-45.196529,0.678711,-0.624023,-0.20166,5.462646,6.309509,-6.225585
0.254883,0.931152,-0.212891,-26.702879,36.53717,-47.08099,0.644775,-0.623535,-0.185303,6.591796,8.888245,-8.31604
0.171631,0.996826,-0.100098,23.559568,36.094666,-20.400999,0.608398,-0.621582,-0.167969,8.209229,10.124206,-10.917663
0.36377,1.301514,-0.226807,-11.314391,23.925779,-21.89636,0.579102,-0.62207,-0.150391,9.284973,9.620667,-13.236999
0.351807,1.265625,-0.221924,-12.565612,28.19824,-22.163389,0.405029,-0.775146,0.039063,27.107237,-1.998901,-17.829895
0.334473,1.239014,-0.212158,-12.741088,32.371521,-22.109983,0.413574,-0.784668,0.031982,27.565001,-2.830505,-16.639709
0.3125,1.214844,-0.201172,-12.268065,36.125183,-22.40753,0.422852,-0.801758,0.017822,27.900694,-4.981995,-15.159606
0.284668,1.188232,-0.195557,-11.985778,37.42218,-23.422239,0.437256,-0.815674,0.014648,27.839659,-7.331848,-12.908935
0.256348,1.152344,-0.199219,-12.237548,34.881592,-25.032042,0.462158,-0.80957,-0.038086,24.230955,-21.812437,4.188538
0.245605,1.117676,-0.210449,-12.863158,29.785154,-27.587889,0.444092,-0.817871,0.006104,26.18408,-12.443542,-5.561828
0.246582,1.097168,-0.223389,-13.984679,23.757933,-30.85327,0.45874,-0.811279,-0.005371,25.886534,-15.029906,-2.197266
0.253418,1.094727,-0.239502,-15.647887,18.615723,-34.416199,0.466553,-0.808838,-0.021973,25.207518,-18.295288,1.205444
0.245117,0.918457,-0.212158,-25.756834,37.078857,-46.386715,0.439941,-0.820801,0.011475,26.802061,-9.941101,-9.185791
0.265869,1.10498,-0.24585,-17.776489,15.73944,-37.80365,0.380615,-0.770264,0.054688,26.229856,-2.944946,-18.333435
0.288086,1.108154,-0.243164,-21.52252,16.532898,-43.235775,0.3396,-0.814209,0.071533,20.187376,-18.386841,-14.297484
0.27832,1.071777,-0.246338,-24.147032,18.043518,-46.524044,0.341797,-0.772705,0.070313,23.063658,-7.751464,-18.569946
0.273926,1.055908,-0.256104,-25.55084,18.013,-47.698971,0.335449,-0.789307,0.064209,21.415709,-12.413024,-17.044067
0.273438,1.04248,-0.260254,-26.93939,17.913818,-48.576351,0.335449,-0.80249,0.071533,20.668028,-15.083312,-15.724181
0.270264,1.029541,-0.262695,-28.526304,18.64624,-49.057003,0.368164,-0.857422,0.078125,18.539429,-55.801388,-14.785766
0.270752,1.02124,-0.254639,-29.739378,20.606993,-49.247738,0.338379,-0.822998,0.074219,19.996643,-22.514341,-12.947082
0.268311,1.006592,-0.248535,-30.204771,23.735044,-48.988338,0.342529,-0.826904,0.081299,19.050598,-27.030943,-11.917113
0.268555,0.988525,-0.236572,-30.044554,27.297972,-48.568722,0.345703,-0.829346,0.08374,18.035889,-31.738279,-11.276244
0.266846,0.967285,-0.225098,-29.350279,30.944822,-48.202511,0.342285,-0.829834,0.078613,17.425537,-37.010193,-11.070251
0.262695,0.947998,-0.21875,-28.053282,34.378052,-47.760006,0.340088,-0.835449,0.076904,17.26532,-43.212887,-11.878966
0.281006,1.113525,-0.248047,-19.828796,15.472411,-40.801998,0.350098,-0.846924,0.078125,17.50946,-49.797054,-13.389586
0.366699,1.351563,-0.230957,-8.720398,21.728514,-21.591185,0.456787,-0.816406,-0.045166,22.789,-24.398802,6.271362
0.160645,1.025146,-0.090088,23.826597,25.344847,-20.927427,0.359619,-0.766846,0.067627,24.627684,-5.149841,-18.608093
0.154297,1.052734,-0.069824,23.391722,1.350403,-21.430967,0.446777,-0.828369,-0.04541,21.01898,-25.009153,8.415222
0.345703,1.005859,-0.173828,10.055541,-15.327453,-3.532409,0.443359,-0.959961,-0.134766,9.246826,-18.486023,22.735594
0.347412,0.960449,-0.17627,7.911682,-15.884398,2.182007,0.44751,-0.861572,-0.049805,18.638611,-23.384092,13.267516
0.352051,0.92334,-0.17627,5.828857,-15.846251,7.453918,0.385986,-0.867188,0.077393,19.737244,-59.829708,-16.876221
0.358643,0.899902,-0.175049,4.096985,-14.755248,11.909484,0.397217,-1.237549,-0.05542,-21.331785,69.80896,34.637451
0.368896,0.887939,-0.163818,2.845764,-12.649535,15.983581,0.374268,-1.230957,-0.046631,-19.851685,55.747982,31.867979
0.37085,0.879395,-0.148926,2.182007,-10.185241,19.790649,0.370117,-1.213135,-0.043945,-17.623901,38.589478,29.380796
0.371338,0.866699,-0.136719,2.342224,-7.789611,23.574827,0.369873,-1.198242,-0.062256,-15.396117,21.026609,27.893064
0.375244,0.858887,-0.135986,2.677917,-5.79071,27.023314,0.396484,-1.197266,-0.07666,-11.245727,5.447387,25.970457
0.382568,0.854248,-0.140137,3.013611,-4.348755,29.914854,0.421875,-1.172852,-0.097412,-7.492065,-5.775451,24.185179
0.396484,0.852295,-0.149658,2.670288,-3.669739,33.721924,0.438965,-1.125,-0.128174,-5.744934,-11.978148,23.277281
0.34375,1.05542,-0.168213,12.321471,-13.97705,-9.475708,0.44751,-1.064453,-0.151611,-3.616333,-15.693664,23.193357
0.404541,0.855225,-0.148682,1.983642,-3.921509,35.186768,0.452637,-1.005615,-0.168457,-1.205444,-17.990112,23.620604
0.419434,0.87085,-0.13501,0.389099,-4.440308,38.68103,0.447754,-0.848877,-0.050781,19.66095,-24.253843,10.932921
0.421875,0.874512,-0.121094,0.022888,-5.004883,40.573116,0.456055,-0.965576,-0.175537,1.25885,-18.615723,23.857115
0.42334,0.874023,-0.11084,-0.12207,-5.989074,42.66357,0.452393,-0.954834,-0.154053,6.912231,-18.135071,23.437498
0.425293,0.86792,-0.098389,-0.190735,-7.568359,44.868465,0.43457,-0.955811,-0.112305,10.925292,-19.790649,21.781919
0.423584,0.86499,-0.088379,0.228882,-9.58252,46.981808,0.428711,-0.943115,-0.101563,11.932372,-21.77429,21.064756
0.426758,0.858643,-0.0896,0.724792,-11.741637,48.492428,0.435059,-0.928955,-0.099609,12.580871,-23.811338,20.477293
0.436279,0.849854,-0.09082,1.304626,-13.450622,49.392696,0.440918,-0.912842,-0.099854,13.259887,-25.032042,20.38574
0.439697,0.850098,-0.091309,1.724243,-14.73236,49.842831,0.448242,-0.902832,-0.097412,14.114379,-25.215147,20.507811
0.440186,0.859863,-0.090088,1.800537,-15.480041,50.132748,0.45752,-0.9021,-0.092529,15.083312,-24.734495,20.294188
0.152588,1.046631,-0.079834,23.757933,13.198852,-21.369932,0.459473,-0.898438,-0.077881,16.082764,-23.986814,19.210815
0.411377,0.861572,-0.145752,1.228333,-4.112244,36.78894,0.455566,-0.889893,-0.066895,17.051697,-23.300169,17.585754
0.3396,1.108643,-0.1521,14.442443,-11.734008,-16.365051,0.450684,-0.878418,-0.055908,17.944336,-23.017881,15.518188
0.389404,0.852783,-0.14624,3.005981,-3.677368,32.112122,0.458496,-0.952393,-0.170654,4.249573,-18.348694,23.597715
0.330078,1.210449,-0.139404,18.547058,-2.929687,-30.960081,0.398438,-0.870117,0.078857,20.790098,-61.180111,-20.469664
0.337891,1.161621,-0.145508,16.410828,-8.331299,-23.933409,0.335693,-0.780029,0.063232,22.109983,-10.238647,-18.249512
0.16626,1.029541,-0.072998,21.27075,-20.38574,-21.385191,0.394775,-0.86084,0.075439,22.583006,-55.984493,-26.718138
0.182373,1.008301,-0.098145,20.072937,-28.19824,-21.965025,0.51001,-1.055908,-0.150146,10.437011,17.501831,-19.134521
0.202393,0.989502,-0.128418,18.173218,-33.355713,-23.345945,0.502441,-1.018799,-0.155518,10.45227,20.278929,-19.950867
0.222412,0.96167,-0.158691,15.762328,-35.804749,-25.520323,0.500977,-0.978027,-0.162354,9.788513,23.017881,-19.454956
0.24292,0.917725,-0.184082,13.580321,-35.15625,-28.717039,0.499512,-0.949951,-0.165527,8.468628,26.115416,-17.494202
0.265137,0.872559,-0.211426,11.901855,-30.166624,-32.37915,0.502686,-0.936035,-0.161377,7.56073,28.289793,-14.961242
0.285645,0.830811,-0.233887,11.054992,-20.545958,-36.209106,0.497559,-0.938477,-0.153564,6.530761,29.144285,-12.039184
0.298828,0.806641,-0.251709,11.169433,-7.102966,-39.840698,0.49585,-0.947998,-0.146973,5.180358,29.365538,-9.063721
0.29834,0.811279,-0.270752,11.665343,7.987976,-42.968746,0.49292,-0.945801,-0.150879,3.753662,29.449461,-5.928039
0.292725,0.830811,-0.283447,12.397765,22.65167,-45.753475,0.491943,-0.940186,-0.15625,2.670288,28.999327,-2.365112
0.157471,1.046631,-0.063232,22.3999,-10.025024,-21.369932,0.488525,-0.934082,-0.164795,1.434326,28.70178,1.945495
0.262207,0.888916,-0.307617,15.029906,44.235226,-49.949642,0.516602,-1.094238,-0.143066,10.19287,13.71765,-17.456055
0.275635,0.860596,-0.298584,13.526916,35.217285,-47.882076,0.485596,-0.927002,-0.171143,-0.320435,29.380796,6.622314
0.311279,1.276611,-0.108398,21.041868,16.014099,-43.083187,0.461914,-0.921631,-0.166016,-3.189087,28.068541,18.211365
0.306396,1.285156,-0.110352,21.217344,27.595518,-48.21777,0.46167,-0.929688,-0.169922,-4.493713,23.719786,24.909971
0.303467,1.260254,-0.133057,21.003721,37.940979,-52.536007,0.465332,-0.932129,-0.171387,-6.050109,18.447876,31.906126
0.303223,1.199463,-0.165527,20.759581,45.959469,-55.282589,0.465332,-0.934082,-0.173828,-7.385253,12.924193,39.718628
0.320313,1.248535,-0.12085,20.217894,5.28717,-37.254333,0.479492,-0.931396,-0.172363,-8.178711,8.796692,47.630306
0.287354,1.043457,-0.253418,18.608093,52.886959,-55.366512,0.479736,-0.921143,-0.173096,-9.040833,6.301879,55.076595
0.272217,0.979248,-0.287842,17.555237,52.078243,-53.642269,0.472656,-0.905518,-0.171143,-9.590149,3.64685,62.538143
0.261719,0.92749,-0.304688,16.395569,49.514767,-51.757809,0.469727,-0.884521,-0.176025,-10.368346,0.671387,70.205688
0.296631,1.115967,-0.206543,20.019531,51.094051,-55.961605,0.472168,-0.864014,-0.177246,-11.878966,-0.808716,77.606201
0.20752,0.979248,-0.236572,-3.181457,-5.744934,-45.837399,0.482422,-0.85498,-0.180176,-13.229369,-0.427246,84.106438
0.224121,1.230713,-0.030518,14.259337,106.780998,-57.899471,0.471924,-0.921387,-0.165527,-1.998901,30.067442,12.115478
0.195068,1.199219,-0.060303,14.938354,89.233391,-58.814999,0.528809,-1.127197,-0.132568,9.57489,10.437011,-15.426635
0.177246,1.171143,-0.099121,13.694762,69.496155,-58.578487,0.487305,-0.85376,-0.176514,-14.030456,1.792908,89.408867
0.170166,1.146729,-0.138184,11.20758,49.812313,-58.105465,0.601318,-1.164307,-0.102051,8.148193,-0.648498,-10.375976
0.175049,1.123535,-0.177979,8.041382,32.203674,-57.113644,0.560059,-1.147461,-0.118896,8.705139,6.942749,-13.053893
0.185791,1.0896,-0.211182,4.348755,18.188477,-55.053707,0.376221,-0.857422,0.068848,23.498533,-52.406307,-31.555174
0.241943,1.240723,-0.020264,12.329101,120.803825,-56.121822,0.365234,-0.846924,0.062988,23.765562,-49.072262,-38.475037
0.195068,1.03833,-0.232178,1.037598,7.400512,-52.513119,0.35791,-0.829346,0.05957,23.567198,-43.54858,-44.212337
0.200684,0.997314,-0.235596,-1.304626,-0.411987,-49.530025,0.349609,-0.820313,0.056641,22.674559,-36.560059,-48.881527
0.212891,0.968506,-0.228027,-4.234314,-8.827209,-41.694637,0.331543,-0.825684,0.054688,22.720335,-31.425474,-54.038998
0.193115,0.934082,-0.273438,-2.693176,-20.446775,-19.866943,0.319092,-0.828857,0.043701,21.39282,-28.335569,-59.692379
0.210938,0.947754,-0.220703,-3.692627,-13.046264,-31.990049,0.332031,-0.83374,0.040283,17.913818,-25.024412,-63.430782
0.206299,0.945801,-0.232178,-3.166198,-15.205382,-27.351377,0.323975,-0.839355,0.039551,14.633178,-24.490355,-65.696716
0.200195,0.941162,-0.253174,-2.655029,-17.951965,-23.262022,0.287842,-0.831787,0.020996,12.405395,-31.753538,-66.848755
0.193359,0.923828,-0.287354,-3.128052,-22.5296,-16.624451,0.252197,-0.846924,0.010986,11.116027,-46.653744,-66.268921
0.201172,0.915283,-0.287598,-3.814697,-23.506163,-13.488769,0.231934,-0.886963,0.000732,13.313293,-67.092896,-65.032959
0.208252,0.908203,-0.272461,-4.043579,-22.491453,-10.520934,0.402832,-0.869385,0.081299,21.743773,-59.524532,-23.979185
0.224609,0.90332,-0.245605,-3.005981,-19.325256,-7.5531,0.206299,-0.912842,-0.029053,16.288757,-90.232841,-61.706539
0.244873,0.89917,-0.208984,-0.488281,-14.083861,-4.333496,0.209473,-0.931396,-0.066162,18.989563,-110.763542,-55.656429
0.255615,0.894775,-0.171875,3.311157,-8.293152,-0.701904,0.257813,-0.955078,-0.094971,23.139952,-124.427788,-48.583981
0.249023,1.217529,-0.029297,9.140015,131.782532,-53.985592,0.33252,-0.968994,-0.10498,26.763914,-128.295898,-40.489193
0.213623,0.956299,-0.221191,-4.295349,-11.108397,-36.964417,0.409912,-0.981201,-0.074951,26.649473,-121.582024,-31.509398
0.259033,1.175781,-0.060791,4.524231,139.541626,-52.24609,0.47168,-1.017578,-0.032715,23.529051,-107.154839,-23.200987
0.263672,0.898193,-0.144043,7.797241,-3.40271,3.120422,0.518066,-1.066406,-0.024658,19.950867,-89.576714,-16.609192
0.268311,1.082764,-0.155029,-5.249023,144.683838,-48.706051,0.548828,-1.107666,-0.036621,16.647339,-71.060181,-11.466979
0.165283,0.912598,-0.164551,9.216309,43.830868,19.27948,0.574951,-1.146729,-0.059326,13.679503,-51.856991,-8.19397
0.135986,0.942871,-0.15625,11.222838,41.435238,17.738342,0.602783,-1.168945,-0.077393,10.581969,-32.531738,-6.935119
0.102051,0.978027,-0.143066,12.321471,33.447266,16.487122,0.615723,-1.171631,-0.088379,8.415222,-14.488219,-7.8125
0.09082,1.018311,-0.131836,12.229918,20.980833,14.717101,0.459473,-0.943115,-0.172363,-9.33075,31.013487,42.022701
0.098145,1.045654,-0.126465,11.123656,6.355285,12.367248,0.461426,-0.949463,-0.162598,-8.544922,33.233643,38.024902
0.119141,1.056885,-0.127686,9.407043,-8.575439,9.269714,0.472412,-0.975586,-0.161133,-7.789611,34.919739,34.698486
0.151611,1.05249,-0.133057,6.896972,-22.033689,5.233764,0.491455,-1.006836,-0.159668,-6.904602,34.759521,32.264709
0.190674,1.039551,-0.141846,3.822326,-31.997679,0.305176,0.637451,-1.165527,-0.140869,-6.652832,6.492614,27.404783
0.230469,1.021973,-0.153076,0.862122,-37.269592,-5.249023,0.546143,-1.05127,-0.162109,-5.142211,30.624388,29.777525
0.270752,1.008545,-0.167236,-2.166748,-37.132263,-11.047362,0.586426,-1.09082,-0.156006,-5.187988,26.222227,28.686522
0.267578,1.129395,-0.10791,-0.686645,143.547058,-50.575253,0.619385,-1.130371,-0.153076,-6.134033,18.119812,28.320311
0.314941,0.988037,-0.186279,-4.592896,-30.860899,-16.891479,0.516602,-1.026611,-0.163574,-5.828857,33.39386,30.899046
0.362793,0.9375,-0.245605,-8.354187,-2.494812,-28.244017,0.467285,-0.94873,-0.17749,-9.979248,29.71649,46.310421
0.362305,0.912842,-0.273438,-9.979248,15.136718,-32.051086,0.437256,-0.944092,-0.139893,-9.643555,26.43585,59.951778
0.365234,0.895752,-0.29834,-11.96289,34.416199,-34.591675,0.465332,-0.962158,-0.156738,-10.231017,29.754637,54.191586
0.374512,0.892822,-0.319336,-13.778686,55.831905,-36.964417,0.455322,-0.961914,-0.142822,-10.44464,29.495237,57.075497
0.381104,0.915527,-0.332275,-15.174865,78.552246,-39.321899,0.447998,-0.959473,-0.133789,-10.375976,28.45001,58.92944
0.375488,0.933105,-0.327393,-15.571593,100.410454,-41.091915,0.650391,-1.190186,-0.121826,-6.835937,-6.523132,25.367735
0.348389,0.935547,-0.302002,-14.617919,118.591301,-42.320248,0.434326,-0.925781,-0.150635,-9.033203,24.29199,60.920712
0.316406,0.945801,-0.277344,-12.802123,131.67572,-43.273922,0.43042,-0.911621,-0.1604,-8.552551,22.735594,61.729427
0.289063,0.983398,-0.246338,-10.665893,139.709473,-44.578548,0.426025,-0.903076,-0.159668,-7.949829,21.881102,62.492367
0.275879,1.036133,-0.200439,-8.468628,143.638611,-46.562191,0.420654,-0.903809,-0.148682,-7.247924,20.790098,62.522884
0.351074,0.965576,-0.214844,-6.576538,-18.638611,-22.949217,0.406738,-0.900879,-0.134766,-6.393432,18.722534,61.912533
0.260498,0.91333,-0.124023,11.96289,-0.404358,7.469177,0.390381,-0.89624,-0.136719,-5.653381,14.945983,60.462948
0.385254,1.382813,-0.238525,-3.936767,21.133421,-21.217344,0.375244,-0.884766,-0.148193,-4.669189,9.269714,58.914181
0.222656,0.952637,-0.125,15.716552,-4.615784,19.126892,0.469727,-0.954346,-0.17041,-10.177611,29.525755,50.567623
0.304932,1.058594,-0.039063,-1.052856,-150.886536,34.042358,0.644775,-1.184326,-0.104492,-7.240295,-20.584105,22.575377
0.325684,1.087158,-0.033691,-3.219604,-146.812439,34.851074,0.4104,-1.025879,-0.016113,-0.366211,-42.877193,-29.83856
0.335449,1.071045,-0.024414,-4.318237,-142.578125,36.712646,0.554199,-1.120605,-0.05835,-6.408691,-42.533871,5.828857
0.369629,1.072998,-0.019775,-5.310058,-133.094788,38.833618,0.365723,-0.871582,-0.16626,-3.707886,3.486633,58.174129
0.355957,1.046631,-0.016113,-5.523681,-123.558037,41.091915,0.348145,-0.912109,0.106689,26.603697,-121.87957,-45.829769
0.362305,1.051758,-0.013672,-5.264282,-111.907951,43.998714,0.370605,-0.909912,0.100342,27.740477,-124.259941,-47.760006
0.354736,1.054199,-0.01123,-4.127502,-97.961418,47.515865,0.392822,-0.900879,0.096436,28.717039,-119.689934,-50.514217
0.334229,1.037598,-0.007813,-2.296448,-84.388725,51.086422,0.409668,-0.882813,0.086914,29.006956,-109.191887,-53.840633
0.307373,1.005615,-0.01123,0.091553,-71.968079,54.084774,0.417725,-0.860596,0.078613,28.388975,-95.726006,-57.128902
0.27832,0.969971,-0.016846,2.441406,-61.531063,56.053158,0.418701,-0.841309,0.075439,27.229307,-81.344597,-59.944149
0.28125,1.04248,-0.044922,0.282288,-153.015137,33.782959,0.412598,-0.821045,0.059814,25.398252,-68.214417,-63.224789
0.247314,0.924072,-0.033203,4.653931,-52.818295,56.671139,0.411865,-0.803955,0.050049,23.078917,-57.083126,-66.612244
0.200439,0.826416,-0.046631,9.910583,-35.003662,55.038448,0.409668,-0.801514,0.041504,21.133421,-46.897884,-68.412781
0.207275,0.776123,-0.041748,12.7182,-26.748655,50.598141,0.598877,-1.148193,-0.08667,-6.744384,-34.187317,16.242981
0.22168,0.740967,-0.028809,15.35797,-19.485474,42.724606,0.400879,-0.805664,0.032227,18.928528,-37.689209,-68.870544
0.259277,0.748535,-0.036621,19.813538,-12.5885,32.676697,0.365723,-0.8396,0.012939,12.4588,-28.167723,-68.504333
0.303467,0.810791,-0.109131,23.307798,-5.126953,21.667479,0.314209,-0.887451,-0.002197,10.032654,-34.469604,-65.979004
0.333008,0.893311,-0.163574,23.185728,1.747131,10.345458,0.304199,-0.917969,-0.030273,8.674622,-39.527893,-63.308712
0.352783,0.997314,-0.200195,20.217894,6.706237,-0.320435,0.314697,-0.969727,-0.050537,7.400512,-42.228695,-59.783932
0.369385,1.115723,-0.231934,15.266418,10.627746,-9.140015,0.327637,-1.013428,-0.060059,5.767822,-42.480465,-55.679317
0.386475,1.243896,-0.248535,9.078979,14.60266,-15.48767,0.350342,-1.036377,-0.058105,3.974914,-41.778561,-50.582882
0.398438,1.345703,-0.248291,2.479553,18.707275,-19.538879,0.372314,-1.029541,-0.037109,2.128601,-41.831966,-42.121883
0.220459,0.878662,-0.049072,7.110595,-43.93005,56.320187,0.331787,-0.908936,0.108398,25.100706,-115.58532,-44.860836
0.260986,1.012695,-0.04126,2.502441,-153.434753,34.40094,0.461426,-1.050049,-0.016846,-3.608703,-44.425961,-17.036438
0.242432,0.936523,-0.11792,14.587401,-0.816345,12.977599,0.508545,-1.091797,-0.032227,-5.859375,-44.998165,-5.28717
0.201416,0.993896,-0.030762,8.041382,-141.830444,37.162781,0.386475,-0.813965,0.022217,15.853881,-31.181334,-68.786621
0.21582,0.954102,-0.134766,15.914916,-8.666992,25.039671,0.346924,-0.870361,0.015381,10.726928,-29.418943,-67.695618
0.224121,0.938965,-0.136475,16.181946,-10.047912,30.662535,0.373047,-0.859863,-0.188477,-1.846313,-2.929687,58.158871
0.230957,0.915283,-0.131836,17.50946,-7.522583,36.224365,0.376709,-0.851318,-0.180908,-0.770569,-2.76947,57.952877
0.233887,0.888184,-0.101318,19.790649,-2.655029,41.091915,0.211914,-0.952637,-0.094971,-42.266842,75.965881,-43.342587
0.225342,0.873291,-0.050293,22.956846,1.045227,45.249935,0.20874,-1.001221,-0.060303,-40.679928,64.231873,-44.486996
0.20166,0.878906,-0.013428,26.100157,1.571655,49.21722,0.198242,-1.032471,-0.026367,-39.039612,50.025936,-44.990536
0.187988,0.890381,-0.001953,28.587339,-1.327515,52.688595,0.192383,-1.057617,-0.001709,-37.117004,32.028198,-44.219967
0.171631,0.90625,0.009521,29.975889,-7.499694,55.458065,0.191162,-1.081543,0.000977,-33.462524,11.19995,-43.144222
0.161865,0.925049,0.023193,29.83856,-16.716003,57.632442,0.212158,-1.097656,-0.018066,-29.251097,-8.491516,-41.023251
0.158447,0.937012,0.031982,28.991697,-27.778624,59.165951,0.248779,-1.091309,-0.038818,-25.062559,-23.41461,-37.582397
0.154785,0.940918,0.03833,27.542112,-39.505005,60.18066,0.287109,-1.057861,-0.056885,-21.171568,-31.417845,-32.707214
0.21582,0.991455,-0.037354,4.920959,-150.802612,36.056519,0.320557,-0.99585,-0.062256,-18.554688,-31.929014,-27.763365
0.160889,0.942139,0.054688,24.360655,-60.401913,60.897823,0.369629,-0.864258,-0.06958,-17.074585,-14.701842,-17.539978
0.166504,0.936523,0.061768,23.170469,-69.328308,60.585018,0.217529,-0.902344,-0.114258,-42.884823,86.196892,-41.847225
0.165039,0.934814,0.06543,22.315977,-78.239441,59.738155,0.381592,-0.803955,-0.07251,-17.211914,-1.327515,-12.496947
0.166504,0.938232,0.064697,21.537779,-87.463371,58.433529,0.393311,-0.708984,-0.114014,-18.989563,28.350828,-1.441955
0.175293,0.94165,0.054932,20.462034,-96.542351,56.52618,0.401855,-0.668945,-0.146484,-20.912169,44.769283,6.217956
0.182617,0.949219,0.037598,18.936157,-105.354301,53.947445,0.406738,-0.667969,-0.177734,-22.705076,59.364315,14.579772
0.196777,0.952148,0.021729,17.204285,-112.754814,50.849911,0.406006,-0.699463,-0.187012,-23.605345,69.984436,22.338865
0.227295,0.947754,0.007568,16.113281,-117.652885,46.615597,0.416748,-0.771973,-0.174561,-23.605345,75.820923,29.144285
0.239502,0.960693,-0.008789,14.72473,-121.932976,42.396542,0.428223,-0.876465,-0.14917,-22.560118,78.727722,34.370422
0.218994,0.991943,-0.02002,11.550902,-130.302429,39.131165,0.439453,-0.995605,-0.114258,-21.827696,80.123901,36.636353
0.15625,0.941895,0.043945,25.93231,-50.643917,60.798641,0.438477,-1.122559,-0.078369,-21.568296,79.978943,36.651611
0.349609,1.053467,-0.010742,-5.264282,-90.675346,31.906126,0.428711,-1.209473,-0.060791,-21.240232,77.598572,36.048889
0.367432,1.058105,-0.017822,-5.386352,-96.870415,27.565001,0.365234,-0.863037,-0.181396,-2.975464,-0.88501,58.120724
0.379395,1.052734,-0.028076,-5.485534,-104.751579,23.41461,0.387207,-0.754395,-0.087891,-17.959595,12.7182,-7.469177
0.368896,1.042969,-0.036133,-5.233764,-112.93792,20.950315,0.226807,-0.851318,-0.116699,-42.739864,94.604485,-39.459229
0.261719,0.915527,-0.035156,1.045227,-116.371147,22.331236,0.350098,-0.928467,-0.063721,-17.593384,-25.650023,-22.727964
0.306152,0.973389,-0.048584,-3.311157,-121.559135,18.386841,0.268555,-0.778564,-0.125,-40.962215,102.424614,-35.415649
0.280029,0.95752,-0.046875,-2.204895,-120.735161,18.325806,0.244629,-0.809326,-0.115479,-41.900631,100.517265,-37.055969
0.273438,0.937988,-0.043213,-0.457764,-118.041985,19.737244,0.383301,-0.833008,-0.1521,-2.784729,4.356384,56.877132
0.328613,1.048584,-0.005615,-5.0354,-85.632317,36.605835,0.385742,-0.837646,-0.136475,-4.447937,9.437561,55.122372
0.338379,1.012207,-0.04248,-4.440308,-118.759148,19.607544,0.375732,-0.827148,-0.128174,-6.019592,13.267516,53.25317
0.309326,1.039551,-0.00293,-4.348755,-80.635063,41.213985,0.37207,-0.822266,-0.124512,-8.415222,17.105103,51.124569
0.195557,0.865723,-0.020508,11.268615,-54.244991,50.651546,0.373779,-0.823975,-0.125,-11.039733,21.27075,48.095699
0.24707,0.955322,-0.005371,1.625061,-68.252563,51.330563,0.360107,-0.821289,-0.125,-12.779235,23.941038,44.586178
0.234619,0.925781,-0.010254,4.547119,-63.789364,52.024837,0.344727,-0.814453,-0.127441,-14.213561,24.513243,40.550228
0.212891,0.892334,-0.019531,7.781982,-58.738705,51.856991,0.337158,-0.816406,-0.12793,-15.594481,24.261473,35.514832
0.183838,0.842529,-0.016846,14.022826,-51.475521,47.798153,0.341309,-0.818115,-0.13501,-17.097473,25.413511,30.258177
0.194824,0.822754,-0.008057,16.166687,-51.269527,41.717525,0.342773,-0.810791,-0.12793,-18.806458,28.282164,24.650572
0.213379,0.824219,-0.001465,18.074036,-53.085323,32.752991,0.37915,-0.836182,-0.167725,-1.091003,-0.328064,57.579037
0.245117,0.854004,-0.027588,20.339964,-56.098934,22.674559,0.329346,-0.792725,-0.121582,-22.40753,34.78241,11.634826
0.291016,0.919678,-0.097168,21.087645,-57.701107,11.909484,0.33667,-0.802979,-0.119873,-20.606993,31.249998,18.302917
0.326416,1.009277,-0.152344,18.585205,-57.258602,1.274109,0.285645,-0.74585,-0.133057,-38.352966,94.680779,-32.905579
0.249756,0.907959,-0.026367,2.609253,-115.249626,25.527952,0.286865,-0.73877,-0.120117,-36.422729,87.898247,-31.387327
0.261719,0.995117,0.000244,-0.938415,-72.07489,49.133297,0.287598,-0.736816,-0.105225,-34.584045,81.123344,-28.091429
0.241455,0.913086,-0.014404,4.554749,-113.578789,29.090879,0.289551,-0.739258,-0.093262,-32.76062,73.768616,-23.078917
0.240234,1.025391,-0.013916,29.182432,-24.246214,28.091429,0.284424,-0.758301,-0.132813,-39.878845,100.318901,-34.01947
0.220703,0.929932,0.002686,7.957458,-108.039848,36.354065,0.306396,-0.75293,-0.104492,-28.472898,56.701656,-10.147094
0.245605,0.946045,-0.126953,18.981934,-5.752563,6.484985,0.315186,-0.766113,-0.109375,-26.321409,47.866817,-3.158569
0.252441,0.946533,-0.125977,20.027161,-3.913879,7.492065,0.323242,-0.777832,-0.114014,-24.444578,40.359493,4.249573
0.254883,0.945801,-0.125244,21.186827,-2.090454,8.552551,0.298584,-0.743896,-0.092529,-30.708311,65.620422,-16.937256
0.249512,0.946533,-0.126709,22.338865,-0.595093,9.857178,0.253906,-1.102295,-0.022949,-38.330078,35.728455,-40.672298
0.23999,0.948486,-0.124512,23.406981,0.106812,11.375426,0.266846,-0.780518,-0.067383,-41.183468,123.435966,-69.93103
0.231445,0.950684,-0.121094,24.29199,0.091553,13.236999,0.252441,-0.804932,-0.072998,-42.984005,118.827812,-67.512512
0.220703,0.955322,-0.117188,25.039671,-1.174927,15.480041,0.250977,-0.846191,-0.080078,-44.715878,111.824028,-64.468384
0.214111,0.957764,-0.11084,25.871275,-3.280639,17.860413,0.251953,-0.900146,-0.078369,-45.005795,103.294365,-60.592648
0.216309,0.965332,-0.097168,26.550291,-6.141662,20.179747,0.247314,-0.957275,-0.061523,-44.067379,93.40667,-57.212826
0.228027,0.982178,-0.080322,27.160643,-9.231567,22.27783,0.245361,-1.01123,-0.047607,-43.067928,81.764214,-53.947445
0.232178,0.919434,-0.003662,6.347656,-111.007683,32.875061,0.282959,-0.759521,-0.065918,-39.672852,124.679558,-71.556091
0.243652,1.005859,-0.054199,27.801512,-12.405395,24.108885,0.243896,-1.052979,-0.04248,-42.327877,68.107605,-49.911495
0.346924,1.119629,-0.194336,13.397216,-55.953976,-8.010864,0.245117,-1.087158,-0.036133,-41.107174,52.803036,-45.600887
0.222656,1.024414,-0.012207,29.106138,-34.851074,30.517576,0.266357,-1.099854,-0.023682,-34.263611,18.585205,-34.347534
0.199707,1.023682,-0.02002,28.182981,-47.889706,33.439636,0.386963,-0.843506,-0.096436,-20.950315,3.295898,18.074036
0.18457,1.018555,-0.032715,25.917051,-62.057491,36.590576,0.330566,-1.008545,-0.071777,-23.674009,-14.297484,-10.337829
0.174805,1.010498,-0.038818,22.476194,-75.691223,39.199829,0.35498,-0.956787,-0.084961,-21.804808,-13.534545,-0.968933
0.174072,1.002441,-0.032715,18.920898,-86.982719,41.435238,0.377441,-0.901855,-0.087158,-21.034239,-7.072448,8.415222
0.186279,0.995361,-0.030762,15.716552,-94.818108,42.770382,0.384521,-0.799072,-0.11377,-21.286009,15.426635,27.526854
0.204834,0.986328,-0.019043,12.809752,-98.922722,42.488094,0.378906,-0.776855,-0.149902,-21.911619,27.343748,35.78949
0.213867,0.963623,0.005371,10.589599,-101.478569,41.137691,0.37915,-0.767822,-0.195068,-22.941587,38.894653,43.945309
0.2146,0.942383,0.012695,9.284973,-104.73632,39.245605,0.390137,-0.750977,-0.232666,-24.833677,51.254269,53.314205
0.249756,1.020752,-0.03125,28.533934,-16.921997,25.978086,0.407471,-0.743164,-0.249512,-27.160643,63.690182,63.865658
0.370605,1.23584,-0.220947,6.950378,-53.497311,-15.777587,0.424316,-0.765869,-0.241943,-28.884886,73.425293,73.753357
0.2854,1.023926,-0.000244,-3.013611,-76.034546,45.478817,0.297852,-0.739502,-0.061035,-37.338257,122.192375,-71.678162
0.416992,1.412354,-0.220703,-5.744934,-39.466858,-25.276182,0.280029,-1.084473,-0.030762,-30.067442,3.64685,-27.229307
0.207275,0.940918,-0.242432,-17.089844,3.341675,-19.561768,0.309082,-0.722412,-0.047119,-33.691406,116.996758,-69.839478
0.207275,0.940918,-0.23999,-17.250061,3.135681,-19.012451,0.436768,-0.831543,-0.221924,-30.479429,78.849792,82.260124
0.209961,0.9375,-0.235352,-16.960144,3.479004,-17.89856,0.331299,-0.702637,-0.032227,-25.085447,99.433891,-60.531612
0.21582,0.929932,-0.22876,-16.166687,4.486084,-16.532898,0.309082,-0.894043,-0.243896,-8.338928,22.15576,58.128353
0.212402,0.918213,-0.220215,-15.144347,6.095886,-14.587401,0.315918,-0.883545,-0.248535,-7.713317,14.076232,55.892941
0.211182,0.9021,-0.218994,-13.565063,7.957458,-11.993407,0.333008,-0.875977,-0.249756,-7.202148,9.346008,53.680416
0.217041,0.880615,-0.224365,-11.70349,10.185241,-9.025574,0.346191,-0.864746,-0.243896,-6.736755,8.338928,51.383968
0.227051,0.863037,-0.22998,-9.811401,12.847899,-5.92041,0.351563,-0.843262,-0.235107,-6.584167,10.475158,49.690243
0.23584,0.850342,-0.241699,-7.919311,15.815734,-2.807617,0.3479,-0.82373,-0.228271,-6.309509,13.641356,48.057552
0.241211,0.835449,-0.250488,-6.195068,18.463135,0.244141,0.329102,-0.803467,-0.223877,-5.706787,16.288757,45.715328
0.205566,0.937256,-0.242676,-17.01355,4.257202,-19.485474,0.302002,-0.783447,-0.219727,-5.249023,17.913818,41.847225
0.237305,0.825684,-0.252686,-4.768372,20.698545,3.65448,0.296387,-0.765137,-0.219482,-5.676269,19.790649,37.17804
0.244141,0.82959,-0.236328,-2.227783,28.900145,10.963439,0.310303,-0.757568,-0.222168,-6.729125,22.422789,32.920837
0.246338,0.830566,-0.222168,-0.854492,34.233093,14.373778,0.315674,-0.714355,-0.035889,-29.174803,110.153191,-65.414429
0.237793,0.828369,-0.203369,0.793457,39.474487,17.684937,0.329102,-0.75293,-0.211182,-7.514953,25.314329,28.274534
0.22876,0.825928,-0.195557,2.258301,43.922421,20.439146,0.356689,-0.747314,-0.177002,-9.208679,32.012939,15.846251
0.218506,0.833984,-0.192871,3.623962,46.745296,22.384642,0.367432,-0.748047,-0.1604,-10.749816,36.125183,8.529663
0.202637,0.835205,-0.189941,4.547119,47.874447,23.468016,0.368652,-0.744141,-0.139893,-12.268065,39.993286,0.205994
0.189209,0.842041,-0.188232,5.058288,47.515865,23.818968,0.360107,-0.740234,-0.119873,-13.610839,42.274471,-8.827209
0.179443,0.855469,-0.188965,5.28717,45.959469,23.422239,0.348633,-0.734131,-0.110352,-14.411925,43.632504,-18.165588
0.171143,0.875244,-0.186768,5.599975,44.349667,22.308348,0.348145,-0.72583,-0.109863,-15.167235,45.776363,-27.214048
0.39502,1.343994,-0.227051,0.114441,-48.301693,-21.476744,0.35376,-0.723145,-0.108643,-15.830993,50.834652,-35.331726
0.239502,0.826416,-0.246826,-3.501892,24.093626,7.347106,0.352539,-0.722412,-0.09375,-16.50238,59.654232,-42.938229
0.202393,0.93335,-0.242188,-16.921997,5.378723,-19.515991,0.349121,-0.716553,-0.075439,-18.371582,72.029114,-50.384518
0.169678,0.89209,-0.176758,6.828308,43.746944,20.89691,0.350098,-0.708496,-0.050537,-21.492002,85.762016,-56.442257
0.202148,0.924316,-0.227051,-16.685486,7.781982,-19.439697,0.341553,-0.746826,-0.195801,-8.06427,28.350828,22.415159
0.20166,0.930908,-0.236816,-16.708374,6.393432,-19.454956,0.453125,-0.943115,-0.190918,-31.517027,80.459587,88.531487
0.407227,1.39209,-0.193115,-11.970519,-19.104004,-28.686522,0.302734,-1.055908,-0.047119,-26.382444,-8.06427,-19.195557
0.385254,1.341797,-0.192383,-12.832641,-11.863708,-28.999327,0.458496,-1.20166,-0.116699,-30.85327,71.815491,94.551079
0.37085,1.298584,-0.199707,-13.412475,-5.867004,-29.609678,0.378906,-0.837402,-0.032227,37.521362,-10.429381,-25.230406
0.338379,1.245605,-0.207031,-13.771056,-1.594543,-29.891966,0.381592,-0.842773,-0.023438,38.063049,-7.148742,-30.204771
0.3125,1.189453,-0.209229,-13.961791,1.014709,-29.426573,0.374268,-0.851318,-0.00415,37.902832,-4.188538,-35.598755
0.304443,1.136719,-0.213867,-14.083861,3.578186,-30.006407,0.359619,-0.864746,0.021729,37.55188,-2.655029,-41.343685
0.281982,1.079346,-0.223145,-14.007567,4.547119,-30.700682,0.349854,-0.881836,0.044678,36.636353,-2.456665,-46.806332
0.279053,1.04126,-0.230713,-14.152526,5.378723,-31.517027,0.33667,-0.891846,0.064941,34.751892,-3.494262,-51.925655
0.283936,1.015137,-0.239746,-14.198302,7.453918,-32.524109,0.322266,-0.89502,0.080566,33.096313,-5.737304,-56.411739
0.281738,1.001953,-0.242432,-14.289855,9.895325,-33.149719,0.313965,-0.893555,0.089355,31.570433,-9.246826,-59.921261
0.427246,1.423828,-0.203369,-9.773254,-28.572081,-27.740477,0.302734,-0.885498,0.101318,29.823301,-13.153075,-62.370296
0.274902,0.990723,-0.241699,-14.541625,11.825561,-33.111572,0.294189,-0.884033,0.105713,28.404234,-17.196655,-63.850399
0.267578,0.981201,-0.243896,-14.846801,13.053893,-32.699585,0.287109,-0.879395,0.109619,27.603148,-21.507261,-64.491272
0.264648,0.97583,-0.244141,-15.403747,13.450622,-31.883238,0.282959,-0.877197,0.114746,26.840208,-26.268003,-64.567566
0.261475,0.96875,-0.242188,-15.937804,13.72528,-30.685423,0.269775,-0.881592,0.115234,26.05438,-31.295774,-64.582825
0.24707,0.968262,-0.238037,-16.342163,14.205932,-28.739927,0.255615,-0.894531,0.117676,24.856565,-36.247253,-64.201355
0.240479,0.957275,-0.231445,-16.815186,14.381408,-26.618956,0.25415,-0.90625,0.120117,23.735044,-40.847775,-63.064571
0.226563,0.942139,-0.224854,-16.960144,13.671874,-24.772642,0.259521,-0.91333,0.11499,22.91107,-46.005245,-61.355587
0.212402,0.929688,-0.222656,-16.860962,12.351989,-22.941587,0.265625,-0.918213,0.111328,22.65167,-52.772518,-59.066769
0.206055,0.926758,-0.224609,-16.845703,11.322021,-21.301268,0.270508,-0.921631,0.10791,23.078917,-62.07275,-56.495663
0.200684,0.921387,-0.225098,-16.830444,10.086059,-20.103453,0.2771,-0.917236,0.104248,23.704527,-72.914124,-53.947445
0.201416,0.92041,-0.225342,-16.738892,9.002686,-19.615173,0.286621,-0.908447,0.101318,24.154661,-83.518974,-51.292416
0.257813,1.013428,-0.233643,-34.805298,-103.576653,13.549804,0.296875,-0.901123,0.103027,24.177549,-92.880241,-48.744198
0.269531,1.023926,-0.21875,-33.149719,-105.8731,14.09912,0.306885,-0.898926,0.102539,23.811338,-101.043694,-46.493526
0.263916,1.032959,-0.207031,-30.647276,-107.177727,16.174316,0.318359,-0.903076,0.10083,23.841856,-108.3908,-45.104977
0.256592,1.035156,-0.195313,-27.19879,-106.399529,19.004822,0.376221,-0.834717,-0.039063,36.506653,-12.725829,-20.439146
0.145996,0.998535,-0.099365,-11.070251,-84.045403,38.742065,0.377197,-0.831543,-0.043945,35.583496,-13.671874,-15.419005
0.234375,1.013428,-0.162354,-18.943787,-100.158684,26.954649,0.466797,-1.077637,-0.149902,-31.532286,78.353882,92.468254
0.211182,1.008545,-0.140625,-15.823363,-96.092216,31.700132,0.394287,-0.827637,-0.081543,34.01947,-18.157959,-6.530761
0.176025,1.005859,-0.120361,-13.397216,-90.866081,35.858154,0.387695,-0.827393,-0.060059,34.744263,-15.083312,-10.581969
0.247314,1.022949,-0.178955,-22.766111,-103.759758,22.644041,0.427979,-1.331055,-0.070557,-24.475096,49.156185,90.484612
0.238281,1.010254,-0.249023,-36.399841,-102.439873,14.648437,0.410156,-1.318604,-0.079834,-19.927979,33.828735,85.533134
0.257568,0.89917,-0.291992,-29.441832,-55.328365,40.161129,0.403564,-1.28125,-0.100342,-15.159606,17.829895,79.902649
0.266113,0.987061,-0.260254,-37.322998,-96.687309,21.530149,0.406982,-1.237061,-0.118408,-10.581969,3.486633,72.982788
0.317383,0.933838,-0.29248,-32.38678,-73.036194,28.816221,0.40332,-1.191406,-0.140381,-6.622314,-7.774353,66.238403
0.293213,0.908203,-0.292969,-30.143736,-62.034603,33.660889,0.411377,-1.139648,-0.168701,-3.341675,-14.785766,58.586117
0.179199,0.866943,-0.210449,-14.167785,-19.676208,83.007805,0.41748,-1.078125,-0.184814,-0.106812,-17.501831,50.674435
0.244873,0.890625,-0.285645,-28.602598,-51.23138,48.309322,0.418457,-1.010986,-0.198975,1.930237,-16.494751,43.113705
0.280518,0.879395,-0.267334,-25.245665,-44.189449,57.273861,0.403076,-0.947998,-0.208984,2.426147,-14.526366,35.636902
0.334961,0.863525,-0.249756,-20.256041,-32.478333,64.102173,0.384277,-0.911377,-0.212158,4.272461,-15.007018,28.259275
0.327637,0.863525,-0.253662,-17.524719,-22.201536,68.435669,0.444824,-1.299561,-0.086914,-28.465269,62.026974,94.03228
0.255371,0.859863,-0.253174,-17.776489,-17.807007,73.501587,0.378662,-0.890381,-0.207764,8.163452,-18.15033,20.919798
0.210205,0.85376,-0.225098,-16.410828,-17.76123,78.697205,0.394287,-0.836182,-0.124268,32.402039,-27.099607,-0.724792
0.128174,0.992188,-0.080811,-9.407043,-75.660706,40.878292,0.391113,-0.84668,-0.151367,30.639647,-30.84564,1.296997
0.229736,1.00415,-0.256348,-37.666321,-101.539604,17.76123,0.390869,-0.857422,-0.176514,27.862547,-33.477783,2.563476
0.121338,0.983398,-0.065674,-8.270264,-66.879272,42.274471,0.384277,-0.861084,-0.193115,24.665831,-35.224915,3.684997
0.20166,0.824463,-0.185303,-18.936157,5.279541,27.229307,0.39502,-0.829834,-0.105225,33.332825,-22.506712,-3.234863
0.114258,0.953857,-0.066162,-8.06427,-51.261898,43.464657,0.363037,-0.858154,-0.205322,17.166138,-31.639097,5.79071
0.148193,0.883545,-0.203613,-12.397765,-23.262022,86.303703,0.355957,-0.848389,-0.205566,14.320373,-27.343748,8.499146
0.260498,1.118408,-0.146973,-47.126766,-11.825561,-51.094051,0.351563,-0.848389,-0.208008,12.413024,-23.246763,11.810302
0.251709,1.062988,-0.145996,-44.677731,-12.443542,-42.907711,0.367188,-0.861572,-0.210449,10.307311,-20.286558,15.083312
0.247803,1.02002,-0.147217,-42.076107,-12.313842,-35.018921,0.371826,-0.863525,-0.201172,21.125792,-34.90448,4.577637
0.249268,0.987793,-0.150635,-39.489746,-11.291503,-27.481077,0.297119,-0.945801,0.03125,-7.446289,11.352538,-26.06201
0.249756,0.963867,-0.152344,-37.086487,-9.83429,-20.164488,0.365967,-0.756592,-0.153076,-10.635375,58.105465,11.344909
0.249512,0.946533,-0.14917,-34.553528,-7.92694,-13.137816,0.35083,-0.768311,-0.122559,-10.841369,59.379574,7.194519
0.246826,0.929443,-0.150879,-31.875608,-5.317688,-6.248474,0.337402,-0.786133,-0.092285,-11.344909,57.266232,3.166198
0.23877,0.910645,-0.1521,-29.182432,-2.349854,0.694275,0.311035,-0.813232,-0.072754,-11.45172,50.827023,-1.12915
0.226563,0.890869,-0.156006,-26.611326,0.427246,7.469177,0.291992,-0.854736,-0.054199,-10.498046,40.634151,-6.141662
0.117676,0.968994,-0.060059,-7.743835,-58.79974,43.189999,0.289307,-0.892822,-0.033936,-9.315491,29.754637,-11.138915
0.219727,0.874023,-0.166992,-24.383543,2.326965,13.626098,0.296387,-0.926758,-0.019043,-8.171082,21.812437,-15.769958
0.206299,0.834473,-0.183105,-20.454405,4.493713,23.368834,0.30127,-0.942627,0.00708,-7.408142,16.25824,-20.828245
0.19751,0.821289,-0.179932,-17.601013,5.79071,30.4718,0.36792,-0.752686,-0.182373,-10.902404,54.840084,15.563964
0.188721,0.824707,-0.16748,-15.930175,4.974365,33.058167,0.268555,-0.883301,0.062988,-17.288208,7.095336,-38.902283
0.171631,0.834717,-0.155273,-14.091491,2.212524,35.453796,0.293701,-0.901123,0.050049,-11.314391,6.317138,-36.178589
0.1521,0.8479,-0.147461,-12.443542,-2.723694,37.872314,0.283936,-0.888672,0.056152,-12.847899,5.821228,-37.895203
0.132813,0.861084,-0.137207,-10.910033,-9.742737,40.145874,0.273682,-0.885254,0.064209,-14.961242,5.737304,-38.513184
0.122803,0.877441,-0.12793,-9.902954,-18.1427,41.694637,0.29834,-0.860352,0.04834,-26.718138,13.793944,-29.602049
0.114746,0.893311,-0.118896,-9.552002,-27.06909,42.8009,0.268066,-0.879883,0.061279,-19.172668,8.636475,-38.871765
0.111572,0.911865,-0.105225,-9.170532,-35.78949,43.29681,0.275146,-0.879395,0.055664,-20.751951,9.384155,-37.811279
0.113281,0.93457,-0.084717,-8.644104,-43.785091,43.487545,0.284912,-0.873291,0.051025,-22.499083,10.330199,-35.850525
0.212402,0.852783,-0.177246,-22.392271,3.608703,18.920898,0.293945,-0.864014,0.049072,-24.116514,11.795043,-33.409119
0.125244,0.903076,-0.198975,-11.024474,-28.213499,88.317863,0.298828,-0.859375,0.045654,-25.543211,13.229369,-31.166075
0.30957,0.960938,-0.275146,-35.087585,-85.884087,25.131224,0.373779,-0.752197,-0.202393,-11.695861,51.23138,19.66095
0.116455,0.931152,-0.194336,-8.026123,-37.200928,88.539116,0.295898,-0.935303,0.039063,-8.232117,7.774353,-30.166624
0.330811,1.090088,-0.18457,-32.447815,-4.447937,-58.937069,0.375977,-0.752441,-0.214844,-12.771605,48.545834,23.323057
0.34082,1.063721,-0.171631,-28.266905,3.074646,-54.122921,0.474121,-0.838135,-0.188232,-38.497925,55.13763,59.707638
0.34668,1.042725,-0.157959,-23.04077,13.420104,-48.797604,0.398926,-0.760742,-0.228027,-15.182494,50.956722,31.959532
0.345215,1.034668,-0.142578,-17.158508,25.756834,-42.823788,0.406738,-1.171387,-0.139404,-45.379635,90.782158,37.353516
0.317871,1.02417,-0.122559,-11.009215,36.346436,-36.6745,0.423828,-1.137451,-0.149414,-44.319149,77.133179,42.892452
0.262207,1.00708,-0.100098,-5.088806,41.458126,-30.364988,0.443848,-1.10791,-0.149414,-43.266293,64.483643,47.950741
0.205811,0.981689,-0.088623,0.656128,40.176388,-23.979185,0.461914,-1.075439,-0.150635,-42.434689,53.771969,52.8717
0.174316,0.949707,-0.103027,5.462646,35.430908,-18.013,0.477051,-1.049316,-0.14624,-41.481014,46.279903,57.228085
0.171143,0.912842,-0.124268,9.140015,29.769896,-13.191222,0.491943,-1.023682,-0.136719,-40.565487,40.504452,60.699459
0.175781,0.895264,-0.136963,12.039184,24.436949,-9.384155,0.491455,-1.003174,-0.128418,-39.756775,36.491394,63.575741
0.321045,1.099365,-0.195313,-36.071777,-9.284973,-63.354488,0.486084,-0.985107,-0.114746,-38.833618,34.133911,65.452576
0.185547,0.901367,-0.145752,14.122008,19.897461,-6.469726,0.483154,-0.955566,-0.111328,-38.284302,33.630371,66.055298
0.195068,0.905273,-0.145752,16.357422,11.444091,-3.219604,0.480225,-0.931641,-0.116211,-38.345337,35.430908,65.826416
0.187256,0.912109,-0.145752,16.403198,6.591796,-2.098083,0.381592,-0.753418,-0.223389,-13.900756,48.492428,27.359007
0.188232,0.92041,-0.145264,15.975951,1.602173,-1.029968,0.484863,-0.906494,-0.128662,-38.68866,39.81781,64.865112
0.193115,0.930664,-0.141113,15.533446,-2.433777,-0.221252,0.48877,-0.86084,-0.162354,-38.726807,51.391598,61.805721
0.203125,0.937988,-0.135986,15.61737,-5.0354,0.457764,0.302002,-0.858887,0.048828,-27.496336,13.389586,-28.503416
0.211182,0.941406,-0.137695,16.181946,-6.835937,1.075745,0.46582,-0.832764,-0.19751,-35.797119,55.938717,56.411739
0.21167,0.944824,-0.135254,16.357422,-8.399963,2.044678,0.476563,-0.81543,-0.211182,-31.814573,54.38232,52.49786
0.215332,0.944336,-0.13208,16.670227,-9.841919,2.792358,0.478516,-0.798096,-0.239258,-29.823301,54.702755,49.942013
0.224609,0.944092,-0.134277,17.211914,-10.032654,3.456115,0.478271,-0.788086,-0.250244,-27.763365,55.90057,47.821041
0.232422,0.945068,-0.133545,17.715454,-8.995056,4.295349,0.473877,-0.7771,-0.252686,-25.138853,56.426998,45.860287
0.19751,0.90332,-0.146484,15.518188,15.640258,-4.638672,0.4646,-0.773193,-0.250244,-22.315977,56.343075,43.754574
0.30957,1.089111,-0.216797,-39.56604,-11.238097,-67.062378,0.448242,-0.769043,-0.244629,-19.691467,55.725094,40.344234
0.238281,0.948975,-0.131348,18.173218,-7.377624,5.355834,0.421387,-0.764893,-0.234619,-17.14325,53.909298,36.29303
0.289307,1.016846,-0.276123,-43.998714,-9.994507,-70.625305,0.491699,-0.88208,-0.142822,-38.825989,45.867916,63.575741
0.29834,1.0625,-0.246094,-42.274471,-11.19995,-69.541931,0.304932,-0.86084,0.046631,-27.755735,12.359618,-27.976988
0.126709,0.948486,-0.201172,-6.317138,-38.345337,86.151115,0.30127,-0.919434,0.04248,-9.719849,6.462097,-33.370972
0.129639,0.968018,-0.20459,-5.187988,-39.360046,81.970207,0.311035,-0.860107,0.043945,-27.32086,10.749816,-28.541563
0.11792,0.98584,-0.202637,-4.348755,-43.472286,77.224731,0.575439,-1.237061,-0.060547,1.045227,-9.284973,39.833069
0.124756,1.021484,-0.198242,-4.562378,-49.827572,71.228027,0.560547,-1.223145,-0.065674,-0.030518,0.190735,45.372005
0.143555,1.060059,-0.197754,-6.614685,-56.457516,62.83569,0.547852,-1.223633,-0.074219,-1.220703,7.255554,49.606319
0.16748,1.091064,-0.198975,-10.124206,-62.904354,54.115292,0.532715,-1.227539,-0.089844,-2.487183,12.7182,52.963253
0.203369,1.102295,-0.199219,-14.648437,-68.382263,44.364925,0.515625,-1.211182,-0.111084,-3.532409,17.463684,55.809017
0.241211,1.084473,-0.205078,-19.050598,-72.372437,33.798218,0.498047,-1.167236,-0.125,-4.600525,22.293089,58.158871
0.27832,1.053711,-0.221191,-22.796629,-74.47052,22.117613,0.479492,-1.106689,-0.140625,-5.66101,28.068541,60.394283
0.315186,1.027588,-0.235107,-26.657103,-72.975159,9.69696,0.461426,-1.041748,-0.158447,-6.843566,33.813477,62.57629
0.344482,1.003418,-0.250732,-30.181883,-67.329407,-1.976013,0.440674,-0.983887,-0.169922,-7.598876,37.872314,64.842224
0.109619,0.921143,-0.197266,-9.803772,-33.493042,89.149467,0.425781,-0.948486,-0.193115,-7.766723,42.785641,69.05365
0.364258,0.977539,-0.263672,-33.14209,-58.494564,-12.657165,0.584717,-1.246826,-0.052979,2.159119,-22.239683,33.241272
0.369873,0.948975,-0.287109,-35.690308,-48.08807,-22.499083,0.436035,-0.946533,-0.199219,-9.002686,47.103878,69.671631
0.362549,0.924316,-0.317383,-37.918091,-37.528992,-31.471251,0.465332,-0.93335,-0.205322,-12.130736,60.089108,71.456909
0.352539,0.90332,-0.346924,-40.122986,-27.595518,-39.085388,0.450684,-0.933594,-0.20874,-12.741088,63.926693,70.594788
0.341309,0.893555,-0.371094,-42.549129,-19.065857,-45.898434,0.431396,-0.931641,-0.21167,-13.381957,66.513062,69.05365
0.332031,0.888428,-0.375,-44.616695,-12.145995,-52.24609,0.422363,-0.92334,-0.218018,-14.343261,67.459106,68.534851
0.317627,0.884277,-0.363281,-46.005245,-7.019042,-57.922359,0.395508,-0.924316,-0.221191,-13.893126,65.055847,67.810059
0.300049,0.884766,-0.348145,-46.836849,-4.379272,-62.492367,0.362061,-0.924316,-0.217285,-12.825011,59.730526,66.123962
0.283447,0.894531,-0.33252,-46.844479,-4.135132,-66.268921,0.331787,-0.918213,-0.221924,-11.802672,52.017208,64.422607
0.276611,0.922363,-0.317139,-46.31805,-5.737304,-68.939209,0.31958,-0.915771,-0.231201,-10.482787,42.556759,62.660213
0.279785,0.963135,-0.299805,-45.31097,-8.049011,-70.426941,0.312256,-0.905518,-0.239258,-9.376526,32.157898,60.44006
0.191406,0.99292,-0.120117,31.906126,42.16766,10.337829,0.32373,-0.860596,0.040039,-26.649473,9.689331,-30.242918
0.17334,0.988037,-0.125244,35.110474,51.956173,9.315491,0.452881,-0.938232,-0.205322,-10.81848,53.703304,70.556641
0.163574,0.995117,-0.115723,37.902832,64.674377,7.469177,0.570801,-1.229492,-0.041748,3.547668,-37.834167,25.520323
0.165771,1.00415,-0.088379,39.428711,79.498291,5.546569,0.424072,-0.95459,-0.183838,-7.598876,40.27557,67.207336
0.314697,1.036377,-0.084961,29.060362,96.351616,-5.172729,0.479004,-1.129395,-0.005859,5.706787,-63.598629,4.318237
0.237305,1.022461,-0.051025,38.978577,103.759758,0.595093,0.533691,-1.187256,-0.028076,4.447937,-52.848812,16.021729
0.273926,1.019043,-0.052734,36.827087,106.475822,-1.533508,0.360107,-0.869873,0.041504,-26.123045,14.442443,-34.866333
0.29834,1.019287,-0.063721,33.157349,103.096001,-3.471374,0.36084,-0.878906,0.046143,-25.344847,16.586304,-38.742065
0.19458,1.017334,-0.062744,39.825439,93.841545,3.128052,0.354492,-0.889648,0.042725,-24.230955,16.487122,-43.403622
0.202881,0.994141,-0.093262,28.564451,33.599854,10.971068,0.353027,-0.896484,0.037842,-22.506712,14.35852,-47.996517
0.212891,0.963135,-0.054688,13.694762,-7.972717,14.404296,0.344482,-0.907715,0.030273,-20.416258,11.184691,-51.879879
0.193115,0.989014,-0.075195,22.636412,13.793944,13.084411,0.335449,-0.919922,0.027588,-17.76123,6.599426,-55.946346
0.195068,0.982422,-0.076172,19.371033,4.40979,13.656615,0.326172,-0.921631,0.026367,-15.045165,0.335693,-59.715267
0.200439,0.9729,-0.068848,16.273499,-3.257751,14.22882,0.302979,-0.917725,0.025391,-11.695861,-7.575988,-62.553402
0.326904,1.059082,-0.111816,25.436399,87.738029,-6.324768,0.293457,-0.914795,0.023682,-8.476257,-16.830444,-65.055847
0.230469,0.955811,-0.019775,12.283324,-10.154723,14.289855,0.291748,-0.920166,0.023682,-5.722045,-24.826048,-67.100525
0.234131,0.955078,0.010254,12.33673,-12.229918,14.244079,0.289551,-0.936523,0.028076,-3.204345,-31.646727,-68.252563
0.227783,0.956787,0.022461,12.390136,-15.892028,14.236449,0.343994,-0.862793,0.036865,-26.405333,11.276244,-32.211304
0.218262,0.956787,0.018799,12.199401,-21.926878,14.389037,0.421387,-1.076172,0.012939,7.17926,-68.656921,-8.209229
0.206055,0.95459,0.008789,11.642455,-29.922483,14.60266,0.288574,-0.942627,0.036621,0.465393,-43.472286,-67.863464
0.204102,0.957031,-0.00293,10.57434,-38.780212,14.86206,0.287842,-0.947266,0.037109,1.579285,-47.721859,-65.490723
0.211182,0.96167,-0.015137,9.178162,-46.974178,15.197753,0.278076,-0.950684,0.033691,3.059387,-52.391048,-62.904354
0.195068,0.99292,-0.072998,25.68054,24.002073,12.008666,0.268799,-0.950195,0.027344,4.455566,-58.242794,-59.471127
0.328857,1.081787,-0.128418,22.933958,78.094482,-7.339477,0.273438,-0.959229,0.021973,5.447387,-62.126156,-54.214474
0.290283,1.136475,-0.128662,16.181946,53.428646,-11.634826,0.283936,-0.974121,0.024414,6.034851,-63.232418,-47.935482
0.318115,1.138428,-0.144531,19.432068,60.791012,-10.147094,0.302734,-0.985107,0.027588,5.958557,-63.697811,-40.420528
0.219971,0.967773,-0.015381,7.781982,-54.13055,15.525817,0.330078,-0.999268,0.030762,6.385803,-65.681458,-31.158445
0.188721,0.891113,-0.184326,-17.074585,-89.447014,0.457764,0.36792,-1.029785,0.027344,7.385253,-68.519592,-20.095823
0.206055,0.834717,-0.213379,-19.943237,-94.955437,-3.829956,0.287598,-0.943604,0.030518,-1.106262,-37.93335,-68.641663
0.216309,0.787354,-0.236328,-22.598265,-98.464958,-8.308411,0.458252,-0.920898,-0.233398,-3.128052,7.705688,65.589905
0.22998,0.756836,-0.256836,-25.199888,-99.967949,-12.725829,0.467285,-0.940186,-0.231689,-3.784179,7.972717,64.353943
0.237061,0.746338,-0.276123,-27.580259,-99.06768,-16.586304,0.469238,-0.959717,-0.224609,-3.883362,8.857727,62.644955
0.241699,0.758057,-0.294678,-30.72357,-95.748894,-19.683838,0.471924,-0.973877,-0.216797,-3.768921,9.94873,60.348507
0.245361,0.776855,-0.295166,-34.103394,-89.99633,-21.797178,0.479004,-1.03418,-0.201416,-1.564026,16.799927,37.719727
0.251709,0.796143,-0.280518,-36.308289,-82.069389,-22.544859,0.473389,-0.982422,-0.212646,-3.448486,13.267516,53.329464
0.267334,0.826172,-0.261475,-36.231995,-70.838928,-21.926878,0.477051,-0.985352,-0.208252,-3.036499,15.319823,48.622128
0.324219,1.109131,-0.136963,20.828245,68.595886,-8.857727,0.477783,-1.001465,-0.205322,-2.296448,16.38031,43.319698
0.290039,0.861084,-0.233887,-34.629822,-55.747982,-20.286558,0.456299,-0.909424,-0.228516,-2.235413,8.132935,66.001892
0.302246,0.941162,-0.185059,-27.427671,-21.324156,-16.563416,0.475342,-0.982178,-0.212646,-3.730774,11.482238,57.296749
0.304688,1.033936,-0.150879,-15.632628,10.231017,-13.893126,0.453369,-0.903564,-0.219238,-1.686096,9.529114,65.483093
0.302734,1.090576,-0.13623,-9.109497,23.04077,-12.779235,0.390625,-0.853516,-0.187744,-6.065368,31.646727,53.50494
0.306152,1.116699,-0.118164,-2.5177,33.187866,-12.130736,0.446045,-0.899414,-0.204834,-2.441406,16.609192,63.003536
0.30542,1.114502,-0.112793,3.822326,41.610714,-12.130736,0.442383,-0.885254,-0.19751,-3.242492,21.64459,61.454769
0.304932,1.123535,-0.11499,9.086609,48.141476,-12.054442,0.426514,-0.872559,-0.193115,-4.28772,26.290892,59.516903
0.300293,1.135498,-0.120361,13.076781,52.017208,-11.932372,0.406006,-0.865234,-0.1875,-5.226135,29.548643,56.724545
0.166748,0.944336,-0.155762,-14.175414,-81.619255,4.402161,0.38208,-0.8396,-0.193604,-7.530212,33.706665,50.849911
0.290283,1.141846,-0.141602,18.013,53.695675,-11.19995,0.373779,-0.830566,-0.197998,-9.315491,36.071777,48.789974
0.304688,1.148193,-0.145996,18.867493,55.656429,-10.82611,0.364746,-0.818359,-0.203857,-10.375976,38.551331,47.157284
0.299316,0.902832,-0.205811,-31.791685,-38.581848,-18.196106,0.359131,-0.811035,-0.200684,-11.032104,41.206356,46.249386
0.302734,0.982178,-0.171143,-21.90399,-4.91333,-15.167235,0.356445,-0.80957,-0.194336,-11.947631,44.097897,45.600887
0.231934,0.972168,-0.008057,6.500244,-61.225887,15.953063,0.360352,-0.813477,-0.192383,-13.290404,46.974178,44.921871
0.240723,0.992676,-0.007324,4.058838,-75.111389,18.1427,0.446777,-0.90332,-0.21167,-1.815796,12.290954,64.437866
0.336914,1.139648,-0.04541,-31.272886,-88.920586,-11.810302,0.48999,-1.067383,-0.198486,-0.846863,16.395569,31.959532
0.321533,1.130859,-0.033691,-31.707762,-83.724968,-9.529114,0.358887,-0.819824,-0.19043,-14.991759,49.560543,44.670101
0.317871,1.107666,-0.020996,-29.640196,-72.341919,-7.476806,0.506104,-1.141357,-0.186279,0.587463,11.749267,20.202635
0.259033,1.0896,-0.018555,-27.732847,-61.668392,-5.592346,0.289551,-0.982422,0.046875,-3.250122,-19.78302,-99.662773
0.191406,1.046143,-0.012695,-25.741575,-55.877682,-3.616333,0.271484,-0.973145,0.043701,-1.358032,-24.444578,-105.651848
0.183594,0.994629,0.002197,-22.186277,-47.32513,-2.197266,0.260986,-0.959473,0.041504,0.137329,-28.991697,-110.244743
0.194824,0.932617,0.01416,-18.2724,-36.628723,-3.807068,0.252686,-0.94458,0.036377,1.441955,-33.187866,-113.174431
0.192383,0.850586,0.017822,-15.296935,-31.723021,-9.025574,0.248291,-0.932129,0.029053,2.777099,-37.727356,-114.593498
0.196777,0.789063,0.014648,-12.84027,-33.157349,-17.753601,0.249023,-0.922607,0.020508,4.15802,-41.984554,-114.089958
0.291016,0.853027,-0.130371,-10.185241,-41.41235,-43.54858,0.258057,-0.916992,0.008301,5.294799,-45.524593,-111.839287
0.340332,0.956543,-0.196289,-14.213561,-41.450497,-57.334896,0.268799,-0.920654,-0.004883,6.210327,-48.500057,-108.26873
0.37793,1.082275,-0.235596,-20.286558,-38.490295,-69.358826,0.280518,-0.925049,-0.018555,7.293701,-50.743099,-103.401176
0.397949,1.201904,-0.248779,-27.542112,-33.706665,-78.552246,0.301025,-0.931641,-0.03418,8.216858,-51.910397,-97.419731
0.407715,1.30542,-0.253418,-34.690857,-28.07617,-84.693901,0.319336,-0.943848,-0.052246,8.636475,-52.230831,-90.110771
0.411621,1.383545,-0.239746,-41.191097,-21.583555,-87.181084,0.343018,-0.960205,-0.06665,9.109497,-51.62048,-82.000725
0.398193,1.411621,-0.215332,-46.081539,-15.190124,-85.868828,0.354736,-0.979004,-0.077393,9.635925,-51.147457,-73.280334
0.371338,1.386963,-0.187256,-49.293514,-10.620116,-81.291191,0.381836,-1.003174,-0.085449,9.902954,-50.094601,-63.453671
0.340576,1.329102,-0.166748,-50.590511,-8.583069,-74.798584,0.41626,-1.025879,-0.095459,9.773254,-47.45483,-53.031918
0.308594,1.253906,-0.152344,-50.300594,-8.850098,-67.382813,0.447754,-1.063232,-0.099365,9.498596,-43.563839,-42.579647
0.279785,1.178467,-0.148682,-49.049374,-10.246276,-59.371944,0.481201,-1.108643,-0.101807,9.002686,-38.352966,-32.371521
0.235352,0.98291,-0.005371,5.340576,-68.252563,16.891479,0.511963,-1.135986,-0.103516,8.384705,-31.196592,-22.308348
0.378662,1.109619,-0.057617,-29.289244,-90.728752,-12.977599,0.535889,-1.144531,-0.110107,7.225036,-21.728514,-12.527465
0.397949,1.075684,-0.069092,-27.740477,-93.475334,-12.382506,0.55127,-1.147461,-0.124512,5.111694,-10.902404,-3.837585
0.235352,0.789307,-0.033203,-10.154723,-37.986755,-29.685972,0.554199,-1.145752,-0.141846,2.861023,-0.88501,3.356933
0.396729,1.046143,-0.074463,-23.04077,-97.923271,-7.972717,0.539307,-1.156494,-0.151611,2.189636,5.561828,9.277344
0.24707,1.00415,-0.005615,2.662658,-80.902092,19.927979,0.519043,-1.154053,-0.169922,1.800537,8.789063,14.846801
0.399658,1.060303,-0.073242,-25.817869,-96.160881,-10.612487,0.502686,-1.111084,-0.192871,-0.175476,14.533996,25.917051
0.255371,1.016113,-0.002686,1.365662,-84.884636,22.186277,0.302734,-0.98999,0.051758,-5.104064,-14.877318,-92.414848
0.26001,1.021973,0.004639,0.213623,-86.807243,24.856565,0.351318,-0.828125,-0.185547,-16.113281,51.040646,44.746395
0.264893,1.022217,0.014404,-0.823975,-87.265007,27.709959,0.322021,-0.864258,-0.177734,-18.074036,49.232479,43.342587
0.267822,1.013916,0.022217,-1.594543,-86.936943,30.509947,0.164795,-1.120361,-0.012939,-32.600403,-3.807068,-26.214598
0.265381,1.003906,0.026855,-2.090454,-86.395256,32.859802,0.20166,-1.103271,-0.022461,-26.611326,-18.997192,-27.6947
0.257324,0.969727,0.035889,-2.792358,-85.807793,36.04126,0.22876,-1.05127,-0.02417,-22.323606,-25.024412,-29.678343
0.253662,0.951416,0.037109,-2.815246,-85.281364,36.567688,0.246338,-0.975098,-0.039063,-20.362852,-22.621153,-31.066893
0.249268,0.936035,0.035645,-2.624511,-84.724419,36.254883,0.265381,-0.88623,-0.056641,-20.584105,-12.809752,-31.547544
0.24585,0.92041,0.028564,-2.693176,-84.358208,35.064697,0.293945,-0.804932,-0.070313,-21.560667,3.997802,-31.166075
0.260498,0.988525,0.035156,-2.433777,-86.120598,34.78241,0.32251,-0.731689,-0.077881,-23.506163,25.894163,-30.021666
0.35498,1.003662,-0.090576,-18.035889,-103.492729,-0.907898,0.329834,-0.662109,-0.085938,-26.298521,47.386166,-27.511595
0.229492,0.905762,0.004639,-2.952575,-86.181633,30.326841,0.334717,-0.603516,-0.110352,-29.197691,64.38446,-22.964476
0.229736,0.901855,-0.006592,-3.440857,-88.088982,27.023314,0.339844,-0.578125,-0.135986,-30.586241,75.920105,-16.120911
0.229492,0.899902,-0.026367,-4.417419,-90.522758,23.315428,0.137451,-1.098877,-0.011475,-39.680481,20.172117,-24.902342
0.230469,0.904053,-0.047852,-5.859375,-93.582146,19.432068,0.359619,-0.59375,-0.160156,-30.891417,84.663383,-7.156372
0.232422,0.919434,-0.070557,-8.018494,-97.885124,15.289306,0.445557,-0.748535,-0.162842,-32.196045,107.681267,14.839171
0.247314,0.931641,-0.084473,-10.726928,-102.638237,11.192321,0.466064,-0.874023,-0.124268,-33.790588,120.582573,23.574827
0.279785,0.94751,-0.092285,-13.549804,-105.575554,6.980896,0.466064,-1.018311,-0.083008,-35.324097,130.249023,28.213499
0.317627,0.971924,-0.095215,-15.777587,-105.720512,2.777099,0.463867,-1.162109,-0.047607,-36.056519,136.116028,29.136656
0.238037,0.911377,0.018555,-2.784729,-84.777824,32.989502,0.454346,-1.256836,-0.033447,-37.155151,138.977051,28.213499
0.38208,1.029785,-0.085205,-20.423887,-100.318901,-4.600525,0.437012,-1.297852,-0.033936,-39.169312,138.298035,26.458738
0.23877,0.815674,-0.046875,14.030456,1.38092,27.465818,0.424316,-1.303955,-0.049072,-41.992184,134.468079,25.527952
0.23291,0.773682,-0.044434,10.215758,-5.508422,36.277771,0.408447,-1.282227,-0.077393,-44.55566,127.876274,26.56555
0.226074,0.770752,-0.049316,6.774902,-14.907836,43.891903,0.397705,-1.246338,-0.110107,-45.867916,117.439262,28.770445
0.227295,0.779541,-0.044922,3.40271,-25.459288,48.866268,0.396973,-1.208252,-0.124512,-46.203609,104.87365,32.051086
0.2854,0.859619,0.028809,-11.947631,-74.462891,49.621578,0.404053,-0.650146,-0.178711,-31.417845,94.78759,3.822326
0.248779,0.803467,-0.016846,-2.39563,-45.547482,53.993221,0.116455,-1.057861,-0.014404,-46.188351,49.98016,-23.895262
0.263428,0.820068,0.000244,-5.058288,-54.89349,54.115292,0.342041,-0.844727,-0.181885,-17.082214,51.033016,44.670101
0.272705,0.837158,0.018311,-8.270264,-64.872742,52.61993,0.126709,-0.979248,-0.042725,-54.306026,110.580437,-21.888731
0.262207,0.908936,-0.095459,17.372131,6.500244,17.929077,0.318359,-0.873047,-0.169922,-18.77594,46.623226,41.03088
0.235596,0.790527,-0.032227,0.37384,-36.003113,52.11639,0.317139,-0.87915,-0.171875,-19.676208,43.907162,38.421631
0.287354,1.021973,-0.146729,17.852783,11.093139,7.858276,0.317627,-0.882813,-0.173584,-20.675657,41.931149,35.049438
0.285889,1.062256,-0.197754,-21.347044,-17.066956,-45.051571,0.320801,-0.889648,-0.170898,-21.789549,41.992184,30.883787
0.335205,1.370117,-0.180908,6.507873,13.290404,-20.660398,0.317139,-0.891357,-0.168945,-22.979734,44.448849,26.405333
0.339111,1.462158,-0.181641,-0.267029,7.667541,-27.94647,0.304932,-0.883301,-0.154053,-24.719236,48.355099,21.430967
0.342285,1.480225,-0.183105,-6.92749,0.770569,-33.7677,0.112061,-1.014404,-0.02002,-51.132198,81.642143,-23.139952
0.335205,1.434326,-0.184082,-11.825561,-5.836486,-37.986755,0.26709,-0.852783,-0.144775,-28.114317,54.489132,10.009766
0.332031,1.364746,-0.187256,-15.075683,-10.848998,-40.939327,0.266602,-0.834717,-0.154297,-29.022215,57.022091,4.570007
0.329834,1.295654,-0.184814,-17.379761,-13.84735,-42.884823,0.280762,-0.814697,-0.161621,-30.281065,62.751766,0.305176
0.318115,1.22998,-0.181641,-19.020081,-15.556334,-43.937679,0.310791,-0.795898,-0.161377,-32.432556,75.912476,-1.914978
0.307617,1.168945,-0.183594,-20.179747,-16.540527,-44.509884,0.284912,-0.868408,-0.139648,-26.634214,51.902767,15.777587
0.297119,1.114258,-0.1875,-20.927427,-16.929626,-44.822689,0.287842,-0.758301,-0.122559,-38.848877,112.838737,-3.379822
0.297363,0.884766,0.029053,-15.426635,-83.900444,44.81506,0.248047,-0.762207,-0.112061,-42.617794,126.213066,-6.645202
0.308105,1.13623,-0.171631,15.701293,14.640807,-2.334595,0.225098,-0.758789,-0.109131,-45.906063,134.94873,-10.44464
0.314941,0.907227,0.020996,-18.638611,-93.627922,38.391113,0.206543,-0.76123,-0.115479,-48.59161,142.448425,-12.641906
0.208252,1.088379,0.124756,4.859924,-113.945,64.476013,0.19458,-0.771484,-0.132813,-51.223751,148.246765,-15.060424
0.344482,0.945313,0.003174,-22.972105,-113.731377,23.513792,0.193115,-0.790039,-0.146973,-53.955074,152.610779,-16.891479
0.274902,1.027832,-0.207275,-21.942137,-17.356873,-44.990536,0.196533,-0.822266,-0.152588,-56.266781,154.907227,-17.936707
0.203613,1.080322,0.133789,5.233764,-119.071953,62.309261,0.187744,-0.858398,-0.135742,-57.716366,153.862,-18.409729
0.199951,1.065186,0.143799,5.607605,-123.89373,59.707638,0.169922,-0.9021,-0.104248,-57.739254,147.193909,-19.302368
0.202393,1.047363,0.147461,5.744934,-128.761292,56.297298,0.151123,-0.94458,-0.066406,-56.259151,132.987976,-20.477293
0.203125,1.032227,0.138184,5.340576,-134.719849,52.009579,0.326416,-0.776123,-0.144287,-35.270691,94.261162,-2.914428
0.213623,1.018066,0.118164,4.013062,-141.426086,46.455379,0.373047,-0.837646,-0.141846,-35.827637,155.700684,18.295288
0.233887,1.013428,0.093262,1.831055,-147.796631,39.527893,0.36499,-0.76416,-0.172363,-35.507202,145.591736,15.815734
0.254883,1.006104,0.067139,-1.220703,-152.290344,31.867979,0.350586,-0.724121,-0.173828,-35.179138,133.796692,11.535644
0.281006,1.001953,0.042969,-4.600525,-153.862,24.024961,0.335205,-0.727783,-0.156006,-33.905029,120.445244,5.561828
0.307861,1.000977,0.028809,-7.93457,-152.786255,16.029358,0.229492,-0.833008,-0.118896,-27.915953,37.68158,-19.27948
0.333252,0.926025,0.011475,-21.003721,-103.706352,31.135557,0.306396,-0.756836,-0.123291,-31.387327,90.019218,-4.508972
0.326416,1.000977,0.02417,-11.100768,-150.20752,8.575439,0.296875,-0.765625,-0.11499,-30.105589,73.097229,-9.254456
0.3396,1.014648,0.006104,-16.082764,-145.065308,-3.791809,0.275391,-0.78833,-0.118896,-28.823851,54.809566,-14.274596
0.34082,1.020996,-0.00415,-18.112183,-143.341064,-7.835388,0.322754,-0.746094,-0.13916,-32.76062,105.644218,0.1297
0.335693,1.029297,-0.018311,-19.973755,-142.372131,-10.093688,0.387207,-0.93457,-0.093506,-36.689758,162.590012,20.39337
0.332275,1.038574,-0.032227,-21.835325,-142.39502,-10.589599,0.373535,-1.061279,-0.125,-29.251097,68.626404,36.148071
0.330566,1.039795,-0.037354,-23.651121,-143.310547,-9.094238,0.400635,-1.151367,-0.008301,-38.352966,163.74968,21.614073
0.336182,1.041016,-0.042725,-24.902342,-143.806458,-6.04248,0.397461,-1.227051,0.000732,-38.963318,158.317566,21.972654
0.357666,1.033203,-0.041992,-25.741575,-141.654968,-2.029419,0.393311,-1.255371,-0.000732,-39.016724,149.711609,22.575377
0.366455,1.015869,-0.035889,-25.993345,-136.665344,2.998352,0.394531,-1.25415,-0.015381,-38.742065,139.656067,23.628233
0.364258,0.994141,-0.023926,-25.604246,-130.073547,8.674622,0.393066,-1.241699,-0.031982,-37.887573,128.738403,24.948118
0.354492,0.970947,-0.007324,-24.589537,-122.63488,15.747069,0.391602,-1.233398,-0.040283,-36.689758,118.415825,25.947569
0.338135,1.006592,0.017334,-13.626098,-147.460938,1.907349,0.392822,-1.220703,-0.04541,-35.232544,108.978264,26.763914
0.270752,1.003174,-0.216309,-22.544859,-17.211914,-44.746395,0.386719,-1.190918,-0.056885,-33.668518,99.395744,27.610777
0.325928,1.252197,-0.182129,11.95526,15.708922,-12.092589,0.375244,-1.150146,-0.077393,-32.00531,89.088432,29.289244
0.258789,0.978027,-0.215332,-23.590086,-15.975951,-43.54858,0.367676,-1.10498,-0.099609,-30.654905,78.384399,32.241821
0.201172,0.87793,-0.202881,-9.475708,-9.475708,30.784605,0.178711,-0.895264,-0.119141,-28.724669,24.894712,-25.085447
0.209717,0.870605,-0.203369,-8.049011,-6.41632,34.446716,0.397705,-1.047119,-0.044922,-37.590027,165.298447,21.27075
0.218994,0.861816,-0.203857,-6.248474,-2.433777,37.475586,0.123535,-0.946533,-0.116455,-30.487059,19.790649,-29.510496
0.219971,0.855957,-0.200928,-4.173279,1.907349,39.993286,0.145508,-0.879883,-0.16333,-43.182369,122.093193,-9.994507
0.217041,0.860596,-0.206787,-1.89209,5.638122,42.106625,0.049805,-1.05957,-0.086426,-34.950256,33.706665,-35.865784
0.20874,0.868896,-0.214844,0.007629,8.19397,43.334957,0.386475,-1.031738,-0.143555,-27.778624,60.279842,40.64941
0.196289,0.878418,-0.222412,1.266479,8.880615,43.861385,0.224365,-0.895752,-0.106445,-29.197691,51.422115,34.423828
0.177979,0.885498,-0.233154,1.770019,7.56073,43.861385,0.203613,-0.877441,-0.117432,-30.281065,47.927853,30.09033
0.161377,0.893555,-0.238525,1.815796,4.631042,43.083187,0.19873,-0.854004,-0.131592,-31.013487,46.096798,25.733946
0.154297,0.911621,-0.237305,1.373291,0.686645,41.572567,0.201904,-0.833496,-0.141846,-31.723021,46.920773,22.178648
0.152344,0.929443,-0.232178,0.427246,-3.501892,39.543152,0.196289,-0.817139,-0.147949,-32.310486,49.774166,18.241882
0.161621,0.947021,-0.214844,-0.274658,-7.003784,36.613464,0.190918,-0.80957,-0.157959,-32.974243,55.053707,13.168334
0.171875,0.969727,-0.186768,-0.740051,-9.719849,32.691956,0.198486,-0.803223,-0.158203,-34.156799,63.514706,8.041382
0.180664,0.994141,-0.161621,-0.534058,-11.71112,28.823851,0.216309,-0.797852,-0.156006,-35.65979,75.172424,3.639221
0.185791,1.019531,-0.14209,0.205994,-12.992858,25.169371,0.216309,-0.799316,-0.159668,-37.29248,87.493889,-0.320435
0.179199,1.04541,-0.131348,0.862122,-14.366149,21.980284,0.080566,-1.007324,-0.103271,-32.363892,23.28491,-33.088684
0.156494,1.071045,-0.119873,0.610352,-18.424988,19.218445,0.206543,-0.80542,-0.162842,-38.742065,98.930351,-3.578186
0.133301,1.086914,-0.107666,-0.534058,-25.924681,16.769409,0.173096,-0.844238,-0.164795,-41.999813,117.248528,-7.575988
0.124023,1.099365,-0.113525,-2.120972,-34.225464,15.075683,0.124023,-0.919922,-0.149658,-43.693539,123.558037,-13.97705
0.12915,1.086182,-0.110107,-4.02832,-41.900631,13.603209,0.106689,-0.956299,-0.13501,-44.700619,122.871391,-18.112183
0.133057,1.05835,-0.105957,-6.179809,-50.430294,12.153625,0.107422,-1.00293,-0.12915,-45.867916,120.582573,-21.949766
0.132813,1.027344,-0.113525,-8.750916,-60.630795,10.44464,0.108887,-1.051025,-0.112305,-46.371456,116.935722,-25.108335
0.14624,0.990234,-0.132568,-11.489867,-71.624756,7.911682,0.087158,-1.085205,-0.09375,-45.730587,110.946648,-27.709959
0.199707,0.887207,-0.192139,-10.711669,-11.634826,26.412962,0.066162,-1.105469,-0.087158,-45.265194,101.348869,-30.281065
0.205811,0.898926,-0.181885,-12.321471,-13.694762,21.484373,0.04541,-1.120117,-0.079102,-44.265743,86.265556,-32.783508
0.26416,0.987061,-0.217529,-23.056028,-16.731262,-44.448849,0.034668,-1.118896,-0.07373,-41.687008,67.329407,-35.171509
0.225342,0.921875,-0.179443,-16.792297,-20.919798,11.413573,0.031738,-1.098389,-0.077148,-38.345337,48.866268,-36.491394
0.218506,0.911133,-0.17749,-14.389037,-16.723633,16.441345,0.197266,-0.820801,-0.164795,-40.252682,109.130852,-5.973815
0.258301,0.951904,-0.20874,-22.964476,-12.641906,-41.069027,0.243408,-0.91333,-0.105469,-28.060911,54.908749,38.002014
0.250732,0.945557,-0.207275,-22.499083,-11.253356,-39.825439,0.401123,-1.018555,-0.154053,-26.222227,53.733822,45.684811
0.245117,0.94458,-0.205566,-22.178648,-10.673522,-38.032532,0.420654,-0.998291,-0.163574,-24.04785,45.303341,55.297848
0.248047,0.946289,-0.203125,-21.873472,-9.613037,-36.262512,0.230957,-0.804443,-0.08374,17.684937,-65.757751,-22.666929
0.235596,0.946045,-0.202637,-21.743773,-9.246826,-34.141541,0.237549,-0.805908,-0.094238,19.676208,-75.187683,-24.154661
0.224854,0.945313,-0.197998,-21.690367,-10.002136,-31.867979,0.24585,-0.819092,-0.099854,22.300718,-80.871574,-23.391722
0.215088,0.939697,-0.191895,-21.598814,-11.238097,-29.319761,0.255859,-0.826416,-0.088135,24.353025,-81.93206,-22.041319
0.206299,0.933838,-0.185547,-21.553038,-12.84027,-26.710508,0.276123,-0.825684,-0.076172,24.848936,-78.514099,-20.950315
0.205322,0.924316,-0.184814,-21.278379,-14.038085,-24.276731,0.293701,-0.825928,-0.067139,23.468016,-69.93866,-20.294188
0.203369,0.917969,-0.18457,-20.835875,-14.85443,-21.934507,0.305664,-0.819092,-0.050537,20.507811,-57.243343,-20.103453
0.256836,0.963379,-0.213623,-23.567198,-14.694213,-42.274471,0.314453,-0.805908,-0.030029,15.907287,-43.067928,-19.91272
0.194336,0.916016,-0.188965,-20.469664,-16.365051,-19.714355,0.317139,-0.801514,-0.011475,10.32257,-28.45001,-19.615173
0.227295,0.947754,-0.186768,-21.408079,-29.769896,2.540588,0.312012,-0.813232,0.020264,-0.396728,-4.135132,-20.210264
0.214355,0.955078,-0.202881,-22.773741,-32.814026,-0.87738,0.236572,-0.804443,-0.069092,16.357422,-54.275509,-17.784119
0.197021,0.950684,-0.220703,-23.063658,-34.309387,-3.890991,0.304688,-0.830322,0.028564,-4.814148,3.311157,-21.469114
0.182861,0.943359,-0.227539,-22.750853,-33.699036,-6.782531,0.312988,-0.887451,0.054688,-10.032654,8.872986,-27.626036
0.22876,0.937256,-0.181641,-19.241333,-25.596617,6.67572,0.325928,-0.912109,0.059814,-11.276244,9.376526,-31.944273
0.174805,0.931396,-0.226318,-20.980833,-27.511595,-11.352538,0.344971,-0.936768,0.06543,-11.978148,9.712219,-36.521912
0.179199,0.925781,-0.219971,-20.446775,-23.818968,-13.496398,0.361084,-0.953613,0.067139,-12.46643,9.727478,-42.518612
0.185303,0.921631,-0.208496,-20.217894,-20.706175,-15.518188,0.360352,-0.97168,0.070068,-12.184142,9.269714,-50.056454
0.190186,0.916992,-0.199219,-20.26367,-18.280029,-17.562866,0.360596,-0.980469,0.072754,-11.886596,7.545471,-57.769772
0.175049,0.936035,-0.229004,-21.987913,-31.10504,-9.315491,0.342285,-0.987305,0.065674,-11.222838,4.905701,-64.933777
0.188232,1.137939,-0.068359,-8.522034,-75.271606,47.431942,0.324219,-1.000977,0.0625,-9.376526,-1.052856,-74.478149
0.237061,0.937012,-0.138672,-10.31494,-33.760071,58.502193,0.312256,-0.997314,0.052979,-7.240295,-8.636475,-83.95385
0.215576,0.943115,-0.133545,-8.857727,-33.592224,60.508724,0.410889,-1.01123,-0.159424,-24.780272,48.782345,50.521847
0.193115,0.951416,-0.124023,-7.530212,-36.4151,61.431881,0.30542,-0.858643,0.041016,-7.949829,7.438659,-23.979185
0.17334,0.963623,-0.116943,-6.66809,-41.816708,61.370846,0.250732,-0.807861,-0.065186,15.380858,-42.121883,-10.658263
0.163086,0.989258,-0.109375,-6.240844,-49.255367,60.211178,0.319092,-0.804688,0.003418,4.638672,-14.945983,-19.645691
0.15625,1.025391,-0.105225,-6.469726,-57.373043,58.1665,0.300049,-0.817383,-0.091309,13.168334,-20.774839,9.017944
0.163574,1.063477,-0.101563,-7.17926,-65.330505,55.358883,0.270752,-0.813721,-0.071533,14.259337,-30.487059,-1.426697
0.174805,1.101318,-0.084717,-7.896423,-71.357727,51.658627,0.444092,-0.962646,-0.171875,-23.948668,44.448849,64.13269
0.250977,0.942139,-0.142578,-11.741637,-35.194397,56.060787,0.445068,-0.953125,-0.177734,-24.467466,46.798702,67.947388
0.217041,1.137207,-0.074951,-13.679503,-83.961479,17.158508,0.438477,-0.945801,-0.177979,-24.719236,48.72131,71.525574
0.191162,1.193115,-0.05127,-9.521484,-76.49231,33.744812,0.431885,-0.939453,-0.180176,-24.055479,49.316402,74.264526
0.192871,1.186523,-0.051514,-10.276793,-77.850342,28.915403,0.430176,-0.92627,-0.19043,-23.704527,49.781796,76.385498
0.202148,1.166992,-0.061523,-11.695861,-80.375664,23.53668,0.428467,-0.912354,-0.199707,-23.506163,50.201412,78.613281
0.337891,0.868896,-0.240234,-34.423828,-79.76532,-29.594419,0.42749,-0.901611,-0.204346,-22.613523,49.903866,80.490105
0.23877,1.095459,-0.100098,-16.532898,-87.928764,9.925842,0.425293,-0.891846,-0.208496,-21.438597,49.171444,81.718437
0.264648,1.045654,-0.130371,-19.973755,-90.827934,1.853943,0.422363,-0.878662,-0.208984,-19.874573,47.973629,82.420341
0.288086,0.991943,-0.157715,-23.300169,-91.606133,-6.591796,0.425293,-0.864258,-0.209229,-18.043518,46.775814,82.023613
0.311035,0.943359,-0.184814,-26.786802,-89.897148,-15.220641,0.432373,-0.979736,-0.166748,-23.719786,43.701168,59.974667
0.326416,0.899902,-0.212646,-30.654905,-86.029045,-23.002623,0.423584,-0.834717,-0.209229,-14.411925,45.898434,78.819275
0.276123,0.947754,-0.150146,-12.954711,-38.253784,53.054806,0.426758,-0.845215,-0.212646,-16.372681,46.218868,80.711357
0.196289,1.186279,-0.054443,-9.101868,-76.210022,38.291931,0.335205,-0.817627,-0.142578,10.719298,-6.599426,29.769896
0.28418,0.943848,-0.148438,-13.755797,-43.952938,49.47662,0.342773,-0.808105,-0.162598,7.865905,0.717163,38.9328
0.196289,0.944092,-0.108398,-22.346495,-105.606071,15.731811,0.352295,-0.798828,-0.175293,4.592896,8.789063,47.111507
0.285889,0.924072,-0.138916,-14.778136,-55.02319,41.481014,0.358398,-0.794922,-0.178711,1.319885,17.974854,54.38995
0.147949,0.981934,-0.094238,-2.166748,-29.220579,8.918762,0.324463,-0.820068,-0.118408,12.359618,-13.336181,19.683838
0.146484,0.983398,-0.094238,-3.829956,-38.833618,9.735107,0.383789,-0.807617,-0.186768,-5.508422,35.842896,66.627502
0.145508,0.979248,-0.092285,-5.805969,-48.141476,10.780334,0.4021,-0.814941,-0.190918,-8.68988,41.801449,71.899414
0.147705,0.9729,-0.090332,-7.667541,-56.640621,11.772155,0.416016,-0.825439,-0.197754,-11.619567,45.089718,76.133728
0.152588,0.963623,-0.091064,-9.590149,-64.26239,12.626647,0.369873,-0.798584,-0.178711,-1.991272,27.526854,60.836788
0.151123,0.941406,-0.090332,-11.245727,-71.228027,13.290404,0.219727,-1.006592,-0.022705,-15.090941,-3.982544,-8.682251
0.157959,0.924072,-0.094971,-12.596129,-77.415466,13.679503,0.197998,-0.866699,-0.040771,-7.667541,23.231504,-10.025024
0.163086,0.916504,-0.100586,-14.015197,-83.19854,13.832091,0.199463,-0.867676,-0.042236,-9.101868,21.430967,-7.6828
0.162842,0.918213,-0.10791,-15.777587,-89.279167,13.931273,0.198486,-0.87085,-0.042725,-10.337829,19.683838,-5.401611
0.161865,0.923828,-0.113037,-17.677307,-95.42083,14.068603,0.195557,-0.882813,-0.04126,-11.749267,17.059326,-4.013062
0.279297,0.935547,-0.14502,-14.427184,-50.003048,45.509335,0.193604,-0.902588,-0.042725,-12.901305,13.908385,-2.700805
0.171387,0.930176,-0.114014,-19.439697,-100.624077,14.007567,0.197754,-0.925049,-0.041016,-13.908385,10.864257,-1.831055
0.189209,0.936523,-0.114258,-21.942137,-105.728142,14.648437,0.19873,-0.86499,-0.042969,-6.828308,26.420591,-11.848449
0.341553,0.862305,-0.268555,-38.108826,-70.991516,-34.912109,0.204834,-0.950195,-0.039063,-14.686584,6.980896,-2.670288
0.206299,0.943848,-0.095215,-22.232054,-103.668205,17.448425,0.207031,-0.974365,-0.031006,-15.075683,1.480102,-5.065917
0.219482,0.940918,-0.086182,-21.736143,-100.08239,19.569397,0.241699,-1.04248,-0.013916,-14.86206,-7.850646,-13.374328
0.230469,0.933594,-0.081787,-20.858763,-95.275871,22.125242,0.254639,-1.01123,-0.014648,-13.526916,9.82666,-46.287533
0.24707,0.918457,-0.085938,-19.607544,-89.340202,24.841307,0.286377,-1.093262,-0.009766,-13.282775,-10.330199,-25.238035
0.261963,0.901855,-0.09375,-18.051147,-82.717888,27.526854,0.293945,-1.083496,-0.011475,-12.947082,-7.583618,-31.692503
0.271484,0.899414,-0.109131,-16.738892,-75.683594,30.708311,0.285889,-1.056396,-0.010742,-13.046264,-0.686645,-38.749695
0.283447,0.907959,-0.123535,-15.838622,-68.145752,34.408569,0.234131,-0.961426,-0.019775,-14.86206,23.468016,-53.604122
0.291992,0.914307,-0.133789,-15.029906,-60.821529,37.92572,0.234863,-0.923584,-0.016357,-16.731262,38.284302,-60.737606
0.181641,0.933105,-0.116455,-20.935057,-103.98864,14.10675,0.226074,-0.894043,-0.016113,-18.356323,51.589962,-65.757751
0.336426,0.869385,-0.287109,-42.083736,-60.829159,-38.635254,0.234619,-0.874512,-0.016113,-19.66095,63.423153,-67.672729
0.197754,1.169189,-0.059082,-8.81958,-76.332092,42.846676,0.248535,-0.848633,-0.02417,-21.858213,74.142456,-66.688538
0.314941,0.897217,-0.291016,-49.240108,-39.405823,-41.526791,0.234619,-0.824463,-0.043945,-24.185179,84.289543,-64.163208
0.220459,0.907715,-0.001221,-11.398314,-1.228333,15.090941,0.203125,-0.85791,-0.050781,-6.523132,30.143736,-13.687133
0.208252,0.900391,0.00293,-8.583069,-4.150391,18.997192,0.618408,-0.779785,-0.157471,-6.41632,20.057678,16.288757
0.200928,0.900635,0.005859,-6.576538,-8.880615,23.094175,0.208984,-0.848145,-0.059326,-6.210327,33.77533,-15.953063
0.19873,0.911133,0.001953,-5.432128,-14.251708,27.351377,0.195068,-0.820801,-0.060547,-25.825499,92.208855,-61.737057
0.20166,0.926758,0.006836,-4.91333,-19.317627,31.425474,0.224121,-0.814209,-0.061279,-5.401611,42.678829,-20.408628
0.209473,0.939453,0.02417,-4.03595,-23.902891,35.446167,0.623047,-0.769775,-0.15625,-6.088256,28.350828,14.572143
0.216064,0.946533,0.030762,-3.044128,-28.099058,39.756775,0.621582,-0.759033,-0.151855,-6.843566,37.620544,13.000487
0.219482,0.949219,0.030762,-1.960754,-32.310486,44.242855,0.61377,-0.750977,-0.144775,-8.239746,48.301693,10.902404
0.221191,0.950195,0.030518,-0.732422,-36.743164,48.370358,0.60376,-0.74292,-0.151367,-9.223938,60.6842,8.178711
0.223877,0.95166,0.022461,0.228882,-41.267391,52.154537,0.59082,-0.726807,-0.156738,-9.918213,73.310852,6.187438
0.233398,0.921875,-0.007568,-14.701842,-0.671387,10.871886,0.576904,-0.713379,-0.167236,-10.932921,85.159294,5.28717
0.233398,0.954346,0.011719,0.900268,-44.982906,55.549618,0.53833,-0.71875,-0.1604,-11.230468,93.284599,4.638672
0.250977,0.963379,0.012695,2.342224,-48.637386,60.546871,0.508057,-0.731689,-0.139648,-10.498046,94.879143,2.784729
0.246826,0.973633,0.019287,3.341675,-50.926205,62.431332,0.47998,-0.742676,-0.139893,-9.338379,93.063347,1.220703
0.237305,0.987305,0.021729,4.173279,-54.878231,64.079285,0.470459,-0.76001,-0.133057,-8.750916,90.042107,-0.75531
0.230957,1.003418,0.023438,4.66156,-60.333248,65.208435,0.210938,-0.826904,-0.061279,-6.027221,38.017273,-18.432617
0.223145,1.023682,0.035645,4.867554,-67.298889,65.933228,0.461914,-0.778076,-0.125244,-7.93457,86.013786,-3.280639
0.213135,1.039795,0.047363,4.936218,-75.454712,66.436768,0.416992,-0.814697,-0.106445,-7.308959,73.669434,-9.757996
0.204346,1.054443,0.063232,4.920959,-84.411613,66.734314,0.393799,-0.842285,-0.096436,-6.935119,67.207336,-13.320922
0.198975,1.067627,0.082764,4.707336,-93.437187,67.062378,0.381348,-0.85791,-0.080322,-6.179809,62.927242,-15.953063
0.202148,1.082764,0.099609,4.776001,-101.638786,66.993713,0.370605,-0.850586,-0.07251,-5.767822,60.607906,-17.700195
0.208984,1.088867,0.108887,4.882813,-108.245842,66.162109,0.353271,-0.8396,-0.07959,-5.1651,58.563229,-19.454956
0.245117,0.957764,0.009033,1.449585,-47.172543,58.395382,0.329102,-0.833252,-0.08252,-4.173279,55.191036,-21.469114
0.242432,0.93335,-0.020264,-18.135071,-2.235413,6.568908,0.302002,-0.82373,-0.084229,-3.486633,51.254269,-22.674559
0.324463,0.883545,-0.295166,-45.921322,-50.315853,-40.733334,0.283936,-0.814941,-0.078125,-3.65448,48.606869,-23.025511
0.244629,0.954834,-0.062744,-23.506163,-8.392334,-2.27356,0.272705,-0.811523,-0.076904,-4.28772,47.760006,-22.689817
0.242432,0.94458,-0.040039,-21.255491,-5.050659,2.27356,0.248779,-0.809814,-0.068604,-4.966736,46.32568,-21.888731
0.306641,0.914551,-0.277588,-51.689144,-27.511595,-41.290279,0.440918,-0.796875,-0.115967,-7.354736,80.581657,-6.141662
0.308594,0.931641,-0.258545,-52.49786,-14.640807,-40.245052,0.151855,-0.828857,-0.073975,-27.130125,95.451347,-60.676571
0.302979,0.949463,-0.227539,-51.528927,-2.441406,-39.321899,0.265869,-1.074951,-0.01123,-14.305114,-9.941101,-19.035339
0.286377,0.974854,-0.190674,-49.041744,7.133483,-38.375854,0.083496,-0.890381,-0.102539,-26.756285,90.530388,-60.638424
0.266113,1.013428,-0.15918,-45.387264,12.878417,-37.055969,0.415283,-0.935059,-0.2146,-8.995056,36.689758,50.010677
0.239502,1.05835,-0.133789,-42.205807,13.740539,-35.27832,0.415039,-0.928223,-0.203369,-9.277344,39.100647,51.155087
0.197021,1.134521,-0.099121,-38.208008,0.114441,-32.112122,0.411865,-0.922119,-0.197998,-9.45282,41.000362,51.475521
0.196777,1.166504,-0.097168,-37.117004,-10.429381,-30.59387,0.405273,-0.916504,-0.198242,-9.735107,41.976925,51.284786
0.207031,1.188721,-0.10083,-36.849976,-20.042419,-29.106138,0.400391,-0.912842,-0.19873,-9.70459,42.945858,51.010128
0.213867,1.17749,-0.107178,-36.727905,-27.725218,-27.870176,0.394287,-0.905762,-0.202148,-9.82666,44.578548,50.506588
0.213867,1.10083,-0.112793,-40.008545,9.010315,-33.607483,0.393066,-0.898438,-0.200195,-9.895325,46.874996,49.987789
0.238525,1.089111,-0.124023,-35.438538,-35.369873,-26.123045,0.380859,-0.886719,-0.197021,-10.078429,49.316402,49.354549
0.24585,1.07251,-0.123535,-34.492493,-35.270691,-25.016783,0.369873,-0.877197,-0.19043,-10.780334,51.87225,48.706051
0.256104,1.067871,-0.126709,-33.569336,-33.256531,-23.750303,0.361328,-0.874023,-0.18457,-11.802672,54.862972,48.294064
0.243652,0.96167,-0.084717,-25.077818,-11.756896,-6.896972,0.409912,-0.940186,-0.221436,-8.415222,34.606934,48.484798
0.262939,1.049561,-0.119141,-32.249451,-29.899595,-22.636412,0.352783,-0.869873,-0.180664,-13.099669,58.013912,47.737118
0.266846,1.003906,-0.115967,-30.372618,-25.939939,-21.278379,0.330322,-0.854736,-0.172852,-16.197205,63.011166,47.630306
0.262695,0.968506,-0.115967,-28.396605,-22.033689,-19.454956,0.31958,-0.854736,-0.166748,-17.845154,64.666748,48.164364
0.255615,0.957275,-0.117432,-26.93939,-19.012451,-17.211914,0.310059,-0.858887,-0.160645,-19.447327,65.475464,48.622128
0.247559,0.966553,-0.112061,-26.512144,-16.777039,-14.48059,0.295166,-0.868164,-0.155029,-20.721434,64.758301,48.927303
0.243652,0.967773,-0.099121,-26.084898,-14.648437,-10.986327,0.283936,-0.878174,-0.150391,-21.957396,62.728878,48.728939
0.226563,1.132813,-0.119141,-36.308289,-33.004761,-26.985167,0.282715,-0.888428,-0.148682,-23.117064,60.546871,48.332211
0.13208,1.005859,-0.049316,5.119323,-55.427547,27.755735,0.283447,-0.898438,-0.150146,-24.063108,59.059139,47.912594
0.139648,0.998047,-0.048096,8.743286,-36.239624,24.391172,0.281006,-0.908203,-0.137207,-24.734495,58.341976,46.913143
0.151611,0.976318,-0.044678,11.550902,-17.173767,21.606443,0.274902,-0.918457,-0.119873,-25.962828,58.04443,44.616695
0.189453,0.942139,-0.132324,9.45282,30.044554,13.862609,0.260498,-0.922119,-0.108643,-27.06909,57.060238,41.213985
0.174316,0.926514,-0.067871,13.259887,12.756347,17.532349,0.344727,-0.861084,-0.176025,-14.595031,60.890194,47.431942
0.18335,0.922852,-0.083008,11.940001,21.77429,16.189575,0.38501,-0.941406,-0.224365,-8.293152,33.905029,47.012325
0.187744,0.928711,-0.108398,10.467528,26.977537,14.85443,0.109131,-0.855957,-0.087158,-27.45056,94.635002,-60.501095
0.136719,1.004639,-0.054688,1.396179,-72.769165,31.60858,0.314453,-0.950928,-0.229248,-8.834839,38.101196,46.211239
0.163086,0.947021,-0.051025,13.145446,-0.442505,19.180298,0.082031,-0.915283,-0.119385,-26.168821,84.968559,-59.753414
0.153076,0.996094,-0.053711,-2.449036,-86.166374,35.186768,0.092041,-0.942383,-0.130371,-26.222227,78.872681,-57.136532
0.249023,0.851074,-0.047607,-16.204834,-101.234428,46.501156,0.086914,-0.97583,-0.144531,-25.718687,71.769714,-53.024288
0.178223,0.956787,-0.014404,-7.827758,-103.3554,41.580196,0.082764,-1.009766,-0.155029,-24.559019,61.775204,-47.637936
0.187256,0.935059,-0.01123,-9.33075,-109.138481,44.357296,0.08374,-1.047119,-0.157715,-22.888182,48.72131,-41.572567
0.195068,0.916992,-0.006592,-10.772704,-113.586418,46.478268,0.100098,-1.093018,-0.165771,-20.759581,33.51593,-34.294128
0.203613,0.9021,-0.004639,-12.191772,-116.775505,47.966,0.142822,-1.142578,-0.172119,-18.165588,18.455505,-26.237486
0.208252,0.884766,-0.006836,-13.328551,-118.789665,48.919674,0.190186,-1.18335,-0.181152,-14.945983,5.79071,-17.921448
0.213623,0.871826,-0.013184,-14.205932,-119.636528,49.568172,0.239014,-1.210205,-0.197266,-11.718749,-2.006531,-9.208679
0.220703,0.863281,-0.019287,-15.083312,-118.942253,49.690243,0.296387,-1.229248,-0.212402,-9.437561,-4.241943,-0.709534
0.227051,0.864258,-0.02832,-16.036987,-117.034904,49.47662,0.343506,-1.237061,-0.21582,-8.102417,-0.534058,7.637023
0.232178,0.862305,-0.037598,-16.88385,-113.464348,49.079891,0.349609,-0.944092,-0.228271,-8.514404,34.980774,46.035763
0.242188,0.852051,-0.044189,-16.921997,-107.749931,48.156734,0.364014,-1.162354,-0.22583,-5.752563,17.784119,20.202635
0.188721,0.952148,-0.157715,9.216309,32.249451,12.641906,0.35376,-1.130371,-0.236328,-5.363464,25.703428,25.085447
0.169189,0.980713,-0.030029,-5.630493,-95.817558,38.513184,0.346191,-1.119141,-0.238281,-5.111694,32.249451,29.792784
0.178467,0.945068,-0.156006,9.407043,34.843445,11.413573,0.339355,-1.10083,-0.243164,-5.500793,37.338257,33.294678
0.221436,0.983887,-0.237305,-2.479553,3.562927,-12.573241,0.340088,-1.0625,-0.25,-5.989074,40.718075,36.628723
0.197998,0.940186,-0.156982,9.460449,43.060299,8.430481,0.348389,-0.992188,-0.259033,-6.324768,42.816158,40.870663
0.246338,1.213867,-0.118408,6.431579,89.660637,-40.412899,0.350586,-0.938721,-0.265625,-7.514953,44.906612,44.837948
0.239746,0.855713,-0.052979,-15.289306,-95.909111,44.822689,0.346924,-0.932129,-0.262939,-8.918762,47.08099,48.225399
0.227783,1.279785,-0.083496,11.665343,77.651978,-36.888123,0.333252,-0.944336,-0.253418,-9.689331,47.569271,50.10223
0.201172,1.26416,-0.085449,13.328551,68.771362,-34.790039,0.309082,-0.959473,-0.241699,-9.643555,46.058651,50.025936
0.17627,1.22583,-0.107666,14.396667,57.53326,-32.440186,0.29834,-0.962158,-0.230225,-9.223938,42.366024,48.095699
0.168701,1.185059,-0.135498,14.579772,45.257565,-30.2124,0.363525,-1.212402,-0.217041,-6.92749,8.239746,14.73236
0.172363,1.146484,-0.166016,14.09912,33.51593,-28.533934,0.400391,-0.938721,-0.127441,-5.508422,18.630981,73.745728
0.178467,1.108887,-0.195068,12.367248,23.239134,-27.084349,0.406006,-0.93042,-0.148682,-4.699707,14.595031,73.738098
0.183594,1.068115,-0.215332,10.055541,14.518737,-25.444029,0.399658,-0.917725,-0.151855,-4.058838,11.772155,72.731018
0.194336,1.020996,-0.231445,7.621765,7.484436,-24.108885,0.397217,-0.913086,-0.147949,-3.791809,11.108397,71.426392
0.203369,0.985107,-0.24585,5.1651,2.700805,-22.727964,0.429688,-0.909424,-0.155029,-4.478455,10.025024,63.911434
0.215088,0.976807,-0.251953,2.723694,0.137329,-21.057127,0.405273,-0.902832,-0.152344,-3.799438,11.604308,69.267273
0.225342,0.985596,-0.251709,0.320435,-0.221252,-18.814087,0.414551,-0.904541,-0.148926,-3.77655,11.344909,67.481995
0.224365,0.986572,-0.244141,-1.441955,1.197815,-15.975951,0.419434,-0.909424,-0.152832,-4.089355,10.871886,65.643311
0.212891,0.977539,-0.229492,-3.067016,6.027221,-8.934021,0.393066,-0.948242,-0.117432,-7.011413,22.926329,72.761536
0.214355,0.966309,-0.222656,-3.135681,8.872986,-5.828857,0.401611,-0.911621,-0.149658,-3.807068,11.543273,70.297241
0.212158,0.95459,-0.215576,-2.723694,12.191772,-3.15094,0.382324,-0.958008,-0.109375,-8.644104,27.175901,71.144104
0.209961,0.943848,-0.20874,-1.907349,15.563964,-0.63324,0.2854,-0.833252,-0.041992,-23.345945,62.400814,43.373104
0.216553,0.939697,-0.198975,-0.694275,19.577026,1.289368,0.333496,-0.923096,-0.078125,-14.045714,38.68866,61.95068
0.233643,0.942627,-0.1875,0.984192,25.787352,2.670288,0.31958,-0.901611,-0.069824,-16.311646,43.876644,57.79266
0.243164,0.943115,-0.172363,3.479004,33.332825,3.90625,0.305908,-0.883545,-0.058594,-18.447876,49.621578,53.031918
0.237061,0.940674,-0.162109,6.217956,39.703369,5.371093,0.294922,-0.856934,-0.051514,-20.843504,55.595394,48.263546
0.220703,0.941162,-0.158203,8.331299,43.334957,6.935119,0.266113,-0.813965,-0.044189,-25.939939,69.015503,37.574768
0.178711,0.941406,-0.155518,9.628296,39.154053,9.925842,0.246582,-0.799805,-0.040527,-28.282164,75.752258,31.143187
0.241943,1.260742,-0.098389,9.33075,84.33532,-38.742065,0.241699,-0.797363,-0.039551,-31.082151,84.167473,24.070738
0.233887,0.861816,-0.061279,-14.48059,-92.64373,42.984005,0.233887,-0.809326,-0.040527,-33.615112,93.368523,16.586304
0.22876,0.88916,-0.090088,-12.535094,-88.684074,38.360596,0.22168,-0.810303,-0.041992,-35.202026,100.822441,10.101317
0.40625,1.334961,-0.207275,-18.295288,22.811888,-77.148438,0.442139,-0.909912,-0.1521,-4.898071,9.338379,61.981197
0.383789,1.331787,-0.168945,-19.943237,30.120848,-72.189331,0.364014,-0.955078,-0.094727,-10.307311,31.150816,68.763733
0.34082,1.291016,-0.141357,-20.126341,33.874512,-64.819336,0.446289,-0.907959,-0.14917,-5.226135,8.239746,59.997555
0.302246,1.220215,-0.121582,-18.821716,34.584045,-56.190487,0.481201,-0.924805,-0.145508,-2.815246,9.269714,16.052246
0.28125,1.145264,-0.104248,-15.800475,35.110474,-47.569271,0.456787,-0.916748,-0.135498,-5.104064,6.195068,54.649349
0.257813,1.083496,-0.10376,-12.351989,35.491943,-39.176941,0.5354,-1.198975,-0.037354,-0.808716,-65.460205,-23.681639
0.238037,1.02002,-0.110107,-9.391785,34.52301,-31.806944,0.5625,-1.20874,-0.05127,-0.442505,-57.067867,-17.448425
0.216309,0.957031,-0.121826,-7.118225,31.73065,-25.657652,0.588379,-1.192871,-0.065186,0.335693,-45.516964,-12.428283
0.195313,0.912354,-0.142578,-5.592346,26.527403,-20.492552,0.596436,-1.169678,-0.075928,0.640869,-32.318115,-9.132385
0.194824,0.895508,-0.158691,-4.669189,21.736143,-16.456604,0.5896,-1.133545,-0.086914,0.572205,-19.630432,-7.67517
0.408203,1.289795,-0.24292,-14.793395,14.10675,-78.559875,0.563721,-1.087891,-0.101807,0.541687,-9.666443,-6.988525
0.19873,0.901123,-0.170166,-4.600525,17.623901,-13.236999,0.536377,-1.050049,-0.111572,0.770569,-2.449036,-5.508422
0.201172,0.941406,-0.17041,-5.683898,10.391234,-7.728576,0.514648,-1.011719,-0.119873,0.480652,2.952575,-3.448486
0.197266,0.956299,-0.165283,-5.828857,7.583618,-5.241394,0.494385,-0.973145,-0.129395,-0.320435,6.660461,-1.319885
0.192383,0.965332,-0.153564,-5.676269,5.15747,-2.624511,0.473877,-0.941162,-0.144287,-0.907898,7.865905,1.670837
0.190186,0.970215,-0.140869,-5.119323,3.410339,-0.152588,0.457275,-0.910889,-0.144531,-4.997253,6.759643,57.365414
0.188721,0.970459,-0.124023,-4.341125,1.678467,2.082825,0.469971,-0.91626,-0.15625,-1.617432,7.965087,5.798339
0.182373,0.971924,-0.108887,-3.227234,-0.732422,4.119873,0.220703,-0.796631,-0.050049,-37.200928,108.726494,5.073547
0.176758,0.9729,-0.103027,-2.052307,-3.845215,5.676269,0.485107,-0.9375,-0.141846,-4.142761,10.520934,21.255491
0.175537,0.9729,-0.098145,-1.312256,-7.827758,6.767272,0.490479,-0.956543,-0.130615,-5.088806,11.970519,25.901793
0.16748,0.972656,-0.093262,-0.946045,-13.206481,7.537841,0.479492,-0.952637,-0.124268,-5.737304,12.283324,30.364988
0.156982,0.976563,-0.09375,-1.220703,-20.477293,8.285522,0.481201,-0.954346,-0.115479,-6.988525,13.687133,34.698486
0.201904,0.922607,-0.174072,-5.149841,13.877868,-10.391234,0.474609,-0.951416,-0.117432,-7.568359,14.86206,38.391113
0.390869,1.216064,-0.266113,-9.986877,6.378173,-76.133728,0.461426,-0.940674,-0.123047,-7.911682,13.664245,42.045589
0.237793,0.869385,-0.073486,-13.458251,-89.836113,40.618893,0.462158,-0.932129,-0.123535,-8.140564,12.20703,45.715328
0.356201,1.027344,-0.246826,1.266479,-3.334045,-60.646053,0.462891,-0.927734,-0.128906,-7.17926,9.788513,48.96545
0.237061,0.919434,-0.103516,-11.787414,-87.875359,36.048889,0.45459,-0.919678,-0.133057,-5.882263,7.026672,52.024837
0.245117,0.950928,-0.118408,-11.505126,-86.791985,33.790588,0.473145,-0.91333,-0.154297,-2.26593,8.590698,10.894774
0.254639,0.990234,-0.130859,-11.840819,-85.59417,32.180786,0.219238,-0.785156,-0.053467,-39.657593,117.652885,0.999451
0.282715,1.0271,-0.135254,-12.504577,-83.641045,30.563353,0.345947,-0.94043,-0.083008,-12.046813,34.729004,65.551758
0.328613,1.049072,-0.134033,-12.504577,-78.094482,28.053282,0.202393,-0.789307,-0.034668,-44.754025,132.995605,-1.38855
0.344482,1.056885,-0.128906,-12.443542,-71.395874,25.627134,0.468506,-1.17334,-0.036377,-12.786864,60.69183,19.813538
0.370117,1.129395,-0.269043,-4.402161,0.915527,-69.992065,0.44751,-1.228271,-0.01001,-12.825011,66.314697,13.572692
0.345459,1.058594,-0.111816,-12.222289,-60.401913,22.010801,0.439209,-1.232422,-0.00708,-14.297484,70.129395,8.18634
0.33374,1.067627,-0.101074,-12.046813,-55.465694,21.102903,0.430176,-1.204834,-0.013184,-16.990662,71.937561,3.64685
0.320068,1.079102,-0.088623,-11.70349,-50.918575,20.584105,0.415527,-1.168213,-0.031982,-18.882751,69.595337,-0.793457
0.306152,1.080078,-0.075195,-10.917663,-46.82922,20.179747,0.406982,-1.135254,-0.061523,-18.676758,63.194271,-4.058838
0.3479,1.061768,-0.119629,-12.550353,-65.689087,23.574827,0.415527,-1.102295,-0.093262,-17.745972,55.084225,-5.256652
0.255371,1.06543,-0.04834,-7.652282,-40.52734,19.271851,0.42749,-1.065918,-0.126709,-17.578125,47.554012,-4.829407
0.222412,1.052979,-0.041016,-5.767822,-37.322998,18.699646,0.440918,-1.017822,-0.164307,-17.776489,40.817257,-2.5177
0.189697,1.035156,-0.038574,-3.540039,-33.149719,18.089294,0.459961,-0.961182,-0.187744,-17.349243,33.851624,1.930237
0.17334,1.011963,-0.04126,-0.991821,-27.45056,16.63208,0.487549,-1.066406,-0.08374,-12.84027,50.971981,24.497984
0.178711,0.975586,-0.042725,1.548767,-21.499632,13.259887,0.484863,-0.928467,-0.193848,-16.143799,26.535032,7.354736
0.201904,0.920898,-0.053711,3.814697,-17.13562,6.095886,0.53833,-0.949707,-0.175049,-13.793944,15.151977,17.684937
0.237793,0.871094,-0.074951,5.813598,-14.518737,-4.920959,0.55542,-0.96582,-0.156982,-12.535094,12.069701,21.232603
0.27417,0.850098,-0.117432,7.484436,-12.680053,-18.707275,0.567627,-0.978271,-0.140137,-11.291503,10.238647,23.04077
0.309326,0.866455,-0.166992,7.629394,-10.246276,-33.302307,0.578125,-0.978271,-0.120117,-10.292052,9.33075,23.353575
0.340332,0.929199,-0.209473,5.729675,-6.973266,-47.973629,0.577148,-0.956787,-0.112549,-9.635925,8.81958,22.811888
0.284912,1.076172,-0.060547,-9.44519,-43.388363,19.760132,0.578125,-0.925537,-0.115479,-8.94165,8.140564,21.934507
0.216064,1.01123,-0.148682,-3.189087,9.69696,-17.127991,0.580566,-0.893799,-0.125488,-8.148193,7.629394,20.751951
0.239258,0.990967,-0.158447,-4.516602,6.980896,-19.256592,0.58667,-0.858887,-0.136475,-7.484436,7.92694,19.65332
0.232666,0.984619,-0.148193,-7.865905,3.250122,-20.057678,0.593994,-0.825195,-0.145264,-6.820678,9.44519,18.455505
0.225342,1.008789,-0.148682,-10.337829,3.631592,-21.667479,0.2146,-0.782227,-0.050049,-41.923519,126.235954,-1.228333
0.318604,1.192139,-0.144043,-14.503478,10.612487,-37.689209,0.513184,-0.932129,-0.1875,-15.090941,19.973755,12.863158
0.25415,1.099854,-0.141357,-12.886046,10.292052,-26.992796,0.483643,-0.94458,-0.128418,-11.878966,37.315369,25.215147
0.273682,1.140625,-0.143066,-13.626098,12.176513,-30.303953,0.607422,-0.79834,-0.155518,-6.584167,13.252257,17.63916
0.297363,1.16626,-0.143066,-13.96942,12.481688,-34.065247,0.44873,-0.784668,-0.171387,-9.83429,7.591247,17.715454
0.237549,1.04834,-0.142578,-11.383056,7.026672,-24.490355,0.469971,-0.845947,-0.160645,-10.681151,21.965025,22.377012
0.187988,1.024414,-0.137207,-1.831055,9.803772,-13.061522,0.166748,-0.862305,0.005371,-48.522945,131.835938,-4.310608
0.25293,0.962646,-0.280762,-16.059875,17.303467,-25.878904,0.16333,-0.894287,0.010742,-49.09515,124.931328,-6.126403
0.299316,1.009033,-0.15332,3.730774,18.096924,-5.249023,0.159668,-0.933838,0.01001,-49.232479,117.500298,-8.056641
0.381348,1.026611,-0.192627,5.844116,30.6015,-4.997253,0.157959,-0.969727,0.014648,-49.316402,110.496513,-10.520934
0.404785,1.032227,-0.213135,4.966736,42.907711,-5.966186,0.157227,-0.998291,0.030518,-49.285885,102.394096,-12.786864
0.358643,1.032471,-0.216553,2.044678,48.576351,-7.637023,0.125244,-1.022705,0.04126,-48.095699,91.369621,-16.456604
0.327881,1.020508,-0.208252,-0.587463,47.927853,-9.864807,0.059326,-1.026611,0.034912,-46.333309,71.662903,-21.179197
0.31958,1.018799,-0.212646,-2.426147,43.998714,-12.611388,0.022461,-1.040527,0.038574,-43.518063,41.824337,-25.253294
0.30835,1.015625,-0.228271,-4.516602,39.367676,-15.350341,0.029541,-1.061523,0.047607,-39.489746,12.08496,-29.197691
0.300537,1.007813,-0.238525,-6.614685,34.103394,-18.257141,0.037842,-1.072998,0.04834,-35.461426,-14.129638,-32.470703
0.276123,0.995117,-0.254639,-9.69696,27.832029,-20.858763,0.173584,-0.819336,-0.009766,-46.997066,135.658264,-1.846313
0.25708,0.979736,-0.268799,-12.954711,21.797178,-23.384092,0.078613,-1.046143,0.013428,-25.474546,-58.204647,-31.86035
0.333984,1.228516,-0.148926,-14.938354,8.132935,-41.28265,0.118164,-0.998047,-0.016113,-20.935057,-74.508667,-29.151915
0.212646,1.018311,-0.133789,0.091553,10.787963,-7.881164,0.159424,-0.947998,-0.04541,-16.151428,-84.762566,-25.123594
0.361816,1.281006,-0.152832,-14.656066,4.104614,-45.074459,0.209717,-0.89917,-0.069824,-11.665343,-86.494438,-19.187927
0.144043,0.848877,-0.045166,15.808105,-39.375305,27.816771,0.258789,-0.859131,-0.092285,-9.33075,-79.338074,-12.626647
0.41333,1.353516,-0.170654,-13.046264,-18.440247,-49.575802,0.293457,-0.827881,-0.105469,-8.56781,-66.719055,-6.782531
0.24585,0.952393,-0.295654,-19.355774,14.167785,-28.152464,0.326172,-0.801514,-0.11792,-8.735657,-51.391598,-1.625061
0.358398,1.020508,-0.067139,-2.27356,-76.797485,-1.76239,0.349365,-0.777832,-0.134277,-9.216309,-35.690308,3.158569
0.350586,1.011475,-0.060547,-2.815246,-73.127747,2.342224,0.380859,-0.758301,-0.158203,-9.590149,-20.095823,7.781982
0.324707,0.998779,-0.046631,-3.242492,-70.281982,7.316589,0.418457,-0.75708,-0.174316,-9.757996,-5.760192,12.741088
0.297119,0.987793,-0.038574,-3.479004,-68.305969,12.985229,0.047852,-1.071777,0.032471,-30.799864,-37.483215,-33.416748
0.266846,0.973633,-0.027344,-3.494262,-66.955566,18.981934,0.559082,-0.729004,-0.091797,32.981873,-10.940551,19.615173
0.240723,0.956543,-0.016113,-3.257751,-66.368103,24.711607,0.603027,-0.88916,-0.122314,-8.270264,7.026672,31.127928
0.219482,0.935303,-0.008301,-2.220154,-65.879822,29.388426,0.581055,-0.935547,-0.108643,-13.557433,11.383056,30.014036
0.198975,0.910645,-0.003906,-0.541687,-65.193176,32.852173,0.561279,-0.995117,-0.094238,-18.768311,18.699646,29.777525
0.17749,0.878906,-0.004395,2.105713,-63.362118,35.522461,0.492432,-1.133789,0.019775,-39.253235,77.056885,33.508301
0.406494,1.335449,-0.154053,-14.335631,-4.524231,-47.988888,0.530029,-1.066406,-0.070313,-29.319761,37.345886,31.10504
0.19043,0.867676,-0.012695,5.706787,-57.586666,36.422729,0.507813,-1.068115,-0.047607,-34.484863,47.294613,31.845091
0.162354,0.852783,-0.032471,13.21411,-43.04504,31.242369,0.49292,-1.071533,-0.017822,-37.818909,57.853695,32.554626
0.134277,0.841797,-0.071045,17.478943,-39.520264,22.78137,0.489746,-1.096191,0.00293,-39.0625,68.321228,32.943726
0.15332,0.8479,-0.109619,18.188477,-43.04504,15.296935,0.545166,-1.042725,-0.083496,-24.017332,27.709959,30.34973
0.19751,0.868652,-0.152832,16.914368,-47.409054,4.516602,0.62085,-0.869385,-0.112549,-2.845764,6.134033,31.875608
0.243896,0.902588,-0.177734,14.190673,-51.521297,-8.407593,0.556885,-0.799316,-0.139404,17.776489,0.610352,24.54376
0.281494,0.967041,-0.195068,10.2005,-54.367062,-21.408079,0.603271,-0.854248,-0.070801,4.829407,8.041382,30.09796
0.319092,1.0625,-0.205322,5.134582,-54.809566,-32.295227,0.581299,-0.845703,-0.068848,7.362365,8.033752,28.305052
0.355225,1.162354,-0.208252,-0.480652,-51.269527,-40.939327,0.551758,-0.812744,-0.109863,13.389586,2.998352,25.215147
0.379639,1.249268,-0.205811,-5.714416,-43.708797,-47.065731,0.565918,-0.78418,-0.167969,22.567747,-1.12915,24.589537
0.393799,1.320068,-0.19043,-10.0708,-32.745361,-49.842831,0.577148,-0.778809,-0.185791,27.44293,-2.929687,25.695799
0.203125,0.865234,-0.02002,9.857178,-48.988338,33.821106,0.585938,-0.772461,-0.177246,31.394957,-4.524231,26.702879
0.35083,1.020752,-0.071045,-1.502991,-80.299377,-5.050659,0.586914,-0.761719,-0.147461,33.988953,-5.508422,26.489256
0.240234,0.948975,-0.301758,-22.743223,11.161803,-30.311583,0.583008,-0.752197,-0.118896,34.629822,-6.66809,25.062559
0.246094,0.947754,-0.302002,-27.427671,7.110595,-33.409119,0.570557,-0.738281,-0.095215,33.935547,-8.720398,22.773741
0.13208,1.166016,-0.066162,15.586852,15.11383,26.725767,0.498047,-1.16748,0.032959,-38.764954,82.771294,34.713745
0.136719,1.171387,-0.044678,14.945983,4.821777,22.796629,0.616455,-0.860596,-0.089355,1.76239,7.04956,31.578062
0.146729,1.152588,-0.034912,14.511107,-5.981445,18.859863,0.507324,-1.177002,0.031006,-38.284302,85.517876,36.857605
0.158936,1.11499,-0.044434,13.664245,-17.372131,14.419555,0.398926,-0.836426,-0.011475,-17.89856,-68.916321,4.455566
0.180176,1.070557,-0.070068,11.940001,-28.823851,9.399414,0.52002,-1.033691,-0.021973,-37.322998,81.649773,40.771481
0.206055,1.02832,-0.103027,9.109497,-39.047241,3.128052,0.548584,-0.728027,-0.100342,33.348083,-11.543273,16.403198
0.234375,0.986816,-0.134521,5.432128,-46.463009,-4.043579,0.240723,-0.962158,-0.046143,-41.168209,86.959831,-18.920898
0.26416,0.936279,-0.16748,1.693725,-49.575802,-11.756896,0.212402,-0.993164,-0.016357,-41.755672,69.869995,-19.538879
0.302979,0.890869,-0.19873,-1.937866,-46.607967,-19.805908,0.184082,-1.026611,-0.003906,-42.106625,46.241756,-19.462585
0.349609,0.81543,-0.245605,-7.217407,-22.056578,-33.538818,0.15625,-1.050781,0.003662,-40.954586,17.105103,-20.286558
0.358154,0.802979,-0.251465,-8.346558,-4.776001,-37.712097,0.148926,-1.061279,0.01416,-37.80365,-16.616821,-21.545408
0.358398,0.818604,-0.26416,-9.20105,14.030456,-40.77911,0.181641,-1.07373,0.013672,-32.577515,-46.531673,-21.163939
0.356201,0.84668,-0.270264,-9.666443,33.13446,-42.900082,0.217041,-1.080322,-0.000488,-26.893614,-67.741394,-18.890381
0.350586,0.868164,-0.26709,-9.117126,51.353451,-44.143673,0.242432,-1.062012,0.001953,-22.987364,-82.290642,-16.296387
0.338379,0.879883,-0.260254,-7.629394,67.337036,-44.754025,0.276123,-1.025879,0.014648,-20.149229,-91.491692,-14.09912
0.323486,0.900146,-0.244629,-5.393981,79.940796,-45.036312,0.517578,-1.131836,0.011719,-37.963867,85.227959,39.43634
0.308838,0.946289,-0.226318,-3.067016,88.99688,-45.120235,0.3125,-0.986572,0.012207,-16.853333,-94.573967,-10.429381
0.293213,1.013428,-0.196289,-0.793457,94.596855,-44.761654,0.377686,-0.883545,-0.010986,-16.311646,-81.283562,-0.991821
0.272217,1.087402,-0.166748,1.411438,96.29821,-43.708797,0.421631,-0.796631,-0.019531,-19.554138,-53.550716,9.811401
0.256836,1.152344,-0.139404,3.822326,94.100945,-41.999813,0.441895,-0.766846,-0.031738,-21.736143,-36.125183,14.701842
0.240234,0.950439,-0.301758,-25.772093,8.399963,-32.119751,0.456055,-0.749756,-0.043701,-24.848936,-17.837524,18.234253
0.13208,1.133789,-0.085693,16.143799,25.077818,30.731199,0.45874,-0.735107,-0.069336,-27.648924,0.953674,21.385191
0.144043,1.086182,-0.10083,16.357422,34.27124,34.507751,0.469727,-0.730469,-0.097412,-29.495237,19.874573,24.879454
0.334717,0.848877,-0.227783,-5.1651,-36.92627,-27.549742,0.485596,-0.74292,-0.114746,-30.868528,37.834167,28.694151
0.161133,0.983887,-0.126465,15.167235,48.400875,42.007442,0.496582,-0.775879,-0.108154,-32.562256,53.291317,32.844543
0.25,0.945068,-0.29834,-27.70233,6.401062,-34.240723,0.501953,-0.828857,-0.083984,-34.202576,65.582275,37.04071
0.155029,1.037354,-0.113037,16.174316,41.91589,38.375854,0.51123,-0.918457,-0.05542,-36.04126,75.027466,40.107727
0.238037,0.951904,-0.297852,-27.992247,4.249573,-34.378052,0.352295,-0.944336,-0.003662,-15.350341,-90.522758,-6.187438
0.195801,0.953857,-0.290283,-28.839109,-1.63269,-32.585144,0.539063,-0.7229,-0.10791,35.163879,-10.505675,13.587951
0.160645,0.937988,-0.270996,-28.625486,-10.543822,-28.564451,0.560059,-0.831299,-0.083984,10.231017,5.859375,26.519773
0.147217,0.912354,-0.253174,-26.969908,-19.584656,-23.330687,0.524902,-0.711182,-0.083496,38.093567,-3.089905,5.859375
0.143066,0.887207,-0.242432,-24.436949,-26.702879,-17.570496,0.373047,-0.965332,0.077637,14.900207,-61.264034,-57.380672
0.137939,0.836914,-0.195801,-19.142151,-31.188963,-2.182007,0.382568,-0.978027,0.072266,15.441894,-60.249325,-65.101624
0.158691,0.820801,-0.188232,-16.014099,-27.503965,7.499694,0.380859,-0.977783,0.063965,15.037536,-57.495113,-73.059082
0.201172,0.80835,-0.184082,-13.114928,-18.852234,17.379761,0.358887,-0.978516,0.065674,15.480041,-55.007931,-81.733696
0.272217,0.790771,-0.168457,-10.017395,-5.500793,24.932859,0.3479,-0.966064,0.065674,15.708922,-54.145809,-91.407768
0.135498,0.859863,-0.217529,-22.079466,-30.815123,-10.681151,0.330322,-0.953125,0.057129,15.075683,-53.092953,-99.166862
0.181152,0.887207,-0.145508,11.802672,57.350155,47.912594,0.315674,-0.947754,0.060059,14.671325,-53.283688,-105.789177
0.282959,0.788818,-0.1875,-4.142761,20.561216,34.881592,0.292236,-0.941895,0.055664,14.328002,-55.435177,-111.152641
0.260742,0.783936,-0.200439,-2.296448,29.762266,39.909363,0.269287,-0.936035,0.051025,13.793944,-59.68475,-114.685051
0.244629,0.782227,-0.205322,-0.259399,37.139893,44.288631,0.25293,-0.932861,0.051025,13.916015,-65.490723,-116.897575
0.226807,0.791016,-0.205566,1.045227,42.869564,48.019405,0.36084,-0.937744,0.088623,14.289855,-58.174129,-51.11694
0.225342,0.800049,-0.195557,2.731323,48.683163,50.60577,0.239258,-0.928955,0.04541,13.557433,-72.441101,-117.462151
0.218506,0.808838,-0.186279,4.699707,54.26025,51.788326,0.244385,-0.929688,0.031738,12.512206,-84.182732,-113.861076
0.209717,0.820801,-0.167969,6.874084,58.120724,51.544186,0.25415,-0.942871,0.017578,11.871337,-88.226311,-110.03112
