ax,ay,az,gx,gy,gz,ax,ay,az,gx,gy,gz
-0.601563,1.005371,0.47583,-117.362968,71.685791,-28.984068,-0.402588,-0.953125,0.064697,-39.0625,-77.651978,-21.209715
-0.633789,0.870117,0.4646,-114.906303,105.476372,-7.194519,-0.363281,-0.909912,0.060547,-40.969845,-76.072693,-20.462034
-0.708008,0.747803,0.498047,-104.73632,135.536194,10.803222,-0.355957,-0.873291,0.048096,-41.839596,-77.529907,-20.797728
1.217041,1.032959,-0.329346,19.302368,39.573669,249.992355,-0.364502,-0.841553,0.062012,-41.000362,-76.705933,-21.568296
-0.153076,2.032227,0.657227,-125.709526,-84.999077,-210.472092,-0.367432,-0.812256,0.087158,-38.513184,-72.753906,-22.033689
0.439697,2.159912,0.130859,-191.108688,164.955124,-27.32086,-0.360352,-0.789063,0.110596,-35.240173,-66.734314,-22.384642
0.030273,2.510254,0.508545,-131.866455,-73.226929,-218.841537,-0.347168,-0.77832,0.12915,-32.623291,-60.821529,-22.91107
0.465576,1.748047,0.069092,-137.10022,195.144638,-21.77429,-0.346436,-0.788818,0.115967,-32.25708,-55.755611,-23.04077
0.47876,1.979736,0.116699,-167.915329,182.273849,-23.651121,-0.524902,-1.073242,0.094482,-36.270142,-102.249138,-27.519224
1.445313,0.290039,-0.693115,-22.819517,87.623589,212.226852,-0.352539,-0.808105,0.10376,-33.805847,-50.97961,-22.789
1.524902,0.130127,-0.737549,-36.92627,106.277458,175.643906,-0.360107,-0.831055,0.09082,-35.339355,-42.083736,-22.560118
1.647217,-0.054688,-0.71167,-31.074522,115.859978,133.247375,-0.363525,-0.84375,0.088867,-34.858704,-37.696838,-22.40753
1.730225,-0.244385,-0.702393,-21.133421,130.249023,84.33532,-0.362305,-0.852295,0.088623,-33.859253,-33.111572,-22.583006
1.705566,-0.383301,-0.682617,-8.529663,155.11322,35.514832,-0.358398,-0.86499,0.101074,-31.890867,-28.259275,-22.346495
1.709473,-0.374512,-0.788086,5.302429,186.569199,-15.586852,-0.354736,-0.880371,0.105713,-29.350279,-21.713255,-20.240782
1.799316,-0.276611,-0.764648,5.081176,224.052414,-69.244385,-0.347656,-0.889893,0.111572,-26.19171,-14.823913,-16.273499
1.891846,-0.151611,-0.596436,-6.332397,234.359726,-106.780998,-0.342285,-0.898926,0.12793,-23.391722,-8.621216,-11.58142
1.685303,0.019531,-0.305664,-14.533996,244.14061,-122.123711,-0.346191,-0.903564,0.146729,-22.583006,-3.471374,-8.964539
1.471924,0.175293,-0.165283,-6.179809,249.916061,-124.732964,-0.364258,-0.899414,0.131348,-22.720335,0.190735,-8.43811
1.386475,0.453125,-0.530029,-2.929687,64.498901,239.501938,-0.358643,-0.900635,0.107178,-23.048399,5.531311,-7.843017
1.168213,0.402344,-0.141113,36.064148,249.992355,-120.674126,-0.356934,-0.821045,0.097168,-35.133362,-46.257015,-22.789
1.324219,0.293457,-0.125,28.541563,249.992355,-119.224541,-0.514893,-1.125,0.058594,-36.003113,-108.192436,-28.671263
0.381348,1.385742,0.02832,-93.086235,227.973923,-26.412962,-0.337891,-0.907471,0.102295,-22.02606,10.44464,-7.240295
0.332275,1.250977,0.025635,-76.080322,248.451218,-32.043457,-0.485352,-1.224365,-0.005127,-33.798218,-108.360283,-29.663084
0.334961,1.127441,0.003662,-59.768673,249.992355,-41.66412,-0.546143,-0.7146,0.115967,-3.417969,-69.641113,86.967461
0.408203,1.008057,-0.032471,-43.991085,249.732956,-55.816647,-0.532715,-0.717773,0.125244,5.004883,-59.761044,94.123833
0.425781,1.542969,0.034668,-111.694328,209.709152,-22.560118,-0.516602,-0.738525,0.122314,14.320373,-53.87878,98.854057
0.542725,0.794922,-0.177734,-14.98413,249.992355,-92.987053,-0.509766,-0.771729,0.119873,22.369383,-52.261349,101.982109
0.686035,0.665283,-0.188232,2.662658,249.992355,-112.442009,-0.512207,-0.807129,0.124512,29.693602,-54.862972,103.080742
0.936768,0.518799,-0.165039,21.179197,249.992355,-122.184746,-0.518066,-0.843506,0.131348,36.575317,-60.699459,102.958672
0.479004,0.902832,-0.114258,-29.663084,249.923691,-72.70813,-0.494873,-1.177734,0.019531,-35.697937,-110.29052,-29.762266
0.570557,0.399414,1.086182,-249.992355,-114.845268,38.574219,-0.52002,-0.91748,0.116943,46.844479,-79.51355,100.71563
-0.12207,0.447266,0.697754,-235.008224,-147.651672,-17.196655,-0.513428,-0.9646,0.101563,48.316952,-92.590324,95.687859
-0.048096,0.342041,0.651855,-213.462814,-162.582382,-20.332335,-0.497314,-1.015137,0.067139,46.714779,-108.009331,87.455742
-0.056152,0.344482,0.547363,-216.79686,-171.455368,-20.652769,-0.486572,-1.056641,0.03125,42.991634,-125.40435,77.484131
-0.054443,0.400635,0.528076,-237.533554,-175.666794,-17.00592,-0.521729,-0.877197,0.125244,42.556759,-68.962097,102.821342
0.019775,0.458984,0.550293,-249.786362,-175.476059,-12.031554,-0.55542,-1.139893,-0.019775,31.09741,-156.837463,55.747982
0.143799,0.487549,0.611328,-249.992355,-169.013962,-5.020141,-0.607666,-1.182861,-0.029541,22.521971,-166.923508,42.556759
-0.248779,0.668213,0.63501,-249.992355,-130.989075,-19.378662,-0.65625,-1.221924,-0.031738,13.481139,-171.730026,28.114317
0.294189,0.47998,0.720947,-249.992355,-155.62439,5.470275,-0.682373,-1.261963,-0.02002,5.798339,-170.593246,14.762877
0.446777,0.445557,0.888916,-249.992355,-136.543274,21.751402,-0.717041,-1.326172,-0.010254,-2.433777,-162.330612,4.051208
0.669922,0.36084,1.293457,-249.992355,-92.803947,52.680965,-0.792236,-1.40332,0.004883,-11.96289,-145.469666,-4.15802
0.951416,0.421143,2.811279,-249.992355,-30.960081,84.58709,-0.854492,-1.421875,0.030518,-20.057678,-124.90081,-10.910033
0.817383,0.31665,1.754639,-249.992355,-49.331661,69.404602,-0.808594,-1.383545,0.054443,-24.581907,-108.680717,-17.845154
0.845215,0.344238,2.073242,-249.992355,-33.77533,75.897217,-0.657471,-1.322998,0.054199,-27.351377,-102.027885,-24.055479
0.858398,0.389648,2.432617,-249.992355,-27.06146,81.30645,-0.520264,-1.26416,0.009766,-30.555723,-103.698723,-28.137205
1.135742,0.393555,3.22998,-249.992355,-41.66412,86.540215,-0.509277,-1.099609,0.000977,37.826538,-142.50946,67.047119
1.278809,0.26709,3.698242,-249.992355,-45.127865,90.705864,0.299805,-0.777344,-0.445068,47.767635,-244.102463,-13.47351
1.432861,0.150391,4.022217,-249.992355,-24.879454,94.802849,0.536377,-0.845459,-0.545166,77.079773,-180.603012,-5.012512
1.578613,0.08667,4.223633,-249.992355,14.762877,90.980522,0.655762,-0.796875,-0.480713,107.315056,-88.508598,7.110595
1.459717,0.098145,4.29834,-249.732956,53.047176,96.961967,0.545166,-0.695557,-0.340088,129.173279,-1.998901,25.917051
1.353027,0.05249,4.139893,-249.320969,75.439453,121.177666,-0.032715,-1.380615,-0.292236,104.820244,210.983261,63.896175
-0.362305,0.926025,0.488525,-249.992355,-112.457268,-27.153013,0.137207,-0.63623,-0.158691,145.027161,135.925293,70.823669
0.74292,0.333984,1.50415,-249.992355,-70.304871,62.728878,-0.002686,-0.856934,-0.139893,130.645752,172.134384,79.89502
-0.385986,1.110596,0.294189,-246.482834,-91.63665,-38.848877,-0.053711,-1.161133,-0.190674,112.815849,194.847092,75.904846
1.469238,-0.072754,3.739746,-249.992355,100.151054,132.553101,0.325195,-0.606201,-0.229004,143.852234,77.056885,50.193783
-0.399658,0.963135,0.181396,-176.170334,-44.364925,-61.660763,0.115723,-0.585938,-0.342285,35.545349,-249.984726,-16.021729
1.969482,1.604736,1.446777,249.992355,249.252304,-249.992355,-0.763916,-0.673096,-0.848633,20.820616,249.992355,124.137871
1.127441,1.508545,0.605713,222.312912,249.725327,-246.467575,-0.266846,-0.130371,-0.293701,57.456966,-249.992355,19.14978
0.55835,1.308105,0.221924,167.449936,249.992355,-238.97551,-0.43457,-0.005371,-0.277832,71.922302,-249.389633,40.039063
0.124023,1.060303,0.120605,128.990173,249.481186,-232.467636,-0.549805,0.049316,-0.293945,74.371338,-249.664291,50.491329
-0.121338,0.864258,0.158203,101.97448,230.514511,-222.21373,-0.650146,0.031982,-0.293701,64.453125,-249.992355,50.86517
-0.275146,0.752686,0.101807,75.958252,208.396896,-203.758224,-0.772217,-0.001709,-0.235596,54.191586,-229.438766,51.956173
-0.312744,0.70874,0.016846,49.575802,184.486374,-184.745773,-0.896729,-0.013672,-0.222412,56.938168,-136.505127,65.368652
-0.310059,0.687988,-0.031738,26.824949,161.117538,-168.716415,-0.923828,-0.078369,-0.242188,76.309204,-0.213623,96.321098
-0.310547,0.691406,-0.025146,6.210327,143.318176,-154.647827,-1.074707,-0.251465,-0.159668,89.958183,176.139816,142.166138
-0.256836,0.714111,-0.009766,-16.983032,133.171082,-142.082214,-1.542969,-0.437012,-0.297852,83.099358,245.925888,169.212326
-0.398926,1.122803,0.204834,-214.561447,-66.894531,-50.827023,-1.721191,-0.623047,-0.685547,52.810665,248.992905,137.9776
-0.183838,0.744141,-0.001221,-41.137691,128.623962,-130.912781,-0.021973,-1.442627,-0.339111,105.842583,220.283493,45.845028
-0.319824,0.753906,0.174805,-78.468323,118.774406,-117.706291,-0.060059,-0.340332,-0.323242,40.443417,-249.992355,-3.913879
-0.376221,0.779297,0.202393,-101.127617,103.752129,-115.104668,-0.062256,-1.460693,-0.321289,104.988091,223.411545,30.548094
-0.401611,0.832031,0.188721,-126.533501,87.211601,-109.817497,-0.462158,-1.841797,0.053711,-95.497124,72.349548,-166.748032
-0.426514,0.874268,0.208008,-151.763916,72.753906,-100.982658,0.031982,-1.684814,-0.320068,91.720573,231.307968,11.093139
-0.419434,0.862549,0.213867,-174.45372,58.92181,-88.455193,3.246338,-0.552979,-0.052002,20.935057,107.38372,68.946838
-0.411621,0.771729,0.256348,-186.820969,43.80798,-75.698853,-0.621826,-1.073486,0.067139,-55.458065,102.745049,-176.322922
-0.38916,0.657471,0.302979,-184.616074,26.901243,-68.42041,-0.512451,-1.266846,0.06543,-71.884155,61.553951,-193.85527
-0.373291,0.608643,0.316406,-175.018295,8.407593,-67.657471,-0.417236,-1.413086,0.045654,-90.362541,10.307311,-213.447556
-0.358398,0.645508,0.256348,-165.939316,-10.292052,-70.259094,-0.387695,-1.494385,0.002441,-107.299797,-42.594906,-234.214767
-0.366211,0.764648,0.184814,-162.475571,-27.206419,-69.160461,-0.414795,-1.55957,-0.048096,-120.651237,-86.235039,-248.443588
-0.210205,0.758789,0.067871,-61.050411,125.457756,-122.047417,-0.479248,-1.65918,-0.116211,-132.362366,-112.518303,-249.992355
1.568604,-0.200439,3.489258,-243.232712,135.681152,109.954826,-0.542236,-1.777832,-0.223145,-147.453308,-119.262688,-249.992355
3.129639,1.526123,2.59375,249.992355,212.554916,-249.992355,-0.524414,-1.81665,-0.258789,-159.240723,-114.509575,-247.055038
1.457764,-0.394531,2.719482,-135.452271,143.867493,105.75103,-0.515625,-1.824951,-0.180176,-154.930115,-104.309074,-237.800583
1.160156,-0.143311,0.795654,102.798454,249.992355,69.05365,-0.073975,-1.553955,-0.305664,98.648064,226.150497,21.224974
1.525635,0.126221,0.858643,71.044922,249.992355,78.834534,-0.584229,-1.840332,-0.079834,-141.731262,-80.528252,-225.35704
1.873047,0.310791,0.991455,50.537106,249.992355,96.061699,-0.592773,-1.880127,-0.003174,-114.95208,13.587951,-187.034592
2.160889,0.472656,1.160889,38.009644,249.992355,106.12487,-0.352295,-1.855225,0.087891,-68.740845,127.647392,-143.478394
2.332275,0.639648,1.396729,25.993345,249.984726,101.737968,-0.323975,-1.972168,0.072021,-38.253784,180.580124,-118.370049
2.374756,0.847168,1.583008,13.511657,249.992355,89.37072,-0.263428,-2.122314,0.029297,-9.155273,228.485092,-91.285698
2.384033,1.127197,1.585205,5.500793,249.992355,75.546265,-0.160889,-2.215576,-0.043213,16.990662,249.30571,-64.186096
2.385254,1.45166,1.416748,5.485534,249.443039,58.67004,-0.064209,-2.220459,-0.146484,39.237976,249.923691,-40.954586
2.359375,1.780273,1.251709,4.684448,249.992355,48.377987,0.049561,-2.151123,-0.241943,56.983944,249.992355,-26.130674
2.278809,2.065674,1.131348,-1.014709,249.992355,49.484249,0.152344,-2.006104,-0.33667,68.748474,249.992355,-19.592285
0.87793,-0.477295,0.793945,134.864807,249.992355,76.98822,0.268311,-1.877686,-0.389648,77.270508,247.093185,-16.067505
2.097168,2.215088,1.047607,-7.873535,227.851852,43.907162,0.241455,-1.786621,-0.368896,84.884636,239.006027,-4.53186
1.768799,2.255859,0.786377,-7.965087,113.197319,-18.859863,-0.635498,-1.874268,-0.036133,-128.837585,-40.184017,-206.32933
1.806885,2.323242,0.646729,9.399414,77.23999,-41.221615,0.850586,-0.664063,0.075195,38.398743,-242.965683,-1.838684
1.757568,2.414307,0.533936,26.420591,69.824219,-50.567623,0.322754,-0.885742,-0.581787,14.587401,-249.992355,-32.318115
1.5271,2.478516,0.493164,34.477234,77.125549,-50.712582,0.137695,-1.023926,-0.86377,-6.187438,-249.992355,-81.130974
1.182129,2.463135,0.476318,25.955198,83.70208,-54.901119,-0.337158,-0.715576,0.471924,-10.635375,106.300346,85.472099
0.772217,2.340576,0.45874,9.895325,85.319511,-56.861874,-0.268066,-0.701416,0.546631,-26.351927,82.153313,75.637817
0.578613,2.078857,0.473877,1.770019,77.476501,-51.208492,-0.269043,-0.653076,0.659424,-40.382381,59.005733,63.072201
0.43335,1.802002,0.415527,1.579285,72.845459,-36.6745,-0.330078,-0.555664,0.659668,-50.491329,38.94043,48.866268
0.25708,1.636475,0.30835,-6.454467,81.726067,-17.066956,-0.40332,-0.461914,0.565674,-56.632992,23.826597,38.406372
0.107422,1.495605,0.234863,-19.271851,110.702507,-4.440308,-0.488037,-0.407471,0.474365,-61.653133,16.044617,31.280516
1.894775,2.240967,0.916504,-14.244079,168.350204,13.702392,-0.546387,-0.373047,0.391846,-65.605164,11.810302,21.987913
0.7146,-0.778809,0.777344,156.204224,249.992355,99.304192,-0.489014,-0.368164,0.337402,-71.121216,9.864807,5.477905
1.557617,-0.357178,3.227051,-181.091293,146.41571,92.239372,-0.369629,-0.398926,0.303711,-78.201294,7.461547,-17.669678
0.608643,-0.914063,0.648438,155.158997,249.992355,151.260376,-0.288818,-0.47876,0.198242,-89.851372,-9.69696,-35.690308
1.08667,-0.374512,2.438477,-115.83709,152.076721,126.380913,-0.445068,-0.73584,0.463135,4.989624,127.822868,96.221916
0.739258,-0.39624,2.096436,-114.06707,154.090881,128.883362,-0.378906,-0.489014,0.207275,-87.814323,-28.648375,-31.181334
0.54248,-0.364746,1.505127,-130.363464,146.591187,132.606506,-0.580566,-0.57959,0.2229,-81.29882,-24.269102,-31.593321
0.387939,-0.393066,1.084961,-150.154114,127.55584,148.31543,-0.506836,-0.596924,0.15918,-80.26886,-5.111694,-35.736084
0.219238,-0.484375,0.956543,-167.52623,99.639885,153.305054,-0.411133,-0.589355,0.063721,-75.881958,9.735107,-41.839596
0.039307,-0.564209,0.805908,-183.403,73.707581,150.093079,-0.348877,-0.612061,-0.006836,-72.463989,19.638062,-46.501156
0.018555,-0.863281,0.508545,-184.555038,42.022701,148.574829,-0.316162,-0.665039,-0.063477,-73.043823,22.972105,-49.774166
0.050537,-1.131592,0.370605,-150.062561,45.471188,154.441833,-0.296631,-0.715576,-0.119873,-74.72229,18.501282,-52.284237
0.068115,-1.424072,0.299072,-89.515678,59.776302,156.967163,-0.265625,-0.751221,-0.191406,-75.958252,6.477355,-53.390499
0.136475,-1.712891,0.381104,0.595093,68.313599,141.151428,-0.204834,-0.785156,-0.218994,-76.148987,-9.765625,-54.351803
-0.030518,-0.674072,0.641602,-193.092331,52.513119,149.986267,-0.170898,-0.815186,-0.200928,-75.515747,-26.847837,-59.738155
-0.020752,-1.592285,0.191895,166.358932,62.911983,163.154587,-0.181396,-0.857666,-0.200928,-71.998596,-40.374752,-71.296692
0.09375,-1.816406,0.351318,101.96685,68.939209,134.963989,-0.521729,-0.522461,0.241211,-83.122246,-35.736084,-29.029844
0.449463,-0.830811,0.453613,139.137268,249.992355,181.594833,-0.598633,-0.783691,0.419189,16.868591,139.358521,106.033318
0.442139,-0.962402,0.263184,140.548706,249.992355,182.060226,-0.28833,-0.443604,0.253906,-85.571281,3.15094,-33.554077
0.529541,-1.170654,0.112061,135.932922,249.80925,179.603561,-0.756348,-1.016846,0.333496,27.328489,129.928589,113.990776
0.63916,-1.313721,0.019287,116.477959,237.678513,178.86351,-0.723633,-0.878906,0.361084,23.368834,139.030457,112.411491
0.507813,-0.842773,0.597168,144.119263,249.992355,170.982346,-0.922119,-1.033447,-0.835449,23.376463,-249.992355,-50.170895
0.502197,-1.094727,-0.12915,72.70813,160.27832,196.960434,-1.116211,-1.250244,-0.821533,62.812801,-249.992355,-81.336967
0.291504,-0.914307,-0.150391,106.933586,107.681267,215.759262,-0.718018,-1.35083,-0.859863,61.56921,-249.992355,-77.003479
0.059326,-1.286865,0.032715,164.207443,68.954468,202.384933,0.106445,-1.35083,-0.843506,61.721798,-249.992355,-47.271725
0.619141,-1.343506,-0.062988,87.486259,205.230698,185.096725,-0.785156,-1.660889,-1.017578,62.866207,-249.977097,-31.166075
0.690674,-0.923828,0.727539,161.529526,249.992355,126.090996,-0.781494,-1.706055,-1.08374,74.081421,-249.992355,27.565001
-0.050537,0.49707,0.168213,-249.992355,-249.992355,153.778076,0.306396,-2.161133,-0.970459,53.604122,-249.832138,67.733765
-0.439209,0.247803,0.24585,-156.608582,-42.686459,85.304253,0.262939,-2.224609,-1.112061,64.155579,-248.54277,79.620361
-0.463135,0.293701,0.255127,-170.730576,-75.897217,98.701469,-0.60498,-2.734619,-1.383301,60.409542,-249.992355,110.328667
-0.470947,0.348633,0.271973,-187.538132,-112.075798,110.893242,-1.018311,-3.029785,-1.378418,35.324097,-249.992355,138.023376
-0.475342,0.419189,0.280762,-203.903183,-152.931213,123.794548,-0.489502,-1.042725,-0.937744,-7.766723,-249.992355,-88.935844
-0.477539,0.496094,0.293945,-220.802292,-202.896103,134.70459,-0.755859,-2.42334,-0.686523,19.737244,-91.476433,147.964478
-0.441895,0.532715,0.311523,-240.211472,-244.873032,140.968323,-0.888428,-2.852295,-1.047852,13.84735,-161.865219,146.842957
-0.327881,0.522217,0.323975,-249.633774,-249.992355,143.203735,-0.729248,-1.226318,0.184082,36.621094,99.220268,112.17498
-0.20752,0.497314,0.297363,-249.992355,-249.992355,143.463135,-0.755859,-1.27002,0.058594,39.955139,74.760437,112.709038
-0.123291,0.486572,0.248291,-249.992355,-249.992355,147.140503,-0.757324,-1.322754,-0.056641,39.0625,46.989437,115.524284
3.064453,0.570557,0.181885,9.971619,-82.908623,249.992355,-0.733398,-1.423828,-0.177979,34.156799,28.106688,119.812004
0.156982,0.637451,0.100586,-249.664291,-249.992355,186.92778,-0.724121,-1.139404,0.276611,31.799314,116.828911,112.18261
0.351563,0.651611,0.051025,-249.992355,-249.992355,200.477585,-0.694336,-1.712158,-0.413086,20.065308,5.775451,125.41198
0.591309,0.639404,-0.013672,-249.992355,-249.992355,217.414841,-0.670166,-1.877197,-0.473633,23.79608,-15.289306,137.962341
0.844971,0.606201,-0.052002,-231.872543,-249.992355,228.752121,-0.690918,-2.083496,-0.51709,27.961729,-47.035213,148.010254
1.092529,0.556152,-0.088867,-199.241623,-249.763474,240.699753,-0.711426,-1.544189,-0.310791,25.291441,17.944336,121.139519
1.347168,0.519531,-0.084473,-157.844543,-249.473557,249.42778,-0.380371,-1.436523,0.089844,233.795151,218.170151,-249.565109
1.655029,0.521484,-0.03125,-109.306328,-249.992355,249.992355,-3.079834,-1.619385,-1.26123,249.992355,105.728142,-248.123154
2.058594,0.543457,0.061279,-68.000793,-243.789658,249.992355,-2.504639,-1.752686,-0.881348,249.992355,-29.71649,-249.992355
2.560303,0.535156,0.174072,-29.029844,-182.77739,249.992355,-2.46582,-1.492676,-0.979736,249.992355,-89.172356,-249.992355
-0.410889,0.207031,0.259277,-146.934509,-10.261535,72.387695,-2.928467,-1.296387,-1.426514,249.992355,-51.963802,-249.992355
0.01709,0.541016,0.099609,-249.992355,-249.992355,160.858139,-3.095947,-1.411865,-1.676514,249.984726,26.69525,-249.992355
-0.380615,0.175049,0.265625,-142.883301,19.371033,59.661861,-2.337402,-1.607422,-1.134766,249.725327,99.517815,-249.992355
-0.113281,0.11377,-0.082031,-71.31958,-189.537033,-137.550354,-3.878906,-1.445557,-1.600342,249.992355,228.630051,-211.63176
-0.230469,0.171875,0.204346,-138.60321,42.427059,20.553587,-1.384277,-1.628662,-0.324219,249.992355,152.763367,-249.992355
0.4729,2.303223,-1.918701,31.906126,249.992355,7.377624,-0.753906,-1.510986,0.047852,249.992355,191.223129,-249.992355
0.141846,2.590088,-1.877686,38.421631,249.992355,-96.656792,-0.093994,-1.434814,0.090088,206.672653,234.069809,-249.992355
0.03125,2.890381,-1.712891,-13.618468,171.073898,-183.380112,1.699463,-1.732178,0.420898,-34.385681,153.938293,-104.209892
0.206543,2.720703,-1.56665,-132.9422,20.988462,-242.317184,0.573486,-1.505127,0.188721,128.196716,236.976608,-230.02623
0.157959,1.868408,-1.080078,-226.676926,-85.243217,-249.992355,0.9729,-1.563477,0.282959,77.392578,221.374496,-190.58226
0.287598,1.197021,-0.733154,-242.423996,-146.591187,-244.087204,1.35791,-1.657715,0.383301,22.338865,193.389877,-147.567749
0.868408,0.850342,-0.647461,-198.303207,-175.682053,-218.18541,1.831055,-1.745605,0.396729,-89.553825,109.977715,-63.880917
1.187988,0.654297,-0.668457,-155.517578,-197.242722,-208.572372,1.797852,-1.763428,0.35083,-139.923096,69.267273,-21.705626
0.737793,0.475098,-0.460449,-127.891533,-214.805588,-200.439438,1.672607,-1.829102,0.274902,-193.283066,42.79327,21.408079
0.262207,0.313721,-0.269531,-107.788078,-218.43718,-189.689621,1.513672,-1.942627,0.173828,-240.814194,36.735535,65.467834
-0.320557,0.163086,0.253174,-141.532898,38.345337,42.701717,1.321533,-2.084961,-0.012207,-249.992355,41.801449,116.546623
0.040527,0.192139,-0.130859,-89.576714,-220.214828,-177.062973,1.060303,-2.173584,-0.157715,-249.992355,56.991573,165.75621
-0.115479,0.106445,-0.056885,-70.236206,-208.656296,-150.634766,-4.14209,-1.460938,-1.588623,249.992355,249.992355,-169.136032
3.510498,0.62207,0.215332,48.72131,45.593258,249.992355,0.212891,-1.470215,0.139893,172.294601,240.783676,-249.992355
-0.105225,0.129639,-0.118408,-74.874878,-163.513168,-124.771111,-3.859375,-1.45166,-1.658691,249.992355,210.426315,-151.45874
-0.11792,0.144287,-0.117188,-84.403984,-132.598877,-106.849663,-0.366211,0.881592,-0.106201,34.339905,2.227783,-25.627134
-0.115479,0.143311,-0.0896,-91.842644,-100.219719,-87.875359,-3.265869,-1.14624,-1.7146,226.898178,123.420708,-105.689995
-0.085449,0.14624,-0.029053,-96.885674,-70.06073,-72.975159,0.877686,-2.122559,-0.116455,-249.992355,71.220398,201.271042
-0.082275,0.165527,0.025879,-103.698723,-39.474487,-58.723446,-0.396973,0.776367,-0.160889,47.546383,18.4021,-26.802061
-0.091064,0.190674,0.056885,-113.876335,-10.757445,-40.771481,-0.42627,0.664795,-0.212646,55.633541,39.18457,-25.665281
-0.103516,0.201172,0.094971,-125.366203,14.801024,-21.362303,-0.441162,0.608398,-0.25293,65.841675,61.866756,-25.085447
-0.152832,0.195313,0.137451,-133.605957,33.660889,-1.586914,-0.447754,0.589844,-0.306152,79.071045,79.437256,-26.679991
-0.072998,0.126221,-0.050781,-76.148987,-218.231186,-163.887009,-0.422363,0.577148,-0.368896,91.941826,88.180534,-29.479979
3.895264,0.645264,0.40918,97.007744,184.745773,249.992355,-0.380615,0.564209,-0.423096,106.620781,88.806145,-32.302856
0.06665,0.593994,0.06665,-249.992355,-249.992355,172.431931,-0.406982,0.535645,-0.459473,125.564568,86.143486,-35.133362
4.098633,0.67334,0.605225,140.991211,248.901352,249.923691,-0.492676,0.478271,-0.497559,146.240234,86.85302,-39.825439
0.350586,-0.387939,-0.070557,155.021667,128.570557,-7.415771,-0.564697,0.401123,-0.522461,163.688644,94.703667,-42.533871
0.339844,-0.458252,0.001709,137.794495,94.642632,5.935668,-0.588135,0.317139,-0.596191,176.185593,96.069328,-40.931698
0.403076,-0.532959,0.056396,130.119324,38.330078,-2.471924,-0.623291,0.205322,-0.696533,186.134323,81.497185,-38.536072
0.464355,-0.534912,0.083984,131.187439,-23.056028,-21.888731,-0.729004,0.063232,-0.724121,192.710861,63.758846,-36.102295
0.549561,-0.521484,0.205811,138.778687,-79.51355,-48.446651,-0.875732,-0.083252,-0.714844,195.312485,55.793758,-33.470154
0.671143,-0.452881,0.32666,129.470825,-122.421257,-103.057854,-0.986572,-0.230469,-0.770508,193.008408,58.242794,-33.042908
0.773193,-0.301758,0.380127,104.74395,-133.781433,-143.90564,-1.043945,-0.377441,-0.860596,185.9207,61.599728,-33.119202
0.974609,-0.228516,0.447754,90.301506,-123.916618,-158.035278,-1.163086,-0.508789,-0.911133,177.268967,57.777401,-30.815123
1.238281,-0.220459,0.533447,90.110771,-102.821342,-165.931686,-1.4104,-0.613525,-0.938232,171.928391,49.484249,-28.488157
1.716553,-0.155762,0.895264,96.282951,-47.515865,-160.797104,-1.727295,-0.730957,-0.993896,170.227036,45.112606,-28.747557
0.384033,-0.394531,-0.062256,176.033005,144.493103,-24.269102,-2.051025,-0.871582,-1.112061,169.403061,50.918575,-29.106138
1.915527,-0.143799,1.169189,107.002251,-18.39447,-147.338867,-2.359375,-0.984375,-1.311523,173.850998,66.482544,-34.088135
2.659424,-0.10498,1.965332,146.652222,97.213737,-113.975517,-2.636475,-1.048584,-1.533203,185.157761,82.725517,-50.239559
3.253906,-0.028076,2.57251,156.997681,193.778976,-92.582695,-2.935791,-1.106934,-1.671387,200.775131,99.166862,-75.416565
3.776855,0.067627,3.013672,180.953964,248.291,-67.993164,-3.58667,-1.272949,-1.740234,248.016342,158.538818,-134.025574
4.14209,0.281738,3.150879,230.476364,248.214706,-77.514648,0.928955,-1.912598,-0.162842,-249.992355,69.015503,230.728134
4.092529,0.592529,2.94458,249.992355,249.992355,-140.411377,-0.766602,-0.918457,0.11377,-39.794922,129.852295,-159.454346
3.553223,0.845703,2.509033,249.984726,249.992355,-226.417526,0.278809,-1.421875,-0.289795,-249.992355,29.243467,249.992355
3.400635,1.084961,2.374023,249.992355,159.187317,-249.992355,-1.515625,-1.367188,0.186768,74.104309,-30.113218,249.992355
3.973145,1.388672,2.725342,249.992355,82.237236,-249.992355,-1.448486,-1.056152,0.176758,48.042294,-27.496336,218.917831
4.119385,1.432373,2.99585,249.336227,125.732414,-249.908432,-1.438965,-0.723145,0.311768,25.314329,-26.023863,185.157761
4.155273,0.687744,0.614258,190.658554,249.992355,249.382004,-1.432617,-0.414551,0.47998,24.497984,-25.756834,155.662537
2.193848,-0.150146,1.51416,129.074097,25.184629,-129.745483,-1.400635,-0.19043,0.653564,30.97534,-19.775391,128.417969
0.413574,-0.467285,-0.031738,188.44603,151.016235,-30.494688,-1.322754,-0.059326,0.755615,31.082151,-11.749267,110.145561
1.47583,-0.202393,0.667236,93.307487,-74.798584,-167.243942,-1.258545,0.021973,0.793457,24.353025,-6.530761,100.234978
0.295654,-0.658691,-0.074463,154.144287,160.369873,4.66156,-1.23584,0.104736,0.814209,17.417908,-2.906799,89.210503
0.370117,-0.595215,-0.04126,182.289108,156.661987,-19.599915,-1.192627,0.178711,0.825684,11.123656,1.945495,68.862915
3.831787,0.582764,0.269043,249.984726,249.992355,249.992355,-1.191162,0.186523,0.809326,-5.958557,8.392334,41.862484
3.143066,0.771484,0.057373,249.992355,249.992355,213.150009,-1.630127,-1.550781,0.158691,74.066162,-14.122008,249.992355
2.673828,0.99707,-0.152588,249.992355,205.635056,189.475998,-1.326416,0.196533,0.798828,-35.919189,19.561768,21.995543
2.516846,1.185547,-0.46875,249.320969,71.281433,172.546371,-1.283203,0.550537,0.963135,5.554199,33.8974,31.425474
2.387695,1.04834,-0.0625,249.992355,-85.357658,160.293579,-1.188721,0.577393,0.835449,32.539368,26.214598,25.421141
1.983398,0.61792,0.584229,249.992355,-213.615402,125.343315,-1.249268,0.510254,0.6875,39.459229,30.929564,-2.220154
1.489746,0.311035,0.455322,215.576157,-249.908432,93.65844,-1.347656,0.386719,0.532715,33.325195,53.588863,-36.04126
1.32373,0.134277,0.194336,173.431381,-249.992355,93.177788,-1.385742,0.224365,0.373047,26.451109,84.274284,-66.413879
1.231445,0.009277,0.102295,150.299072,-249.992355,99.807732,-1.280518,0.005859,0.293213,24.703978,116.409294,-93.666069
0.977539,-0.076172,0.063965,138.389587,-249.80925,90.278618,-1.119385,-0.239746,0.296631,22.079466,140.403748,-114.303581
0.700928,-0.148682,-0.022461,128.890991,-249.473557,69.061279,-1.008545,-0.450684,0.293457,13.183593,149.993896,-126.708977
4.173584,0.635498,0.497803,241.905197,248.847946,249.992355,-0.943604,-0.63501,0.237061,-2.571106,151.977539,-133.552551
0.236084,-0.626221,-0.084229,132.095337,158.866882,24.391172,-0.889648,-0.790039,0.173584,-22.018431,145.28656,-143.493652
0.34375,-0.235107,-0.150146,100.83007,-245.414719,43.029781,-1.400146,0.374512,0.89917,-35.03418,32.38678,21.476744
0.247803,-0.246582,-0.182617,82.420341,-197.914108,34.584045,-1.754883,-1.713135,0.02124,44.662472,5.531311,249.420151
0.277344,-0.275391,-0.219727,68.077087,-144.744873,30.204771,0.748779,-1.66333,-0.198486,-249.992355,52.055355,248.741135
0.375488,-0.357178,-0.268799,58.944698,-88.020317,30.380247,-2.217773,-2.190918,-0.472412,5.882263,-18.577576,249.992355
0.494385,-0.429199,-0.262695,58.448788,-29.129026,30.143736,0.012451,-1.191162,-0.597656,-249.992355,6.988525,249.992355
0.568604,-0.474854,-0.19873,64.193726,27.786253,23.818968,-0.124512,-1.044922,-0.720459,-249.992355,-9.468079,249.992355
0.524902,-0.552002,-0.119141,78.308105,77.217102,17.745972,-0.312256,-1.002441,-0.700684,-249.992355,-6.744384,249.992355
0.375732,-0.645996,-0.072754,101.181023,117.156975,20.751951,-0.60498,-1.059082,-0.672852,-249.664291,18.371582,249.992355
0.290039,-0.60498,-0.073975,117.584221,144.439697,26.504515,-0.975342,-1.166748,-0.753906,-249.992355,57.937618,249.992355
0.510254,-0.206787,-0.104004,117.874138,-249.992355,53.153988,-1.367188,-1.268311,-0.926758,-249.992355,101.097099,249.992355
-0.137695,0.504883,0.400879,-245.658859,-249.992355,-74.752808,-2.015381,-1.969727,-0.239746,12.397765,6.553649,249.977097
-0.194824,0.529785,0.291992,-217.628464,-249.992355,-77.331543,-1.912598,-1.508545,-1.310059,-203.353867,159.790039,249.992355
-0.200684,0.558594,0.286621,-175.392136,-249.992355,-71.105957,-2.067139,-1.650391,-1.422852,-172.012314,164.413437,249.992355
-0.170654,0.583984,0.297852,-149.139404,-249.992355,-64.369202,-2.171875,-1.831787,-1.400635,-140.541077,161.148056,249.992355
-0.484375,0.722656,0.418701,10.742187,-249.992355,-45.356747,-2.233887,-2.057373,-1.335449,-106.155388,153.526306,249.992355
-0.24707,0.69873,0.377441,-87.631218,-249.992355,-39.718628,-1.687744,-1.38208,-1.120361,-233.489975,137.901306,249.992355
-0.277832,0.73877,0.393555,-61.836239,-249.992355,-42.480465,-2.317383,-2.668213,-1.355469,-53.962704,89.340202,249.992355
-0.39502,0.755859,0.383545,-30.151365,-249.992355,-41.183468,-2.414307,-2.883301,-1.35083,-45.333858,48.393246,249.992355
-0.026123,0.429688,0.366211,-249.992355,-249.992355,-67.527771,-2.441406,-2.955322,-1.276855,-40.573116,18.608093,249.992355
-0.188477,0.637451,0.328857,-118.339531,-249.992355,-47.882076,-2.481934,-3.012451,-1.116943,-31.532286,0.907898,249.992355
0.131836,0.281494,0.323242,-249.992355,-249.984726,-72.08252,-2.525146,-3.135742,-0.986328,-22.689817,-11.283874,249.992355
0.985352,-0.137939,0.653809,-249.992355,-219.169601,-180.335983,-2.439453,-3.151367,-0.872559,-12.359618,-30.822752,249.992355
0.591309,-0.022461,0.364258,-249.992355,-249.992355,-117.233269,-2.292236,-3.016602,-0.813477,-5.081176,-65.77301,249.992355
0.765381,-0.113037,0.36499,-249.992355,-249.244675,-144.721985,-2.217041,-2.744141,-0.762695,0.526428,-96.984856,249.992355
0.945557,-0.164795,0.407715,-249.992355,-249.992355,-155.303955,-2.239502,-2.476318,-0.6875,7.118225,-93.116753,249.992355
1.041504,-0.183838,0.534912,-249.992355,-249.992355,-163.032516,-2.273193,-2.301758,-0.593994,9.208679,-60.203548,249.992355
0.872803,-0.079346,0.75708,-249.992355,-149.131775,-204.910263,-2.257324,-2.348877,-1.347656,-74.59259,129.333496,249.992355
0.823975,0.000732,0.892334,-249.992355,-98.403923,-220.314011,-0.973633,-1.152344,1.623047,45.783993,-153.060913,-249.847397
0.873535,0.135254,0.9729,-249.992355,-83.793633,-214.866623,-1.302246,-1.100586,2.340332,-8.369446,-92.788689,-249.992355
1.041016,0.336182,1.136719,-249.992355,-107.200615,-193.038925,-1.288574,-1.431885,2.546387,-71.258545,-11.322021,-249.992355
1.366943,0.521484,1.37793,-249.763474,-136.833191,-155.067444,-1.24292,-1.576416,2.768555,-118.904106,28.526304,-249.992355
1.787598,0.54834,1.55249,-249.496445,-130.592346,-102.653496,-1.810547,-1.069092,3.602051,-218.55925,-232.643112,-188.06456
0.33374,0.113525,0.356445,-249.992355,-249.992355,-85.617058,-2.374756,-1.545166,3.789063,-198.791489,-57.250973,-249.992355
-0.51123,0.655029,0.455566,40.328976,-226.921066,-48.599239,-2.468506,-1.411865,3.829346,-211.044296,-136.619568,-249.992355
1.964111,0.271973,1.79126,-249.992355,-84.297173,-53.63464,-2.182373,-1.246338,3.772705,-217.887863,-202.415451,-233.077988
-0.585449,0.552979,0.466553,73.783875,-77.033997,-51.23138,-1.692871,-1.518555,3.399902,-165.893539,5.813598,-249.992355
3.345947,0.851318,-1.466309,37.567139,249.992355,-221.267685,-0.58667,-1.117432,0.85498,69.854736,-176.834091,-249.992355
3.350342,1.085449,-1.902832,48.767086,249.992355,-249.114975,0.519287,-0.260498,-0.371338,43.754574,-171.257004,25.245665
3.261475,1.307373,-2.306396,66.261292,190.750107,-249.992355,-0.029053,-1.149902,0.008545,41.778561,-145.904541,-241.432175
3.095947,1.562744,-2.422363,79.208374,54.931637,-249.992355,0.255371,-0.851807,0.067139,27.770994,-145.462036,-212.417587
2.982422,1.906006,-2.178955,80.764763,-67.024231,-249.992355,0.351318,-0.446533,0.106689,45.425411,-178.428635,-163.887009
2.820557,2.111084,-1.732422,101.173393,-110.862724,-249.992355,0.27124,-0.218994,-0.066162,67.932129,-204.002365,-120.99456
2.916992,2.053467,-1.460693,154.159546,-99.761955,-249.992355,0.166504,-0.178711,-0.181152,75.85144,-208.206161,-93.597404
2.821289,2.202637,-1.275635,146.55304,-113.6856,-249.992355,0.212402,-0.165527,-0.262207,72.372437,-186.210617,-81.481926
1.742432,1.891846,-0.836426,102.516167,-121.528618,-249.992355,0.299561,-0.098145,-0.322021,70.823669,-174.095139,-50.880428
0.660645,1.260498,-0.564941,85.769646,-94.15435,-249.67955,0.324707,-0.114014,-0.270996,67.466736,-169.845566,-18.974304
-0.550049,0.593018,0.464111,58.753963,-155.525208,-49.72839,0.373291,-0.135498,-0.365234,61.119076,-160.942062,-3.837585
0.148682,0.887451,-0.671387,94.955437,-48.171993,-249.977097,0.451416,-0.154053,-0.380859,57.510372,-162.23143,12.603759
-0.172119,0.520752,-0.569824,122.558586,77.598572,-238.655075,-1.397217,-0.871094,3.361572,-206.489548,-228.713974,-151.138306
-0.26001,0.483154,-0.377441,123.962395,139.129639,-194.847092,-0.279785,-1.077148,0.28833,70.777893,-170.036301,-249.992355
-0.333984,0.502441,-0.1875,116.676323,190.925583,-150.543213,-1.108398,-0.67334,3.133057,-188.674911,-198.913559,-127.288811
-0.352295,0.484619,0.025635,109.703056,222.572311,-117.805473,-0.427979,0.19873,0.593506,-85.624687,4.356384,-125.724785
-0.387451,0.467041,0.171631,102.165215,232.772812,-94.66552,-0.624512,-0.431885,2.403076,-164.070114,-113.136284,-119.873039
-0.464844,0.432861,0.230469,103.691093,223.434433,-77.354431,0.59375,-0.321533,-0.367676,27.526854,-186.065659,31.883238
-0.527832,0.436523,0.286133,107.986443,192.85582,-63.957211,-0.085449,0.708984,0.451416,-16.433716,-81.367485,-40.924068
-0.553223,0.465332,0.348145,105.270378,145.301819,-57.487484,-0.066162,0.651123,0.384033,-19.737244,-77.62146,-48.187252
-0.557129,0.501709,0.417969,95.703117,80.856316,-55.419918,-0.084473,0.608643,0.326416,-22.575377,-75.256348,-53.276058
-0.581299,0.5271,0.45874,84.991447,3.082275,-53.459164,-0.106201,0.592285,0.319336,-25.0473,-74.913025,-59.951778
-0.098633,0.648438,-0.693848,112.152092,13.160705,-249.992355,-0.116943,0.603027,0.296387,-28.663633,-72.967529,-68.351746
3.207031,0.679932,-1.101318,33.8974,248.718246,-176.040634,-0.136475,0.571777,0.275635,-35.65979,-68.862915,-77.033997
1.856934,-0.150391,2.163574,-243.713364,-17.547607,-2.563476,-0.182129,0.524414,0.28833,-46.70715,-62.530514,-85.227959
1.298584,-0.294189,2.618408,-163.009628,200.477585,167.953476,-0.23584,0.453613,0.329346,-57.220455,-55.374142,-92.124931
0.966309,0.028809,0.377441,249.420151,249.992355,-141.50238,-0.281006,0.360107,0.381836,-63.705441,-49.583431,-99.815361
1.086426,0.466064,0.556641,249.992355,249.992355,-181.51091,-0.844971,-0.537354,2.804443,-175.224289,-158.52356,-116.226189
0.963867,0.995605,0.28833,235.473618,249.992355,-230.560287,-0.296143,0.296143,0.42749,-69.641113,-42.16766,-108.909599
0.900146,1.126465,0.365234,155.11322,249.992355,-249.992355,-0.36792,0.23291,0.532471,-80.886833,-16.395569,-121.673576
0.942139,1.03833,0.296387,107.192986,249.992355,-249.008163,-0.443359,0.141357,0.635254,-88.264458,23.559568,-130.569458
0.999268,0.828369,-0.088379,125.793449,249.992355,-232.612595,-0.380859,0.073242,0.685303,-90.88134,33.279419,-136.711121
0.820313,0.533203,-1.134033,158.081055,249.992355,-228.454575,-0.312988,0.027344,0.785645,-96.527092,33.203125,-139.518738
0.868896,0.251221,-1.260742,172.210678,249.992355,-238.571152,-0.32959,-0.013916,0.881104,-104.553215,29.556273,-143.310547
1.027344,0.253174,-1.01709,181.495651,249.992355,-248.405441,-0.337891,-0.077148,0.974609,-115.463249,24.307249,-148.788452
1.02832,0.516602,-0.906982,150.001526,249.992355,-249.992355,-0.355713,-0.1521,1.128174,-129.348755,14.335631,-148.994446
0.822021,-0.164795,0.218994,249.526962,249.992355,-113.800041,-0.362549,-0.229736,1.373291,-144.271851,-1.63269,-144.111633
0.915527,0.678223,-0.620361,139.350891,249.992355,-249.992355,-0.388184,-0.268799,1.731201,-153.030396,-30.754087,-136.169434
0.974609,0.855469,-0.747803,128.387451,249.992355,-180.892929,-0.483643,-0.324951,2.065918,-156.75354,-69.862366,-128.181458
1.188477,0.904785,-0.84375,123.13842,249.992355,-143.585205,-0.321289,0.263428,0.483398,-75.576782,-32.043457,-115.928642
1.389404,0.947754,-0.89209,121.696465,249.992355,-99.586479,0.608398,-0.386963,-0.354248,11.383056,-207.962021,37.490845
1.587891,1.020508,-0.895264,103.652946,249.992355,-67.558289,0.595215,-0.496338,-0.391113,-12.001037,-231.498703,40.161129
1.738037,1.103027,-0.750244,79.612732,249.992355,-37.54425,0.637695,-0.59375,-0.4375,-41.130062,-248.222336,36.079407
1.700684,1.206055,-0.7146,63.613888,249.992355,0.282288,-1.947266,-0.633545,-3.779541,-249.992355,-65.376282,-8.171082
1.492432,1.347168,-0.775391,45.753475,249.961838,45.150753,-2.178223,-0.96582,-3.855469,-249.877914,5.615234,15.289306
1.261475,1.537598,-0.951416,27.656553,249.992355,81.733696,-2.318604,-1.234863,-3.961914,-249.252304,99.006645,52.841183
0.997314,1.787109,-1.259766,15.327453,249.992355,96.771233,-2.177979,-0.789063,-3.745361,-249.992355,186.43187,96.031181
0.735107,2.054932,-1.633789,17.547607,248.214706,79.50592,-2.003662,-0.128906,-3.321777,-248.901352,240.943893,127.700798
0.874512,0.798584,-0.626465,132.278442,249.992355,-218.894943,-1.879395,0.195068,-2.788086,-198.90593,249.992355,139.129639
0.627686,-0.27417,0.291992,249.992355,249.992355,-94.879143,-1.723633,0.331055,-2.397705,-151.779175,249.443039,149.185181
1.456787,-0.373779,2.503662,-194.793686,85.365288,76.370239,-1.489502,0.401855,-2.277832,-118.049614,249.992355,159.317017
0.672119,-0.509277,0.510986,249.984726,241.99675,-80.955498,-1.180908,0.45874,-2.08252,-89.797966,249.992355,155.761719
1.449951,-0.10083,2.647217,-152.099609,249.519333,239.570602,-0.912842,0.514893,-1.756348,-63.850399,227.264389,136.726379
1.705078,-0.061768,2.74585,-139.045715,249.992355,249.992355,-1.88208,-0.801514,-3.792236,-249.992355,-104.721062,-20.568846
1.812744,-0.156006,2.916504,-105.834953,249.992355,249.992355,-0.742432,0.553223,-1.428955,-46.592709,170.455917,111.030571
1.687988,-0.253418,2.965088,-52.314754,249.992355,249.992355,-0.527832,0.672607,-0.797607,-20.874022,81.642143,68.138123
1.415771,-0.282715,2.875732,17.303467,249.992355,249.992355,-0.452393,0.692871,-0.60083,-12.565612,53.489681,50.918575
1.101318,-0.20752,2.638672,82.618706,249.992355,249.992355,-0.365479,0.717285,-0.505859,-9.056091,28.785704,32.165527
0.541992,-0.374268,0.425781,249.992355,249.740585,-88.958733,-0.276367,0.727051,-0.370117,-8.705139,9.307861,16.471863
1.216309,0.180664,2.0354,144.241333,249.992355,249.855026,-0.22168,0.738525,-0.255615,-10.81848,-6.774902,6.538391
1.345215,0.310547,1.861816,182.52562,249.992355,249.443039,-0.194092,0.739502,-0.220459,-12.863158,-20.76721,-1.808166
1.102783,0.503174,1.661133,205.505356,249.992355,249.992355,-0.204102,0.721924,-0.205811,-15.777587,-32.402039,-11.58142
0.723389,0.571045,1.229004,197.936996,249.992355,247.29155,-0.243896,0.7146,-0.164307,-19.393921,-36.117554,-18.180847
0.9729,-0.015869,2.304688,114.334099,249.992355,249.992355,-0.299805,0.766113,-0.148193,-16.876221,-29.937742,-19.744873
0.446533,0.145264,0.852539,189.170822,249.93895,153.198242,-0.344727,0.858398,-0.13208,-3.883362,-21.156309,-20.538328
0.411865,-0.092285,0.719971,205.886826,249.595627,108.482353,-0.623047,0.618164,-1.127197,-33.432007,119.544975,87.09716
0.400146,-0.281738,0.638428,234.672531,249.992355,75.836182,-1.817383,-1.229248,-3.726318,-249.992355,-135.551453,-35.057068
0.307373,-0.388428,0.577637,249.618515,249.504074,53.314205,-0.356689,0.912354,-0.098389,15.541076,-10.894774,-22.872923
0.250488,-0.44165,0.501709,249.992355,222.755417,31.127928,-1.546631,-1.34668,-3.489502,-249.992355,-184.173569,-57.197567
0.267334,-0.456543,0.382568,249.992355,198.982224,-3.112793,0.682129,-0.68335,-0.519287,-75.012207,-249.992355,27.740477
0.229492,-0.478516,0.263184,249.992355,188.331589,-32.943726,0.720703,-0.758789,-0.606445,-111.816399,-249.992355,17.662048
0.174072,-0.490967,0.273926,249.992355,188.346848,-38.253784,0.713379,-0.7854,-0.651611,-145.401001,-249.992355,9.681702
0.269531,-0.494141,0.419678,249.992355,197.982773,-38.589478,0.640625,-0.789063,-0.713623,-178.276047,-249.992355,6.17218
0.534424,-0.555664,0.534668,249.992355,222.854599,-59.066769,0.545654,-0.837891,-0.780029,-219.032272,-249.992355,-1.495361
0.505371,0.401367,0.979492,186.141953,249.992355,204.101547,0.47583,-0.95752,-0.775391,-247.978195,-249.992355,-18.325806
-0.125732,0.875977,0.612793,-106.948845,17.723083,-13.374328,-1.6875,-1.39209,-3.637939,-249.992355,-165.679916,-48.606869
-0.155762,0.83667,0.639893,-121.24633,32.104492,-17.669678,0.411377,-1.178711,-0.802979,-249.992355,-249.992355,-59.730526
-0.273682,0.796875,0.625977,-123.077385,49.934383,-18.791199,0.278564,-1.209473,-0.931152,-249.992355,-249.992355,-70.327759
-0.251465,0.760254,0.607666,-123.504631,75.088501,-36.392212,-0.01416,-1.180664,-0.883789,-249.992355,-249.992355,-75.874329
-0.057617,0.746094,0.5,-129.257202,123.039238,-55.503841,-0.248535,-1.106689,-0.789795,-249.992355,-249.977097,-74.60022
-0.17627,0.781738,0.594971,-128.181458,123.199455,-36.949158,0.441406,-1.096924,-0.730469,-249.992355,-249.992355,-40.733334
-0.127686,0.806152,0.560791,-127.990715,132.949829,-38.581848,-0.369629,-1.000977,-1.022705,-249.992355,-249.992355,-58.868404
-0.077637,0.789551,0.532227,-127.700798,131.774902,-45.745846,-0.429688,-1.040527,-1.188232,-249.992355,-249.43541,-57.418819
-0.213623,0.747803,0.61792,-124.435417,102.09655,-39.016724,-0.530273,-1.122559,-1.344727,-249.992355,-242.599472,-59.516903
-0.119141,0.845215,0.500977,-82.473747,6.561279,12.924193,-0.687988,-1.226074,-1.545898,-249.992355,-233.329758,-61.935421
0.48584,0.009766,-0.407959,123.352043,-133.995056,197.113022,-0.872314,-1.306396,-1.780029,-249.992355,-219.9478,-62.644955
-0.170654,0.662598,0.392578,-49.316402,-15.060424,48.873898,-1.050293,-1.314453,-2.067383,-249.992355,-205.314621,-60.211178
-0.240723,0.474609,0.357422,-38.398743,-27.45056,63.293453,-1.213623,-1.299561,-2.397217,-249.992355,-193.710312,-57.418819
-0.245117,0.320801,0.332764,-27.458189,-44.265743,75.241089,-1.289795,-1.290039,-2.694824,-249.992355,-187.950119,-56.060787
-0.234375,0.195801,0.282227,-14.305114,-63.102718,86.441032,-1.3125,-1.298584,-2.976074,-249.992355,-187.362656,-56.831356
-0.220703,0.090332,0.184814,1.312256,-80.192566,98.670952,-1.4021,-1.313477,-3.256836,-249.992355,-188.346848,-58.464046
-0.177002,0.012939,0.075195,20.698545,-94.383232,114.509575,-0.340088,-1.032959,-0.855225,-249.992355,-249.916061,-67.016602
-0.085938,-0.037109,-0.033447,43.189999,-109.100334,131.744385,-0.799316,-0.861816,2.023438,-249.992355,123.847954,-249.641403
0.050049,-0.048828,-0.121582,63.308712,-126.243584,146.80481,-1.013428,-1.127197,1.993408,-249.992355,126.502983,-249.900803
0.179932,-0.037842,-0.184082,81.832878,-138.73291,161.720261,-1.215088,-1.088135,2.524658,-249.992355,110.633842,-249.992355
0.316406,-0.019531,-0.260498,102.760307,-141.38031,177.993759,-1.510254,-0.932861,3.332031,-249.992355,79.345703,-246.963486
-0.053467,0.699951,0.469482,-132.774353,110.626213,-67.588806,-1.33252,-0.540039,2.935791,-246.726974,-28.282164,-105.049126
-0.106201,0.801758,0.429199,-66.459656,-3.166198,32.066345,-1.927246,-0.633057,3.991211,-249.992355,-12.161254,-154.350281
-0.056152,0.670166,0.416504,-139.656067,98.602287,-81.420891,-1.868408,-0.477539,3.817383,-249.992355,-26.779173,-126.998894
1.4104,2.297119,-1.879395,-238.105759,6.248474,-249.992355,-1.626953,-0.431152,3.446777,-249.992355,-26.397703,-115.638725
-0.107666,0.651367,0.332764,-159.843445,78.50647,-110.78643,-1.810303,-0.777344,3.870117,-249.992355,31.265257,-208.496078
0.667969,0.04126,-0.614502,139.23645,-117.34008,219.757065,-0.42334,-0.556152,1.739014,-249.710068,129.806519,-249.992355
1.307129,0.613525,-1.267578,-127.967827,79.711914,-172.637924,0.161377,-0.35376,-0.166504,-18.035889,125.335686,77.583313
1.531006,0.776855,-1.458252,-128.112793,100.814812,-181.159958,0.282227,-0.573486,0.561523,-249.992355,140.464783,-219.367966
1.739746,0.956299,-1.665039,-126.258842,127.769463,-191.253647,0.286377,-0.493408,0.284668,-238.2202,137.741089,-186.622604
1.932617,1.141113,-1.912109,-123.878471,154.60968,-201.492294,0.253662,-0.429443,0.119873,-209.083542,145.324707,-159.40094
2.124756,1.33667,-2.155518,-127.151482,173.904404,-213.356003,0.275635,-0.362793,0.031982,-181.701645,151.290894,-131.103516
2.211914,1.483398,-2.346191,-144.386292,180.435165,-226.814255,0.25293,-0.300537,-0.05957,-156.87561,153.274536,-100.242607
2.166504,1.570313,-2.499756,-169.197067,164.451584,-237.472519,0.239258,-0.259766,-0.141602,-134.20105,154.937744,-71.128845
2.124268,1.69751,-2.648682,-187.797531,125.78582,-243.446335,0.25415,-0.248535,-0.175781,-113.037102,154.373169,-42.343136
2.128662,1.872559,-2.717529,-199.089035,78.636169,-240.585312,0.250244,-0.242676,-0.161865,-90.560905,149.085999,-12.199401
-0.087646,0.662354,0.365723,-149.131775,88.478081,-95.520012,0.217285,-0.259033,-0.156982,-65.490723,141.555786,17.745972
2.218262,2.040771,-2.712891,-205.902084,36.193848,-235.32103,0.19458,-0.299072,-0.162842,-40.466305,133.163452,46.432491
1.919434,2.388428,-2.317627,-213.417038,7.141113,-249.107346,-1.073486,-0.55957,2.509766,-207.450851,-42.41943,-90.911858
0.921875,1.855957,-1.500732,-249.992355,15.86151,-242.111191,-0.004639,-0.560791,1.015869,-249.992355,140.571594,-248.085007
0.890137,1.491943,-1.199219,-249.481186,17.105103,-187.591537,-0.836182,-0.423584,2.29541,-156.700134,-58.204647,-75.408936
0.909668,1.323975,-0.967041,-236.907944,7.873535,-150.123596,-0.327393,0.293213,0.567871,-72.624207,17.463684,-108.329765
0.634277,1.164063,-0.772949,-217.849716,2.609253,-154.11377,-0.556641,-0.188232,1.924072,-116.508476,-34.423828,-68.656921
0.138184,1.012695,-0.680176,-210.380539,11.367797,-167.945847,0.108887,-0.435303,-0.177246,3.631592,121.704094,107.040398
-0.265381,0.854248,-0.442383,-209.640488,37.391663,-161.910995,-0.132568,0.437744,0.212891,-12.4588,-26.69525,16.418457
-0.269531,0.712158,-0.106445,-204.185471,55.717464,-147.666931,-0.120117,0.459229,0.191406,-14.289855,-20.51544,3.486633
-0.150879,0.627441,0.183105,-189.018234,63.156124,-137.718201,-0.098633,0.458252,0.183105,-18.920898,-15.647887,-10.169982
-0.108154,0.628662,0.295898,-172.950729,69.595337,-126.03759,-0.088623,0.467529,0.192627,-23.696898,-14.10675,-24.559019
2.149414,2.189209,-2.596436,-205.230698,15.762328,-240.303024,-0.096924,0.476318,0.208252,-28.70178,-13.656615,-37.986755
1.100586,0.485107,-1.078369,-125.923149,67.03949,-166.976913,-0.109619,0.472412,0.240234,-34.194946,-12.96997,-50.453182
0.85498,0.052246,-0.849609,156.1203,-92.445366,241.935715,-0.12915,0.470703,0.272217,-38.574219,-11.184691,-62.934872
1.263184,0.052246,-1.424316,212.860092,-28.350828,249.68718,-0.142578,0.465576,0.30542,-42.556759,-7.255554,-73.379517
-0.125244,-0.229248,-0.10083,47.439571,-40.06958,-30.258177,-0.158203,0.435791,0.330322,-48.515316,-4.768372,-81.573479
-0.117676,-0.230469,-0.116943,35.064697,-42.045589,-32.272339,-0.636963,-0.257813,2.137451,-127.883904,-53.916927,-67.802429
-0.101318,-0.240967,-0.108887,25.627134,-48.683163,-32.852173,-0.17041,0.415527,0.373779,-54.862972,-2.838135,-91.323845
-0.057861,-0.251221,-0.088623,17.669678,-57.327267,-34.057617,-0.258545,0.392334,0.512939,-61.363216,5.340576,-102.775566
-0.009033,-0.248047,-0.126709,9.864807,-64.994812,-34.156799,-0.294189,0.287109,0.675781,-74.241638,29.273985,-126.319878
0.037842,-0.24585,-0.164551,3.27301,-70.877075,-32.783508,-0.248535,0.307373,0.769775,-75.523376,30.517576,-128.875732
0.072754,-0.245117,-0.175537,-4.005432,-73.348999,-32.928467,-0.265137,0.212891,0.84375,-85.311882,24.80316,-123.924248
0.116455,-0.241211,-0.178223,-10.475158,-74.34082,-33.149719,-0.285889,0.186768,0.937988,-85.296623,24.200438,-135.055542
0.188721,-0.236328,-0.187988,-14.251708,-78.277588,-31.745909,-0.377197,0.19165,1.010986,-88.569633,25.405882,-143.432617
0.359131,-0.200439,-0.215576,-13.22174,-92.926018,-38.269043,-0.277588,0.113281,1.088135,-99.647514,10.833739,-146.934509
-0.116943,-0.216797,-0.129639,58.967587,-44.868465,-22.91107,-0.268066,0.004639,1.237793,-111.740105,-12.130736,-131.416321
0.414307,-0.158203,-0.228271,-13.824462,-94.879143,-43.006893,-0.470947,-0.083252,1.445557,-115.684502,-19.645691,-102.401726
0.579834,-0.068115,-0.279785,-36.743164,-91.75872,-56.091305,-0.545898,-0.134033,1.688477,-115.19622,-21.77429,-77.133179
0.713867,-0.050049,-0.303223,-39.611816,-80.612175,-59.005733,-0.194824,0.427002,0.439209,-57.121273,0.213623,-100.357048
0.959717,-0.041992,-0.3479,-24.719236,-57.327267,-61.355587,0.073242,-0.514648,-0.184326,23.307798,120.429985,134.910583
1.237793,-0.007813,-0.428223,-14.175414,-18.013,-70.022583,-0.143799,0.763428,0.513672,-11.657714,-83.030693,-30.418394
1.474609,0.061279,-0.483643,-6.721496,32.402039,-82.420341,-0.005859,-0.664063,-0.153564,55.053707,123.90136,188.19426
1.670166,0.162842,-0.515381,-2.326965,85.174553,-92.208855,-1.082764,-1.050537,3.128174,249.992355,1.113892,162.60527
1.922607,0.257324,-0.554443,4.837036,136.756897,-101.234428,-1.091064,-0.971191,3.102539,249.992355,0.1297,155.929565
2.329346,0.341309,-0.671143,17.608643,196.273788,-118.286125,-1.069092,-0.897217,3.019043,249.862656,1.968384,149.894714
2.820801,0.499512,-0.855225,29.663084,244.674667,-143.798828,-1.022217,-0.831055,2.925537,249.992355,1.922607,143.65387
1.056152,0.052002,-1.124756,178.779587,-61.264034,249.992355,-0.976807,-0.782959,2.798828,249.992355,2.349854,137.72583
0.482178,-0.108398,-0.249512,-21.14868,-94.215385,-48.728939,-0.888428,-0.710693,2.720215,244.476303,-0.396728,134.208679
-0.111084,-0.173584,-0.227295,70.381165,-50.628658,-4.493713,-0.7771,-0.578857,2.71582,230.773911,-12.306212,133.44574
0.277832,-0.227539,-0.208252,-14.85443,-86.532585,-33.363342,-0.702148,-0.397705,2.702148,217.04863,-31.532286,132.369995
-0.018066,-0.0896,-0.405273,113.075249,-63.392635,51.895138,-0.628418,-0.198242,2.5896,201.42363,-57.800289,129.859924
-0.099121,-0.136475,-0.343262,88.119499,-55.549618,23.582457,-0.537354,0.165283,2.254395,157.806396,-111.099236,122.459404
1.606201,-0.026123,-2.055176,249.992355,30.242918,249.992355,-1.106201,-1.105469,3.01123,249.992355,9.689331,168.128952
1.789551,-0.118652,-2.325439,249.992355,56.579586,237.632736,-0.538818,0.266846,2.037598,136.505127,-124.702446,117.362968
1.955811,-0.210205,-2.532227,249.992355,79.26178,203.132614,-0.550537,0.265869,1.713867,92.758171,-123.847954,99.70092
2.132324,-0.265625,-2.691895,249.992355,92.941277,168.304428,-0.525879,0.3479,1.658691,69.252014,-114.112846,84.991447
2.252197,-0.284668,-2.8125,249.992355,100.051872,138.557434,-0.451904,0.487793,1.567139,53.085323,-100.166313,67.962646
2.257813,-0.25415,-2.854248,249.992355,103.836052,113.662712,-0.328857,0.606689,1.335205,43.724056,-88.99688,49.781796
2.185303,-0.197754,-2.841309,249.992355,107.849113,87.539665,-0.22168,0.668701,1.116211,34.927368,-85.601799,33.676147
2.11377,-0.152832,-2.80957,249.992355,107.780449,56.15234,-0.162354,0.74292,0.934814,26.405333,-87.081902,19.844055
2.049072,-0.160889,-2.793701,249.992355,97.328178,24.497984,-0.192627,0.789551,0.763184,17.311096,-85.891716,8.178711
1.818604,-0.159668,-2.818848,249.992355,74.920654,-2.235413,-0.21167,0.787598,0.661133,5.706787,-82.550041,-3.601074
1.44165,0.033936,-1.741211,244.506821,2.090454,249.992355,-0.187988,0.793701,0.584473,-4.524231,-82.160942,-17.25769
0.921387,-0.239746,-2.29834,249.992355,22.453306,-53.367611,0.032715,-0.589111,-0.17627,40.580746,121.040337,162.147507
1.357178,-0.205566,-2.629395,249.992355,48.812862,-25.985716,-0.560791,0.27124,1.833008,116.538994,-127.868645,111.190788
0.336914,-0.066895,-0.460449,174.400314,-94.03228,80.215454,-1.121826,-1.092041,2.846191,249.992355,21.530149,172.157272
0.525146,-0.095215,-0.554688,201.316818,-120.23925,71.159363,-0.566406,0.001953,2.415039,181.266769,-87.303154,126.892082
0.661865,-0.088379,-0.720215,229.545578,-159.912109,51.948544,-1.063965,-0.97998,2.477539,249.992355,62.011715,189.887985
0.574219,-0.101318,-0.84082,249.992355,-183.601364,27.359007,-0.055908,-0.727051,-0.129395,67.28363,129.226685,212.829575
0.137207,-0.053711,-0.426514,143.257141,-76.385498,73.364258,-1.096191,-1.046143,2.674805,249.992355,38.543701,179.36705
0.377441,-0.157471,-1.223877,249.649033,-140.075684,-23.91815,-0.095947,-0.780273,-0.093994,79.376221,137.161255,237.091049
0.371094,-0.186768,-1.447266,249.977097,-69.664001,-54.557796,-0.118408,-0.825195,-0.032471,94.963066,144.340515,249.565109
0.549316,-0.20459,-1.862061,249.992355,-10.719298,-70.388794,-0.138184,-0.858887,0.039307,113.548271,147.468567,249.992355
0.422852,-0.133301,-1.006348,249.992355,-177.955612,1.678467,-0.157471,-0.86084,0.096436,131.919861,148.002625,249.992355
-0.483398,0.643799,0.292969,-16.693115,-37.902832,70.43457,-0.182373,-0.854248,0.148926,147.247314,147.453308,249.992355
-0.578857,0.239746,-0.048828,-78.765869,165.550217,-87.8601,-0.245117,-0.841797,0.269531,173.240646,145.782471,249.992355
-0.532227,0.249512,0.075684,-61.515804,164.085373,-61.546322,-0.298096,-0.851563,0.337158,187.217697,144.752502,249.992355
-0.501953,0.292969,0.095459,-49.705502,150.733948,-36.636353,-0.364502,-0.847168,0.452393,202.781662,142.26532,249.992355
-0.479736,0.358398,0.119385,-40.054321,133.880615,-15.502929,-0.417236,-0.82666,0.584473,220.214828,140.220642,249.992355
-0.486084,0.423096,0.141113,-30.563353,111.236565,2.868652,-0.210449,-0.84082,0.20874,160.522461,146.54541,249.992355
-0.507568,0.485352,0.178955,-22.872923,82.099907,20.507811,-0.51416,-0.796631,0.813965,249.420151,141.242981,249.992355
-0.625,0.296631,-0.176514,-100.158684,154.632568,-120.506279,-0.98999,-0.887207,2.278809,249.992355,86.791985,201.469406
-0.51416,0.541748,0.223877,-17.89093,46.134945,37.467957,-0.46875,-0.810059,0.692627,238.914474,140.480042,249.992355
-0.499756,0.592773,0.26123,-15.457152,5.455017,54.13055,-0.832764,-0.842285,1.983887,249.992355,123.062126,231.071457
-0.461182,0.67749,0.332275,-18.669128,-83.686821,85.853569,-0.803711,-0.869385,1.866211,249.992355,133.590698,247.79509
-0.279053,1.257324,0.468506,-146.125793,-249.93132,163.581833,-0.797607,-0.876221,1.706543,249.992355,140.380859,249.992355
-0.402588,0.841797,0.405762,-28.320311,-171.859726,112.625114,-0.899658,-0.832764,2.108398,249.992355,107.917778,214.790329
-0.37793,0.988525,0.425293,-54.534908,-214.721664,130.41687,-0.675049,-0.833008,1.268311,249.992355,144.02771,249.916061
-0.349121,1.115723,0.453613,-92.079155,-245.689377,150.642395,-0.612305,-0.79248,1.085938,249.992355,142.913818,249.992355
-0.224854,1.362061,0.487549,-216.842636,-249.694809,168.418869,-0.55249,-0.777832,0.940186,249.992355,141.944885,249.992355
-0.179932,1.314209,0.462646,-249.55748,-249.992355,175.765976,-0.75415,-0.864258,1.47998,249.992355,143.798828,249.847397
-0.088379,1.195068,0.384766,-249.870285,-248.916611,180.175766,-2.970215,-3.695068,0.017334,-72.853088,249.992355,-249.992355
0.010742,1.077637,0.210449,-249.847397,-224.815353,175.895676,-1.951416,-1.820068,-0.043213,-42.694088,-11.413573,-248.336777
0.021973,0.961914,-0.044678,-249.992355,-187.744125,177.963242,-2.23999,-2.012451,0.009277,-32.608032,13.72528,-249.992355
0.062744,0.856201,-0.178467,-245.857224,-148.788452,186.119064,-2.443848,-2.263916,0.023438,-10.459899,52.24609,-249.992355
-0.62793,0.372314,-0.161377,-117.202751,134.841919,-158.248901,-2.166504,-2.730225,-0.147705,-1.647949,77.430725,-249.992355
-0.446045,0.724609,0.368164,-18.928528,-128.890991,99.853508,-1.699219,-3.062988,-0.418213,-22.369383,81.459038,-249.992355
-0.565918,0.458252,-0.071777,-125.244133,111.686699,-204.521164,-2.14917,-2.996094,-0.419922,-36.155701,107.76519,-249.992355
0.211914,0.764404,-0.224365,-225.418076,-118.080132,181.358322,-3.015137,-2.994385,-0.159668,-19.042969,189.140305,-249.992355
0.020508,1.13208,-0.575195,-110.237114,55.206295,-249.992355,-3.28125,-3.256592,-0.174072,-13.22174,246.856674,-249.992355
0.402832,-0.139893,-0.266357,-42.92297,18.974304,-167.968735,-3.181885,-3.645264,-0.234619,-44.082638,249.992355,-249.992355
0.46167,-0.085938,-0.280762,-49.903866,21.408079,-171.653732,-2.752441,-3.487549,0.398926,-71.479797,249.992355,-249.992355
0.563477,-0.059814,-0.360107,-55.427547,33.340454,-172.897324,0.907715,-0.766602,-0.250732,-249.778732,185.134872,-234.802231
0.688965,-0.033447,-0.485352,-58.967587,54.695126,-171.325668,-2.225098,-3.559082,0.125244,-42.213436,249.992355,-249.992355
0.828857,-0.021973,-0.551025,-54.00848,84.44976,-176.879868,-2.662598,-3.995361,-0.374268,-83.274834,249.992355,-249.992355
0.975342,0.012451,-0.616699,-49.209591,120.925896,-195.091232,-2.357178,-3.690674,-0.637939,-192.161545,249.992355,-249.992355
1.093262,0.069336,-0.728516,-55.084225,160.179138,-208.663925,-1.119141,-3.012939,-0.387451,-248.344406,249.992355,-249.992355
1.194092,0.110352,-0.803467,-39.978027,198.52446,-214.134201,0.071289,-2.636963,-0.313477,-249.992355,249.992355,-249.992355
1.349609,0.172119,-0.945068,-28.724669,225.959763,-220.474228,0.745361,-1.960938,-0.584961,-249.992355,249.664291,-249.992355
1.530518,0.277588,-1.102539,-25.466917,237.922653,-229.888901,1.025879,-1.303955,-0.490967,-249.992355,249.656662,-249.587997
-0.405273,0.634277,-0.181641,-123.580925,84.617607,-249.649033,1.005127,-0.921631,-0.228271,-249.992355,249.992355,-249.992355
1.781006,0.394287,-1.279053,-15.640258,236.343369,-243.072495,0.956543,-0.779053,-0.188232,-249.68718,239.242538,-249.992355
2.567871,0.66333,-1.770996,-12.71057,215.644821,-249.992355,-1.629395,-1.603027,-0.031494,-44.906612,-15.731811,-238.014206
2.920898,0.850586,-2.073242,-29.495237,203.338608,-249.992355,-2.235107,-3.468506,0.456299,-55.885311,249.992355,-249.992355
3.126465,1.14502,-2.409912,-61.607357,172.56926,-249.992355,-1.40918,-1.428223,-0.040283,-46.638485,4.707336,-223.701462
3.053223,1.456787,-2.794189,-92.39959,107.452385,-249.992355,-1.075195,-0.280029,0.041748,-44.143673,69.602966,131.149292
2.89917,1.746338,-3.036621,-110.687248,24.581907,-249.992355,-1.306396,-1.084473,0.033936,-29.777525,78.208923,-189.308151
2.765137,2.005371,-2.9729,-96.481316,-21.301268,-249.992355,0.802979,-0.754883,-0.321533,-249.992355,138.870239,-187.881454
2.582764,2.162109,-2.660645,-47.058102,-7.377624,-249.992355,-1.072754,-0.186279,0.118164,-22.888182,46.028133,113.220207
2.512207,2.249512,-2.210938,6.004333,23.086546,-249.992355,-1.056641,-0.129395,0.179443,-8.079529,22.224424,106.819145
1.943115,2.310303,-1.722656,-7.514953,35.171509,-249.908432,-1.025146,-0.064941,0.17627,-1.083374,-2.296448,102.935783
0.899414,1.934814,-1.178467,-66.581726,34.866333,-249.30571,-1.024414,-0.010254,0.17749,-5.79071,-27.931211,94.451897
2.150635,0.518555,-1.512451,-8.995056,225.959763,-249.984726,-1.080078,0.056396,0.218018,-18.569946,-52.192684,84.686272
0.275391,0.728516,-0.24292,-204.650864,-91.949455,178.321823,-1.19751,0.159912,0.304932,-33.958435,-67.047119,69.915771
0.281006,0.727539,-0.209717,-179.389938,-66.383362,187.04985,-1.354492,0.289307,0.414307,-45.028683,-63.041683,52.833553
0.358643,0.70752,-0.125,-156.486511,-43.563839,194.534286,-1.462402,0.426514,0.504883,-47.500607,-41.053768,40.153503
1.266357,-0.284912,-0.636963,92.620842,58.746334,162.452682,-1.457031,0.555176,0.573242,-42.243954,-15.281676,32.424927
1.088135,-0.470703,-0.626221,90.995781,64.292908,144.020081,-1.32666,0.682861,0.604004,-29.815672,-0.167847,25.238035
1.010986,-0.608643,-0.668213,85.46447,67.962646,115.257256,-1.189453,0.789551,0.541992,-10.95581,2.830505,17.799377
1.00293,-0.703369,-0.74585,71.228027,86.830132,81.260674,-1.144043,0.836914,0.461182,11.138915,6.317138,11.894225
1.025391,-0.719482,-0.8125,52.825924,123.51226,47.760006,-1.180664,0.797607,0.415039,26.908873,20.484922,1.991272
0.997314,-0.710938,-0.811035,36.979675,162.094101,15.312194,-1.212891,0.656006,0.371338,22.720335,42.655941,-21.934507
1.02417,-0.680908,-0.834229,24.887083,191.184982,-13.893126,-1.253418,0.45459,0.371338,17.784119,62.95013,-46.157833
0.999023,-0.690674,-0.779297,19.599915,218.025192,-39.611816,-1.260742,0.202637,0.445068,21.537779,75.737,-60.18066
0.792236,-0.763428,-0.61084,23.757933,240.074142,-62.614437,-1.225586,-0.038818,0.362549,12.016295,77.201843,-83.82415
0.563477,-0.837158,-0.405273,34.202576,249.862656,-88.546745,-1.233643,-0.240723,0.266602,4.066467,76.828003,-107.994072
1.488037,-0.062988,-0.712158,101.478569,47.8363,182.151779,-1.259277,-0.415039,0.16626,3.089905,87.707512,-124.938957
0.535889,-0.866211,-0.266113,44.250484,249.740585,-124.183647,-1.321045,-0.571289,0.088867,0.335693,105.461113,-137.207031
0.502197,-0.725098,-0.501709,20.683287,246.086105,-173.82048,-1.359619,-0.739258,0.071533,-6.179809,113.456718,-150.604248
0.497559,-0.570557,-0.632813,-5.332946,217.979416,-182.693466,-1.314209,-0.916748,0.057861,-17.478943,105.186455,-170.433029
0.502197,-0.372314,-0.533447,-28.305052,187.858566,-179.168686,-1.326416,-1.262451,-0.014648,-41.137691,40.840145,-206.733688
0.532471,-0.214111,-0.431152,-45.166012,157.089233,-174.850449,0.734619,-0.715332,-0.38916,-239.692673,102.34832,-151.893616
0.560547,-0.105469,-0.422363,-56.243893,132.080078,-171.485886,-0.13623,0.408936,0.244385,-11.917113,-31.35681,27.893064
0.601318,-0.028564,-0.513184,-67.863464,114.791862,-172.279343,0.659424,-0.781738,-0.611328,-154.10614,68.458557,-94.314568
0.628662,0.030518,-0.600098,-79.299927,102.020256,-174.20195,-2.087158,-0.789551,2.270996,209.73967,-69.641113,249.992355
0.649902,0.095459,-0.653076,-87.387077,89.477531,-171.661362,-2.13916,-0.790527,2.411865,203.895554,-54.534908,249.992355
0.699463,0.18042,-0.709229,-99.998466,77.896118,-168.373093,-2.133789,-0.775635,2.557373,204.765305,-40.870663,249.961838
0.779541,0.273193,-0.780518,-113.18206,68.519592,-165.779099,-2.145996,-0.727783,2.70459,198.608383,-30.143736,249.824509
0.518555,-0.84082,-0.287354,42.602535,249.992355,-155.62439,-2.102539,-0.626465,2.796875,185.081467,-22.727964,249.992355
1.570801,0.154541,-0.842041,121.162407,37.742615,213.821396,-1.982178,-0.522705,2.753662,172.683701,-24.681089,249.389633
0.91748,0.370361,-0.903809,-121.414177,63.606258,-164.871201,-1.93457,-0.438232,2.67334,162.818893,-39.886475,236.999496
1.811279,0.50293,-0.97876,166.076645,9.338379,249.992355,-1.990479,-0.393555,2.628662,152.21405,-63.903805,225.822433
0.475586,0.689697,-0.030518,-138.1073,-25.947569,203.926071,-1.989502,-0.352783,2.563232,134.223938,-85.998528,214.172348
0.611084,0.707275,-0.016357,-120.025627,-8.010864,213.714584,-1.88916,-0.283203,2.442871,107.994072,-99.800102,198.204025
0.763428,0.748291,-0.050293,-99.411003,12.619018,224.693283,-1.973877,-0.768066,2.134521,225.067123,-81.535332,249.992355
0.955078,0.791992,-0.103516,-77.903748,34.65271,239.356979,-1.715332,-0.208008,2.240967,72.906494,-105.781548,183.006271
1.183105,0.8396,-0.167969,-53.558346,59.097286,249.366745,-1.47998,-0.024414,1.956543,7.789611,-102.859489,159.965515
1.439453,0.878662,-0.266113,-25.794981,86.303703,249.992355,-1.290039,0.051514,1.803711,-8.537292,-88.294975,131.835938
1.614746,0.334473,-0.943359,145.057678,25.207518,245.597824,-1.008545,0.124512,1.555908,-12.527465,-61.996456,105.178825
1.9729,0.956299,-0.520508,35.28595,140.441895,249.992355,-0.707764,0.124268,1.185303,-18.295288,-29.670713,85.121147
2.189941,1.038818,-0.632324,67.520142,153.793335,249.992355,-0.484375,0.13208,0.846436,-28.060911,-9.803772,72.32666
2.364502,1.115967,-0.734375,108.680717,149.993896,249.992355,-0.343262,0.223389,0.647217,-28.724669,-12.351989,65.208435
2.551025,1.251953,-0.859375,139.633179,129.127502,249.992355,-0.270752,0.303467,0.534424,-22.605894,-24.04785,59.257504
1.712646,0.90625,-0.394043,4.516602,115.104668,249.992355,-0.219971,0.352295,0.44873,-15.945434,-32.783508,52.146908
2.88623,1.419678,-1.036133,168.212875,49.942013,249.992355,-0.181396,0.380371,0.330566,-11.596679,-35.27832,44.891354
3.019043,1.39502,-1.074463,172.698959,16.159058,249.992355,-0.158203,0.391846,0.271729,-11.192321,-34.14917,37.185669
3.162354,1.385498,-1.107178,171.394333,-7.545471,249.992355,-1.589111,-0.109619,2.053955,36.499023,-107.147209,174.880966
3.244385,1.313721,-1.12793,175.193771,-18.325806,249.992355,-1.775635,-0.740967,1.940674,240.097031,-83.610527,249.992355
3.094971,1.040771,-1.134521,192.176804,-11.19995,249.992355,0.706787,-0.703857,-0.489502,-192.314133,76.156616,-124.176018
2.858154,0.827393,-1.04834,205.650314,5.317688,249.992355,-1.372314,-0.713135,1.539307,249.992355,-55.595394,249.992355
2.616699,0.80957,-0.852051,203.124985,19.035339,249.992355,0.519043,-0.79126,-0.58252,-126.655571,68.511963,-61.683651
2.412598,0.825195,-0.764648,199.516281,23.696898,249.992355,0.39502,-0.732178,-0.49292,-100.021355,66.482544,-31.433104
2.251953,0.740234,-0.787109,200.294479,16.769409,249.847397,0.302246,-0.691406,-0.446777,-76.461792,62.004086,-6.91986
2.062988,0.619141,-0.880371,190.757736,5.554199,249.740585,0.250977,-0.681641,-0.452637,-56.488033,57.380672,13.504027
2.715332,1.388184,-0.95874,157.112122,91.163628,249.992355,0.244141,-0.70459,-0.49707,-36.552429,55.046078,34.01947
0.254395,0.868408,0.141846,-69.190979,-105.941765,-249.992355,0.211182,-0.750732,-0.496826,-14.396667,55.351254,56.236263
0.421875,1.455322,-0.064941,-81.092827,-105.941765,-249.259933,0.159668,-0.797607,-0.453857,9.010315,59.326168,80.650322
0.333008,2.337891,-0.307373,-44.799801,-130.218506,-249.67955,0.071533,-0.821045,-0.394531,30.6015,66.291809,106.674187
0.324951,2.40332,-0.166748,22.224424,-184.326157,-249.992355,-0.04541,-0.802002,-0.322021,49.499508,74.34845,130.027771
-0.431396,2.016846,-0.897461,-3.883362,22.613523,-184.883102,-0.134521,-0.757813,-0.249512,68.54248,82.458488,149.436951
-0.209961,2.041992,-0.38623,76.301575,-188.590988,-249.992355,-0.179688,-0.724121,-0.192627,89.11895,90.599052,167.366013
-0.466553,1.94873,-0.518555,83.381645,-141.784668,-248.680099,-1.547607,-0.721924,1.720215,249.832138,-73.486328,249.992355
-0.517334,1.91626,-0.612793,51.971432,-71.411133,-222.167953,-0.21875,-0.683594,-0.05249,140.647888,97.892754,201.583847
0.192627,2.141113,-0.232422,54.542538,-208.679184,-249.992355,-0.241455,-0.692383,0.010986,169.349655,93.0252,218.894943
-0.002441,0.625488,0.191406,-50.98724,-110.465996,-243.00383,-0.286133,-0.695557,0.07251,193.771347,82.054131,236.32048
-0.356934,0.118896,0.081543,-72.479248,-148.620605,128.913879,-0.354248,-0.669922,0.152344,213.691696,66.993713,248.611435
-0.050293,0.43335,0.126953,-34.156799,-130.485535,-184.471115,-0.463867,-0.647217,0.261963,231.719955,49.644466,249.992355
-0.032715,0.368652,0.111328,-35.385132,-144.615173,-147.377014,-0.592285,-0.625977,0.413574,245.620712,32.646179,249.992355
-0.057617,0.318359,0.085938,-43.29681,-160.28595,-107.719414,-0.714355,-0.627686,0.617432,249.992355,16.967773,249.992355
-0.093506,0.266846,0.050781,-51.666256,-173.118576,-67.199707,-0.856201,-0.658203,0.833984,249.992355,2.26593,249.992355
-0.111572,0.201172,0.04541,-56.106564,-180.541977,-28.884886,-1.026855,-0.688965,1.069092,249.977097,-13.85498,249.992355
-0.119385,0.144531,0.064209,-58.639523,-183.471664,5.973815,-1.210938,-0.70874,1.332764,249.862656,-34.301758,249.992355
-0.175537,0.095947,0.077393,-59.165951,-180.854782,36.720276,-0.205322,-0.693115,-0.117676,112.846367,96.54998,184.593185
-0.250732,0.060791,0.06958,-57.891842,-176.910385,65.292358,-1.922363,0.125,0.499268,26.786802,25.009153,-145.683289
-0.324707,0.058838,0.072754,-57.861324,-173.82811,91.552727,-1.555664,0.202393,0.482666,34.484863,19.325256,-137.382507
-0.37793,0.083984,0.080322,-62.850948,-165.840134,113.288872,-1.265869,0.260498,0.443359,41.107174,18.531799,-128.890991
-0.271484,2.124756,-1.185791,-57.243343,139.49585,-166.503891,-1.018799,0.301514,0.390381,46.31805,20.530699,-120.048515
-0.064941,0.51001,0.161621,-39.138794,-119.537346,-217.704758,-0.442139,0.357178,0.270752,54.100033,40.611263,-107.147209
-0.214844,2.129883,-1.191406,-111.938469,246.116623,-165.534958,-0.697998,0.321777,0.275391,49.072262,32.264709,-108.978264
0.717285,1.652832,-0.677979,-133.918762,249.992355,-249.992355,-0.587646,0.318115,0.24292,50.041195,39.855957,-108.192436
0.044189,1.982422,-1.052246,-153.923035,248.512253,-205.162033,-0.502686,0.33374,0.249756,51.536556,43.128963,-108.245842
-0.274658,0.187012,0.071045,-84.609978,-127.220146,139.259338,-2.41748,0.017822,0.50415,16.63208,39.505005,-156.669617
1.304199,0.869385,0.119873,47.348019,249.992355,-244.438156,-0.835693,0.32373,0.331299,48.629757,24.719236,-112.846367
1.266602,0.936035,0.077148,53.329464,249.992355,-249.992355,-2.991943,-0.079346,0.519531,5.020141,66.146851,-174.430832
1.188721,0.986328,0.033936,60.211178,249.93132,-249.992355,-3.949951,-1.621582,0.875,8.918762,222.747787,-249.992355
1.026123,0.972412,-0.006836,63.606258,249.694809,-249.992355,-4.385986,-0.275146,0.948242,-25.604246,164.192184,-249.992355
0.923828,0.990967,-0.065918,64.582825,249.992355,-249.992355,-4.539795,-0.419922,1.121826,-5.966186,165.412888,-249.992355
0.909424,1.091309,-0.126709,65.055847,249.000534,-249.992355,-4.522217,-1.123779,1.081299,8.163452,175.567612,-249.992355
0.859619,1.224609,-0.143799,56.755062,228.691086,-249.992355,-3.530762,-1.370605,0.60498,-8.148193,249.992355,-249.984726
0.814209,1.392578,-0.148193,36.094666,223.892197,-249.992355,-3.030273,-1.340332,0.650146,-51.307674,245.681747,-249.992355
0.8479,1.548096,-0.144775,5.966186,241.249069,-249.992355,-1.539551,-1.052246,0.687256,-87.654106,202.239975,-249.992355
-0.091309,2.105713,-1.110352,-148.475647,249.992355,-184.41008,-0.285889,-0.687256,0.463135,-107.879631,165.725693,-249.114975
0.902588,1.687988,-0.167725,-33.843994,249.992355,-249.992355,0.357178,-0.400391,0.383301,-120.307915,133.171082,-249.992355
0.812988,1.712646,-0.4021,-118.324272,249.992355,-249.992355,0.550049,-0.078369,0.378174,-116.34063,95.863335,-249.992355
0.735596,1.675781,-0.868652,-135.169983,249.992355,-249.992355,-0.415527,0.402588,0.272949,56.945797,30.700682,-103.370659
0.755859,1.791748,-0.948486,-134.468079,249.992355,-249.992355,-4.058105,-0.218262,0.704346,-23.41461,143.447876,-240.051254
0.679688,1.820801,-1.047119,-143.119812,249.992355,-249.992355,-0.380615,0.457031,0.261963,59.349056,14.839171,-99.06768
0.583496,1.865479,-1.135986,-164.489731,249.992355,-249.946579,-0.51123,0.551025,0.259033,9.750366,31.341551,18.264771
0.531738,1.880615,-1.161865,-172.981247,249.992355,-249.862656,-0.252441,0.579346,0.203857,62.301632,-21.110533,-91.522209
0.507324,1.825928,-1.195068,-162.86467,249.992355,-249.992355,-3.594482,-0.022949,0.573242,54.000851,-186.630234,249.992355
0.520264,1.777344,-1.17334,-147.041321,249.977097,-248.710617,-3.327148,-0.364746,0.446777,-6.828308,-194.389328,248.649582
0.387207,1.745605,-1.109863,-140.99884,249.992355,-235.534653,-3.344238,-0.192139,0.600098,-104.553215,-190.46019,207.153305
0.179199,1.805664,-1.056885,-145.431519,249.717697,-219.993576,-3.180176,0.356201,0.737061,-67.810059,-154.685974,177.780136
0.932129,1.743164,-0.226807,-77.987671,249.992355,-249.992355,-2.737793,0.52417,0.612549,-20.980833,-119.819633,143.211365
-0.204346,0.276123,0.032715,-97.724907,-108.085625,147.743225,-2.367432,0.608154,0.44458,-7.4234,-96.130363,114.860527
1.37915,0.800049,0.18457,45.097347,239.440903,-221.542343,-1.989746,0.643799,0.326416,-1.274109,-59.890743,93.879692
-0.238037,0.368652,0.043457,-113.616936,-83.740227,159.660339,-1.72583,0.635986,0.285645,0.076294,-24.818419,77.278137
2.553955,0.580322,-0.210693,-47.401424,-4.264832,195.777878,-1.473877,0.597412,0.275879,1.625061,-1.708984,66.459656
2.170166,0.387207,-0.119629,-23.696898,2.227783,178.550705,-1.175293,0.542969,0.318115,4.669189,11.817931,56.884762
1.973145,0.290527,-0.135498,-9.384155,16.677856,161.285385,-0.324463,0.520752,0.231445,61.347958,-2.952575,-96.359245
1.876709,0.134521,-0.152588,-4.898071,29.327391,148.132324,-0.905518,0.519531,0.379639,7.041931,17.486572,46.310421
1.714844,-0.036621,-0.110596,-4.753113,42.282101,136.657715,0.601074,0.206787,0.232666,-92.712395,54.611202,-209.472641
1.5,-0.1604,-0.050049,0.267029,70.091248,124.229424,-0.400391,0.580322,0.172607,9.864807,37.597656,0.038147
1.431152,-0.279297,-0.064697,9.857178,111.564629,104.125969,-0.234375,0.615723,0.156494,12.130736,38.543701,-13.900756
1.393799,-0.378418,-0.090576,12.733459,161.521896,72.395325,-0.074951,0.655273,0.15918,15.579223,23.78845,-19.828796
1.260254,-0.473877,-0.067871,11.535644,214.858994,36.758423,0.000732,0.699951,0.191895,20.988462,-4.119873,-27.038572
1.090332,-0.541016,-0.052979,21.591185,244.575485,15.548705,0.008789,0.728516,0.17749,28.686522,-22.666929,-47.119137
2.830566,0.898682,-0.280518,-64.468384,0.38147,213.127121,0.013184,0.759766,0.18042,39.642334,-25.947569,-68.008423
0.886475,-0.63916,-0.108398,27.648924,248.123154,-11.558532,-0.037598,0.768066,0.19458,52.902218,-34.240723,-73.623657
0.638428,-0.773193,-0.146973,39.535522,235.649094,-62.70599,-0.099609,0.702393,0.186768,60.035702,-41.168209,-74.714661
0.667969,-0.775146,-0.063232,48.034664,217.994675,-91.461174,-0.170898,0.632324,0.171631,61.561581,-34.767151,-82.618706
0.615967,-0.779297,-0.01416,56.114193,200.889572,-117.965691,-0.656494,0.533447,0.367676,9.155273,23.78845,34.156799
0.497803,-0.751709,-0.040039,61.508175,186.04277,-137.367249,0.553955,0.317383,0.181396,-63.446041,16.143799,-128.90625
0.424561,-0.693359,-0.041016,58.242794,163.841232,-146.461487,-3.552246,-0.141113,0.56665,-7.743835,104.156487,-203.506454
0.42334,-0.582764,-0.027588,39.978027,132.026672,-145.324707,0.54834,0.186768,0.133545,-32.424927,-13.664245,-8.644104
0.45459,-0.470459,-0.083984,13.755797,97.06115,-142.623901,-0.793457,-1.748535,-0.356201,124.160759,91.529839,249.992355
0.464111,-0.375,-0.147217,-7.392883,64.468384,-145.614624,-0.79248,-1.906982,-0.358398,142.555237,67.245483,249.992355
0.426514,-0.292969,-0.210693,-18.013,40.084839,-152.412415,-0.798828,-2.12915,-0.404541,154.701233,24.200438,249.992355
0.395996,-0.218262,-0.260254,-30.319212,24.810789,-160.774216,-0.80835,-2.374512,-0.494629,157.333374,-44.334408,249.992355
0.691406,-0.740479,-0.158447,32.821655,245.52916,-38.955688,-0.820068,-2.655273,-0.614014,145.66803,-150.108337,249.992355
2.99292,1.277588,-0.217773,-90.538017,-14.694213,230.545029,-0.871094,-2.963623,-0.784668,116.4627,-240.035995,249.847397
-0.201172,0.338867,0.019043,-109.008781,-92.384331,154.434204,-1.05835,-3.230469,-0.878662,78.308105,-249.992355,249.816879
3.250732,1.834717,-0.169189,-84.945671,-86.166374,239.265427,-1.44043,-3.45166,-0.781738,46.524044,-249.992355,249.992355
-0.26416,0.394043,0.116211,-108.100883,-88.500969,167.213425,-1.995117,-3.639893,-0.806641,-14.831542,-249.992355,222.824081
-0.214111,0.423096,0.196045,-101.21917,-106.75811,174.842819,-1.942871,-3.732666,-0.925293,-50.811764,-249.992355,225.028976
-0.089111,0.446289,0.222168,-99.845879,-126.472466,178.527817,-0.785889,-1.643311,-0.359863,104.61425,98.838799,249.992355
0.051025,0.466309,0.190186,-102.661125,-138.86261,179.672226,-2.23877,-3.753174,-0.978027,-82.237236,-249.992355,234.31395
0.145752,0.49585,0.124023,-109.039299,-147.438049,180.656418,-2.429443,-2.86499,-0.821777,-109.504692,-249.473557,216.491684
0.20752,0.525146,0.071533,-120.223991,-154.220581,182.327255,-2.337158,-2.783447,-0.794922,-123.855583,-249.992355,218.399033
3.163086,1.667236,-0.273682,-102.760307,-52.932735,230.819687,-2.221924,-2.478271,-0.541504,-96.992485,-238.487228,237.289413
0.299561,0.587402,-0.028076,-136.482239,-165.306076,196.914658,-2.114014,-1.975342,-0.35791,-61.416622,-165.389999,227.905258
0.325684,0.638916,-0.101807,-131.149292,-173.82811,204.292282,-2.116455,-1.825195,-0.373535,-53.535458,-83.19854,190.010056
0.324707,0.791748,-0.130127,-127.494804,-176.742538,214.370712,-1.790283,-1.782715,-0.455078,-81.741325,-6.439209,156.12793
0.498047,0.964355,-0.099365,-133.964539,-181.732162,219.139084,-1.331543,-1.353027,-0.435547,-93.27697,50.888058,150.650024
0.242676,0.550781,0.018311,-130.54657,-158.363342,188.522324,-1.127441,-0.873047,-0.317871,-82.130424,79.299927,152.96936
0.759521,1.372803,-0.142822,-132.598877,-198.196396,230.590805,-1.088135,-0.529297,-0.086182,-66.848755,83.152763,147.834778
0.818115,1.611328,-0.066162,-147.201538,-234.153732,245.368942,0.496826,0.279297,0.18042,-42.770382,-8.750916,-59.776302
1.068115,1.668701,0.08252,-174.33165,-249.992355,249.992355,-2.523193,-3.3125,-0.854248,-95.069878,-249.618515,226.081833
1.52417,1.746582,0.119385,-180.900558,-249.488815,249.992355,-0.741455,-1.531494,-0.353271,85.975639,87.997429,249.992355
1.88916,1.827393,-0.131592,-166.305527,-249.992355,249.725327,-1.875977,-3.596436,-0.717773,18.218994,-249.992355,245.39946
2.089355,1.881836,-0.367188,-144.897461,-249.992355,249.992355,-0.558594,-1.299316,-0.318115,52.459713,29.777525,249.992355
2.375488,1.860596,-0.524658,-128.578186,-228.775009,249.992355,0.619629,0.068115,0.091309,-26.298521,-12.71057,35.728455
2.733398,1.798584,-0.479004,-121.475212,-185.104355,238.052353,-0.658691,-1.407959,-0.336426,68.229675,61.973568,249.992355
2.908936,1.816162,-0.46167,-127.502434,-151.771545,237.853989,0.606445,-0.200928,-0.037109,-12.435912,-23.818968,107.238762
3.150391,1.851318,-0.320313,-92.819206,-111.740105,246.467575,0.550537,-0.332275,-0.134521,-4.730225,-37.528992,132.621765
0.690186,1.115234,-0.07373,-133.323669,-188.667282,219.528183,0.489014,-0.466553,-0.195068,0.938415,-54.595943,156.181335
3.150879,2.821533,-1.239502,166.25975,199.424728,-249.992355,0.422607,-0.588623,-0.217041,4.951477,-71.517944,178.398117
3.359131,2.194824,-2.055176,110.000603,17.272949,-249.992355,0.383545,-0.698242,-0.257568,7.041931,-88.317863,196.113571
2.805908,1.755371,-2.761963,10.429381,-98.625175,-249.992355,0.37915,-0.794434,-0.30835,7.881164,-104.598991,211.738571
2.553955,1.350098,-3.013916,-56.945797,-115.58532,-249.992355,0.364258,-0.862549,-0.354492,8.44574,-119.651787,228.950485
1.725342,0.643311,-1.75708,-101.387016,-227.867111,-208.023056,0.316162,-0.91748,-0.386963,7.110595,-128.707886,246.078476
3.195068,0.991455,-2.696045,-135.33783,-124.519341,-249.992355,0.234375,-0.963623,-0.413574,4.394531,-129.753113,249.992355
2.854492,0.888672,-2.288574,-145.088196,-184.91362,-248.504623,0.637695,-0.067139,0.036621,-20.278929,-15.899657,75.035095
2.219971,0.787598,-1.98584,-126.968376,-237.731918,-232.055649,-0.278809,-1.192383,-0.357666,27.130125,-22.109983,249.992355
2.922119,1.118408,-2.979492,-102.737419,-110.214226,-249.992355,0.069092,-1.029541,-0.405762,4.638672,-117.378227,249.992355
2.067383,2.963623,-0.823486,152.687073,249.992355,-249.992355,0.118164,-1.095947,-0.380127,6.134033,-104.187004,249.992355
-1.491455,0.229004,0.469727,187.492355,-225.563034,-110.252373,0.130859,-1.168213,-0.385498,6.454467,-91.041557,249.992355
-0.071289,1.856689,-0.106689,97.351067,249.610886,-249.992355,0.121094,-1.206543,-0.404541,6.744384,-80.528252,249.992355
-0.735596,1.290771,0.37207,101.203911,249.969467,-249.992355,0.101563,-1.202148,-0.42041,8.674622,-71.380615,249.992355
-0.915771,1.069824,0.532227,98.403923,249.992355,-249.992355,0.051025,-1.181152,-0.437744,11.70349,-61.019894,249.992355
-0.685303,1.026367,0.623779,90.713493,236.091599,-249.992355,-0.039795,-1.174805,-0.430908,14.923095,-50.132748,249.992355
-0.612061,0.866211,0.764404,89.660637,188.842758,-249.740585,-0.157959,-1.178711,-0.408447,19.432068,-38.200378,249.992355
-0.789307,0.656006,0.848633,96.336357,147.010803,-249.870285,-0.421631,-1.227295,-0.317383,38.734436,0.205994,249.992355
-1.077637,0.477539,1.021973,105.010979,103.157036,-249.992355,0.119385,-0.993896,-0.416992,3.204345,-125.518791,249.992355
-1.041748,0.376465,0.886963,130.683899,20.225523,-241.081223,-0.256348,0.290039,0.016113,146.54541,8.460999,-144.058228
-0.834473,0.247314,0.61499,152.809143,-71.517944,-201.91954,-0.176025,0.311523,0.013184,136.238098,-4.318237,-147.117615
-1.437744,0.156006,0.770508,176.574692,-111.244194,-156.852722,-0.112549,0.314941,0.008301,123.329155,-10.848998,-144.866943
1.332764,0.455078,-1.57959,-85.884087,-174.812302,-191.101059,-0.087646,0.312012,0.009766,110.404961,-16.448975,-138.679504
0.842773,2.522461,-0.511963,113.822929,249.992355,-249.992355,-1.828857,0.105469,0.901855,152.122498,55.206295,-91.667168
1.034424,0.24707,-1.456787,-86.425774,-120.285027,-182.243332,-0.181641,0.343018,0.01123,85.296623,-39.558411,-121.986382
0.272705,-0.084229,-0.419678,-73.127747,129.920959,-132.965088,-0.2229,0.371826,-0.000977,75.965881,-59.661861,-117.996208
0.661865,-0.064453,-1.299316,-94.940178,-45.288082,-158.157349,-0.338623,0.259521,0.02417,152.397156,27.153013,-138.557434
-1.286865,0.408936,0.466064,177.963242,-249.992355,-57.632442,-0.275879,0.412354,-0.011475,66.741943,-87.715141,-113.830559
0.095703,-0.290527,-0.432861,90.705864,10.887145,-124.061577,-0.128906,0.320068,0.007568,97.267143,-25.939939,-129.463196
0.150146,-0.286377,-0.451172,78.842163,6.820678,-125.694267,-0.410156,0.238281,0.01709,154.693604,46.646114,-134.315491
0.20874,-0.27832,-0.453613,68.634033,11.131286,-126.701347,-0.51123,0.304443,0.203857,165.100082,48.171993,-137.870789
0.26709,-0.265625,-0.448975,58.79974,27.8244,-124.664299,-0.47876,0.221191,0.022949,157.00531,75.752258,-126.403801
0.352539,-0.243164,-0.463379,45.127865,51.353451,-121.208183,-0.496094,0.223877,0.068604,158.317566,80.574028,-124.793999
0.404297,-0.21582,-0.461914,26.840208,77.102661,-121.551506,-0.502441,0.249268,0.128174,160.652145,77.186584,-127.92205
0.362305,-0.171143,-0.4104,8.644104,102.752678,-121.856682,-0.498535,0.281006,0.172607,163.261398,66.307068,-133.743286
0.280273,-0.136719,-0.34668,-10.398864,125.350945,-123.237602,-0.598389,0.305908,0.234131,165.801987,22.750853,-138.343811
0.226563,-0.126709,-0.293701,-29.632566,140.556335,-125.099174,-0.761963,0.283203,0.285889,165.321335,-2.990722,-134.300232
0.830322,0.076172,-1.387939,-90.736382,-79.574585,-173.095688,-0.980225,0.236816,0.383301,163.673386,-19.378662,-123.374931
0.226074,-0.118164,-0.313965,-46.424862,146.774292,-124.343864,-1.241211,0.180176,0.537842,159.233093,-17.066956,-103.050224
0.27002,-0.109863,-0.40332,-70.350647,140.197754,-125.961296,-1.536133,0.134033,0.732422,156.440735,8.842468,-86.944572
0.242188,-0.060791,-0.44751,-83.595268,117.317192,-126.777641,-0.2854,0.529053,0.069336,57.388302,-124.038689,-105.957024
0.290771,-0.037842,-0.477295,-95.748894,105.8731,-114.593498,-0.452148,0.227295,0.007813,155.944824,63.743587,-130.256653
0.416016,-0.026123,-0.554688,-103.691093,95.703117,-107.101433,-0.197021,0.739258,0.188232,45.166012,-147.56012,-107.246391
0.518311,-0.020996,-0.668457,-109.329216,89.599602,-105.575554,-1.109131,-0.553711,1.427002,129.493713,-54.817196,249.992355
0.544922,-0.026367,-0.773926,-120.483391,81.535332,-107.818596,-0.641357,0.903809,0.325684,4.15802,-205.627426,-91.186516
0.532471,-0.042969,-0.859863,-135.154724,65.170288,-113.319389,-2.099609,0.105225,1.049316,139.900208,105.674736,-96.786491
0.519531,-0.087402,-0.94165,-137.077332,44.761654,-121.223442,-1.251953,-0.544189,1.596191,147.377014,-66.291809,249.992355
0.528809,-0.127441,-1.037598,-126.03759,18.814087,-129.585266,-1.39917,-0.551514,1.732666,166.481003,-78.834534,249.992355
0.557129,-0.129639,-1.180664,-106.964104,-11.405944,-141.700745,-1.539307,-0.576416,1.797607,179.580673,-82.260124,249.992355
0.251465,-0.112305,-0.380127,-61.264034,145.370483,-122.657768,-1.697021,-0.569824,1.857422,190.628036,-73.684692,249.992355
0.047119,-0.286865,-0.390869,102.493279,19.355774,-124.221794,-1.898926,-0.593994,1.930176,203.178391,-57.617184,249.992355
-1.231934,0.630127,0.479248,158.111572,-249.992355,-8.224487,-1.981934,-0.603027,2.02002,216.514572,-49.026485,249.908432
-1.048584,0.839844,0.422607,129.15802,-249.992355,81.748955,-1.960938,-0.557861,2.154297,227.958664,-68.893433,249.595627
1.820068,1.664551,0.224609,-87.173454,249.992355,160.812363,-1.943359,-0.515625,2.249756,225.86821,-114.303581,249.992355
1.731201,1.47998,0.273193,-48.507687,249.992355,176.689133,-1.881348,-0.493164,2.238037,198.448166,-171.508774,248.390182
1.578369,1.403076,0.345703,-14.526366,249.992355,185.53923,-1.765381,-0.458252,2.178223,152.931213,-228.996262,219.245895
1.409424,1.383545,0.363525,15.083312,249.992355,186.866745,-1.792725,-0.330811,2.124268,105.033867,-249.992355,195.510849
1.308105,1.354736,0.337158,38.963318,249.992355,181.694016,-2.092529,-0.25708,2.031982,48.271175,-249.992355,160.97258
1.260986,1.270508,0.317871,57.052608,249.992355,172.05809,-0.977295,-0.545654,1.252686,116.104118,-44.586178,249.992355
1.21167,1.176514,0.278809,72.822571,249.992355,156.089783,-2.217773,-0.075195,1.917236,-2.937317,-249.992355,102.386467
1.089111,1.093506,0.230225,85.700981,249.771103,134.185791,-2.004883,0.149658,1.621338,-34.622192,-249.992355,68.382263
0.963379,1.006348,0.191895,92.048637,249.710068,107.63549,-1.851074,0.258789,1.25415,-62.080379,-249.992355,58.212276
0.897217,0.825684,0.165039,87.196342,243.034348,51.353451,-1.80835,0.381592,1.004883,-103.050224,-249.984726,33.103943
1.85791,1.86792,0.232178,-130.477905,249.992355,142.883301,-1.690918,0.630127,0.90918,-142.01355,-249.992355,-0.076294
0.95166,0.770264,0.139404,80.291748,203.590378,26.611326,-1.240234,0.931641,0.941406,-142.64679,-249.961838,-26.763914
1.109619,0.664551,0.085449,70.625305,133.331299,-12.390136,-0.861572,1.028809,0.790527,-113.670341,-249.18364,-43.640133
1.206787,0.591797,0.079834,74.043274,103.767387,-28.915403,-0.766846,1.027832,0.541748,-73.150635,-249.992355,-60.897823
1.297607,0.532471,0.098877,78.422546,78.010559,-45.455929,-0.783203,1.042969,0.466309,-26.657103,-249.992355,-71.266174
1.364014,0.49292,0.159424,80.070496,63.064571,-64.51416,-0.318848,0.853027,0.265869,25.619505,-164.916977,-109.397881
1.431152,0.493164,0.207764,79.673767,63.301083,-87.806694,-2.315918,0.137939,1.203857,130.126953,142.219543,-97.602837
1.489258,0.531738,0.218506,74.60022,79.811096,-112.754814,-0.774902,-0.693359,0.078857,-74.745178,-168.762192,249.824509
1.511475,0.591064,0.210693,65.444946,109.573357,-138.427734,-2.663818,0.231201,1.550537,125.511162,128.822327,-138.580322
1.509277,0.663574,0.214355,55.351254,145.362854,-166.351303,0.209229,-0.644287,-0.26001,-16.578674,134.468079,198.341354
1.468262,0.730957,0.232178,47.416683,191.535934,-194.549545,0.204346,-0.718262,-0.285889,-15.014647,106.101982,203.773483
-1.197998,0.803223,0.441895,138.252258,-249.992355,32.394409,0.19043,-0.758789,-0.319092,-18.1427,69.831848,209.182724
1.020996,0.721191,0.109131,73.410034,166.816696,5.714416,0.139648,-0.76123,-0.339844,-23.147581,28.060911,214.584335
1.841064,1.963867,0.222168,-175.231918,249.992355,128.425598,0.051025,-0.733643,-0.291992,-28.167723,-12.786864,221.45079
0.89624,0.906982,0.172119,91.659538,249.992355,79.101563,-0.072754,-0.696289,-0.202148,-31.471251,-48.698421,227.943405
1.96875,1.982422,0.075684,-249.992355,244.354233,120.574944,-0.176025,-0.700439,-0.131104,-36.026001,-82.336418,231.491074
1.882324,1.991455,0.167236,-220.756516,249.992355,120.254509,-0.293701,-0.744141,-0.093262,-49.011227,-118.682854,235.740646
-0.703857,0.981445,0.388184,80.825798,-249.992355,144.546509,-0.511475,-0.750488,-0.027832,-65.139771,-151.489258,244.575485
-0.655029,1.083008,0.346436,40.893551,-249.992355,165.740952,-1.051025,-0.630371,0.208984,-80.055237,-169.334396,249.992355
-0.593018,1.270264,0.341797,-10.69641,-249.992355,187.873825,0.218506,-0.559814,-0.246338,-22.6593,152.618408,190.391525
-0.522705,1.451904,0.338623,-71.273804,-249.992355,214.347824,-1.346924,-0.64502,0.336182,-87.760918,-162.597641,249.992355
-0.362549,1.573975,0.348389,-131.744385,-249.992355,242.050156,-1.780518,-0.852295,0.384033,-104.751579,-141.647339,249.992355
-0.148682,1.702881,0.334473,-203.231796,-249.992355,249.992355,-2.181396,-0.994629,0.410156,-108.062737,-127.647392,249.992355
0.027344,1.833008,0.272217,-247.955307,-249.992355,249.992355,-2.686768,-1.115723,0.472656,-106.712334,-104.026787,249.992355
0.135498,1.886475,0.224365,-249.992355,-249.992355,249.992355,-3.074951,-1.076416,0.513428,-97.732536,-72.799683,249.992355
0.253662,1.918945,0.187988,-249.992355,-249.992355,249.992355,-3.192627,-0.844727,0.561279,-77.926636,-52.688595,249.992355
0.424072,1.995117,0.169189,-249.992355,-249.992355,249.992355,-3.190918,-0.720459,0.639893,-56.106564,-58.807369,249.992355
-0.802979,0.87207,0.480225,114.746086,-249.992355,123.741142,-3.296387,-0.723389,0.595459,-47.096249,-82.931511,249.992355
0.82373,2.344727,0.259521,-249.992355,-249.992355,249.572739,-3.394775,-0.706055,0.471191,-65.010071,-113.105766,249.992355
0.619873,2.154541,0.237305,-249.992355,-249.984726,249.923691,-3.453369,-0.485596,0.571533,-78.674316,-142.578125,249.885544
1.965088,2.02124,-0.170166,-249.43541,154.914856,129.79126,-2.484375,0.212891,1.395264,129.570007,151.802063,-107.589714
1.914307,2.156738,-0.179932,-249.992355,71.235657,139.86969,-1.564209,-0.731201,0.398193,-96.55761,-153.091431,249.992355
1.785645,2.26709,-0.168945,-249.992355,-36.804199,148.880005,0.217773,-0.490234,-0.233643,-31.784056,159.889221,176.856979
1.557861,2.346436,-0.138672,-249.992355,-152.153015,163.23851,-3.637451,-0.072998,0.719971,-24.223326,-167.671188,249.351486
1.99707,1.955322,-0.064697,-249.992355,211.547836,123.504631,0.158936,-0.525879,-0.203613,-55.587765,148.292542,130.508423
1.157715,2.338379,0.095459,-249.992355,-249.992355,219.009384,0.204102,-0.474121,-0.229004,-44.120785,158.416748,156.333923
1.039307,2.334961,0.227295,-249.992355,-248.764023,249.114975,-2.99585,0.100098,1.682373,83.183281,30.647276,-232.666
0.952393,2.402832,0.234375,-249.992355,-249.732956,249.992355,-3.288086,0.003174,1.745117,59.562679,-16.967773,-249.992355
1.334473,2.370117,-0.067139,-249.992355,-245.582565,187.019333,-3.538086,-0.172852,1.747803,52.185055,-55.084225,-249.992355
-0.188232,0.895508,0.081787,-249.992355,0.648498,-237.152084,-3.578857,-0.688232,1.504395,23.437498,-72.181702,-249.694809
1.519043,3.706055,-2.311523,-240.6082,127.105705,-165.275558,-3.240479,-1.025146,1.22876,-9.025574,-38.856506,-249.992355
1.342529,4.028076,-1.739502,-249.992355,86.273186,-241.897568,-2.88623,-0.924316,1.041992,-17.753601,52.650448,-249.992355
1.319824,3.736084,-1.317871,-249.992355,61.798092,-249.740585,-2.6604,-0.747559,0.786865,-31.448362,120.376579,-236.267075
1.448242,3.16748,-0.971191,-249.992355,28.854368,-249.992355,-1.763428,-0.627686,0.621582,-44.960018,129.936218,-233.703598
1.164551,2.827637,-0.672119,-249.992355,4.005432,-249.992355,-0.687256,-0.54541,0.620361,-52.505489,112.785332,-247.428879
0.574951,2.236572,-0.155762,-249.992355,-1.701355,-235.923752,-0.015869,-0.452393,0.431396,-56.091305,90.5075,-245.483383
1.765869,3.256348,-2.615723,-227.722153,175.987228,-74.371338,-2.819336,0.190918,1.637451,109.962456,82.962029,-184.226974
0.253662,1.639893,0.079346,-249.786362,0.404358,-234.535202,0.278564,-0.411865,0.107178,-56.40411,69.633484,-194.725021
0.029785,1.260498,-0.076904,-249.992355,-1.304626,-242.37059,0.249512,-0.405762,0.045654,-54.466244,64.216614,-160.217285
-0.231201,0.710938,0.184814,-241.973862,0.663757,-223.121628,0.246338,-0.403564,-0.001221,-52.169796,60.241695,-124.534599
-0.227783,0.463867,0.289795,-148.361206,-61.630245,-168.853745,0.268555,-0.419434,-0.038086,-51.948544,59.074398,-91.285698
-0.189697,0.552979,0.2771,-197.692856,-13.412475,-197.174057,0.273193,-0.452881,-0.079346,-54.779049,57.701107,-59.585567
-0.209717,0.522217,0.269775,-180.679306,-24.841307,-185.562119,0.228516,-0.493896,-0.118408,-59.04388,59.112545,-26.359556
-0.220947,0.494629,0.274414,-164.451584,-41.687008,-175.949081,0.157471,-0.538086,-0.14624,-61.462399,68.244934,6.698608
-0.214844,0.431396,0.320557,-132.781982,-84.022514,-162.132248,0.105469,-0.580078,-0.158447,-61.889645,85.762016,39.321899
-0.188477,0.4021,0.366211,-116.752617,-108.055107,-155.647278,0.089844,-0.599609,-0.159668,-61.988827,108.428947,71.44928
-0.185303,0.404053,0.403564,-102.233879,-129.806519,-149.017334,0.108398,-0.580566,-0.172852,-61.058041,130.981445,102.264397
-0.190674,0.437988,0.431152,-94.360344,-148.231506,-141.929626,0.251953,-0.406982,0.197266,-56.243893,76.11084,-225.387558
-0.150635,0.483398,0.474609,-94.65789,-161.827072,-135.08606,-0.154297,0.647461,0.407715,-67.466736,-72.9599,5.836486
-0.056641,0.517334,0.487305,-100.685112,-163.261398,-123.634331,-0.098877,0.645508,0.407959,-58.280941,-70.335388,15.182494
2.007813,2.918701,-2.548096,-231.971725,206.695541,-35.15625,-0.020996,0.656006,0.377197,-42.839046,-61.584469,18.875122
-0.191406,0.609863,0.241943,-218.086227,-5.058288,-209.472641,-0.11792,0.632324,0.320068,4.821777,-34.301758,83.129875
2.031006,2.671631,-2.307861,-223.655685,209.526047,-30.372618,-0.038086,0.613525,0.316162,-25.962828,-50.926205,54.367062
0.045654,0.521484,0.469238,-103.134148,-148.193359,-105.720512,-0.024414,0.605225,0.336182,-13.648986,-46.363827,68.450928
1.675049,2.137939,-1.821045,-147.55249,153.175354,-38.421631,-0.053223,0.611084,0.335693,-2.677917,-39.199829,76.675415
1.199707,-0.369385,-0.75,130.195618,118.621819,75.592041,-0.172119,0.658936,0.311768,7.667541,-36.575317,90.270988
1.241943,-0.41333,-0.776611,134.933472,142.044067,44.227596,-0.02124,0.650879,0.32251,-34.118652,-54.306026,32.89032
1.193359,-0.424072,-0.806641,112.693779,189.07164,-0.350952,-0.211426,0.632813,0.431396,-75.714111,-70.648193,-3.692627
1.188965,-0.460205,-0.813232,71.266174,243.263229,-38.871765,-0.348877,0.480469,0.528564,-104.36248,-24.284361,-56.02264
1.338135,-0.617188,-0.702881,60.249325,249.992355,-72.32666,-0.31665,0.560547,0.518799,-92.803947,-53.947445,-23.506163
1.417725,-0.738037,-0.529053,85.815422,249.992355,-112.983696,-0.350098,0.511963,0.557617,-101.394646,-39.512634,-33.988953
1.25293,-0.782959,-0.451172,109.77935,249.992355,-131.858826,-0.355225,0.492188,0.568604,-104.553215,-28.015135,-44.883724
1.053467,-0.780273,-0.535156,122.238152,249.992355,-131.958008,-0.36499,0.438965,0.500732,-106.750481,-25.062559,-63.102718
0.968018,-0.613525,-0.730957,109.52758,249.992355,-142.471313,-0.460205,0.37915,0.514893,-108.695976,-25.451658,-66.238403
0.969238,-0.313232,-0.904785,59.837337,249.992355,-163.11644,-0.544922,0.342041,0.575928,-107.727043,-24.79553,-72.372437
1.925293,2.443604,-2.054688,-189.102158,185.852036,-32.722473,-0.541992,0.349365,0.663086,-105.781548,-27.252195,-84.182732
1.034424,-0.121338,-0.852783,1.708984,249.992355,-179.679855,-0.604248,0.34375,0.729736,-104.278557,-27.893064,-95.329277
0.964111,-0.088135,-0.638428,24.887083,249.984726,-163.49028,-0.67041,0.378662,0.83252,-99.632256,-25.93231,-104.667656
0.789307,-0.016846,-0.645508,-11.314391,249.992355,-136.756897,-0.195801,0.67627,0.335205,6.484985,-42.961117,94.474785
0.581787,0.184326,-0.771973,-50.796505,249.977097,-115.32592,-0.772705,0.366699,0.942139,-91.453545,-22.14813,-111.572258
0.516602,0.444824,-0.967529,-71.06781,249.343857,-106.895439,-0.263428,0.608154,0.472412,-83.564751,-63.995358,-13.626098
0.407471,0.662354,-1.046631,-79.399109,249.992355,-105.865471,-0.199951,0.667236,0.397217,-0.457764,-46.226498,95.436089
0.488037,0.849365,-1.217773,-79.437256,249.992355,-100.08239,-3.146973,-0.479004,2.941895,161.22435,-83.656303,249.67955
0.749756,1.049316,-1.286865,-76.225281,214.408859,-92.636101,-0.46875,0.53418,0.73877,-20.774839,-42.503353,97.732536
0.877197,1.239746,-1.408203,-78.964233,172.935471,-82.580559,-0.940918,0.305664,1.032959,-82.138054,-7.621765,-121.856682
1.047607,1.473633,-1.527832,-92.201225,143.1427,-67.642212,-1.304199,-0.710449,0.678467,137.535095,7.881164,249.992355
1.322998,1.79248,-1.644287,-115.341179,134.19342,-50.73547,-1.456299,-0.708984,0.875,142.173767,-10.147094,249.992355
1.017578,-0.104736,-0.614502,1.846313,249.992355,-182.792648,-1.568848,-0.70752,1.116455,146.316528,-39.932251,249.992355
0.130371,0.491699,0.478516,-87.35656,-118.904106,-95.390312,-1.698975,-0.676025,1.313232,151.977539,-71.94519,249.992355
0.127686,0.466797,0.437988,-62.591549,-83.312981,-87.699883,-1.945313,-0.73999,1.428223,154.594421,-93.505852,249.992355
0.051758,0.483154,0.27832,-71.136475,-44.441219,-66.184998,-2.265625,-0.882324,1.525635,154.518127,-106.544487,249.992355
1.970215,0.154053,-2.383301,113.922112,125.541679,249.992355,-2.544922,-0.888672,1.738525,162.780746,-105.598442,249.992355
1.956055,0.015625,-2.310791,178.344711,221.83989,218.719467,-2.777344,-0.799316,2.002686,170.745834,-87.738029,249.992355
1.984863,-0.033936,-2.148682,222.488388,249.992355,179.084763,-3.158203,-0.701904,2.223389,176.742538,-46.478268,249.992355
2.067139,-0.072754,-2.016357,244.88829,249.992355,141.876221,-0.265381,0.614014,0.549072,-11.192321,-44.509884,96.214287
2.154541,-0.018066,-1.959473,249.992355,249.992355,97.694389,-3.204346,-0.623291,2.428711,179.580673,-9.536743,249.992355
2.072998,0.056396,-1.937744,249.992355,249.992355,37.139893,-3.13916,-0.575928,2.907959,173.812851,-46.005245,249.977097
1.880371,0.13623,-1.939941,249.992355,249.992355,-23.956297,-3.047363,-0.296875,2.764404,133.148193,-129.608154,249.992355
1.611084,0.245605,-1.904541,249.992355,249.992355,-74.417114,-2.973145,-0.116943,2.508789,87.806694,-156.280518,249.992355
1.307129,0.327881,-1.809814,249.900803,249.992355,-106.559746,-2.814697,0.084473,2.304199,40.878292,-160.858139,231.330856
1.192627,0.392578,-1.601074,249.702438,249.992355,-120.315544,-2.413818,0.269531,2.154297,7.896423,-155.853271,203.132614
2.137695,0.448975,-2.255859,59.005733,16.799927,249.992355,-2.017578,0.382568,1.927246,-13.34381,-152.96936,172.30986
1.204102,0.446777,-1.33252,249.992355,249.992355,-124.588005,-1.767334,0.508545,1.644775,-28.533934,-137.237549,156.532288
0.848633,0.586914,-1.243164,219.856247,249.992355,-135.856628,-1.524414,0.604004,1.426025,-32.829285,-96.633904,139.526367
0.642334,0.375488,-1.067871,192.939743,249.992355,-150.9552,-1.23291,0.573975,1.200195,-28.96118,-61.44714,118.759148
0.529297,0.147461,-0.768066,182.685837,228.141769,-158.325195,-0.852051,0.502686,0.92334,-26.870726,-46.19598,104.057304
0.415039,0.031494,-0.599121,178.207382,198.478683,-155.166626,-2.97583,-0.592285,2.694336,181.068405,-18.455505,249.992355
0.300049,-0.045654,-0.520264,171.737656,171.096786,-148.406982,-1.124023,-0.746094,0.511963,131.759644,22.834776,249.992355
0.206299,-0.104004,-0.463135,161.987289,143.981934,-141.960144,-1.085449,0.276123,1.142578,-72.7005,13.427733,-132.255554
0.116699,-0.151855,-0.412842,150.596619,116.523735,-135.658264,-1.385498,0.198975,1.391846,-61.019894,55.862423,-155.899048
0.033936,-0.193359,-0.355713,140.739441,89.004509,-130.157471,0.426758,-0.249512,-0.063232,-21.797178,4.386902,62.927242
-0.036621,-0.227783,-0.301025,131.736755,65.864563,-126.739494,0.361816,-0.288574,-0.056396,-12.397765,-4.920959,96.794121
-0.040527,-0.253418,-0.300537,122.108452,46.859737,-125.556938,0.318115,-0.341064,-0.033936,-1.785278,-16.120911,129.272461
1.077148,0.539551,-1.22168,247.718796,249.587997,-125.328056,0.28125,-0.411133,-0.015625,9.048462,-23.880003,159.645081
2.179688,0.623535,-2.038086,38.787842,-77.346802,249.519333,0.245117,-0.479736,-0.005859,18.661499,-27.229307,186.515793
0.001709,-0.273926,-0.342773,112.663261,31.112669,-124.954216,0.193115,-0.5354,0.024414,27.862547,-23.101805,211.074814
1.553711,0.41748,-1.606201,37.345886,-218.757614,249.992355,0.134766,-0.562988,0.074463,35.377502,-12.489318,232.9254
0.05835,0.506104,0.294678,-76.339722,-6.126403,-53.146358,0.082031,-0.587646,0.116211,44.067379,5.020141,246.543869
0.078857,0.491211,0.29248,-68.504333,24.42169,-47.851559,0.013672,-0.627686,0.128174,53.451534,25.444029,249.992355
0.036621,0.461426,0.268799,-64.64386,47.882076,-47.531124,-0.067871,-0.679443,0.125488,62.171932,44.296261,249.992355
-0.100098,0.404785,0.223145,-69.763184,71.708679,-50.300594,0.474609,-0.201416,-0.064697,-30.72357,10.246276,25.718687
-0.183105,0.297607,0.197266,-74.34082,87.8601,-48.72131,-0.113525,-0.668945,0.170166,72.479248,61.782833,249.992355
-0.120605,0.177979,0.20166,-70.320129,84.175102,-50.598141,-0.154541,-0.530273,0.307129,85.411064,77.903748,249.992355
1.876709,0.546631,-1.80127,39.93988,-154.60968,249.946579,-0.197021,-0.48584,0.312988,86.830132,78.720093,249.992355
-0.14502,-0.000488,0.104248,-45.06683,63.980099,-39.367676,-0.239746,-0.453125,0.405518,90.774529,65.788269,249.992355
-0.172852,-0.084229,0.072754,-26.31378,47.32513,-27.542112,-0.264404,-0.464355,0.494629,93.948357,48.561092,249.992355
-0.169189,-0.143555,-0.000977,-4.447937,19.744873,-16.822815,-0.300537,-0.471191,0.58252,97.618095,27.725218,249.992355
-0.191895,-0.166748,-0.078125,18.180847,-20.004272,2.89917,-0.392578,-0.473389,0.674072,98.716728,4.005432,249.992355
-0.098633,0.089844,0.148193,-59.379574,74.127197,-49.400326,-0.502441,-0.483154,0.755859,99.090569,-16.197205,249.992355
-0.217773,-0.260498,-0.245605,65.979004,-132.232666,50.689693,-0.650635,-0.551758,0.839355,101.608269,-27.381895,249.992355
-0.239014,-0.33374,-0.262451,86.166374,-193.687424,79.460144,-0.807129,-0.595947,0.941895,104.156487,-30.044554,249.992355
-0.175537,-0.415039,-0.270264,97.625725,-243.148788,110.015862,-0.866699,-0.550781,1.095703,108.032219,-35.78949,249.992355
-0.036133,-0.450684,-0.351074,97.785942,-249.992355,137.275696,-0.104004,-0.570068,0.263428,84.190361,73.127747,249.992355
0.133545,-0.422363,-0.498291,88.829033,-249.984726,160.644516,0.51001,-0.150635,-0.066895,-40.229794,20.019531,-12.580871
0.264648,-0.358398,-0.658936,77.033997,-249.992355,186.744675,-1.219971,0.246826,1.250732,-65.77301,34.454346,-142.64679
0.410156,-0.27417,-0.822021,58.082577,-249.992355,221.176132,0.586914,-0.130127,-0.054932,-60.653683,59.143063,-81.42852
0.5896,-0.127197,-0.992432,39.916992,-249.343857,248.023972,-1.568848,0.128418,1.574219,-60.043331,74.752808,-171.05101
0.883789,0.041504,-1.190186,32.577515,-249.992355,249.992355,-1.717041,0.03418,1.796631,-61.622616,85.998528,-189.308151
1.236328,0.240723,-1.396484,33.325195,-249.992355,249.992355,-1.854248,-0.078125,2.025635,-66.040039,84.800713,-210.922226
-0.185059,-0.202881,-0.174805,41.732784,-73.699951,25.794981,-1.961182,-0.19165,2.25293,-77.171326,65.666199,-234.794601
-0.038086,1.508545,-0.966309,-20.332335,163.764938,-46.897884,-2.093262,-0.270996,2.454102,-90.934746,36.621094,-249.336227
-0.008789,1.502441,-0.967041,-24.223326,242.691025,-67.855835,-2.295654,-0.352539,2.563965,-101.745598,21.072386,-249.992355
0.110107,1.53125,-0.967773,-25.085447,249.992355,-94.474785,0.551758,-0.124268,-0.06958,-50.399776,37.567139,-47.897335
0.316895,1.602539,-0.951172,-22.125242,249.05394,-128.112793,-2.471191,-0.712646,2.563721,-117.759697,39.649963,-249.992355
1.630859,1.507813,-0.932617,80.383293,249.992355,-249.992355,-2.419189,-0.834961,2.552246,-111.076347,48.545834,-249.992355
0.958008,1.744141,-0.952637,12.886046,249.992355,-196.037277,-2.42041,-0.966309,2.460938,-99.502556,66.322327,-249.992355
1.256836,1.709473,-0.977539,40.008545,249.992355,-226.379379,-2.54248,-1.054443,2.251221,-81.146233,121.612541,-249.992355
1.477051,1.618408,-0.960205,64.743042,249.992355,-249.992355,-2.446533,-0.538574,2.581299,-112.487785,27.374266,-249.992355
0.613525,1.689697,-0.939941,-9.338379,249.68718,-163.955673,-1.634766,-1.158203,1.578369,-57.876583,248.619064,-249.992355
0.022949,1.54541,-0.983887,-16.906738,88.470451,-28.488157,-0.910645,-1.199463,0.984131,-88.981621,249.771103,-249.992355
0.167725,0.570313,0.061279,-228.622421,-168.495163,72.677612,-0.325684,-0.964355,0.59375,-116.477959,249.992355,-249.793991
0.268799,1.604736,-0.828857,-29.891966,-32.829285,-1.411438,-0.139648,-0.717529,0.411865,-133.880615,248.611435,-249.656662
0.324219,1.533203,-0.797852,-48.110958,-82.496635,-0.923157,-0.072754,-0.681885,0.311035,-151.412964,232.330307,-249.992355
0.38501,1.371338,-0.810303,-65.979004,-126.41143,-4.554749,0.127441,-0.476563,0.372803,-143.310547,206.504807,-244.018539
0.488525,1.175537,-0.775879,-65.345764,-173.088058,2.204895,0.189209,-0.376465,0.363281,-126.174919,165.573105,-205.787643
0.548828,1.187744,-0.626953,-54.725643,-210.11351,30.97534,0.313232,-0.297119,0.21167,-108.337395,132.568359,-174.560532
0.671631,1.388428,-0.484375,-70.579529,-229.911789,68.229675,0.49292,-0.197754,0.065918,-88.378899,103.85894,-145.599365
0.803711,1.491943,-0.427002,-126.304619,-238.380417,74.356079,0.588379,-0.14502,-0.017822,-71.914673,80.993645,-113.952629
0.633057,1.193604,-0.128906,-182.090744,-229.965195,59.43298,-2.35083,-1.113281,2.012695,-58.914181,206.901535,-249.992355
0.377441,0.873535,0.07666,-210.342392,-205.802902,53.176876,-0.632568,0.345947,0.489746,34.767151,97.290031,-67.687988
0.253418,0.679688,0.085938,-223.182663,-184.555038,60.073849,-0.54248,0.467041,0.473633,45.82214,81.321709,-58.692928
1.710205,1.387695,-0.904541,88.829033,249.992355,-249.54985,-0.424805,0.606445,0.448242,59.715267,64.628601,-41.694637
0.160645,1.588867,-0.920166,-20.095823,24.79553,-12.176513,-0.294678,0.746338,0.437744,71.678162,52.490231,-22.048948
1.789795,1.308838,-0.831543,95.062248,249.992355,-249.992355,-0.371826,0.958496,0.133301,54.725643,-42.442318,12.191772
1.804199,-0.616211,0.079346,105.476372,249.992355,-249.55748,-0.243164,0.897217,0.39502,72.952271,28.182981,5.355834
2.005127,0.99585,-0.669189,104.537956,249.992355,-249.992355,-0.310791,0.888916,0.268311,65.063477,8.026123,7.957458
0.118652,0.499512,0.054443,-228.897079,-157.852173,78.2547,-0.374023,0.899414,0.167236,57.762142,-16.830444,8.834839
1.562988,-0.677979,-0.15625,35.40802,152.168274,161.117538,-0.229248,0.856934,0.438721,76.858521,41.778561,-4.547119
1.359375,-0.871094,-0.181885,82.977287,167.221054,137.283325,-0.669189,0.253662,0.522461,27.9541,107.337944,-73.226929
1.264404,-1.021973,-0.175781,102.691643,164.237961,116.394035,-1.121094,-0.742188,1.259033,-89.057915,64.331055,-143.699646
1.146729,-1.104492,-0.15625,89.927666,164.443954,86.029045,-0.768799,0.130615,0.51709,7.698059,112.93029,-94.116203
0.959717,-1.140625,-0.138916,57.121273,188.056931,36.712646,-0.747559,0.059082,0.553467,-5.630493,100.616447,-101.478569
1.000244,-1.13623,-0.095459,22.750853,211.181625,-27.976988,-0.69165,-0.033203,0.706787,-18.4021,74.09668,-112.068169
1.095459,-1.223145,-0.134033,16.204834,218.124374,-68.641663,-0.77832,-0.114502,0.793945,-32.096863,39.260864,-122.650139
0.971924,-1.433105,-0.180176,58.845516,225.463852,-65.299988,-0.925049,-0.182129,0.833252,-48.583981,8.132935,-131.034851
0.91626,-1.469238,-0.160645,118.194572,233.589157,-65.414429,-1.032471,-0.273682,0.845459,-65.994263,-9.70459,-135.520935
1.919922,1.191162,-0.741455,99.792473,249.992355,-249.992355,-1.147705,-0.389404,0.880615,-82.397453,-9.727478,-135.757446
1.203613,-1.439453,0.00293,133.804321,233.482346,-123.00872,-1.267822,-0.484131,0.941162,-93.437187,9.658813,-131.446838
1.72583,-0.916016,0.037109,76.202393,242.996201,-242.454514,-1.269043,-0.562012,1.068115,-93.490593,38.398743,-129.890442
1.791016,-0.424316,0.333252,140.144348,249.771103,-249.992355,-1.170166,-0.656494,1.193115,-91.155998,58.464046,-135.276794
1.565186,-0.118652,0.320801,175.346359,249.992355,-249.992355,-0.340332,1.05127,0.116455,51.918026,-67.596436,16.906738
1.49585,0.108643,-0.068604,139.228821,249.992355,-249.992355,-0.697754,0.181396,0.562744,19.874573,113.334648,-83.900444
1.569824,0.170166,-0.243896,86.959831,240.974411,-249.992355,-0.304688,1.07959,0.078369,40.618893,-90.850822,21.354673
1.624756,0.216064,-0.265625,73.814392,228.63768,-249.992355,-2.225586,-0.292725,1.912109,44.143673,-191.108688,249.992355
1.719482,0.304443,-0.44873,82.31353,243.904099,-249.992355,-0.263184,0.864014,-0.040039,8.491516,-112.42675,37.010193
1.89502,0.485352,-0.628662,90.446465,249.992355,-249.992355,-1.187988,-0.816406,1.255615,-87.219231,66.963196,-146.842957
2.032471,0.676025,-0.660645,98.037712,249.992355,-249.992355,-2.021729,-1.874512,1.814941,199.363693,-91.827385,249.992355
2.046143,0.827393,-0.62915,104.278557,249.992355,-249.992355,-2.075928,-1.900391,2.01123,198.051437,-105.773918,249.992355
1.602539,-1.288574,0.106934,93.414299,229.759201,-205.32988,-2.110352,-1.876709,2.07959,186.515793,-138.336182,249.992355
0.052734,0.442139,0.093018,-228.38591,-153.205872,73.066711,-2.247803,-1.929443,2.09082,168.167099,-176.925644,249.992355
1.907715,-0.459473,-0.109619,-19.424438,115.737907,191.024765,-2.640381,-2.129395,2.272949,166.572556,-202.522263,249.992355
-0.120361,0.345947,0.190918,-239.21965,-140.159607,70.648193,-2.720215,-2.208252,2.507568,166.351303,-229.576096,249.992355
1.849609,1.266113,-0.388672,83.305351,140.510559,249.992355,-2.710205,-2.162354,2.457764,120.986931,-249.992355,249.992355
2.135498,1.422363,-0.52417,128.356934,124.26757,249.992355,-2.998779,-2.123047,2.325684,66.452026,-245.582565,249.977097
2.387939,1.58252,-0.618164,159.53064,97.953789,249.992355,-3.105469,-1.89502,2.425293,78.147888,-220.024094,249.992355
2.609863,1.747559,-0.688721,176.72728,68.67218,249.992355,-0.268311,0.992432,0.003662,21.934507,-107.345573,26.931761
2.868164,1.890869,-0.769287,186.325058,46.768185,249.992355,-3.168701,-1.558105,2.366211,75.180054,-207.191452,249.992355
3.064697,1.901123,-0.848633,192.932114,44.166561,249.992355,-2.644775,-0.552246,2.300537,1.205444,-179.290756,249.992355
3.023926,1.848389,-0.833252,199.623093,76.820374,249.992355,-1.932129,-0.574951,1.517822,53.657528,-189.102158,207.252487
2.976318,1.75415,-0.794189,209.091171,123.90136,249.992355,-2.009277,-0.925781,1.25708,-0.221252,-149.398804,152.336121
2.898682,1.553467,-0.773438,210.830673,163.74205,249.992355,-2.179932,-0.727539,1.272705,-72.265625,-106.857292,122.489922
2.602783,1.220703,-0.764893,221.115097,186.630234,249.992355,-1.935791,0.087646,1.138428,-81.665031,-75.584412,87.409966
1.570068,1.08374,-0.25,35.934448,145.347595,249.992355,-1.351318,0.621582,0.713135,-42.045589,-47.95837,69.747925
2.283691,1.072754,-0.838623,235.954269,177.47496,249.725327,-0.90625,0.800293,0.237793,-5.302429,-42.91534,72.769165
1.829346,1.294922,-0.630615,222.71727,86.181633,249.992355,-0.675781,0.81543,0.006348,11.512755,-60.455318,76.98822
1.672363,1.11792,-0.506836,203.392014,41.847225,240.325912,-0.48877,0.776611,-0.039795,11.695861,-83.206169,70.884705
1.628418,0.86499,-0.623535,174.545273,3.181457,202.224716,-0.330322,0.785156,-0.022461,7.354736,-102.813713,53.733822
1.449463,0.651611,-0.800537,139.442444,-21.858213,175.941452,-3.105469,-1.281738,2.227051,-13.481139,-203.857407,249.04631
1.279297,0.315918,-0.696289,142.227173,-34.034729,175.163254,-1.26001,-0.937988,1.258789,-83.427422,69.702148,-141.75415
1.218262,0.003418,-0.518311,186.012253,-29.594419,186.195358,-1.94458,-1.802246,1.593262,200.973495,-92.842094,249.992355
1.210205,-0.099854,-0.626465,181.12944,-6.370544,167.549118,-1.250732,-1.224854,1.468262,-81.924431,73.379517,-137.321472
1.270752,-0.178711,-0.758789,113.975517,11.276244,118.499748,0.059814,-0.166504,-0.199951,-97.885124,113.883965,13.710021
1.182617,-0.325195,-0.583252,122.093193,49.72839,106.018059,0.042236,-0.119385,-0.247803,-85.762016,106.750481,39.665222
1.171875,-0.336426,-0.694092,123.313896,88.920586,91.964714,0.055664,-0.088135,-0.277832,-75.538635,101.913445,66.833496
2.073242,1.201904,-0.795898,239.540085,134.475708,249.93132,0.038818,-0.077881,-0.309082,-64.453125,96.992485,96.939079
1.336426,0.89209,-0.156738,-9.994507,138.458252,249.992355,-0.006836,-0.089111,-0.294434,-52.383419,92.002861,125.991814
-0.061523,0.381104,0.14917,-231.086716,-146.438599,68.321228,-0.041504,-0.118652,-0.25708,-39.916992,84.190361,152.290344
0.918701,0.568848,-0.047363,-91.239922,80.92498,249.992355,-0.058594,-0.162598,-0.248535,-26.535032,74.913025,175.445541
-0.123535,0.333252,0.228516,-247.909531,-139.823914,77.812195,-0.091797,-0.198975,-0.240967,-12.695312,67.207336,193.679794
-0.099365,0.312256,0.256592,-249.992355,-143.844604,82.801811,-0.137207,-0.231934,-0.244385,0.488281,64.552307,209.442123
-0.087402,0.285156,0.268555,-249.992355,-149.299622,83.244316,-0.189453,-0.248047,-0.262451,13.153075,66.184998,224.273666
-0.0896,0.259277,0.260742,-249.992355,-155.548096,81.512444,0.093262,-0.203125,-0.16748,-111.778252,123.329155,-13.97705
-0.114014,0.250977,0.237549,-249.992355,-161.308273,80.726616,-0.247803,-0.270752,-0.267334,25.505064,68.305969,235.687241
-0.137207,0.259277,0.217285,-249.992355,-165.679916,80.718987,-0.244629,-0.37915,-0.30957,44.677731,71.014404,249.725327
1.131592,0.706787,-0.102539,-52.703854,116.706841,249.992355,-0.245361,-0.457275,-0.289307,55.099483,74.020386,249.992355
-0.136963,0.268311,0.229004,-249.992355,-174.217209,84.785454,-0.262451,-0.533691,-0.221436,67.909241,78.483582,249.992355
-0.138916,0.266846,0.237793,-249.992355,-177.528366,87.34893,-0.346924,-0.591309,-0.14209,84.030144,81.962578,249.992355
-0.133301,0.262207,0.221191,-249.992355,-178.802475,90.75164,-0.446533,-0.656738,-0.078613,98.487846,85.166924,249.992355
-0.113281,0.254639,0.201416,-249.870285,-177.970871,96.511833,-0.557129,-0.716064,-0.041992,111.488335,86.807243,249.992355
-0.145264,0.267578,0.214355,-249.992355,-169.853195,81.954948,-0.653564,-0.727783,0.00708,124.4049,85.418694,249.992355
-0.05127,0.215332,0.18042,-249.992355,-163.124069,118.392937,-0.759033,-0.707275,0.104736,132.606506,77.552795,249.992355
-0.011963,0.205078,0.160156,-244.056686,-152.481079,134.895325,-0.855957,-0.689941,0.22876,135.391235,63.400265,249.992355
0.022217,0.200684,0.137695,-232.208237,-141.571045,154.960632,-0.960205,-0.723633,0.343262,132.705688,43.495174,249.992355
0.053955,0.209961,0.139648,-219.642624,-130.584717,175.025925,-0.260986,-0.319336,-0.275391,35.316467,69.259644,244.38475
0.085938,0.220459,0.133789,-206.83287,-119.461052,191.680893,0.137207,-0.223145,-0.130859,-128.173828,133.544922,-43.113705
0.125244,0.24585,0.108887,-195.556625,-103.324883,206.809982,-1.257324,-1.100586,1.346436,-80.123901,74.417114,-138.122559
0.192139,0.284424,0.077637,-184.623703,-78.49884,225.212082,0.20166,-0.326172,-0.04248,-166.732773,172.103867,-101.84478
0.305908,0.326904,0.064697,-171.501144,-46.081539,245.14769,-1.34375,-1.255127,1.610596,-86.441032,68.855286,-139.73999
0.487793,0.377686,0.042725,-151.649475,-7.469177,249.992355,-1.548828,-1.257813,1.737549,-96.137993,76.202393,-142.25769
0.695801,0.460693,-0.00415,-124.65667,37.254333,249.992355,-1.76416,-1.324463,1.862793,-109.02404,99.586479,-142.471313
-0.084473,0.233643,0.188721,-249.992355,-172.401413,105.36956,-1.805664,-1.402832,1.987061,-114.326469,130.493164,-147.209167
1.459961,0.316162,-1.418213,-72.189331,142.593384,-137.290955,-1.643799,-1.459229,2.047363,-115.844719,153.968811,-158.638
1.259766,0.191406,-1.275879,-64.407349,139.533997,-130.096436,-1.407959,-1.388428,2.069824,-123.786919,149.06311,-171.43248
1.08374,0.075439,-1.116211,-51.818844,130.973816,-121.459953,0.19458,-0.26709,-0.078369,-147.514343,151.138306,-71.784973
0.894043,-0.031494,-0.9729,-45.410152,123.39782,-116.378777,-1.083984,-1.165039,1.956055,-171.31041,44.120785,-209.602341
0.295654,-0.352783,-0.536133,-11.985778,144.897461,-135.566711,-1.200439,-1.155518,1.891846,-193.717941,-17.959595,-223.930344
0.5979,-0.179688,-0.7229,-33.966064,116.859428,-120.880119,-1.553223,-1.193115,1.940918,-204.246506,-60.157772,-230.941757
0.472656,-0.238281,-0.624268,-25.001524,121.994011,-125.671379,-1.895264,-1.354736,1.904297,-209.854111,-66.055298,-241.73735
0.368164,-0.299316,-0.581543,-18.295288,132.225037,-129.867554,-1.189209,-1.25,2.081543,-143.39447,106.689445,-190.666183
0.729492,-0.118408,-0.842285,-41.122433,117.820732,-116.699211,-2.079834,-1.556396,1.690918,-221.572861,64.506531,-249.992355
1.753418,0.428467,-1.577393,-75.027466,143.676758,-150.497437,-2.012695,-1.556641,1.753662,-220.268234,-19.851685,-249.855026
0.521973,1.537598,-0.268799,-30.441282,30.937193,-249.992355,0.178711,-0.509521,0.00293,-203.575119,203.826889,-163.833603
2.598877,0.791504,-2.0979,-122.581474,150.588989,-192.512497,0.035156,-0.626709,0.183105,-215.728745,216.16362,-194.23674
2.939697,1.073975,-2.379639,-140.060425,151.374817,-207.47374,-0.161377,-0.669434,0.328613,-222.83934,227.584824,-220.848068
3.243896,1.393555,-2.727295,-141.105652,140.922546,-230.041489,-0.32251,-0.71875,0.464111,-233.612045,238.143906,-245.246872
3.499023,1.733643,-3.035889,-122.070305,122.085564,-248.825058,0.211426,-0.404785,-0.033447,-186.157211,189.842209,-132.125854
3.506104,2.219238,-3.023926,-117.126457,87.22686,-249.992355,-0.52002,-1.020996,0.59082,-249.992355,244.682297,-249.862656
3.215332,2.868652,-2.563477,-152.46582,36.79657,-249.992355,-0.71167,-1.243164,0.739502,-248.008713,228.881821,-249.855026
2.579834,2.964355,-1.912598,-188.133224,16.098022,-249.992355,-1.220947,-1.437744,1.186768,-230.972275,194.190964,-249.992355
2.449951,2.326416,-1.506104,-151.733398,22.766111,-249.992355,-1.879639,-1.523926,1.591064,-216.972336,140.007019,-249.992355
2.498779,2.123047,-1.092285,-95.825188,-0.648498,-249.992355,-0.42749,-0.846924,0.574707,-244.651779,246.345505,-249.992355
1.698975,1.910645,-0.47583,-52.513119,-6.29425,-249.778732,-0.823242,0.620361,0.533691,113.868706,-41.069027,-14.015197
0.28418,-0.415283,-0.489258,-7.240295,152.96936,-139.770508,-0.486816,0.580566,0.593018,112.762444,-44.692989,-4.28772
2.171631,0.579102,-1.838379,-97.663872,147.05658,-173.110947,-0.265137,0.508545,0.533203,104.125969,-54.351803,6.721496
0.269287,-0.474121,-0.46582,-0.419617,159.675598,-135.734558,-0.193604,0.452881,0.526367,94.566338,-64.559937,17.837524
0.297852,-0.451904,-0.324463,100.341789,39.207458,21.682737,-0.186035,0.431396,0.608887,88.211052,-69.046021,26.115416
0.228271,-0.560303,-0.366455,37.742615,167.27446,-125.709526,-0.21582,0.429932,0.642334,83.618156,-58.624264,29.556273
-0.154541,1.182617,-0.07959,-35.896301,71.228027,-249.992355,-0.269287,0.43042,0.619385,77.278137,-29.373167,29.647825
3.563232,0.675781,-1.322998,173.622116,132.644653,227.75267,-0.313965,0.418945,0.601074,70.198059,11.71112,30.09033
3.286133,0.650146,-1.4021,142.433167,119.819633,203.605637,-0.338379,0.411621,0.67041,68.336487,52.597042,27.481077
3.084717,0.69751,-1.201904,167.190536,141.624451,211.166367,-0.30835,0.399902,0.733643,71.296692,88.813774,14.991759
2.940186,0.790283,-1.178223,180.335983,149.06311,191.329941,-0.790039,-0.35083,0.814453,-44.868465,152.854919,-92.674248
2.715576,0.689209,-1.157715,181.13707,124.084465,153.259277,-0.197754,0.246826,0.751221,59.883114,130.599976,-14.968871
2.239258,0.467773,-1.138184,166.458115,96.122734,107.292168,-0.27124,0.190674,0.625732,51.422115,126.075737,-19.844055
1.662109,0.226318,-1.089111,141.731262,75.180054,74.539185,-0.387207,0.145508,0.443848,44.517513,110.649101,-25.192259
1.292969,0.022461,-0.95874,126.15966,55.313107,60.089108,-0.478516,0.082764,0.392334,34.324646,99.182121,-33.7677
1.054443,-0.118408,-0.756836,116.58477,38.635254,44.326778,-0.595459,0.018311,0.41333,20.706175,99.57885,-44.479366
0.223145,-0.508545,-0.447754,12.08496,162.521347,-129.226685,-0.778564,-0.041748,0.443115,7.232666,119.033806,-53.512569
0.818848,-0.241943,-0.546631,113.616936,30.403135,22.933958,-0.898682,-0.063965,0.486328,-1.579285,158.52356,-62.95776
0.369873,-0.41626,-0.35498,113.021843,39.787292,12.779235,-0.825439,-0.064697,0.531738,-5.325317,194.396957,-75.912476
0.228271,-0.487793,-0.302246,80.345146,45.288082,30.334471,-0.674316,-0.096924,0.615479,-8.277893,201.408371,-86.631767
0.18457,-0.477295,-0.323975,56.678768,62.713619,24.887083,-0.645508,-0.218262,0.757324,-19.927979,180.061325,-90.415947
0.224365,-0.435791,-0.353271,43.67828,94.16198,-7.202148,-1.072998,0.595215,0.48877,108.200066,-53.161617,-18.829346
0.381592,-0.492676,-0.313477,45.448299,138.847351,-55.068966,-0.231445,0.33667,0.74585,69.168091,116.5924,-3.288269
0.416016,-0.622803,-0.195313,57.937618,186.317429,-90.606682,-1.19165,0.493408,0.560547,100.044243,-82.855217,-10.147094
0.203857,-0.724121,-0.118896,73.493958,226.791367,-96.069328,-4.083984,-2.348633,1.763428,145.706177,-26.420591,249.992355
0.020996,-0.733887,-0.170654,84.938042,238.906845,-91.072075,-1.613525,0.126221,0.900391,82.550041,-110.870354,51.559444
