ax,ay,az,gx,gy,gz,ax,ay,az,gx,gy,gz
2.16333,4.510498,-2.181885,-209.510788,249.992355,-249.992355,-1.595947,-0.650879,-0.018799,-18.066406,-174.194321,177.894577
1.531006,4.391846,-1.905762,-214.424118,249.992355,-249.992355,-1.377686,-0.610596,-0.040039,-25.909422,-166.89299,156.944275
0.723877,3.774658,-1.201904,-239.562973,156.921387,-249.992355,-1.200928,-0.508545,-0.05957,-33.233643,-150.58136,129.699707
-0.246338,2.545166,-0.680664,-249.992355,70.899963,-249.992355,-1.165527,-0.348145,-0.0271,-36.308289,-124.732964,99.380486
-0.786621,1.412598,0.085938,-231.018051,32.585144,-249.992355,-1.184082,-0.185547,0.073975,-29.556273,-98.953239,75.386047
-0.760498,0.93042,0.362549,-145.439148,7.102966,-249.992355,-1.101074,-0.064453,0.15625,-17.372131,-82.93914,59.906002
3.513672,1.304688,-1.608887,-17.829895,249.992355,-249.992355,-0.883789,-0.010986,0.201416,-10.620116,-81.039421,48.042294
0.762207,1.582275,-0.143555,-167.205795,-249.351486,249.992355,-0.667725,0.018799,0.194336,-12.138366,-93.391411,37.109375
0.910156,1.731201,-0.264404,-159.927368,-218.246445,249.992355,-0.565186,0.138672,0.224365,-16.052246,-123.443596,25.062559
1.225098,1.848877,-0.365967,-156.738281,-181.327805,249.992355,-1.805176,-0.838379,-0.00293,-12.947082,-179.275497,191.261276
0.095215,-0.557861,-0.116943,-29.991148,249.992355,-93.536369,-0.611084,0.196289,0.280029,-8.659363,-126.342766,24.223326
0.052002,-0.60498,-0.145996,-32.836914,249.992355,-118.080132,-0.658203,0.100342,0.24292,-25.596617,-106.498711,2.426147
0.012207,-0.666992,-0.178467,-33.8974,249.992355,-137.954712,-0.664307,0.064941,0.265869,-35.797119,-84.770195,-5.867004
-0.011719,-0.690186,-0.249023,-41.519161,249.992355,-150.939941,-0.678467,0.051025,0.268066,-28.007505,-64.071655,-0.564575
-0.013916,-0.655273,-0.32959,-55.427547,249.992355,-165.88591,-0.70874,0.018066,0.268555,-24.818419,-45.928951,-1.480102
-0.020264,-0.623291,-0.366699,-68.099976,249.984726,-177.60466,-0.75708,-0.009521,0.32959,-17.166138,-27.656553,-6.088256
-0.08374,-0.598877,-0.379639,-81.451408,249.504074,-179.916367,-0.782959,-0.038818,0.355225,-6.752014,-8.384705,-11.32965
-0.10498,-0.554443,-0.402588,-91.697685,249.992355,-174.301132,-0.809082,-0.089111,0.357422,-1.152039,10.856627,-17.982483
-0.073242,-0.508301,-0.461182,-97.251884,249.992355,-156.105042,-0.86084,-0.145996,0.339355,0.228882,29.846189,-25.352476
0.034424,-0.485107,-0.579834,-100.685112,223.59465,-138.023376,-0.914307,-0.212158,0.3125,0.091553,49.903866,-32.363892
0.155518,-0.567139,-0.110596,-24.993895,249.992355,-78.575134,0.065918,-1.092773,-0.400391,-2.76947,-29.281614,187.087997
0.124268,-0.466797,-0.690186,-97.694389,198.64653,-141.151428,-0.650879,0.178223,0.275635,-8.476257,-120.895378,17.608643
0.093506,-0.391113,-1.029297,-85.09063,169.708237,-138.885498,-1.966553,-1.068115,0.000488,-10.681151,-185.9207,202.67485
0.13623,-0.274658,-1.201904,-84.037773,165.855392,-128.158569,-0.56958,0.064697,0.18042,-16.700745,-111.206047,28.625486
0.129883,-0.158936,-1.437744,-87.692253,162.895187,-115.882866,-2.567871,-1.582275,-0.028076,-2.868652,-222.106918,249.992355
0.200195,-0.027832,-1.696533,-95.581047,160.270691,-100.662224,-2.243896,-1.350098,-0.018799,-7.019042,-199.554428,229.202255
0.361572,0.151611,-1.963623,-95.588676,166.877731,-105.957024,-0.243652,-1.136963,-0.343994,-9.010315,-60.9436,236.633286
0.537598,0.306396,-2.341797,-98.930351,171.592697,-122.177116,-0.385742,-1.128174,-0.346191,-13.137816,-67.741394,249.328598
0.730469,0.51709,-2.792969,-114.425652,168.815598,-139.11438,-0.516113,-1.12207,-0.335205,-17.944336,-70.655823,249.992355
0.98291,0.745117,-3.279785,-137.039185,161.163315,-152.168274,-0.636719,-1.148438,-0.322754,-21.034239,-71.640015,249.992355
1.468994,0.905762,-3.734619,-156.471252,168.800339,-167.282089,-0.75293,-1.211426,-0.294189,-21.347044,-74.386597,249.992355
1.793701,1.236084,-4.147705,-194.053635,200.111374,-173.431381,-0.878418,-1.30127,-0.267578,-19.363403,-82.984917,249.992355
0.128906,-0.446045,-0.833984,-89.660637,181.785568,-149.711609,-1.070068,-1.405762,-0.246338,-15.266418,-98.770134,249.992355
0.130615,-0.598633,-0.226318,3.761291,248.756393,-67.024231,-1.302734,-1.520508,-0.222656,-11.016845,-122.039787,249.992355
1.771484,1.759766,-4.50415,-243.164047,227.348312,-180.458054,-1.521729,-1.644531,-0.201172,-7.659912,-149.978638,249.992355
0.375488,-0.517334,-0.519287,48.103329,157.318115,-56.922909,-1.796875,-1.7771,-0.18335,-5.226135,-174.896225,249.992355
1.507813,1.962646,-0.542725,-146.583557,-141.609192,249.992355,-0.112793,-1.146729,-0.348633,-6.988525,-51.467892,216.346725
1.724609,2.080566,-0.623291,-120.231621,-104.576103,249.992355,-2.410889,-2.096191,-0.092041,-4.173279,-193.290695,249.992355
2.057129,2.212158,-0.717041,-89.263908,-75.134277,249.992355,-2.773926,-1.642822,-0.009033,0.465393,-243.782028,249.992355
2.393799,2.327148,-0.802002,-53.314205,-48.72131,249.992355,-2.631836,-2.219971,-0.062012,-4.219055,-192.062363,249.992355
2.611084,2.335938,-0.908203,-9.635925,-26.275633,249.992355,-2.739258,-2.260986,-0.043945,-7.392883,-188.18663,249.992355
2.865234,2.279053,-0.963135,31.715391,-14.091491,249.992355,-2.732178,-2.181152,-0.007813,-9.880066,-187.400803,249.992355
0.172852,-0.60498,-0.398682,40.954586,215.614304,-64.247131,-2.688965,-2.057617,0.063477,-6.896972,-194.892868,249.992355
3.339355,2.19458,-0.892578,73.478699,57.525631,249.977097,-2.640869,-1.966064,0.079834,-3.204345,-213.485703,249.992355
3.416016,2.233887,-0.859619,89.302055,104.660027,249.450668,-2.611328,-1.855469,0.065674,0.732422,-233.489975,249.992355
3.474609,2.13916,-0.896484,98.800652,141.143799,249.992355,-2.700195,-1.750732,0.06958,2.853393,-247.436508,249.992355
3.334473,1.804443,-0.943848,106.964104,169.586166,249.992355,-2.784912,-1.675049,0.040283,2.151489,-249.992355,249.603256
3.149658,2.185303,-0.946289,57.205196,8.81958,249.992355,-2.123047,-1.926758,-0.140137,-4.341125,-188.880905,249.992355
2.836426,1.226074,-0.995605,157.592773,177.764877,170.379623,-3.947021,-1.230225,1.751221,10.765075,176.429733,-240.539536
2.604004,0.991943,-1.023926,161.628708,175.292953,130.729675,-3.620117,-1.113525,1.515381,1.983642,121.50573,-198.7686
2.297119,0.804199,-1.032227,146.369934,173.141464,112.30468,-3.088379,-1.003174,1.346191,0.366211,86.860649,-158.01239
1.831787,0.645264,-0.881348,119.163506,161.97966,92.826836,-1.674072,-0.557617,0.916992,-21.064756,72.563171,-70.228577
1.373047,0.377441,-0.693848,102.027885,140.457153,64.727783,-2.333252,-0.800537,1.11499,-11.45935,79.38385,-104.850761
1.101563,0.128662,-0.64502,82.542412,116.683952,33.592224,-1.953613,-0.663574,1.037598,-15.945434,75.157166,-84.213249
0.796143,-0.044922,-0.602295,52.284237,105.781548,21.621702,-3.890137,-1.385254,2.055664,34.141541,225.49437,-249.992355
0.651123,-0.141846,-0.601563,39.848328,97.213737,12.557982,-1.455811,-0.452637,0.776123,-22.338865,65.551758,-62.049862
0.612793,-0.215088,-0.620117,34.805298,100.006096,-6.637573,-2.667236,-0.916992,1.202148,-4.776001,80.116272,-129.753113
0.532471,-0.346191,-0.625732,35.354614,119.934074,-31.417845,-3.419922,-0.385254,0.685791,-2.212524,-89.805595,249.992355
3.079346,1.426758,-0.932373,137.390137,182.151779,218.94072,-0.465576,-1.456055,0.499756,-247.726425,188.217148,-249.992355
-0.210449,1.104736,0.638916,-34.423828,-63.529964,-249.992355,-2.500977,-2.408936,1.024658,-8.308411,248.908981,-249.992355
-0.133301,1.248535,0.526123,-95.962517,-53.63464,-249.992355,-2.540039,-2.700684,0.867188,-101.72271,249.992355,-249.992355
-0.294922,1.340576,0.390137,-177.558884,-35.629272,-249.992355,-1.575684,-2.204834,0.97876,-196.365341,249.992355,-249.992355
-0.394043,1.605469,0.239502,-248.229965,-18.745422,-249.992355,0.141602,-1.001953,0.221924,-249.992355,125.328056,-249.755844
1.554443,4.627686,-1.465332,-249.984726,93.330376,-249.992355,0.391357,-0.714355,0.304932,-249.992355,83.480827,-249.862656
0.570801,2.588623,-0.037354,-248.992905,23.826597,-249.992355,0.49292,-0.516113,0.375,-249.992355,68.122864,-249.992355
1.413086,3.064697,-0.85498,-249.832138,44.609066,-249.992355,0.480469,-0.447021,0.438721,-249.992355,73.84491,-241.813644
1.874023,3.77832,-2.167725,-249.992355,69.229126,-249.992355,0.383301,-0.437744,0.359863,-249.992355,80.79528,-207.870468
-0.085693,2.031738,0.08667,-249.992355,-1.358032,-249.992355,-1.21582,-0.344482,0.639404,-18.508911,56.747433,-60.638424
-0.395752,0.827148,0.636963,9.719849,-59.776302,-249.992355,0.321533,-0.460205,0.241211,-249.954208,84.228508,-182.89946
-0.375488,0.637207,0.702148,-40.084839,-53.184505,-47.508236,-2.733887,-2.257324,1.587158,40.382381,249.923691,-249.992355
-0.436279,0.607422,0.644043,53.863522,-23.208616,-249.992355,-0.986084,-0.260498,0.529053,-13.229369,50.559994,-63.323971
-0.371826,0.628662,0.554932,64.453125,-4.737854,-249.992355,-0.573486,0.851563,0.592773,4.295349,-33.813477,-9.460449
-0.219482,0.688965,0.489746,62.141415,15.579223,-234.481796,-0.615234,-0.071533,0.367432,-6.050109,56.587215,-72.608948
-0.14209,0.627197,0.495605,57.929989,41.473385,-200.530991,0.30542,-0.497803,0.205811,-249.824509,90.644829,-164.657578
-0.163818,0.504883,0.576416,54.450985,63.4613,-171.783432,-2.749023,0.092041,0.572021,-46.485897,-79.963684,183.547958
-0.326172,0.412842,0.657471,52.284237,72.151184,-147.262573,-2.124268,0.355469,0.3396,-68.817139,-109.138481,155.754089
-0.464844,0.408936,0.692627,47.401424,56.953426,-122.76458,-1.57373,0.580811,0.241943,-73.654175,-143.180847,120.826714
-0.470703,0.48291,0.72168,32.958984,25.894163,-100.58593,-1.274658,0.798096,0.2771,-62.904354,-168.876633,88.813774
-0.420166,0.58252,0.784424,8.834839,-2.365112,-83.70208,-1.056885,0.9646,0.322021,-46.646114,-177.505478,66.03241
-0.387207,0.634521,0.753174,-18.363953,-25.039671,-67.695618,-0.875244,1.041992,0.314453,-35.568237,-173.019394,49.110409
-1.137207,5.624756,-0.602539,-249.992355,161.34642,-249.992355,-0.692627,1.036377,0.317139,-32.821655,-166.587814,34.873962
-0.468994,0.666504,0.60791,37.80365,-45.982357,-249.626144,-0.510986,1.013672,0.336914,-36.865234,-164.794907,23.834227
0.222656,6.443604,-0.110596,-249.992355,170.028671,-249.992355,-0.430176,1.010498,0.369141,-41.954037,-166.328415,15.151977
0.465332,0.456787,-1.088867,31.265257,227.88237,34.698486,-0.777344,-0.175049,0.437256,-8.758545,50.247189,-67.550659
2.114502,4.558105,-1.463867,-249.992355,203.666672,48.744198,-0.467529,1.02832,0.426758,-36.941528,-159.973145,11.024474
-0.410889,0.643555,0.663086,-57.113644,-91.438286,-23.841856,-0.588135,0.99292,0.552979,-1.724243,-87.631218,5.317688
0.54541,-0.343994,-0.629883,195.075974,249.992355,222.763046,-0.510986,0.661865,0.597412,-1.747131,13.47351,-28.610228
0.503662,-0.411865,-0.668701,199.1577,249.992355,189.224228,-0.431641,0.487793,0.536377,-12.435912,45.715328,-43.380733
0.340576,-0.47876,-0.592773,206.230148,249.992355,163.551315,-0.382568,0.379639,0.469727,-19.187927,66.131592,-50.674435
0.175537,-0.505127,-0.592773,214.576706,249.992355,151.748657,-0.417725,0.342529,0.439453,-17.791748,79.086304,-54.656979
0.16748,-0.512207,-0.727295,217.643723,249.992355,148.933411,-0.484375,0.337402,0.408691,-10.536193,86.936943,-59.585567
0.240479,-0.501709,-0.899658,204.185471,249.992355,144.271851,-0.527832,0.310059,0.383545,-2.624511,89.401237,-63.888546
0.286865,-0.466064,-1.02124,180.183395,249.992355,127.990715,-0.534912,0.238525,0.374023,0.541687,85.281364,-68.008423
0.297363,-0.419922,-1.011475,151.832581,249.93132,104.835503,-0.509766,0.134277,0.345215,-1.785278,77.217102,-73.905945
0.296875,-0.308838,-0.939209,116.851799,249.778732,79.818726,-0.523926,0.029297,0.341797,-4.226685,66.978455,-76.133728
2.342285,5.738037,-0.733154,-249.992355,169.250473,-143.325806,-0.540039,1.04248,0.491943,-19.317627,-133.338928,10.551452
0.3125,-0.104248,-0.907959,85.441582,249.992355,51.010128,-3.162842,-0.189697,0.697998,-20.912169,-72.410583,223.297104
0.383057,0.338379,-1.036621,32.25708,232.582077,24.833677,-3.528564,-1.863525,2.038086,49.880978,247.604355,-249.992355
0.621826,0.553711,-1.040771,40.229794,228.027328,43.029781,0.235107,-0.679932,0.106445,-235.06926,125.267021,-108.963005
0.787354,0.700928,-0.924561,52.680965,225.036606,52.612301,-1.688232,-0.282959,2.915283,249.992355,62.858578,249.702438
0.811279,0.911133,-0.819824,60.859676,230.613693,71.487427,-1.693848,-0.282715,2.994385,249.877914,62.499996,249.992355
0.753418,1.237549,-0.809082,61.454769,244.873032,108.657829,-1.754395,-0.262207,3.153076,249.80925,67.001343,249.992355
0.860352,1.721924,-0.863037,33.363342,249.969467,155.700684,-1.674561,-0.086182,3.276367,249.992355,62.309261,232.261642
1.19751,2.336182,-1.0,-39.154053,249.68718,197.410568,-1.403564,-0.026611,3.221436,246.467575,23.422239,229.90416
1.410889,2.88208,-1.13623,-155.960083,249.992355,217.483505,-1.513916,0.031494,3.02417,213.523849,-8.995056,249.992355
1.496582,3.125488,-1.232178,-242.385849,249.992355,191.551193,-1.830078,0.350098,2.892578,181.625351,44.006344,237.266525
1.688965,3.603027,-1.444824,-249.992355,230.209335,130.210876,-0.729492,0.212891,2.766602,205.749496,47.821041,104.202263
0.308594,0.128418,-0.934326,55.862423,248.565659,30.799864,-0.499268,0.183105,2.31665,127.288811,-103.309624,219.512924
-0.444824,0.667969,0.583984,-73.020935,-136.413574,-4.928589,-0.66626,0.243408,2.178467,66.268921,-141.784668,248.023972
0.562256,-0.316895,-0.492676,194.519028,249.992355,248.336777,-1.755127,-0.311279,2.762939,249.992355,61.248775,249.961838
-0.412109,0.744873,0.395996,-118.087761,-240.272507,4.722595,-0.534424,0.362549,1.752441,65.109253,-126.632683,224.792465
3.859375,2.55835,-0.458984,-26.519773,238.555893,249.992355,-0.299561,0.569824,0.977051,74.447632,-82.397453,186.012253
3.154541,1.114258,0.154541,-100.07476,236.312851,225.593552,-0.207275,0.613037,0.748535,78.048706,-64.26239,177.017197
2.36792,0.384766,0.617432,-75.340271,242.271408,199.356064,-0.120605,0.627197,0.552246,81.855766,-44.677731,164.25322
1.781982,0.149414,0.539551,-36.804199,243.446335,156.88324,-0.046875,0.657715,0.351563,86.021416,-28.785704,146.842957
1.395508,-0.017334,0.210693,-1.12915,215.316757,96.374504,-0.023438,0.665771,0.16626,91.934196,-23.048399,129.341125
0.96582,-0.160889,-0.125488,19.195557,184.02861,42.930599,-0.074463,0.633301,0.081055,95.985405,-25.108335,115.821831
0.56958,-0.297607,-0.406006,21.347044,162.139877,14.053344,-0.14624,0.597168,0.060791,97.328178,-32.897949,101.46331
0.282471,-0.415527,-0.494141,26.397703,155.677795,2.471924,-0.192871,0.609131,0.033936,100.036613,-46.257015,84.182732
0.135498,-0.481689,-0.424805,39.619446,161.216721,0.640869,-0.19873,0.614014,-0.015137,103.034966,-58.486935,63.888546
0.151123,-0.474609,-0.308838,47.317501,167.091354,-0.137329,0.250244,-0.597168,0.1521,-249.099716,112.030022,-126.564018
4.036377,2.578125,0.248779,178.825363,198.341354,249.992355,-0.438965,0.500488,1.287109,68.778992,-105.789177,204.376205
0.230713,-0.439941,-0.266846,39.146423,174.70549,-7.858276,-1.845947,-0.323242,2.588379,249.992355,48.408504,249.992355
0.187744,-0.500977,-0.202148,27.336119,184.692368,-32.806396,0.287109,-0.538818,0.191162,-249.992355,100.639336,-145.843506
0.179443,-0.486084,-0.236816,16.38031,186.645493,-35.087585,-1.478516,-0.429932,2.019775,243.019089,-21.568296,249.992355
0.219482,-0.54248,-0.142578,11.871337,181.968674,-33.584595,-1.738525,-0.408447,2.360107,249.877914,13.679503,249.992355
0.243408,-0.582764,-0.024414,12.756347,171.363815,-34.553528,0.179199,-0.828857,-0.012451,-201.850876,152.870178,-74.47052
0.246338,-0.591309,-0.023682,8.224487,159.210205,-37.92572,0.107422,-0.851318,-0.07959,-185.302719,165.321335,-57.258602
0.26001,-0.575439,-0.080078,1.846313,146.224976,-42.03796,0.047607,-0.851563,-0.094482,-165.267929,176.97905,-40.161129
0.300781,-0.546387,-0.093018,0.175476,131.973267,-48.133846,-0.005127,-0.859131,-0.097412,-140.739441,188.552841,-22.331236
0.387939,-0.497803,-0.131348,-3.791809,119.964592,-55.01556,-0.045654,-0.890137,-0.108154,-110.78643,198.822006,-6.202697
0.516357,-0.430664,-0.185303,-14.717101,107.971184,-64.437866,-0.061279,-0.936035,-0.117676,-80.352776,205.238327,7.308959
0.618408,-0.358643,-0.206543,-26.885984,97.549431,-76.515198,-0.060059,-0.97168,-0.129395,-52.772518,205.032333,17.486572
0.244141,-0.476074,-0.208252,33.042908,180.786118,-23.048399,-0.067627,-0.974854,-0.135742,-28.762815,197.555527,24.80316
4.074951,1.758301,0.516846,249.992355,149.475098,249.565109,-0.094727,-0.944824,-0.134277,-5.531311,185.996994,32.958984
-0.412354,0.703857,0.476563,-93.208305,-191.047653,1.411438,-0.141357,-0.909424,-0.126221,17.692566,173.332199,45.181271
3.971924,2.112549,0.445313,140.480042,125.488274,249.992355,0.225342,-0.761963,0.064453,-217.948898,139.389038,-92.048637
-0.441895,0.777588,0.356445,-144.615173,-249.992355,12.123107,-0.215088,-0.795166,-0.000488,69.778442,138.504028,75.553894
-0.448975,0.795654,0.357666,-169.761642,-249.992355,21.186827,-1.337158,-0.363037,1.707031,227.027878,-40.794369,249.992355
-0.442871,0.789063,0.390137,-188.133224,-249.992355,31.875608,-1.146729,-0.329834,1.413086,210.601791,-53.604122,249.992355
-0.394043,0.757813,0.440918,-198.989853,-249.992355,48.309322,-0.928955,-0.293213,1.123291,198.799118,-59.951778,247.520432
-0.259766,0.756592,0.476807,-211.677536,-249.992355,67.672729,-0.695557,-0.256836,0.889648,189.460739,-53.359982,227.233871
-0.144775,0.833496,0.477783,-236.350998,-249.992355,83.892815,-0.501709,-0.248047,0.709961,178.169235,-33.096313,203.514084
4.065918,1.857178,0.312744,216.201767,139.526367,249.969467,-0.178467,-0.859375,-0.083252,43.327328,158.294678,60.485836
-0.010742,0.978516,0.393799,-249.992355,-249.992355,119.86541,-0.287109,-0.370117,0.422363,153.800964,29.525755,165.50444
0.10498,1.008301,0.33667,-249.992355,-249.992355,144.996643,-0.249756,-0.472412,0.311035,136.054993,61.454769,142.585754
0.193848,1.018555,0.330811,-249.992355,-249.984726,179.718002,-0.240479,-0.595459,0.214844,114.830009,89.447014,116.775505
0.409668,1.114258,0.247803,-249.992355,-249.992355,212.440475,-0.234619,-0.715576,0.104736,93.574516,114.753716,93.872063
-0.075928,0.928223,0.474121,-249.992355,-249.992355,97.457878,-0.371826,-0.288818,0.556152,166.328415,-3.623962,184.310898
0.953857,1.519043,0.195313,-249.992355,-249.488815,249.694809,-0.813477,0.499268,0.246338,33.065796,75.569153,-98.587029
1.266846,1.770752,0.343506,-249.992355,-249.481186,249.992355,-0.206299,0.829102,0.246826,-61.676022,-148.704529,-17.417908
1.712891,1.97583,0.425049,-249.259933,-249.992355,249.992355,-0.256592,0.875244,0.287109,-47.241207,-139.526367,-24.536131
2.274658,2.201172,0.476563,-249.992355,-233.68071,249.992355,-0.322021,0.87915,0.278809,-31.501768,-125.53405,-37.078857
2.838379,2.35791,0.541016,-249.992355,-142.181396,249.992355,-0.422852,0.831299,0.299561,-20.729063,-103.675835,-51.895138
3.289063,2.328857,0.680908,-214.225754,-38.421631,249.992355,-0.535645,0.761963,0.364502,-14.129638,-70.892334,-63.346859
3.468506,2.184814,0.828613,-148.796082,46.035763,249.992355,-0.63208,0.680908,0.402344,-12.664794,-33.39386,-71.029663
3.466309,1.952148,0.850098,-77.758789,93.39904,249.992355,-0.747559,0.596436,0.394287,-1.815796,35.079956,-75.332642
3.580811,1.808105,0.758789,6.340026,115.539543,249.992355,-0.792725,0.59082,0.342529,14.648437,59.326168,-76.141357
3.805176,1.956055,0.620361,79.841614,121.116631,249.992355,-0.813232,0.56665,0.302734,29.777525,73.661804,-82.252495
0.669189,1.272461,0.143311,-249.984726,-249.992355,238.273605,-0.83667,0.396484,0.179688,26.527403,64.468384,-119.178764
1.406006,-0.243896,-0.687012,33.798218,168.952927,-161.392197,-1.946045,-0.604004,0.382568,-31.448362,-47.691341,-116.729729
1.175049,-0.389893,-0.55127,48.96545,146.614075,-143.669128,-0.922119,0.126709,0.219482,37.101746,23.727415,-114.425652
0.925537,-0.478271,-0.364258,60.401913,122.100822,-130.485535,-1.05249,-0.083984,0.177734,23.910521,-4.730225,-111.206047
0.772461,-0.501465,-0.198242,60.043331,93.879692,-124.473564,-1.318115,-0.311035,0.213135,2.01416,-28.564451,-109.252922
0.54126,-0.517822,-0.057129,40.283199,29.151915,-99.82299,-1.619141,-0.479492,0.280762,-18.463135,-43.121334,-111.145012
0.712646,-0.452393,-0.156738,28.221128,44.55566,-129.562378,-0.181641,0.773438,0.177002,-66.505432,-154.182434,-12.138366
0.695068,-0.444336,-0.169434,25.566099,31.265257,-125.15258,-2.328613,-0.745361,0.501465,-38.467407,-46.028133,-125.984184
0.628174,-0.4729,-0.134277,32.272339,26.428221,-113.128654,-2.794189,-0.904785,0.584961,-41.687008,-40.245052,-141.448975
0.713379,-0.486572,-0.137207,43.983456,66.268921,-125.976555,-3.342773,-1.046875,0.605713,-38.314819,-25.741575,-166.648849
1.588135,-0.049072,-0.846436,16.88385,193.244919,-178.939804,-3.919922,-1.144287,0.677246,-15.937804,1.647949,-207.96965
1.115479,1.675049,-0.505859,87.921135,-19.577026,-249.992355,-4.557373,-1.337158,0.761963,19.607544,47.622677,-246.15477
2.003662,0.375732,-1.247803,13.610839,205.474838,-214.195236,-0.895264,0.28125,0.232422,31.646727,46.493526,-122.077934
2.194336,0.661377,-1.573975,39.001465,166.076645,-245.346054,-0.179688,0.73584,0.137939,-60.69183,-156.921387,-8.392334
2.392334,0.968018,-1.969482,70.281982,99.433891,-249.992355,-1.523682,0.288086,0.155762,-36.849976,-128.456116,26.885984
2.577393,1.262695,-2.229004,101.997368,28.19824,-249.992355,-0.246094,0.718262,0.14502,-42.953487,-162.078842,-6.91986
2.7229,1.636719,-2.286133,114.654533,-2.830505,-249.992355,-2.273193,-2.263916,0.654785,119.270317,-7.629394,249.992355
2.852051,2.034668,-2.196289,102.340691,7.568359,-249.992355,-2.439941,-2.313232,0.847412,145.698547,-3.692627,249.992355
2.871826,2.26709,-1.953857,98.396294,13.870238,-249.992355,-2.550049,-2.376221,0.95874,166.992172,-17.150879,249.992355
2.434082,2.314209,-1.588867,103.416435,6.980896,-249.992355,-2.625,-2.418213,1.016602,179.931625,-53.283688,249.992355
1.788818,2.275635,-1.216064,97.55706,5.699157,-249.992355,-2.796387,-2.470703,1.098389,190.07872,-110.78643,249.992355
1.567871,2.070313,-0.886963,88.188164,-11.672973,-249.992355,-3.040771,-2.552979,1.04126,182.937607,-177.017197,249.992355
0.449463,-0.568604,0.000488,51.635738,37.42981,-86.776726,-3.351807,-2.54126,0.941895,158.798218,-224.716171,249.992355
1.792725,0.158936,-1.043945,6.179809,211.029037,-191.604599,-3.811035,-2.522705,1.007324,143.371582,-228.340134,249.992355
0.38916,-0.628906,0.00415,66.337585,52.185055,-69.702148,-4.165771,-2.65332,1.169922,144.607544,-190.093979,249.595627
1.948486,-0.111572,-0.457275,77.651978,87.936394,203.430161,-4.157471,-2.542236,1.342041,161.270126,-144.508362,249.992355
0.39209,-0.702393,0.001221,74.638367,116.821281,-12.260436,-0.187012,0.724365,0.130127,-49.942013,-159.843445,-6.568908
0.5271,1.360596,-0.587891,83.786003,-6.67572,-249.969467,-3.868896,-2.037842,1.29834,162.620529,-121.139519,249.992355
2.335205,0.845215,-0.933838,-115.150444,101.638786,249.992355,-3.101563,-1.202393,1.126709,137.443542,-138.35144,197.502121
2.672607,0.828613,-0.89209,-73.013306,111.640923,249.992355,-2.968994,-1.099609,1.030029,113.349907,-160.636887,174.255356
3.032715,0.777344,-0.884277,-29.510496,106.582634,249.992355,-2.6521,-0.817139,0.951904,65.940857,-189.163193,136.993408
3.34082,0.652344,-1.020996,13.72528,106.605522,249.992355,-1.980713,-0.433594,0.660645,26.428221,-194.969162,89.202873
3.425049,0.479492,-1.12793,50.47607,114.555351,249.992355,-1.602539,-0.090332,0.359863,-1.51062,-171.035751,56.228634
3.321533,0.345215,-1.071533,73.303223,118.385307,249.992355,-1.577393,0.142578,0.18335,-22.033689,-141.372681,38.169861
3.163574,0.24585,-0.896729,91.911308,110.374443,249.954208,-4.923096,-1.767822,0.780029,45.616146,118.949883,-249.992355
3.001709,0.186035,-0.76416,111.976616,94.192497,249.885544,-1.259521,0.41333,0.176514,-45.120235,-135.719299,13.816833
2.94043,0.224609,-0.695801,122.352592,76.622009,249.992355,-0.83667,0.537842,0.193848,-45.959469,-149.986267,0.808716
0.393555,-0.68457,-0.002197,75.454712,78.37677,-44.624325,-0.453369,0.655518,0.187744,-42.945858,-159.988403,-6.004333
2.855713,0.227295,-0.72876,120.391838,74.142456,248.970016,-3.461426,-1.592041,1.20752,137.649536,-121.704094,228.103622
2.375977,-0.008057,-0.600098,91.621391,80.825798,225.715622,-4.654297,-2.065918,0.962646,77.453613,180.694565,-249.992355
1.500244,-0.181152,-0.307861,69.656372,114.532463,170.829758,-0.695801,0.621826,0.413818,-10.803222,3.204345,-74.836731
1.210205,-0.250488,-0.303467,61.561581,155.525208,136.001587,-4.230225,-2.734619,1.317383,167.892441,223.258957,-249.992355
1.030762,-0.357178,-0.258301,55.053707,194.534286,107.803337,-0.175293,-1.220703,-0.250488,-34.294128,148.574829,248.840317
0.802246,-0.467529,-0.12085,58.349606,227.684006,86.959831,-0.223145,-1.178223,-0.234375,-9.666443,138.648987,249.992355
0.606934,-0.531738,-0.042969,64.926147,247.024521,69.328308,-0.260986,-1.174316,-0.218506,13.580321,125.823967,249.992355
0.474365,-0.563477,-0.029785,67.070007,248.207077,56.556698,-0.331787,-1.218018,-0.196045,35.453796,108.833305,249.992355
0.414307,-0.621826,-0.015625,66.932678,229.782089,45.013424,-0.468018,-1.272217,-0.131592,55.168148,86.09771,249.992355
0.365723,-0.682861,0.021484,68.55011,198.310837,34.370422,-0.636719,-1.294434,-0.049561,74.180603,57.609554,249.992355
0.364014,-0.703857,0.032959,71.220398,158.866882,16.830444,-0.825684,-1.316162,0.010986,90.095512,27.519224,249.992355
2.719238,0.148438,-0.744873,107.864372,76.560974,238.815292,-1.080322,-1.335938,0.063477,99.899284,-4.135132,249.992355
2.004395,0.855225,-0.924805,-158.996582,64.888,249.992355,-1.351807,-1.372314,0.135986,104.721062,-30.838011,249.992355
0.098633,0.965332,-0.648926,81.207268,13.420104,-249.397263,-1.66748,-1.470215,0.249023,108.253471,-46.508785,249.992355
-0.35791,0.508545,-0.339844,89.508049,72.410583,-249.992355,-2.089355,-1.60083,0.43457,110.443108,-55.412289,249.992355
1.461182,1.125488,0.295166,-209.899887,-222.290024,243.217453,-2.413818,-1.7229,0.642822,111.877434,-64.552307,249.992355
1.815918,1.259521,0.319092,-197.708115,-171.791061,249.992355,-2.588135,-1.832764,0.780273,115.379326,-84.770195,249.992355
2.105713,1.450928,0.402344,-182.235703,-121.192924,249.992355,-2.819336,-1.869141,0.914063,121.528618,-119.644157,249.992355
2.401367,1.684814,0.520508,-159.950256,-85.266106,249.992355,-3.105713,-1.8125,0.95874,122.589104,-161.491379,249.992355
2.791504,1.716309,0.688721,-125.41198,-74.523926,249.992355,-3.364258,-1.741211,0.91333,115.44799,-209.4879,249.992355
3.264648,1.506104,0.855469,-73.371887,-74.684143,249.992355,-3.695313,-1.755615,0.856445,97.343437,-245.635971,249.992355
3.719482,1.415283,0.950439,-25.878904,-66.955566,249.992355,-4.096924,-1.839844,0.755615,68.17627,-249.923691,249.992355
3.95752,1.335693,1.018555,-1.098633,-41.28265,249.992355,-4.510742,-1.766602,0.736572,42.297359,-249.992355,249.984726
3.918457,1.171631,0.95166,15.251159,0.244141,249.992355,-4.70752,-1.200928,0.838623,33.653259,-237.594589,249.992355
3.51123,1.230469,0.325439,-4.859924,131.80542,249.992355,-4.492676,-0.630371,0.914795,31.417845,-193.48143,249.992355
1.101563,1.006348,0.300049,-219.413742,-249.992355,222.991928,-4.028809,-0.448486,0.85376,23.384092,-159.034729,249.412521
3.459961,1.052979,0.213379,-16.983032,198.661789,249.992355,-4.378906,-2.230225,1.308594,126.304619,218.93309,-249.992355
2.672607,0.415527,0.377441,46.348568,249.992355,249.992355,-0.113037,-1.258789,-0.26416,-60.859676,155.097961,233.627304
2.050537,0.26001,0.242676,89.553825,249.992355,249.992355,-0.049561,-1.239014,-0.294922,-87.821953,156.745911,209.640488
1.749268,0.141846,0.031006,120.056145,249.992355,249.992355,-3.609131,-0.396973,0.701416,10.391234,-121.192924,249.992355
1.584229,0.00293,-0.217773,138.374329,249.992355,249.992355,0.084473,-1.100342,-0.313965,-132.9422,146.095276,165.824875
1.370605,-0.166748,-0.404541,154.716492,249.992355,249.992355,0.015137,-1.180908,-0.325195,-112.220757,153.22113,186.882004
1.174072,-0.311768,-0.448486,173.942551,249.992355,249.992355,-2.860107,-2.31665,0.859375,220.146164,224.47966,-249.992355
1.029785,-0.362305,-0.392822,188.728317,249.992355,249.916061,-3.295166,-2.995361,0.279297,175.270065,215.461716,-249.992355
0.853027,-0.3479,-0.358154,194.419846,249.992355,249.702438,-2.217041,-3.154541,-0.178711,57.640072,230.163559,-249.992355
0.676758,-0.327637,-0.39209,195.686325,249.992355,249.992355,-0.985596,-2.331055,-0.541504,-65.872192,248.954758,-249.992355
-0.192627,0.626953,-0.463867,88.333122,39.779663,-249.992355,-0.040527,-1.741455,-0.551025,-158.52356,249.496445,-249.992355
3.201172,0.695068,0.401123,3.623962,242.950424,249.992355,0.549805,-1.340576,-0.254883,-204.154953,249.992355,-249.755844
0.755371,0.918457,0.296875,-223.983749,-249.992355,201.721176,0.737061,-1.060303,0.128662,-221.977219,248.535141,-249.641403
3.685059,1.15332,0.730469,14.640807,58.441158,249.992355,0.796143,-0.849609,0.385742,-228.279099,213.088974,-249.992355
0.209473,0.87915,0.343262,-228.210434,-249.992355,160.568237,0.786377,-0.708496,0.496094,-226.409897,182.571396,-242.683395
0.450439,0.883301,0.307373,-225.227341,-249.42778,181.549057,0.743408,-0.631592,0.516357,-217.971786,168.098434,-196.3806
-0.540283,0.534912,-0.187744,72.257996,140.724182,-169.013962,-3.221191,-2.861084,1.116699,192.611679,217.056259,-249.992355
-0.580322,0.616699,-0.172119,52.207943,161.636337,-129.821777,0.740723,-0.62915,0.370361,-200.073227,154.403687,-109.634392
-0.608643,0.658203,-0.200928,30.227659,174.064621,-95.520012,0.755615,-0.65918,0.158691,-196.311935,141.914368,-74.401855
-0.630859,0.61499,-0.093018,16.448975,175.346359,-62.484737,0.724854,-0.723145,-0.024902,-194.48851,127.212517,-42.8009
-0.593994,0.562988,0.183105,14.305114,154.945374,-40.191647,0.653809,-0.802246,-0.090088,-195.899948,118.064873,-10.459899
-0.572998,0.574219,0.354248,12.573241,114.06707,-29.541014,0.546631,-0.844482,-0.16333,-195.976242,115.928642,25.001524
-0.580322,0.648193,0.406738,2.624511,59.982296,-21.102903,0.408691,-0.881836,-0.205078,-192.771896,118.049614,59.43298
-0.599609,0.763916,0.436768,-17.684937,-1.602173,-11.024474,0.295654,-0.912598,-0.192871,-185.256943,120.903008,87.486259
-0.612305,0.868408,0.468506,-44.738766,-66.200256,0.63324,0.236328,-0.929932,-0.216797,-175.71257,124.847404,109.474174
-0.608887,0.926758,0.47583,-72.227478,-128.646851,13.366698,0.204346,-0.963379,-0.253174,-164.443954,130.508423,128.448486
-0.45459,0.495361,-0.248535,84.877007,108.482353,-215.629562,0.152344,-1.022949,-0.288574,-150.45929,137.878418,146.507263
-0.535156,0.940918,0.41626,-117.202751,-239.074692,38.406372,0.720215,-0.614014,0.476318,-208.572372,161.178574,-149.795532
-0.597168,0.947998,0.441895,-96.42028,-188.6978,27.130125,-1.621094,0.353516,0.317871,-10.986327,15.35797,139.831543
-0.036865,0.946777,0.249512,-239.921555,-249.992355,121.170036,-1.91626,0.198486,0.28125,-32.348633,-1.960754,155.769348
-0.108154,0.970703,0.238037,-232.368454,-249.992355,108.123772,-2.291992,-0.029541,0.373779,-46.081539,-27.366636,175.605759
-0.193848,0.988281,0.238281,-228.50798,-249.992355,94.772331,-2.916016,-0.918457,0.444336,23.803709,-91.339104,249.656662
-0.20874,0.998291,0.276123,-213.737473,-249.992355,79.322815,-2.922607,-0.508545,0.460205,-25.398252,-72.647095,235.839828
0.061523,0.901367,0.322754,-236.282333,-249.992355,138.633728,-3.016602,-0.768799,0.426758,-4.02832,-94.139091,249.992355
-0.351563,0.925049,0.358887,-175.231918,-249.992355,61.408993,-2.990723,-0.907227,0.422363,20.156858,-102.615349,249.992355
-0.419189,0.921875,0.384521,-155.662537,-249.992355,54.122921,-2.871826,-0.921631,0.481934,15.396117,-73.554993,249.992355
-0.460938,0.929199,0.406982,-136.024475,-249.992355,45.989986,-2.671387,-0.258301,0.450684,-41.183468,-50.048824,203.575119
-0.264893,0.944824,0.344482,-191.604599,-249.992355,69.068909,-1.421631,0.428955,0.408691,1.319885,11.497497,124.580376
0.077148,-0.352051,-0.05127,80.68084,236.175522,-98.892204,-0.726807,0.582275,-0.052246,-41.145321,-49.659725,-25.505064
2.792969,0.692139,-1.205078,249.992355,189.926132,96.015923,-1.111572,0.330322,0.237793,-11.71112,-57.052608,65.879822
2.441406,0.600342,-0.991699,209.411606,207.069382,70.777893,-0.922852,0.310791,0.14209,-25.436399,-77.026367,29.182432
2.236328,0.35083,-0.747803,163.192734,207.351669,48.698421,-0.782715,0.411865,0.012207,-35.743713,-74.85199,0.015259
1.901367,0.11084,-0.548828,135.734558,201.248154,25.894163,-0.780762,0.727539,0.030762,-40.237423,-17.494202,-52.970882
1.419922,-0.041748,-0.342285,118.835442,205.154404,0.38147,-0.816895,0.790039,0.186523,-28.411863,-0.267029,-77.232361
0.953369,-0.125732,-0.23999,105.918877,218.009933,-25.177,-0.713379,0.724365,0.266846,-24.063108,4.577637,-93.818657
3.265869,0.545654,-1.286865,249.992355,171.020493,115.898125,-0.581055,0.606689,0.306641,-32.669067,-7.591247,-103.340141
0.647949,-0.204834,-0.195557,97.068779,222.877487,-51.49078,-0.443604,0.532715,0.29248,-43.30444,-35.720825,-111.732475
0.324219,-0.283936,-0.129883,90.095512,228.157028,-77.24762,-0.318115,0.55249,0.251709,-42.930599,-64.125061,-123.405449
-0.008057,-0.40332,-0.001709,71.31958,238.067612,-115.989677,-2.930176,-1.028809,0.482666,8.491516,-68.435669,249.992355
-0.010498,-0.405029,-0.010742,48.667904,170.898422,-156.898499,-0.279053,0.648193,0.248291,-27.847288,-76.73645,-131.614685
-0.061035,-0.431641,0.090576,70.884705,219.085678,-139.846802,-1.273926,0.407227,0.37793,-0.1297,-19.577026,100.402824
-0.059814,-0.42041,0.081543,65.711975,203.353867,-149.658203,-3.041016,-1.038086,0.35791,7.080078,-74.821472,249.992355
-0.0625,-0.414063,0.026855,57.075497,186.645493,-154.518127,-0.753906,-0.498535,0.06543,-77.339172,2.853393,243.232712
0.054199,-0.390625,-0.075439,40.611263,159.805298,-159.599304,-2.867432,-0.884033,0.485596,9.208679,-81.29882,249.992355
0.128662,-0.393311,-0.1521,34.324646,148.361206,-163.551315,-0.326416,0.759277,0.286377,-2.861023,-76.004028,-130.485535
0.182617,-0.404053,-0.194092,32.88269,137.718201,-165.618881,0.453857,-0.795166,-0.026611,-98.365776,43.701168,95.66497
0.208008,-0.40918,-0.253174,33.51593,129.768372,-166.213974,0.393311,-0.835205,-0.037842,-112.731926,41.419979,114.997856
0.206543,-0.404541,-0.316895,36.346436,123.344414,-163.406357,0.364746,-0.878906,-0.051758,-126.579277,43.144222,130.859375
0.198975,-0.389404,-0.391846,40.443417,116.96624,-157.279968,0.356689,-0.899414,-0.020752,-134.300232,44.891354,144.454956
3.546143,0.560791,-1.348389,228.775009,155.754089,130.172729,0.308594,-0.882324,0.0271,-134.681702,42.144772,156.181335
-0.047119,-0.430664,0.049561,70.121765,231.254562,-128.15094,0.216309,-0.849365,0.005371,-133.026123,33.470154,165.443405
3.573486,0.888428,-1.362061,174.797043,117.637627,176.002487,0.109863,-0.81958,-0.031006,-130.53894,23.956297,174.217209
0.215576,-0.373291,-0.479248,45.272823,109.901421,-151.512146,-0.007568,-0.751465,-0.035645,-123.779289,16.479492,183.181747
3.282227,1.431885,-1.335205,86.700432,51.315304,249.992355,-0.124023,-0.667725,-0.009277,-114.524834,11.764525,192.527756
-0.431641,0.396484,0.178711,-118.804924,-52.215572,61.523434,-3.064453,-0.90918,0.388916,10.894774,-82.244865,249.992355
-0.417725,0.368164,0.175781,-119.575493,-83.419792,77.148438,-0.232422,-0.610596,0.03418,-105.911247,9.872437,203.277573
-0.415039,0.359375,0.179443,-118.942253,-117.950432,96.870415,-0.513916,-0.509521,0.062744,-86.746208,3.982544,229.560837
-0.36792,0.36792,0.17749,-117.645256,-161.880478,117.286674,-0.978516,-0.512939,0.095215,-69.442749,7.995605,249.778732
-0.326416,0.408691,0.141846,-116.950981,-212.593063,143.699646,-1.222412,-0.553467,0.154053,-62.149044,20.301817,249.992355
-0.260498,0.462891,0.078857,-125.396721,-247.245773,173.233017,-1.477539,-0.633789,0.242676,-54.237362,36.361694,249.992355
-0.179688,0.489258,0.01123,-145.019531,-249.992355,192.802414,-1.677734,-0.737305,0.32373,-44.670101,47.71423,249.992355
-0.099854,0.505615,-0.064453,-172.531113,-249.992355,216.186508,-1.887939,-0.878906,0.40918,-32.943726,41.801449,249.992355
-0.016113,0.547852,-0.208984,-217.010483,-249.992355,244.758591,0.514404,-0.749756,0.027588,-84.022514,52.642818,70.915222
0.087402,0.592529,-0.330566,-247.367844,-249.496445,249.992355,-2.117432,-1.033203,0.496582,-20.843504,12.359618,249.992355
3.438721,1.222412,-1.358887,122.795097,79.437256,230.40007,-2.340088,-1.091309,0.552002,-9.292603,-31.265257,249.992355
0.193848,0.66333,-0.429443,-249.748215,-249.992355,249.992355,-2.568604,-0.990723,0.543945,2.258301,-66.566467,249.992355
0.465088,1.034912,-0.584473,-249.992355,-228.790268,249.992355,-0.339111,-0.55542,0.061768,-96.93145,7.278442,215.644821
0.640625,1.169922,-0.702393,-241.294846,-175.392136,249.992355,-0.362549,0.812988,0.297607,22.865294,-69.976807,-128.395081
0.904053,1.298584,-0.85791,-210.395798,-123.680107,249.992355,0.481445,-0.860596,-0.294434,-122.619621,217.750534,155.677795
1.193359,1.362793,-0.928711,-166.374191,-70.175171,249.992355,-0.349365,0.668213,0.292725,46.752926,-58.876034,-136.009216
1.471191,1.331543,-0.970947,-120.628349,-21.781919,249.992355,0.748291,-0.607422,0.206299,-122.619621,249.793991,28.099058
1.680176,1.25708,-0.955322,-73.21167,12.130736,249.992355,0.712402,-0.653564,0.085205,-121.650688,249.992355,56.732174
1.850098,1.223145,-0.967041,-30.746458,25.024412,249.992355,0.663818,-0.697021,-0.068115,-121.4981,249.992355,90.736382
2.089355,1.315918,-1.027588,2.76947,21.331785,249.992355,0.583984,-0.76123,-0.216309,-121.765129,238.769516,126.28936
2.492188,1.472656,-1.112549,36.659241,18.440247,249.572739,0.382813,-0.955566,-0.335449,-122.047417,195.930466,179.161057
2.98584,1.504883,-1.234375,67.253113,27.244566,249.992355,0.303223,-1.035889,-0.365479,-118.209831,178.405746,199.417099
0.300293,0.826904,-0.532959,-249.916061,-249.992355,249.992355,0.241699,-1.130859,-0.36792,-114.479057,166.496262,219.757065
0.273926,-0.362549,-0.578857,53.337093,105.766289,-148.544312,0.177002,-1.239502,-0.370117,-110.191338,156.890869,241.287216
-0.482422,0.449219,0.181396,-119.781487,-23.658751,50.094601,0.105469,-1.346191,-0.385498,-103.614799,147.80426,249.992355
0.484619,-0.306152,-0.788818,68.67218,124.885551,-153.900146,0.04126,-1.417725,-0.390137,-92.781059,138.519287,249.992355
-0.375732,0.886475,0.246338,-150.856018,12.763976,-13.137816,0.69458,-0.558594,0.335693,-124.855034,249.992355,0.236511
-0.336426,0.885254,0.173828,-138.076782,12.329101,10.665893,-0.101318,-1.420654,-0.304932,-54.229733,117.568962,249.992355
-0.314209,0.852539,0.126465,-126.16729,13.748168,33.195496,-0.174072,-1.45874,-0.294922,-20.729063,86.09008,249.992355
-0.277344,0.811523,0.098145,-117.835991,15.144347,51.902767,-0.235352,-1.551758,-0.283936,-8.499146,63.804623,249.992355
-0.250488,0.784424,0.094482,-113.44146,16.433716,67.092896,-0.38623,-1.661865,-0.240479,5.767822,39.100647,249.992355
-0.265137,0.776367,0.105469,-112.907402,17.829895,82.992546,-0.622803,-1.728027,-0.126221,25.688169,15.182494,249.992355
-0.284912,0.785889,0.114258,-114.334099,16.983032,104.438774,-0.893066,-1.730713,0.037354,51.139828,-5.126953,249.992355
-0.254883,0.776123,0.122314,-110.29052,9.391785,128.067017,-1.164551,-1.743896,0.179932,72.807312,-21.362303,249.992355
-0.189697,0.72583,0.095947,-104.003899,-5.950927,147.224426,-1.452148,-1.83252,0.280762,84.648125,-32.348633,249.992355
-0.172852,0.679932,0.054199,-100.425713,-27.305601,163.963303,-1.741211,-1.988281,0.373535,91.300957,-31.509398,249.992355
-0.443115,0.876953,0.323486,-157.112122,15.457152,-36.430359,-2.027832,-2.152588,0.483887,100.723259,-19.828796,249.992355
-0.211426,0.592285,-0.013184,-93.91021,-54.840084,179.985031,-0.352783,0.770996,0.293701,39.848328,-62.767025,-131.546021
-0.255859,0.466797,-0.143799,-88.424675,-129.463196,219.375595,-0.154297,-1.408447,-0.288574,-34.858704,103.843681,249.992355
-0.207275,0.477539,-0.198486,-89.088432,-163.24614,242.973312,0.564453,-0.568359,0.792969,-133.842468,249.992355,-35.140991
-0.086182,0.48584,-0.253418,-93.833916,-187.629684,249.992355,-0.021484,-1.437256,-0.35376,-75.622559,128.746033,249.992355
0.131348,0.482178,-0.348389,-107.658379,-202.476486,249.992355,0.377441,-0.744141,1.049805,-156.417847,249.992355,-128.807068
0.370361,0.469482,-0.446289,-131.416321,-201.217636,249.992355,0.50415,-0.665771,1.203613,-148.147583,249.992355,-84.388725
0.559082,0.469238,-0.508057,-161.918625,-180.213913,249.992355,-0.509521,0.510986,0.21875,54.313656,-65.02533,-147.483826
0.797607,0.509521,-0.614258,-193.038925,-147.598267,249.992355,-0.709717,0.484131,0.112793,62.431332,-71.327209,-152.404785
1.064697,0.569336,-0.738525,-209.884628,-103.698723,249.992355,-0.949219,0.419922,0.035889,66.848755,-69.694519,-156.333923
1.358887,0.653076,-0.866455,-212.654099,-50.270077,249.992355,-1.210449,0.341797,0.091797,77.148438,-60.768124,-151.222229
1.681885,0.781494,-0.935303,-197.692856,9.284973,249.992355,-1.480225,0.288574,0.104736,91.056816,-43.464657,-146.522522
-0.247803,0.500977,-0.104004,-90.240471,-90.049736,197.456345,-1.849854,0.262207,0.119141,105.865471,-12.954711,-145.576477
-0.497559,0.88501,0.373535,-148.643494,18.913269,-59.211727,-2.317627,0.283447,0.172119,128.700256,31.517027,-145.812988
0.369141,-0.3396,-0.679932,62.850948,110.694878,-149.009705,-2.816162,0.319336,0.23999,156.005859,80.619804,-152.946472
-0.481689,0.881104,0.387939,-118.522636,27.565001,-111.160271,-3.283691,0.238525,0.353027,176.170334,124.809258,-172.325119
0.614014,-0.254639,-0.908691,69.641113,145.477295,-159.889221,-3.640381,0.010498,0.510986,180.267319,151.123047,-213.973984
0.76709,-0.200684,-1.034912,65.933228,167.533859,-165.76384,-0.394531,0.569336,0.270996,49.385067,-59.455868,-142.044067
0.957031,-0.144775,-1.19165,60.295101,187.728867,-172.874435,-3.916016,-0.596924,1.010254,157.287598,134.353638,-249.992355
1.208252,-0.067627,-1.424316,48.835751,204.666122,-185.211166,-3.724609,-0.581055,1.104736,175.918564,89.637749,-249.992355
1.494141,0.055176,-1.741455,27.183531,216.094955,-200.744614,-3.333496,-0.391602,1.062988,220.756516,41.893002,-249.984726
1.75708,0.236084,-2.104248,-8.125305,214.706406,-217.79631,-3.284668,-0.540283,0.866699,238.006577,12.802123,-249.992355
-0.505859,0.880615,0.375244,-130.836487,23.170469,-83.091728,-3.076416,-0.893799,0.452393,197.563156,-11.680602,-249.992355
2.425537,0.674072,-2.921143,-96.527092,161.85759,-249.488815,-1.833496,-1.052246,0.202148,131.896973,7.4234,-249.366745
2.768311,1.063477,-3.270996,-133.44574,122.970573,-249.992355,-0.989502,-1.05249,0.432861,63.781734,52.932735,-249.992355
2.812988,1.67334,-3.453125,-174.224838,69.259644,-249.992355,-0.771484,-0.935791,0.566406,-1.914978,110.458366,-249.992355
2.656982,2.168213,-3.453857,-215.209946,7.087707,-249.992355,-0.539307,-0.847168,0.523926,-72.303772,189.460739,-224.830612
2.036621,0.440674,-2.503662,-52.757259,193.832382,-237.319931,-0.052002,-0.799805,0.710205,-133.537292,245.216354,-167.991623
1.899414,1.932617,-2.727539,-212.059006,-62.881466,-249.992355,-3.846191,-0.29248,0.751953,168.853745,153.541565,-248.069748
1.698486,1.683594,-2.133057,-153.617859,-73.348999,-249.992355,-3.259521,0.437012,0.396973,-133.811951,42.846676,153.4729
1.356934,1.642822,-1.374268,-109.985344,-76.118469,-249.992355,-1.814453,-0.713623,0.41333,-103.248589,-14.816283,249.992355
0.582764,1.470947,-0.913086,-103.843681,-63.476559,-249.93132,-1.521484,-0.668213,0.340088,-101.921074,-22.003172,249.992355
0.009521,1.349609,-0.490234,-119.003288,-46.95892,-249.481186,-1.262939,-0.61792,0.271484,-98.770134,-27.015684,249.992355
-0.224121,1.047607,0.001953,-124.755852,-30.563353,-249.992355,-0.279297,-0.753662,0.002441,-100.738518,53.75671,232.345566
-0.297363,0.866943,0.205811,-115.608208,-13.793944,-249.664291,-0.753906,-0.636963,0.127686,-93.429558,-18.867493,249.992355
-0.349854,0.858398,0.333496,-107.292168,4.135132,-215.324387,-0.563965,-0.676514,0.075439,-91.979973,-1.335144,249.992355
-0.395508,0.861084,0.400879,-106.224052,18.424988,-176.170334,-0.432617,-0.707764,0.054688,-92.735283,19.172668,249.992355
-0.443359,0.87207,0.407227,-111.022942,26.908873,-141.433716,-0.34668,-0.729004,0.034668,-95.283501,38.787842,247.436508
2.392578,2.242188,-3.189209,-232.986435,-44.288631,-249.992355,-0.987793,-0.607422,0.198975,-96.473686,-27.679441,249.992355
3.350098,1.176514,-0.979004,37.796021,86.639397,249.885544,-2.154053,-0.732666,0.499512,-101.692192,-7.637023,249.992355
3.243652,1.511475,-0.791504,-12.809752,52.352901,249.862656,-3.491455,-0.638916,0.529053,-104.629509,-72.875977,249.984726
2.86792,1.614014,-0.772949,-62.919613,12.580871,249.992355,-2.671631,-0.689697,0.651123,-99.189751,-28.518675,249.992355
2.603271,1.345459,-0.657959,-67.260742,-8.514404,249.992355,-2.991211,-0.708008,0.632568,-102.531425,-45.043941,249.992355
1.669434,1.13208,-0.372559,-142.120361,-133.895874,249.992355,-3.275391,-0.753418,0.560547,-106.597893,-59.30328,249.992355
2.217773,1.335449,-0.43335,-99.555962,-20.439146,249.992355,-3.668945,-0.415039,0.563232,-106.788628,-74.34845,249.992355
2.036133,1.357178,-0.462646,-121.109001,-43.693539,249.992355,-3.751465,-0.087891,0.623535,-111.564629,-61.69891,249.992355
1.887939,1.273438,-0.423828,-133.895874,-83.801262,249.992355,-3.769531,0.350342,0.697754,-102.111809,-43.571468,249.465927
2.435303,1.260742,-0.479736,-75.744629,-15.007018,249.992355,-3.745117,0.586914,0.654297,-88.035576,-25.245665,249.969467
2.98877,0.871582,-1.042969,74.729919,78.598022,249.992355,-3.824219,0.546631,0.501709,-95.298759,-0.205994,249.992355
0.238281,-0.578369,-0.230469,156.867981,249.992355,82.336418,-3.703857,0.458008,0.404297,-114.433281,26.519773,230.964645
2.435303,0.348633,-0.885742,152.168274,-49.362179,229.27092,-0.185547,-0.763184,-0.020752,-107.437126,63.476559,212.501511
2.262207,0.476074,-0.537842,196.052536,-110.755913,216.835007,-3.21167,-0.835449,0.932861,50.888058,172.195419,-249.992355
2.013428,0.935547,-1.003662,88.98925,-158.164978,215.53038,-0.068115,-0.770264,-0.049561,-116.287224,72.044373,191.940292
2.276611,0.988281,-1.228516,-1.083374,-147.949219,206.344589,0.123779,-0.616699,0.246094,-134.58252,171.134933,-21.202085
2.44458,0.481934,-1.037598,-26.428221,-94.764702,206.848129,0.10083,-0.790527,-0.133301,-136.711121,100.112907,149.581909
2.388916,-0.126465,-0.604736,2.716064,-23.376463,211.746201,-2.822021,0.553955,0.391357,-145.439148,30.502317,94.726555
2.176514,-0.406494,-0.238525,52.528378,64.750671,185.020432,-2.459473,-1.251953,0.53418,46.836849,82.542412,-249.992355
1.468262,-0.484863,-0.082275,102.500908,166.702255,149.56665,-2.462402,-1.217529,0.341553,23.025511,73.783875,-249.969467
0.800049,-0.506592,-0.19751,131.698608,240.180954,123.680107,-2.396484,-0.950195,0.122314,-9.010315,82.466118,-249.465927
0.436768,-0.543457,-0.293213,145.431519,249.992355,103.218071,-1.935303,-0.709961,0.033203,-36.354065,88.874809,-249.992355
1.403076,0.99292,-0.300049,-143.081665,-178.779587,249.992355,-1.313965,-0.535156,0.260498,-51.582333,84.44976,-249.992355
2.599121,0.545654,-1.050781,107.910149,35.118103,245.674118,-0.681152,-0.389404,0.319336,-57.937618,72.784424,-219.505295
1.111084,0.908203,-0.208496,-141.448975,-213.104233,249.992355,-0.208252,-0.318115,0.251709,-64.689636,64.094543,-180.50383
-0.39917,0.77002,0.199951,-156.852722,-133.140564,154.647827,0.043701,-0.315186,0.255615,-71.304321,64.109802,-148.406982
0.552002,0.973389,-0.101563,-147.987366,-248.863205,249.992355,0.180664,-0.371338,0.29126,-82.305901,75.317383,-119.98748
0.183594,-0.600342,-0.102051,156.433105,249.992355,58.4259,0.031006,-0.779785,-0.094238,-127.609245,83.175652,170.265182
-0.749512,0.835205,0.369873,25.863646,249.992355,-133.583069,0.233398,-0.463379,0.296631,-98.808281,94.024651,-91.079704
-0.737549,0.734375,0.453125,10.375976,239.845261,-105.285637,0.148193,-0.5979,0.26001,-130.04303,145.988464,-42.861935
-0.714355,0.702881,0.474854,-4.928589,213.081345,-80.039978,0.136963,-0.62085,0.207275,-134.979248,189.887985,0.656128
-0.713623,0.740234,0.446289,-26.275633,184.547409,-55.915829,0.19873,-0.627441,0.110596,-134.82666,199.836716,20.874022
-0.759521,0.810303,0.406006,-55.679317,153.617859,-29.624937,0.268311,-0.628906,-0.029053,-133.598328,197.578415,37.269592
-0.828125,0.842529,0.424561,-86.624138,120.635979,-0.770569,0.312744,-0.641602,-0.143799,-133.94165,185.821518,51.11694
-0.84668,0.821533,0.447021,-109.504692,86.914055,29.518126,0.309082,-0.65918,-0.196533,-136.360168,171.539291,64.582825
-0.712158,0.769043,0.407227,-121.360771,48.889156,55.351254,0.280762,-0.676514,-0.219482,-139.373779,158.561707,78.567505
-0.578857,0.722168,0.34668,-125.701897,9.651184,76.99585,0.247314,-0.705322,-0.223877,-141.937256,146.690369,93.505852
0.807861,0.912598,-0.125,-142.00592,-235.107407,249.992355,0.209473,-0.749023,-0.210205,-142.76886,133.758545,111.67907
-0.481445,0.708984,0.287354,-128.112793,-29.357908,92.315666,0.163574,-0.784424,-0.177002,-141.304016,118.675224,130.882263
-0.42334,0.739258,0.216797,-145.431519,-102.294914,132.568359,0.201904,-0.548096,0.274658,-117.370598,118.392937,-64.575195
-0.384766,0.781738,0.19165,-164.543137,-162.10173,174.949631,-2.725342,-1.100098,0.755859,53.085323,130.1651,-249.992355
-0.337402,0.789795,0.159424,-167.449936,-189.300522,193.176254,-2.437256,-0.732666,0.585938,-100.181572,-11.634826,249.992355
-0.254639,0.797363,0.09668,-166.435226,-210.838303,206.542953,-1.451904,0.834717,-0.053955,-130.508423,-138.000488,24.131773
-0.150879,0.799805,0.053223,-156.219482,-230.773911,210.029587,-3.057617,0.403564,0.594727,139.984131,152.084351,-112.731926
-0.137207,0.828613,0.073242,-152.534485,-242.164597,219.902023,-3.42749,0.427979,0.696533,161.293015,190.994247,-157.791138
-0.01416,0.854004,0.000244,-159.934998,-249.969467,233.016953,-3.684814,0.216553,0.791504,169.433578,203.06395,-214.14183
0.037598,0.921387,-0.061523,-164.070114,-249.954208,246.055588,-3.749756,-0.043457,1.006836,178.98558,180.435165,-248.306259
0.100586,0.973389,-0.01709,-150.909424,-249.855026,249.992355,-3.710938,-0.354736,1.138184,198.52446,117.904655,-249.992355
0.322021,0.98584,-0.03833,-143.1427,-249.992355,249.992355,-3.46167,-0.787109,1.073242,206.443771,46.562191,-249.992355
-0.437988,0.712891,0.240967,-133.850098,-67.779541,110.130302,-3.014893,-1.051025,0.952393,178.802475,27.19116,-249.992355
0.234619,-0.5896,-0.083008,146.736145,249.832138,32.913208,-2.764648,-0.83374,0.864014,140.129089,25.413511,-249.992355
-0.685303,0.977051,0.341064,44.929501,249.992355,-168.472275,-2.4104,-0.608887,0.780273,110.588066,8.674622,-249.862656
0.242188,-0.506836,-0.25,102.249138,249.992355,-19.851685,-1.556152,-0.516602,0.921631,83.335869,-2.563476,-249.893173
2.655273,3.689941,-1.656006,32.806396,-25.260923,-249.992355,-2.65918,0.259277,0.456543,115.554802,98.846428,-86.227409
2.731689,3.340576,-0.727051,50.056454,37.391663,-249.992355,-0.640137,-0.347656,0.895508,68.405151,-4.508972,-249.992355
1.798584,2.881104,-0.371582,45.57037,90.774529,-249.992355,0.287842,-0.249512,0.628662,61.378475,-6.759643,-223.59465
0.782715,2.212646,-0.227051,24.253843,113.418571,-249.992355,0.403076,-0.342041,0.52832,38.375854,7.766723,-197.26561
0.2146,1.499268,0.243896,24.696348,110.839836,-249.992355,0.426025,-0.330322,0.351074,14.007567,30.479429,-170.379623
-0.136719,1.095703,0.507568,38.955688,107.925407,-249.992355,0.444336,-0.302246,0.220215,-1.88446,48.96545,-141.448975
-0.228516,0.928467,0.48584,55.084225,106.62841,-249.992355,0.451904,-0.342529,0.262451,-15.2359,63.369747,-106.155388
-0.262695,0.830811,0.429688,70.159912,108.100883,-249.93132,0.435547,-0.428223,0.335205,-28.892515,75.141907,-66.947937
-0.234131,0.783936,0.349121,76.667786,108.322136,-249.603256,0.418457,-0.534424,0.334229,-42.022701,77.606201,-28.816221
-0.175049,0.787598,0.323242,74.157715,110.588066,-249.992355,0.474854,-0.646973,0.310791,-56.037899,73.364258,6.439209
2.052246,3.218018,-2.140381,9.368896,-64.460754,-249.992355,0.537109,-0.713135,0.196777,-69.999695,65.299988,40.641781
-0.185303,0.806885,0.288818,62.995907,114.128105,-249.084457,-1.917236,0.828125,0.154297,-141.647339,-89.950554,47.615047
-0.237061,0.750244,0.252686,25.573729,116.928093,-187.93486,-0.036621,-0.219971,0.765625,67.497253,-6.66809,-245.597824
-0.256348,0.651855,0.323975,12.08496,113.555901,-157.966614,-2.269775,0.138916,0.348389,98.983757,42.747494,-75.912476
-0.307129,0.550781,0.372559,5.653381,104.888908,-130.058289,-2.411377,0.7146,0.323975,-149.658203,-22.773741,69.282532
-0.370117,0.487549,0.378418,2.883911,92.01049,-103.775017,-1.624023,0.104492,0.217773,90.133659,-57.510372,-74.72229
-0.396729,0.479736,0.340088,-2.342224,75.744629,-80.810539,-1.921631,0.093506,0.277832,91.735832,-11.276244,-74.440002
-0.399658,0.544678,0.300049,-18.226624,59.257504,-61.508175,-0.568359,0.885498,-0.288574,-114.212029,-159.240723,-18.90564
-0.439453,0.638428,0.243164,-48.225399,44.715878,-41.397091,-0.198975,1.02124,-0.196045,-88.11187,-159.53064,-34.812927
-0.457275,0.665283,0.190918,-82.672112,29.998777,-18.714905,-0.074951,1.116455,-0.061768,-50.094601,-162.414536,-42.846676
-0.485596,0.625,0.19165,-108.726494,15.930175,6.591796,-0.104736,1.090088,-0.025635,-12.33673,-158.27179,-49.362179
-0.505127,0.538574,0.196777,-118.965141,-1.12915,32.424927,-0.056641,0.943604,-0.085205,14.60266,-145.15686,-64.918518
-0.223145,0.802979,0.247803,44.860836,117.019646,-220.672592,-0.012695,0.772705,-0.10498,29.624937,-133.743286,-77.484131
2.179688,3.098145,-2.595947,-51.559444,-41.007992,-249.992355,-0.034424,0.592773,-0.10498,41.549679,-114.601128,-81.985466
0.281982,-0.530518,-0.197998,127.716057,249.992355,5.691528,-0.071777,0.480225,-0.10376,57.174679,-80.398552,-79.696655
2.761475,2.411377,-2.664307,-91.38488,221.366867,-249.992355,-0.205322,0.418457,-0.07666,73.638916,-38.139343,-72.883606
0.16626,-0.561279,-0.208252,81.962578,240.180954,-40.786739,-0.210449,0.373779,-0.127441,87.745659,19.271851,-78.643799
0.12793,-0.623047,-0.125732,74.234009,222.228989,-60.56213,-1.023438,0.813721,-0.220947,-124.64904,-158.653259,0.785828
0.132568,-0.647217,-0.080078,72.113037,197.525009,-80.703728,-0.041992,0.367188,-0.126953,107.39135,67.626953,-71.144104
0.161377,-0.628174,-0.127686,68.634033,170.738205,-94.718925,-0.057617,0.319824,-0.117676,112.823479,61.859127,-68.893433
0.223145,-0.584717,-0.244385,59.265133,146.934509,-101.318352,-0.136719,0.276123,-0.088867,115.989677,47.966,-71.098328
0.331787,-0.528564,-0.380371,39.619446,130.813599,-106.971733,-0.203613,0.248535,-0.041748,118.461601,28.488157,-75.485229
2.654297,2.946289,-2.857666,-91.323845,78.033447,-249.992355,-0.250732,0.230713,-0.019287,120.788567,4.173279,-79.704285
0.562744,-0.419678,-0.567871,2.616882,117.492668,-123.252861,-0.310791,0.198242,0.014893,119.087212,-23.841856,-81.970207
0.621338,-0.359863,-0.619629,-6.614685,113.05999,-126.693718,-0.414307,0.15332,0.040771,111.900322,-51.635738,-82.611076
0.676025,-0.279297,-0.67334,-11.405944,108.863823,-129.348755,-0.563721,0.135986,0.049805,104.23278,-76.591492,-82.893364
0.769287,-0.187744,-0.72168,-17.456055,103.507988,-136.634827,-0.749512,0.142334,0.059082,99.616997,-93.673698,-83.206169
0.457031,-0.473145,-0.493408,17.883301,122.085564,-114.807121,-1.007813,0.140381,0.080811,95.993034,-97.923271,-81.565849
0.972168,-0.013184,-0.810059,-45.402523,116.638176,-150.009155,-1.318604,0.125244,0.133545,92.26226,-86.59362,-77.49176
1.140625,0.079346,-0.880371,-55.541988,140.007019,-151.351929,-0.116211,0.390869,-0.124512,98.983757,57.250973,-76.660156
1.341797,0.161377,-0.964355,-58.876034,174.33165,-151.329041,0.122559,-0.490967,0.061768,-71.784973,27.038572,-19.622803
1.542969,0.266113,-1.062988,-57.899471,219.764694,-151.992798,0.125,-0.489502,0.063477,-79.360962,27.496336,-25.100706
1.734863,0.423584,-1.192627,-56.716915,248.588547,-155.311584,0.106201,-0.511963,0.070557,-85.990898,26.107786,-31.532286
1.937988,0.634766,-1.338623,-55.541988,249.992355,-165.389999,0.050049,-0.551514,0.050293,-89.149467,22.941587,-36.92627
2.125977,0.903809,-1.520996,-55.175777,249.992355,-186.393723,-0.363281,-0.495361,0.205811,-63.758846,-44.281002,-48.46191
2.338379,1.188232,-1.736328,-65.612793,249.153122,-220.603928,-0.088379,-0.55249,0.050781,-78.361511,-0.541687,-45.005795
2.60376,1.564941,-1.995117,-79.620361,249.542221,-247.497543,-0.194824,-0.525879,0.114746,-71.243286,-18.684387,-49.011227
2.780762,1.967041,-2.320801,-86.585991,249.992355,-249.992355,-0.295654,-0.510254,0.170898,-66.543579,-32.615662,-48.690792
0.86084,-0.098633,-0.76123,-29.685972,104.087822,-145.530701,0.123291,-0.518066,0.056885,-63.774105,25.81024,-13.236999
0.058105,0.588135,0.046875,-249.992355,-249.992355,244.377121,-0.010742,-0.570313,0.02417,-86.044304,15.220641,-40.550228
0.016602,0.574219,0.103271,-249.992355,-249.992355,219.482407,0.111084,-0.558594,0.040527,-55.503841,25.344847,-3.822326
-0.022461,0.587402,0.179199,-249.992355,-249.992355,198.577866,-0.291504,-0.776123,0.179688,9.422302,57.205196,100.105278
-0.109375,0.596436,0.277832,-249.992355,-249.992355,183.631882,0.018311,-0.632324,-0.007568,-37.994385,31.166075,24.032591
-0.55835,0.886475,0.381348,-249.992355,-159.637451,117.568962,-0.059082,-0.660156,0.010986,-27.938841,35.78949,41.839596
-0.296631,0.733398,0.326904,-249.992355,-249.992355,157.493591,-0.157227,-0.677246,0.079346,-16.029358,40.039063,62.355038
-0.366455,0.799805,0.381104,-249.992355,-249.542221,145.523071,-0.239746,-0.714355,0.141113,-3.479004,46.440121,82.4356
-0.461426,0.86084,0.398926,-249.992355,-223.144516,133.605957,-0.33374,-0.847656,0.208496,24.848936,68.649292,118.782036
-0.240967,0.6604,0.292969,-249.992355,-249.992355,172.31749,-0.408203,-0.921143,0.223389,42.503353,71.884155,142.311096
0.222656,0.576904,-0.137939,-249.992355,-249.793991,249.992355,-0.553223,-0.976318,0.245605,60.546871,59.242245,167.121872
3.738037,-0.064209,-0.131836,67.092896,65.879822,249.992355,-0.73584,-1.010254,0.276123,74.478149,33.157349,189.57518
0.717041,0.548828,-0.21875,-249.992355,-249.992355,249.992355,-0.928223,-0.998535,0.299805,84.106438,-0.968933,208.618149
1.008057,0.57373,-0.244629,-249.969467,-243.514999,249.992355,-0.46167,-0.503174,0.21582,-64.147949,-55.801388,-52.032467
1.396729,0.592529,-0.229736,-249.29808,-206.809982,249.992355,0.074463,-0.597412,0.012207,-46.95129,27.183531,8.81958
1.888672,0.605225,-0.249023,-249.992355,-162.956223,249.992355,-0.615967,-0.562744,0.216797,-64.361572,-65.238953,-56.03027
2.312988,0.570801,-0.20752,-249.992355,-110.549919,249.992355,-1.496582,-0.392578,1.205322,-91.331474,-53.337093,-104.598991
2.616211,0.517822,-0.182373,-211.441025,-61.202999,249.992355,-0.952637,-0.835693,0.328369,-45.31097,-86.418144,-66.03241
2.95459,0.494629,-0.160889,-163.017258,-34.27887,249.992355,-0.860107,-0.348633,0.771973,-110.382072,65.376282,-87.173454
3.338135,0.434814,-0.061279,-115.676872,-20.042419,249.992355,-0.95459,-0.411377,0.836914,-124.496452,56.816097,-86.509697
3.582275,0.262695,-0.014893,-59.585567,9.490967,249.992355,-1.067627,-0.448486,0.921143,-136.169434,54.313656,-86.166374
3.664063,0.039795,-0.039307,8.857727,43.30444,249.992355,-1.187012,-0.458984,1.021729,-145.301819,57.739254,-86.334221
-0.597168,0.864502,0.343994,-249.992355,-99.540703,100.547783,-1.29248,-0.46582,1.140869,-154.937744,63.278194,-88.562004
0.434814,0.551514,-0.178711,-249.984726,-249.763474,249.992355,-1.366211,-0.464844,1.258301,-162.506088,66.482544,-91.873161
-0.558594,0.798828,0.358398,-234.512314,-46.646114,87.394707,-1.414063,-0.465332,1.36792,-162.666306,64.651489,-94.15435
-0.110107,0.570313,0.557861,-127.357475,0.221252,-184.234604,-1.417725,-0.489502,1.464111,-154.762268,53.184505,-94.573967
-0.423096,0.594482,0.527588,-182.76976,46.714779,77.438354,-1.38208,-0.498779,1.516357,-139.862061,33.554077,-95.458977
3.714844,-0.198975,-0.207031,111.831657,82.717888,249.992355,-1.349121,-0.480957,1.502686,-123.497002,10.673522,-97.946159
2.368652,4.318359,-1.847656,-249.992355,133.43811,-113.121025,-0.76123,-0.694336,0.237793,-59.623714,-74.516296,-60.356136
2.01709,4.202393,-1.443604,-249.992355,144.599915,-143.173218,-1.331055,-0.44751,1.438721,-110.397331,-13.862609,-101.669304
1.740234,4.308105,-1.000732,-249.992355,128.410339,-149.742126,-1.147217,-0.972656,0.333008,92.056267,-37.54425,220.901474
1.165527,3.7771,-0.196777,-249.992355,112.342827,-205.345139,-1.515137,-0.457764,1.143311,-84.007256,-49.499508,-105.857841
0.469238,2.394775,0.641357,-249.992355,98.228447,-248.176559,-1.419922,-0.563965,1.114502,-77.934265,-34.790039,-104.728691
-0.13208,1.622559,0.537598,-249.992355,88.11187,-249.992355,-1.312744,-0.674805,1.027344,-72.19696,-27.481077,-103.973381
-0.384766,1.361816,0.164795,-249.603256,65.101624,-249.786362,-1.263672,-0.741699,0.918701,-61.614986,-35.400391,-100.07476
-0.381592,1.223877,0.306885,-249.992355,37.155151,-249.992355,-1.311035,-0.76416,0.846191,-46.19598,-52.543636,-91.552727
-0.250244,1.063965,0.530762,-249.992355,6.477355,-249.992355,-1.320557,-0.746338,0.784912,-32.905579,-67.176819,-85.533134
-0.484375,0.694824,0.424805,-201.156601,3.105163,81.283562,-1.265137,-0.684082,0.749512,-23.971556,-77.812195,-82.893364
-0.202881,0.829834,0.657959,-235.847458,-14.533996,-239.860519,-1.233643,-0.702148,0.65332,-20.118711,-88.096611,-77.583313
-0.130127,0.557373,0.619873,-152.336121,-11.718749,-205.017075,-1.147217,-0.817627,0.476807,-27.359007,-92.597954,-71.289063
-0.075439,0.647705,0.482666,-114.074699,15.892028,-156.852722,-1.383301,-0.394531,1.338379,-99.739067,-38.894653,-102.72216
0.010254,0.733154,0.467773,-113.883965,32.89032,-126.747124,-1.386963,-1.028564,0.352783,95.970146,-69.702148,228.469833
0.091064,0.770508,0.516846,-123.962395,49.125668,-99.159233,-0.789551,-0.2854,0.70874,-96.412651,77.194214,-88.523857
0.092041,0.743896,0.532227,-138.35144,67.276001,-72.929382,-1.923828,-1.447754,0.440186,77.74353,-135.803223,249.725327
0.006592,0.666504,0.536377,-151.596069,85.891716,-44.219967,-0.177246,0.534912,0.250977,17.860413,8.659363,-44.56329
-0.09668,0.5896,0.563965,-160.461426,100.151054,-15.151977,-0.182861,0.432617,0.2771,21.163939,24.284361,-51.193233
-0.195801,0.538818,0.598145,-165.107712,104.667656,11.856078,-0.222168,0.381104,0.293701,13.641356,26.69525,-62.294003
-0.29541,0.517578,0.601318,-170.875534,98.007195,39.749146,-0.286621,0.37793,0.279297,8.918762,22.209166,-71.235657
-0.367676,0.532959,0.596191,-176.300034,78.720093,63.980099,-0.38623,0.359131,0.282471,6.698608,21.232603,-70.152283
-0.179932,0.636963,0.669922,-188.728317,-18.234253,-221.900925,-0.48291,0.334229,0.261719,3.578186,24.780272,-65.65094
2.624756,4.51709,-2.61084,-249.992355,103.507988,-49.491879,-0.562256,0.345215,0.252686,4.234314,24.269102,-65.681458
3.512939,-0.443359,-0.163574,161.918625,112.365715,249.992355,-0.58252,0.362793,0.226074,9.941101,20.622252,-74.714661
3.167236,-0.341553,-0.061768,227.691635,184.074387,249.992355,-0.590332,0.364014,0.251465,11.001586,6.347656,-81.390373
1.196777,0.038086,-0.442627,19.706726,-23.887632,-184.425339,-0.812744,0.3125,0.276611,7.43103,-6.614685,-81.43615
1.375488,0.074463,-0.451172,23.468016,4.196167,-182.174667,-0.209473,0.619385,0.228516,0.1297,-21.934507,-41.450497
1.530273,0.10376,-0.43335,29.144285,41.099545,-180.854782,-1.026123,0.24707,0.297607,4.386902,0.411987,-85.990898
1.671631,0.140625,-0.438721,36.087036,79.284668,-179.222092,-1.518066,0.112305,0.35498,-9.666443,25.68054,-89.004509
1.773926,0.202393,-0.518066,38.887024,105.705254,-181.274399,-1.729004,0.071045,0.385742,-15.480041,35.957336,-94.764702
1.841797,0.290283,-0.64624,37.895203,109.53521,-198.364243,-1.963623,0.032959,0.427979,-17.654419,37.322998,-105.407707
1.953369,0.42334,-0.730469,44.677731,96.206657,-231.140121,-2.263916,-0.041748,0.451904,-16.944885,36.659241,-121.795647
2.243164,0.62915,-0.709961,63.102718,89.256279,-249.43541,-2.657227,-0.173584,0.463623,-19.165039,44.998165,-139.854431
2.698486,0.885742,-0.750244,89.11132,104.23278,-249.992355,-3.01001,-0.244385,0.523193,-14.465331,62.942501,-164.49736
3.63623,1.407715,-1.274902,144.577026,140.609741,-249.992355,-3.407471,-0.261719,0.633301,-2.807617,91.293327,-189.483627
1.023438,0.017822,-0.422852,15.266418,-42.213436,-191.390976,-3.851807,-0.371338,0.763184,8.354187,124.008171,-211.196884
3.890137,1.822998,-1.411377,182.212814,107.971184,-249.992355,-3.9646,-0.556152,0.84082,16.540527,156.608582,-237.426743
3.221924,2.375244,-1.249756,238.906845,21.804808,-249.992355,-3.671143,-0.66333,0.934814,33.348083,178.604111,-249.992355
3.613525,2.724121,-0.835693,249.610886,60.333248,-249.992355,-1.249268,0.170898,0.335449,-3.097534,11.83319,-87.570183
3.71875,2.741211,-0.52002,249.710068,154.029846,-249.992355,-0.2146,0.643799,0.177246,-19.256592,-57.296749,-38.108826
3.050293,2.629395,-0.281738,249.992355,227.676376,-249.992355,-1.647217,-1.2146,0.375,91.598503,-100.20446,240.715012
1.640137,2.452393,-0.136475,237.281784,249.992355,-249.832138,-0.086182,0.633301,0.156738,-27.618406,-103.210442,-30.982969
0.550049,1.968262,0.348145,180.786118,249.992355,-249.504074,-0.159424,0.62915,0.155762,-27.534483,-84.884636,-32.714844
-0.095947,1.55835,0.573486,134.674072,249.992355,-249.992355,-2.231689,-1.509766,0.584961,67.230225,-172.302231,249.992355
-0.445068,1.303223,0.515869,95.970146,249.992355,-246.15477,-2.573975,-1.330811,0.717285,63.514706,-201.049789,249.992355
-0.587646,1.129639,0.405762,66.421509,249.755844,-205.520615,-2.875732,-1.11792,0.73877,51.376339,-220.397934,249.992355
3.363281,-0.513184,-0.127686,208.35112,148.605347,249.710068,-3.064209,-1.030518,0.630615,30.357359,-228.218063,249.992355
3.31543,2.205078,-1.421387,207.138046,61.378475,-249.992355,-3.253662,-1.060303,0.491211,7.736206,-223.09111,249.603256
0.864746,0.009766,-0.37085,10.848998,-53.039547,-200.378403,-3.452393,-0.980957,0.444824,-11.32965,-209.907516,249.992355
3.158691,1.133545,-1.013672,110.504143,132.240295,-249.992355,-3.728271,-0.230469,0.602295,-21.415709,-153.511047,234.100327
0.641602,-0.045166,-0.276123,12.351989,-59.089657,-219.116196,-3.577393,-0.04834,0.559082,-18.882751,-127.55584,201.072678
0.74292,-0.013672,-0.307617,9.674072,-58.441158,-210.060104,-3.305176,-0.029297,0.480469,-32.249451,-105.918877,170.684799
2.70166,-0.319824,-0.344727,210.548386,249.275192,233.757004,-2.957275,-0.026367,0.438721,-60.134884,-87.882988,126.846306
2.4729,-0.622803,-0.317871,240.280136,249.992355,185.577377,-3.673584,-0.633301,0.507568,-21.789549,-185.516342,249.992355
2.37207,-0.890137,-0.140625,249.992355,249.992355,120.559685,-2.188232,0.214844,0.126953,-101.577751,-95.069878,43.67828
2.064941,-0.927246,0.237061,249.992355,249.992355,70.411682,-1.741211,0.384033,0.100342,-110.710136,-123.809807,22.865294
1.481445,-0.745117,0.417969,249.992355,249.992355,47.309872,-1.276611,0.523193,0.134033,-103.958122,-153.022766,3.936767
0.929199,-0.549072,0.279053,249.946579,249.992355,43.586727,-0.074707,0.679688,0.176758,-25.772093,-121.574394,-29.289244
0.580566,-0.490479,0.044189,249.649033,249.992355,33.950806,-0.963135,0.647461,0.165039,-88.348381,-171.05101,-5.15747
0.44043,-0.440918,-0.019043,249.992355,249.984726,14.236449,-0.756348,0.758545,0.147705,-72.502136,-175.796494,-6.515502
0.36792,-0.37793,0.021729,249.496445,249.992355,-14.686584,-0.571777,0.834229,0.121338,-57.998653,-170.951828,-8.651733
0.293213,-0.327637,0.127197,225.723251,249.992355,-40.916439,-0.424072,0.862549,0.150635,-41.755672,-163.505539,-13.198852
2.928467,-0.21582,-0.20874,216.094955,225.822433,249.992355,-0.270996,0.833008,0.225098,-28.045652,-152.709961,-18.028259
0.130859,-0.287598,0.246338,178.634628,249.992355,-99.288933,-0.134766,0.759277,0.227295,-23.735044,-138.221741,-24.093626
0.231934,-0.295166,0.244385,201.126083,249.458298,-67.260742,-2.560791,0.056641,0.291504,-82.427971,-82.298271,77.819824
0.468506,-0.111084,-0.235107,31.829832,-39.016724,-226.562485,0.293213,-0.358398,0.050049,-198.577866,-84.693901,-183.616623
0.427734,-0.154053,-0.202881,47.782894,-14.831542,-224.693283,0.250732,-0.358643,0.116211,-226.646408,-62.080379,-206.626877
0.38208,-0.189697,-0.143555,62.881466,18.737793,-218.666061,0.22876,-0.433838,0.192871,-249.992355,-28.518675,-226.707443
0.28418,-0.218994,-0.051514,76.934814,62.07275,-210.205063,-1.39209,-2.615234,0.874512,-244.827255,244.033798,-249.992355
0.541748,-0.076416,-0.253906,19.248962,-53.398129,-224.678024,-0.37085,-0.848633,0.531494,-249.641403,58.845516,-249.992355
0.007813,-0.267334,0.189209,122.398369,168.083176,-186.950668,-1.05835,-1.485596,0.902344,-249.961838,129.920959,-249.893173
-0.032959,-0.300537,0.248291,144.187927,229.209885,-163.948044,-1.419189,-2.235107,1.007568,-249.992355,209.213242,-249.877914
0.025635,-0.302734,0.249756,160.728439,249.992355,-133.331299,0.299072,-0.39624,-0.015137,-174.842819,-97.984306,-158.920288
0.139648,-0.235596,0.062744,96.16851,112.144463,-200.927719,0.077148,-0.587158,0.334717,-249.992355,9.994507,-246.139511
-0.313232,0.506104,0.488037,-73.661804,-249.992355,-87.837212,0.268066,-0.433105,-0.066895,-155.189514,-102.584831,-133.69751
-0.407715,0.353516,0.903564,-26.153563,216.880783,-227.157578,-0.065186,-0.609619,-0.308105,-25.390623,160.903915,131.68335
-0.436035,0.21875,0.971924,-13.22174,176.002487,-204.261765,0.20874,-0.547607,-0.122803,-125.343315,-67.214966,-83.480827
-0.530273,0.182617,1.019287,-10.002136,122.871391,-176.383957,0.190186,-0.633789,-0.16626,-115.20385,-33.882141,-61.309811
-0.548584,0.210205,1.024658,-13.832091,57.502743,-153.495789,0.200439,-0.709229,-0.201172,-107.231133,0.953674,-41.206356
-0.459961,0.251465,1.03125,-17.189026,-27.717588,-141.365051,0.233643,-0.738037,-0.239014,-99.19738,31.715391,-20.309446
-0.451904,0.3125,1.004639,-22.415159,-112.281792,-133.842468,0.252441,-0.747803,-0.259521,-90.431206,56.747433,-0.343323
-0.36792,0.630859,0.827148,-34.416199,241.531357,-248.626694,0.238037,-0.757568,-0.263428,-81.245415,80.879204,18.112183
-0.455078,0.390381,0.828125,-31.898497,-182.739243,-121.597282,0.182861,-0.749756,-0.295166,-71.166992,106.582634,38.589478
-0.404541,0.474854,0.613525,-49.385067,-234.18425,-104.789726,0.111816,-0.742432,-0.331055,-60.966488,129.53186,60.768124
-0.232422,0.55835,0.443848,-105.75103,-249.969467,-59.204098,0.044678,-0.720215,-0.353516,-50.140377,147.697449,85.357658
-0.184326,0.64502,0.202148,-221.145615,-205.879196,77.087402,-0.026611,-0.668457,-0.338379,-38.070679,159.225464,110.237114
-0.150879,0.724609,0.322754,-178.329453,-249.992355,12.96234,-2.235107,-2.779297,1.250244,-211.059555,247.879013,-249.992355
-0.097412,0.732666,0.251221,-208.457932,-249.992355,34.004211,0.233643,-0.479492,-0.092041,-138.717651,-92.628471,-108.345024
-0.088623,0.687744,0.216553,-221.20665,-229.202255,50.712582,-3.483887,-2.516602,2.01416,-171.569809,249.992355,-249.458298
-0.306885,0.637695,0.163086,-216.232285,-190.223679,113.792412,-0.714111,-0.217041,0.539063,9.300232,39.466858,-75.958252
-0.289795,0.679443,0.111572,-214.729294,-189.605698,140.4953,-3.858643,-1.881104,2.293701,-170.661911,227.813705,-221.504196
-0.233154,0.747803,0.080566,-221.015915,-198.371872,156.661987,-0.383789,0.629639,0.346924,94.520561,-17.593384,-37.712097
-0.206299,0.827148,0.116211,-237.96843,-209.091171,175.125107,-0.070557,-0.562744,-0.301514,-12.809752,154.10614,150.505066
-0.126709,0.866943,0.140137,-249.130234,-221.07695,200.485214,-0.341553,0.536377,0.235352,108.871452,71.990967,-44.56329
-0.007324,0.876221,0.111084,-249.961838,-228.294357,233.039841,-0.321533,0.489746,0.21167,113.166801,105.529778,-52.474972
-0.276367,1.000244,0.832764,-25.68054,249.992355,-249.992355,-0.2771,0.433105,0.161865,115.898125,124.092094,-65.414429
-0.196045,0.636963,0.40625,-140.869141,-249.649033,-20.606993,-0.229248,0.336182,0.148438,113.662712,133.834839,-76.255798
-0.141113,1.220459,0.862305,-4.959106,243.453964,-249.710068,-0.209473,0.248047,0.145508,105.758659,140.785217,-82.336418
0.150391,0.856445,0.090332,-249.862656,-219.337448,249.511703,-0.239502,0.217529,0.130615,96.214287,145.195007,-84.625237
-0.142334,1.425537,0.683838,-57.174679,210.807785,-249.992355,-0.303955,0.217285,0.168457,89.99633,146.087646,-84.45739
-0.144775,0.210938,-0.526611,124.809258,79.078674,164.268478,-0.339111,0.226074,0.22876,85.685722,140.563965,-77.728271
-0.16626,0.297852,-0.556396,126.960747,72.07489,166.503891,-0.342041,0.204102,0.27124,80.238342,124.694817,-69.412231
-0.082275,0.452881,-0.563477,135.917664,80.13916,167.90007,-0.330811,0.135254,0.300781,69.358826,100.044243,-67.619324
0.01709,0.649414,-0.603271,136.672974,98.602287,182.411179,-0.359619,0.018311,0.326172,50.033566,73.974609,-71.182251
0.061768,0.891602,-0.647461,127.349846,125.16021,205.924973,-0.495117,-0.110352,0.391357,28.57971,52.314754,-74.150085
0.081299,1.104492,-0.687012,112.495415,154.899597,223.991379,-0.968018,-0.311035,0.72998,-5.599975,34.072876,-76.957703
0.163574,1.251221,-0.717529,106.796257,180.557236,209.60997,-1.264404,-0.423096,0.920166,-20.820616,36.430359,-76.667786
0.17749,1.503662,-0.74292,97.114555,195.007309,167.236313,-1.607666,-0.526611,1.113281,-35.453796,51.87225,-73.036194
-0.14209,2.210938,-0.905518,31.829832,175.949081,124.64904,-2.00415,-0.649414,1.31958,-49.026485,76.416016,-75.752258
-0.681885,3.321045,-1.195801,-142.112732,87.486259,98.81591,-2.386963,-0.833252,1.508301,-60.638424,102.72979,-90.568535
-0.172119,1.237549,0.827881,-11.367797,230.186447,-249.93132,-2.815674,-1.105225,1.673096,-72.753906,125.297539,-109.207146
-0.296143,4.140137,-1.192871,-247.131332,-37.155151,28.732298,-3.310303,-1.38916,1.835693,-94.039909,148.849487,-138.237
0.001953,6.57666,-1.097168,-249.992355,-229.850754,-208.946213,-3.602051,-1.583008,2.040039,-124.084465,175.163254,-177.719101
0.09082,6.374023,0.261719,-249.992355,-249.992355,-249.992355,-3.648682,-1.7229,2.193115,-155.509949,197.731003,-208.404526
-0.003662,4.984863,0.188232,-249.977097,-232.315048,-249.992355,-4.036377,-2.116211,2.348633,-165.672287,249.076828,-237.136826
0.946533,4.406494,-0.23999,-249.992355,-129.875183,-249.992355,-0.346436,0.586426,0.263916,102.47802,27.809141,-41.595455
1.117188,4.039795,-1.050293,-249.992355,-42.716976,-249.992355,-0.085449,-0.530518,-0.295166,-0.968933,142.425537,169.303879
1.425049,3.247314,-1.427979,-248.939499,0.946045,-249.992355,-0.160889,-0.515381,-0.222168,18.264771,115.333549,206.619247
1.199463,2.726563,-1.420898,-249.992355,59.761044,-249.992355,-1.277344,0.414063,0.571533,14.289855,-77.23999,85.380547
0.366455,2.337646,-0.956299,-249.992355,109.313957,-249.992355,-0.97876,0.404297,0.446289,14.312743,-96.351616,57.655331
-0.047607,1.857422,0.164795,-194.419846,150.657654,-249.992355,-0.765625,0.437256,0.43042,12.199401,-98.342888,32.798767
-0.12793,1.627686,0.537354,-118.492119,185.935959,-249.992355,-0.632568,0.526611,0.436035,15.686034,-90.095512,11.573791
0.009277,5.103271,-1.46582,-249.992355,-141.975403,-74.272156,-0.523193,0.604736,0.423584,23.04077,-81.451408,0.991821
0.397949,0.794678,0.012451,-249.992355,-215.78978,249.992355,-0.475342,0.637695,0.432617,29.609678,-80.879204,-1.647949
-0.078613,0.082275,-0.592529,126.548759,104.87365,161.888107,-0.426758,0.60498,0.433105,33.02002,-69.671631,-12.428283
0.831299,0.835449,-0.195313,-236.801132,-192.283615,249.992355,-0.382568,0.55249,0.422852,31.471251,-51.74255,-25.596617
-0.316895,-0.38916,-0.11499,218.955978,249.992355,-148.200989,-0.369385,0.498047,0.414307,26.428221,-37.864685,-33.447266
-0.406738,-0.246826,-0.166016,194.320663,249.877914,-163.11644,-0.429932,0.376953,0.518066,12.756347,-1.197815,-49.934383
-0.557129,-0.089844,-0.266602,179.885849,249.633774,-171.890244,-1.583496,0.36377,0.686279,10.116576,-43.907162,114.898674
-0.748047,0.036621,-0.440674,167.52623,249.992355,-173.736557,-0.447998,0.331543,0.622559,9.628296,24.436949,-56.961056
-0.89502,0.119141,-0.638184,150.596619,247.276291,-167.793259,-0.471924,0.221191,0.709473,3.707886,62.538143,-75.98114
-0.9021,0.069336,-0.772705,147.224426,217.323288,-161.819443,-0.478271,0.154541,0.711914,-0.106812,87.440483,-81.756584
-0.794189,-0.030518,-0.831543,166.931137,188.392624,-148.628235,-0.542236,0.097656,0.661865,-7.080078,103.836052,-84.930412
-0.635742,-0.078369,-0.918213,180.419907,171.997055,-115.95916,-0.627686,0.065186,0.506836,-13.511657,105.857841,-88.829033
-0.455078,-0.068604,-1.056152,159.751892,177.192673,-74.806213,-0.651855,0.020996,0.434082,-22.163389,103.248589,-93.116753
-0.374756,0.012207,-1.204102,115.943901,192.161545,-38.017273,-0.654297,-0.032715,0.456055,-33.630371,100.654594,-94.932549
-0.252441,-0.490234,-0.071045,244.270309,249.992355,-131.278992,-0.664307,-0.10083,0.500244,-47.927853,97.358696,-94.367973
-0.342773,0.155273,-1.289063,71.815491,212.966904,-15.708922,-0.701904,-0.173828,0.555908,-64.689636,94.345085,-93.231194
-0.222656,0.344238,-1.325928,78.544617,232.322678,1.670837,-0.734863,-0.23291,0.634277,-81.672661,88.272087,-90.911858
-0.166504,0.458984,-1.386963,112.838737,238.258347,24.948118,-0.118164,-0.518799,-0.264404,8.972168,129.020691,187.69072
0.028076,0.803467,-1.483154,118.057243,227.706894,40.481564,-0.455322,0.268799,0.698242,6.057739,43.80798,-66.482544
0.303467,1.126709,-1.571533,98.350517,205.680832,43.083187,-1.992676,0.239746,0.809326,10.94818,-18.157959,149.642944
0.61499,1.411377,-1.680664,69.480896,185.073837,45.539852,-0.394043,0.432373,0.435547,19.462585,-21.804808,-41.419979
0.986328,1.742432,-1.88501,29.922483,166.831955,46.745296,-3.130127,-0.087158,1.160156,31.280516,-32.653809,237.632736
1.306885,2.050781,-2.153564,-16.944885,149.391174,45.898434,-2.585205,0.067383,0.957764,17.50946,-16.281128,192.22258
1.577148,2.445313,-2.451172,-74.21875,123.413078,36.346436,-0.322021,-0.561035,-0.154785,35.209656,90.354912,246.482834
2.070313,2.904297,-2.551025,-151.84021,91.743462,22.056578,-0.438232,-0.593994,-0.119873,43.472286,78.422546,249.992355
2.43335,3.689209,-2.593506,-233.184799,82.145683,4.798889,-0.54126,-0.605957,-0.056641,53.482052,61.149593,249.992355
-0.293701,0.292725,-1.322266,52.467342,229.316696,-8.644104,-0.640625,-0.616943,0.034668,62.858578,35.339355,249.992355
-0.140625,-0.532227,-0.068115,245.216354,249.992355,-115.859978,-0.741211,-0.6521,0.105713,68.79425,1.823425,249.992355
0.579834,0.78833,-0.11377,-249.191269,-203.796371,249.992355,-0.868164,-0.702148,0.158447,71.685791,-36.361694,249.992355
0.056885,-0.445801,-0.291748,169.502243,249.992355,-78.430176,-1.062012,-0.772217,0.222412,71.754456,-75.393677,249.992355
1.092773,0.97168,-0.271484,-221.351608,-181.533798,249.992355,-1.336426,-0.881592,0.304199,63.591,-113.296501,249.992355
1.344238,1.186523,-0.246826,-184.463486,-169.815048,249.992355,-1.622803,-0.99707,0.410156,48.736568,-145.828247,249.992355
1.754639,1.442627,-0.3125,-136.962891,-168.579086,249.992355,-1.927246,-1.102539,0.550049,33.77533,-168.167099,249.992355
2.238037,1.776367,-0.36084,-104.515068,-170.753464,249.992355,-0.227539,-0.525879,-0.180908,27.252195,102.165215,227.706894
2.785156,1.977539,-0.341064,-90.400688,-171.997055,249.992355,-2.6604,-1.259766,0.906494,20.172117,-171.974167,249.992355
3.251953,1.884521,-0.296875,-84.739677,-164.611801,249.992355,-2.815674,-1.210938,1.021973,15.61737,-170.494064,249.992355
3.601318,1.266602,-0.662842,44.334408,-124.351494,249.992355,-2.89209,-1.203369,1.111816,11.245727,-187.171921,249.992355
3.511719,1.101807,-0.846436,104.820244,-141.174316,249.992355,-3.109375,-1.165039,1.114258,9.391785,-205.383286,249.992355
3.451416,1.08667,-1.12207,63.217159,-133.125305,249.992355,-3.37207,-1.138672,1.110596,8.277893,-205.352768,249.992355
3.852783,0.951904,-0.964111,65.994263,-39.44397,249.992355,-3.456543,-1.047852,1.12793,6.866455,-199.798569,249.992355
3.538086,1.588623,-0.427734,-48.072811,-139.022827,249.992355,-3.474854,-0.733887,1.110596,5.53894,-190.9561,249.992355
3.888672,0.557861,-0.760498,125.091545,216.835007,249.542221,-3.552734,-0.306396,1.202393,18.241882,-158.103943,249.656662
4.160889,0.725098,-0.852295,108.345024,92.491142,249.855026,-3.567383,-0.117188,1.252686,41.694637,-105.018608,249.977097
-0.036621,-0.240234,-0.494873,136.199951,249.992355,-12.123107,-3.441162,-0.150879,1.256836,44.914242,-59.722897,249.992355
0.170898,-0.165771,-0.5,149.971008,249.992355,12.184142,-2.306152,-1.227051,0.731201,23.16284,-176.406845,249.992355
0.656982,-0.066895,-0.389648,164.230331,249.992355,36.224365,-3.747559,-0.299316,0.043457,167.9077,147.521973,-157.318115
1.344727,0.033691,-0.33252,165.50444,249.992355,77.140808,-3.354248,-0.361084,0.018066,138.885498,125.175468,-121.170036
-0.025879,-0.336914,-0.387451,140.701294,249.992355,-45.951839,-2.868896,-0.395752,0.069336,120.483391,97.68676,-99.525444
2.438232,0.217529,-0.683105,151.245117,249.992355,202.270493,-1.178467,0.224365,0.143555,71.258545,24.230955,-70.823669
2.801758,0.345947,-0.745117,145.797729,249.992355,246.841415,-2.040039,-0.145752,0.155518,107.475273,67.199707,-89.309685
3.284424,0.426514,-0.703369,139.137268,249.992355,249.992355,-1.702881,0.006836,0.145264,97.900383,54.229733,-83.419792
1.998291,0.116699,-0.484131,157.516479,249.992355,136.520386,-1.421631,0.124512,0.133057,84.251396,37.620544,-75.820923
0.017334,-0.522461,-0.169189,213.432297,249.992355,-100.32653,-0.977539,0.297607,0.159912,60.104366,18.203735,-69.816589
-0.209473,0.654297,-0.011963,-59.494015,-173.797592,-233.734116,-2.416992,-0.308838,0.124512,112.388603,78.201294,-92.51403
0.482666,2.708496,-1.585938,-49.957272,249.084457,-249.992355,-4.054688,-0.391846,0.147461,190.879807,164.260849,-202.346786
0.218018,2.526123,-1.392334,-81.05468,249.992355,-249.992355,-3.407471,-1.799561,0.155518,163.322433,118.080132,-249.992355
0.067871,2.008057,-1.114014,-92.178337,249.992355,-249.992355,-4.382813,-0.851807,0.370361,210.861191,154.945374,-249.992355
0.004639,1.547852,-0.916992,-75.469971,212.768539,-249.992355,-4.348389,-1.112793,0.378174,220.314011,126.388542,-249.992355
0.01123,1.244873,-0.671143,-60.783382,120.201103,-249.992355,-4.07666,-1.689697,0.228516,198.02092,104.324333,-249.992355
0.089111,1.102783,-0.422363,-58.715816,30.2124,-249.992355,-2.895264,-1.40332,0.253662,142.059326,150.32196,-249.992355
0.056885,0.969238,-0.266357,-58.982845,-44.792171,-249.641403,-2.761475,-1.145264,0.334229,129.66156,164.12352,-249.992355
-0.104248,0.831543,-0.155762,-60.043331,-101.196281,-249.992355,-2.346924,-1.137695,0.44873,115.463249,172.279343,-249.992355
-0.225098,0.724609,-0.064941,-62.965389,-143.1427,-249.992355,-1.534424,-1.202637,0.61792,92.51403,190.361008,-249.923691
-0.101074,0.183105,0.056396,-88.23394,-30.738829,28.678892,-0.687256,-1.170166,0.635986,61.958309,208.564743,-249.595627
0.039063,0.42627,-0.139648,-32.363892,-182.792648,-122.184746,-0.098633,-1.100342,0.410889,25.688169,217.849716,-249.992355
0.092285,0.398438,-0.166748,-33.39386,-172.142014,-99.548332,-0.79834,0.344238,0.183838,49.827572,13.549804,-71.250916
0.035156,0.382813,-0.166504,-41.038509,-154.319763,-83.892815,0.174072,-1.036133,0.169434,-5.783081,220.626816,-248.977646
-0.056396,0.372803,-0.147705,-53.855892,-131.706238,-65.795898,-4.281006,-0.640625,0.259277,199.256882,168.495163,-241.928085
-0.117432,0.355469,-0.113281,-68.336487,-109.306328,-43.716427,-0.684082,0.368408,0.17041,39.848328,10.375976,-73.051453
-0.149414,0.317383,-0.043945,-79.986572,-87.188713,-23.147581,0.09668,0.731201,0.217529,29.510496,-41.725155,-76.126099
-0.146484,0.259521,0.028076,-85.479729,-66.467285,-7.072448,-0.500732,0.40332,0.15332,30.380247,4.104614,-82.931511
-0.127686,0.210449,0.070313,-88.050835,-48.866268,6.462097,0.216064,-1.025879,0.077881,-30.708311,225.631699,-220.077499
-0.106689,0.189209,0.062012,-89.157097,-36.865234,17.990112,-3.645508,0.212402,-0.458252,-64.750671,-66.833496,223.457321
0.861816,2.473877,-1.715332,-28.572081,249.992355,-249.992355,-3.126709,0.353516,-0.369141,-48.316952,-77.041626,165.489182
-0.137207,0.585205,-0.05835,-49.636837,-189.994797,-198.432907,-2.476318,0.550293,-0.293213,-10.833739,-61.18774,96.633904
1.336914,2.288086,-1.843506,-29.319761,249.992355,-249.992355,-2.137939,0.704834,-0.153076,26.329039,-49.842831,36.949158
0.967529,0.077881,-0.94751,7.965087,213.043198,-220.314011,-1.999023,0.750977,-0.155029,46.57745,-69.374084,3.242492
1.830811,1.891357,-1.703857,-33.02002,249.992355,-249.992355,-1.48877,0.695557,-0.283203,50.514217,-81.771843,-13.618468
0.246582,-0.55249,0.019043,61.248775,249.93132,-76.927185,-0.950195,0.645264,-0.271729,48.179623,-71.95282,-23.933409
0.219971,-0.584229,0.020996,60.791012,249.877914,-97.457878,-0.652588,0.596191,-0.143555,42.861935,-50.72784,-33.737183
0.19458,-0.589355,0.009277,64.025879,249.992355,-119.438164,-0.447998,0.580322,-0.016846,36.4151,-29.579161,-47.737118
0.190186,-0.546631,-0.035645,62.70599,247.932419,-141.174316,-0.601318,0.382813,0.145264,33.035278,7.308959,-77.484131
0.22876,-0.513672,-0.147705,54.000851,234.664902,-161.941513,-0.272949,0.598389,0.068848,29.685972,-17.959595,-62.416073
0.268555,-0.481445,-0.304688,38.612366,222.4655,-176.139816,-0.000488,0.696533,0.174805,25.29907,-29.541014,-68.04657
0.307129,-0.412109,-0.442383,17.921448,215.370163,-178.901657,0.228516,0.693359,0.206787,31.845091,-45.104977,-89.225761
0.367676,-0.340576,-0.5625,-0.87738,213.882431,-175.979599,0.252197,0.604004,0.213623,31.066893,-38.30719,-98.640434
0.464355,-0.248047,-0.668945,-15.388488,214.53093,-183.891281,0.124023,0.534668,0.199707,28.373716,-28.411863,-102.210991
0.533691,-0.194092,-0.743652,-24.955748,216.758713,-195.205673,-0.044678,0.516357,0.174072,26.618956,-22.293089,-102.455132
1.655029,2.136963,-1.850098,-35.247803,249.977097,-249.992355,-0.146973,0.535645,0.159912,27.336119,-17.616272,-100.280754
0.628174,-0.174072,-0.796387,-27.275084,218.208298,-203.956589,-0.215088,0.551025,0.159424,28.221128,-12.413024,-96.824638
0.855713,-0.051758,-0.845703,-4.081726,217.384323,-213.340744,-0.283447,0.532471,0.153076,28.221128,-7.873535,-93.063347
-0.11792,0.196045,0.074219,-88.317863,-28.945921,38.017273,-0.347168,0.48584,0.155762,28.724669,-3.692627,-89.691154
1.10498,0.195068,-1.039307,14.457702,211.418137,-237.663254,-0.410889,0.439209,0.164307,29.685972,0.75531,-86.875908
1.273926,0.300049,-1.123047,15.73944,222.625717,-249.458298,-0.130127,0.647705,0.105957,25.077818,-19.775391,-67.680359
1.458984,0.395996,-1.198242,14.793395,244.041428,-249.992355,-3.881348,0.109863,-0.593262,-55.496212,-52.886959,249.992355
1.623535,0.539795,-1.237549,13.534545,249.992355,-249.992355,0.18335,-1.054443,0.089355,-51.23138,236.885056,-186.271652
1.735596,0.761475,-1.251221,8.499146,249.992355,-249.992355,0.307861,-1.050049,-0.018799,-86.326591,249.984726,-106.163017
1.838623,1.016602,-1.288086,-0.25177,249.992355,-249.992355,-2.904297,-1.241455,0.86499,113.029472,59.852596,249.992355
1.908691,1.28418,-1.362549,-11.184691,249.992355,-249.992355,-3.116455,-1.224854,0.950928,141.342163,-1.358032,249.992355
1.913086,1.589355,-1.503906,-24.269102,249.992355,-249.992355,-3.367188,-1.371826,0.85791,154.296875,-67.085266,249.992355
0.742432,-0.137939,-0.809814,-18.264771,219.024643,-210.716232,-3.613281,-1.687744,0.664063,144.073486,-123.237602,249.992355
-0.159912,0.226318,0.082031,-89.973442,-31.944273,46.554562,-3.993896,-1.800049,0.628418,122.299187,-158.7677,249.977097
-0.065918,0.488525,-0.107178,-38.81073,-189.895615,-157.546997,-4.263672,-1.382324,0.746826,95.787041,-163.139328,249.992355
-0.218994,0.254395,0.041748,-91.682426,-41.801449,58.364864,-4.273193,-0.691895,0.898438,77.728271,-147.05658,249.984726
1.48291,1.645508,-1.872803,249.992355,157.829285,103.668205,-4.036865,-0.241455,1.123779,89.721672,-128.997803,248.886093
1.450684,1.564941,-1.92041,249.992355,188.125595,83.976738,-3.740234,-0.337158,1.314453,112.136833,-120.147697,249.992355
1.442383,1.01709,-1.556885,249.992355,193.443283,58.403011,-3.487305,-0.606934,1.252197,76.461792,-109.947197,249.992355
1.105957,0.615234,-1.030029,249.908432,194.473251,50.788876,-2.842041,-1.233643,0.694824,84.472649,103.034966,249.992355
0.691895,0.519531,-0.750244,249.992355,211.891159,32.501221,-3.21582,-0.355957,1.041992,26.679991,-79.452515,192.039474
0.505615,0.367432,-0.703857,249.992355,230.712875,-8.781433,-2.528809,0.496094,0.582031,17.234802,12.367248,72.387695
0.421387,0.175537,-0.62793,246.475204,241.790756,-45.783993,-2.001953,0.831299,0.780273,46.882626,-18.463135,29.792784
0.305176,0.025146,-0.445557,233.642563,245.666489,-50.804134,-1.452148,1.084961,0.790283,78.094482,-104.080193,7.949829
0.161377,-0.11499,-0.359619,218.986496,249.862656,-25.016783,-0.803711,1.136963,0.619873,100.440971,-186.691269,-1.121521
-0.123779,-0.328613,-0.244629,176.948532,249.992355,-18.226624,-0.400879,1.0,0.381836,104.011528,-232.055649,-15.937804
1.602783,1.627441,-2.060791,249.992355,116.561882,102.310173,-0.321045,0.847168,0.204834,94.451897,-234.092697,-30.677794
-0.289795,-0.364502,-0.226807,182.26622,245.445236,-31.791685,-0.393311,0.788818,0.228516,85.441582,-200.881943,-33.691406
-0.506348,-0.301758,-0.507568,217.491135,194.854721,-15.502929,-0.504639,0.782471,0.269287,82.283012,-151.96991,-30.426023
-0.524658,-0.210693,-0.72876,211.952194,177.535995,5.851745,-0.535889,0.741943,0.295898,83.686821,-103.065483,-30.075071
-0.464355,-0.175537,-0.840576,179.038986,183.357224,23.353575,-0.475342,0.677002,0.350098,87.516777,-60.18829,-32.897949
-0.223389,-0.185303,-0.827148,142.623901,202.964767,50.270077,-2.984131,0.099609,0.67627,7.789611,-24.993895,123.977654
0.018555,-0.14624,-0.709717,128.646851,218.574509,66.932678,-2.776123,-1.154297,0.53418,55.3894,118.301384,249.992355
0.102295,-0.103516,-0.65918,124.664299,220.901474,81.001274,0.234619,-1.066895,0.05127,-69.473267,248.359665,-149.200439
0.077881,-0.07373,-0.675293,119.911186,208.839401,102.783195,-2.192627,-0.989258,0.250977,-8.354187,83.19091,249.992355
-0.022705,-0.05249,-0.696777,115.486137,182.609543,131.43158,0.326904,-1.023926,-0.102539,-101.303093,249.923691,-63.858028
-0.069336,-0.011719,-0.666992,119.514458,143.096924,155.151367,0.366943,-1.030273,-0.171143,-115.966789,249.992355,-25.085447
-0.288574,0.252686,0.019287,-92.674248,-57.136532,73.257446,0.445557,-1.050293,-0.2146,-130.706787,249.908432,9.681702
-0.447266,-0.35376,-0.311523,201.126083,223.297104,-34.439087,0.502686,-1.074219,-0.256348,-143.295288,244.880661,41.007992
1.844482,1.613525,-2.413574,249.992355,103.897087,69.190979,0.467773,-1.100586,-0.285156,-153.556824,239.98259,73.921204
0.043701,-0.240967,-0.307373,192.871078,249.908432,-11.375426,0.36084,-1.116699,-0.304688,-161.59819,235.000595,107.292168
2.0,2.305664,-2.643799,249.992355,148.956299,94.589226,-2.532715,-1.065674,0.378418,21.759031,106.803886,249.992355
1.999023,1.978271,-2.591064,249.992355,124.450676,54.840084,0.221924,-1.150635,-0.326416,-171.524033,224.052414,165.191635
-0.344727,0.215088,0.082031,-84.541313,-94.062798,97.572319,0.191406,-1.191406,-0.324219,-174.598679,214.302048,192.626938
-0.310547,0.213623,0.079346,-79.88739,-116.821281,108.093254,0.154785,-1.200439,-0.331787,-175.613388,197.868332,219.19249
-0.300537,0.226563,0.051025,-76.751709,-143.478394,120.040886,0.107666,-1.174805,-0.310547,-173.347458,174.972519,242.088303
-0.316406,0.232178,0.01416,-72.883606,-176.536545,134.880066,0.2771,-1.125,-0.319824,-167.114243,229.675278,136.688232
-0.356689,0.238281,-0.008301,-66.596985,-217.361435,150.07019,-0.005127,-1.113525,-0.264893,-161.148056,121.429436,249.992355
-0.376709,0.265869,-0.073975,-60.516354,-247.001633,164.924606,-0.062744,-1.08667,-0.243652,-151.977539,95.603935,249.992355
-0.335449,0.342773,-0.132813,-56.442257,-249.992355,177.627548,-0.156006,-1.073486,-0.199707,-140.464783,73.974609,249.992355
-0.30835,0.451416,-0.198486,-57.075497,-249.992355,194.465622,-0.31665,-1.055908,-0.136963,-126.708977,57.418819,249.992355
-0.244873,0.591309,-0.275635,-61.805721,-249.343857,214.14946,-0.497803,-1.021973,-0.060547,-109.848015,46.302792,249.992355
-0.145996,0.737549,-0.359375,-66.627502,-249.992355,231.109604,-0.698486,-0.981201,0.002197,-93.795769,38.146973,249.992355
-0.07373,0.867188,-0.461914,-69.007874,-249.992355,248.237595,-0.953369,-0.926025,0.036621,-79.414368,29.365538,249.992355
-0.344238,0.229736,0.055176,-89.317314,-74.493408,85.876457,-1.227295,-0.883545,0.075439,-65.093994,26.168821,249.992355
2.005615,2.593994,-2.487793,248.4207,164.337143,160.97258,-1.505371,-0.886475,0.129883,-50.262447,37.04834,249.992355
0.192627,1.123291,-0.670654,-61.073299,-155.769348,249.992355,-1.830078,-0.921631,0.177979,-32.302856,58.845516,249.992355
0.389404,1.223145,-0.777588,-32.943726,-82.351677,249.992355,0.046387,-1.14917,-0.282471,-168.15184,148.490906,249.992355
0.57959,1.339844,-0.908447,11.230468,0.061035,249.992355,-0.595215,0.229736,-0.013672,86.860649,-116.767876,-135.83374
0.78418,1.50293,-1.052002,57.754513,87.142937,249.961838,-0.560547,0.226074,-0.006348,84.07592,-123.962395,-136.558533
0.949951,1.641846,-1.209717,108.283989,158.622742,249.618515,-0.577637,0.248535,0.011475,83.625786,-133.049011,-135.520935
1.046143,1.763916,-1.422607,150.558472,197.784409,249.992355,-0.612549,0.290283,0.031006,80.93261,-142.417908,-130.2948
1.271973,1.925537,-1.641602,184.219345,210.609421,249.992355,-0.577393,0.384521,-0.040527,48.728939,-133.956909,-77.484131
1.591553,2.169922,-1.895508,210.86882,204.360947,228.118881,-0.569336,0.312988,0.039551,61.44714,-153.251648,-116.371147
1.824951,2.484619,-2.203125,229.598984,185.53923,208.030685,-0.469971,0.299561,0.008789,52.421566,-148.68927,-110.687248
0.046875,0.999268,-0.585205,-70.243835,-222.404465,249.992355,-0.433594,0.312256,-0.031006,48.774715,-141.036987,-100.349419
2.88501,2.566406,-1.97876,-44.799801,249.992355,-249.992355,-0.614014,0.319092,0.0354,72.746277,-150.367737,-123.077385
2.989258,2.311523,-1.96167,-23.445127,249.969467,-249.992355,-0.670166,0.251465,-0.022705,93.437187,-109.916679,-136.444092
2.766846,1.912842,-1.959229,-6.660461,243.324265,-249.992355,-3.469238,-0.476563,-0.285889,154.449463,202.835068,-211.280807
2.423096,1.573242,-1.877441,7.507324,176.086411,-248.313889,-0.837646,0.231445,-0.074463,109.15374,-101.058952,-134.849548
1.177246,0.661865,-1.20752,-28.190611,-15.975951,-150.8255,-0.949951,0.179688,-0.125488,112.770073,-95.733635,-131.690979
1.71167,1.17334,-1.480713,4.91333,58.410641,-189.018234,-1.16333,0.122559,-0.17749,114.639275,-79.299927,-127.967827
1.465088,0.985352,-1.328125,-6.027221,24.92523,-169.136032,-1.421143,0.075928,-0.207031,119.079582,-49.789425,-124.427788
1.30542,0.795898,-1.251221,-16.433716,-1.243591,-159.095764,-1.709229,0.03833,-0.199463,123.527519,-8.514404,-122.367851
2.423828,2.69873,-1.906006,-80.482475,249.992355,-249.992355,-2.037354,-0.018311,-0.205811,125.312798,42.41943,-124.137871
2.05835,1.345703,-1.695557,11.985778,101.669304,-223.403915,-2.35498,-0.091309,-0.229492,127.349846,95.191948,-130.058289
1.665527,2.725586,-1.635498,-124.90081,248.702988,-249.992355,-2.582275,-0.141113,-0.240234,137.886047,142.967224,-146.66748
0.142822,1.76123,-0.196533,-88.348381,43.479916,-249.992355,-2.842529,-0.236328,-0.208496,150.444031,177.238449,-167.343124
0.904541,2.447998,-1.330322,-151.229858,249.992355,-249.992355,-3.166016,-0.391357,-0.249023,155.792236,199.607834,-187.622055
1.081543,2.17627,-1.420898,-103.469841,192.298874,-249.992355,-0.751221,0.506592,-0.077148,47.676083,-134.162903,-47.653194
1.115479,2.127197,-1.275146,-64.331055,96.664421,-249.984726,-0.765625,0.260986,-0.044922,101.860039,-104.385368,-136.695862
0.612061,2.000244,-0.859619,-75.515747,50.97961,-249.923691,-0.741943,0.622559,-0.10791,42.129513,-142.478943,-29.258726
0.037842,1.560059,0.109131,-80.413811,44.31152,-249.847397,-2.571289,0.17041,-0.140869,-91.50695,-190.696701,191.810593
-0.025146,1.469971,0.262695,-87.760918,48.332211,-244.880661,-0.557373,0.72168,-0.035645,23.529051,-146.507263,-5.584716
-0.134033,1.351563,0.422852,-122.085564,53.802486,-236.740097,-3.586426,-0.379395,-0.222168,173.69841,171.508774,-242.218002
-0.197021,1.154785,0.547119,-153.442383,55.221554,-224.723801,-2.624512,-1.329102,0.057373,-54.077145,-59.120174,249.992355
-0.195313,1.040283,0.551758,-165.138229,49.629208,-210.800156,-2.812988,-1.378662,0.098145,-62.294003,-85.723869,249.992355
-0.199463,0.97998,0.507813,-161.628708,44.158932,-190.856918,-3.013428,-1.327393,0.124756,-65.246582,-121.032707,249.992355
1.126953,2.675049,-1.40625,-155.471802,249.992355,-249.992355,-3.237305,-1.234131,0.106689,-63.926693,-158.576965,249.992355
1.047852,0.595947,-1.142578,-39.421082,-18.455505,-142.593384,-3.570068,-1.26416,0.042236,-68.374634,-189.872726,249.992355
-0.200684,0.945801,0.548096,-155.899048,41.862484,-165.550217,-3.937744,-1.385498,-0.034912,-86.250298,-202.033981,249.992355
0.807861,0.515381,-0.990723,-51.895138,3.40271,-132.469177,-4.172852,-1.320557,-0.041992,-107.925407,-190.567001,249.992355
0.956299,-0.434814,-0.441895,64.292908,216.262802,21.926878,-4.111328,-0.945313,0.000244,-118.873589,-164.520248,249.992355
0.677002,-0.491211,-0.331543,62.515255,222.160324,-2.151489,-3.859375,-0.483887,0.044678,-116.653435,-135.993958,249.519333
0.580078,-0.483398,-0.280762,56.854244,224.472031,-15.342711,-0.61792,0.686523,-0.070557,32.76825,-148.803711,-20.545958
0.554199,-0.471924,-0.294189,52.11639,215.049728,-29.426573,-3.587158,-0.136719,0.069336,-102.989189,-120.223991,249.992355
0.489502,-0.489746,-0.254395,57.250973,206.024155,-48.767086,-2.882568,0.118164,-0.045898,-81.68029,-150.276184,229.843124
0.468506,-0.494629,-0.174316,70.56427,200.485214,-66.764832,-2.393066,0.230957,-0.210693,-106.941216,-214.416489,171.56218
0.47168,-0.475586,-0.135498,82.206718,203.926071,-84.106438,-2.363281,0.366943,-0.174072,-112.449638,-194.335922,159.408569
0.488037,-0.43042,-0.120361,85.937492,214.973434,-102.72216,-2.332764,0.593994,-0.148682,-97.625725,-133.743286,138.031006
0.490967,-0.351074,-0.058594,78.186035,234.321579,-122.207634,-2.135498,0.776611,-0.129883,-65.696716,-65.361023,109.970085
0.453369,-0.271484,-0.019775,62.232967,248.916611,-137.763977,-1.679199,0.88208,-0.000732,-31.219481,-28.549192,88.439934
0.917236,0.552734,-1.064697,-47.042843,-10.726928,-136.116028,-1.210938,0.916992,0.049561,-7.995605,-39.680481,73.997498
0.406494,-0.209961,-0.05127,42.839046,249.748215,-146.492004,-0.867188,0.876709,0.034668,3.700256,-75.172424,59.42535
0.408691,-0.08374,-0.158447,2.067566,249.992355,-152.694702,-0.683105,0.802002,0.005615,9.735107,-110.488884,41.564938
0.429932,-0.011719,-0.227051,-14.236449,239.318832,-153.549194,-0.588623,0.750977,-0.042236,15.563964,-134.040833,18.348694
0.444092,0.062988,-0.294189,-27.938841,212.226852,-151.741028,-3.251465,0.040771,0.014404,-87.272636,-125.244133,249.992355
0.470703,0.12793,-0.366943,-38.894653,179.679855,-148.048401,-3.503906,-0.263916,-0.140625,218.948349,116.310112,-249.992355
0.510254,0.184082,-0.44165,-47.813412,144.599915,-144.760132,-2.380615,-1.203369,0.021973,-46.424862,-42.5415,249.992355
0.565186,0.23877,-0.520264,-55.053707,110.580437,-142.623901,-3.300781,-0.878418,-0.32373,248.947128,36.010742,-249.992355
0.613037,0.294678,-0.593506,-59.333797,81.985466,-139.99939,-0.165039,-1.260254,-0.149658,-224.517807,-19.309998,249.992355
0.659424,0.355713,-0.671875,-60.119625,58.876034,-136.695862,-0.207275,-1.274414,-0.149902,-214.218124,-33.13446,249.992355
0.694824,0.423584,-0.769531,-59.371944,38.81073,-133.476257,-0.298096,-1.256104,-0.149902,-203.765854,-47.561642,249.992355
0.735107,0.477295,-0.883545,-56.114193,20.668028,-131.67572,-0.415283,-1.223145,-0.168213,-196.2509,-60.913082,249.992355
0.38623,-0.151855,-0.10083,21.377562,249.992355,-149.726868,-0.565918,-1.210938,-0.184814,-191.116318,-71.44928,249.992355
1.233887,-0.300781,-0.491699,61.958309,224.990829,57.815548,-0.787109,-1.212891,-0.210938,-185.241684,-79.788208,249.992355
-0.171143,0.959229,0.609375,-156.837463,39.367676,-141.281128,-1.073975,-1.244385,-0.240967,-179.000839,-84.671013,249.992355
-0.303955,0.937012,0.695557,-171.974167,28.625486,-102.020256,-1.419922,-1.313965,-0.281006,-173.332199,-85.189812,249.992355
2.05957,0.46167,-1.063477,139.984131,109.443657,249.992355,-1.810059,-1.367676,-0.327637,-168.273911,-85.319511,249.992355
2.326172,0.590332,-1.117676,179.901108,131.324768,249.992355,-2.180908,-1.394775,-0.336426,-163.917526,-87.936394,249.992355
2.619385,0.750732,-1.141113,220.802292,139.839172,249.992355,-0.121338,-1.238037,-0.118896,-233.230576,-6.568908,249.992355
2.787354,0.911865,-1.208008,246.902451,134.101868,249.992355,-2.549072,-1.429199,-0.286133,-158.782959,-85.723869,249.992355
2.755371,1.006836,-1.29834,249.984726,101.005547,249.992355,-3.349365,-1.561035,-0.176514,-144.882202,-71.708679,249.992355
2.58667,1.0271,-1.336182,249.67955,41.244503,249.671921,-3.523438,-1.554199,-0.180908,-137.107849,-69.900513,249.992355
2.444092,1.009277,-1.244141,249.992355,-24.887083,249.992355,-3.550293,-1.321289,-0.203125,-120.277397,-80.062866,249.992355
2.664307,1.076172,-1.229004,249.992355,-75.706482,249.992355,-3.675293,-1.156738,-0.377197,-101.737968,-95.016472,249.992355
3.040527,1.180908,-1.385254,232.177719,-89.485161,232.803329,-3.992676,-1.326416,-0.621094,-100.769035,-93.711845,249.992355
3.11499,0.998047,-1.321289,211.105331,-61.576839,207.077011,-4.310303,-1.486816,-0.692383,-107.360832,-69.633484,249.992355
1.888184,0.366699,-0.951904,103.172295,69.625854,249.992355,-4.391113,-1.145508,-0.693115,-95.710747,-44.30389,249.992355
2.884766,0.730713,-1.158691,194.938644,5.149841,175.3311,-4.296387,-0.520752,-0.703613,-70.999146,-35.827637,249.992355
2.074219,0.329834,-0.86499,168.28154,131.088257,117.759697,-4.158691,-0.105957,-0.650146,-52.612301,-38.818359,249.511703
1.611328,0.106689,-0.470703,160.02655,135.948181,104.49218,-4.018799,0.051758,-0.621826,-47.279354,-45.433041,249.992355
1.044678,0.029053,-0.222412,138.664246,146.331787,79.666138,-2.98584,-1.478271,-0.221436,-151.649475,-79.238892,249.992355
0.743408,-0.01001,-0.248779,107.63549,168.800339,51.498409,-0.042969,-1.206299,-0.088379,-239.73082,2.525329,248.085007
0.66333,-0.111572,-0.326416,81.336967,204.536423,30.799864,-3.399658,-0.45459,-0.194336,249.572739,63.850399,-249.992355
0.631836,-0.245117,-0.295898,69.023132,241.188034,13.420104,0.198242,-1.161377,-0.168945,-244.583115,12.649535,221.137985
0.603516,-0.374023,-0.217773,66.574097,249.992355,-4.371643,-3.373291,-0.970703,-0.605957,233.238205,48.011776,-249.992355
0.507568,-0.477783,-0.103516,69.396973,249.992355,-22.857664,-3.414063,-0.780518,-0.794189,223.487839,122.413628,-249.984726
0.370605,-0.520752,-0.013428,72.33429,249.992355,-41.145321,-3.294434,-0.679688,-0.728271,206.474289,223.159775,-249.649033
0.285645,-0.533447,0.018555,68.878174,249.992355,-58.372494,-2.973145,-0.674805,-0.720947,172.645554,249.992355,-249.992355
2.479248,0.588867,-1.102295,176.757797,86.067192,138.900757,-2.1604,-0.744873,-0.532959,131.92749,249.473557,-249.992355
1.75708,0.308105,-0.848633,68.313599,12.153625,249.992355,-1.04834,-0.733398,-0.0896,96.595757,249.992355,-230.941757
-0.1875,0.974365,0.658936,-163.566574,34.439087,-121.337883,0.073242,-1.172119,-0.116699,-245.338425,7.469177,237.266525
1.332031,0.309814,-0.624268,1.716614,-136.955261,249.992355,0.36377,-0.540283,0.367188,62.126156,222.190842,-179.222092
-0.437744,0.85083,0.696533,-177.642807,23.269651,-76.553345,0.414063,-0.532959,0.487793,46.623226,195.945724,-154.220581
-0.475098,0.775879,0.628174,-183.692917,17.585754,-44.639584,0.345947,-0.50708,0.50708,31.35681,198.928818,-129.394531
-0.372803,0.739014,0.571777,-185.29509,5.226135,-19.40155,0.32373,-0.473633,0.466064,17.01355,214.599594,-96.984856
-0.299072,0.733643,0.544189,-172.645554,-14.503478,-7.43103,-0.106201,-0.613525,0.221436,75.4776,249.992355,-206.46666
-0.376709,0.67627,0.431885,-178.901657,-37.689209,15.434264,0.457764,-0.432373,0.319824,-5.180358,235.931381,-36.453247
-0.407715,0.601318,0.430908,-178.756699,-64.933777,30.891417,0.382568,-0.44458,0.394531,4.898071,228.393539,-64.979553
1.58374,0.297363,-0.743164,34.187317,-59.516903,249.992355,0.401611,-1.037354,-0.213379,-204.032883,39.108276,188.903793
-0.425781,0.376465,0.373047,-159.78241,-122.779839,40.946957,0.469727,-0.939209,-0.218262,-174.995407,63.934322,177.276596
-0.447021,0.290527,0.344727,-152.633667,-155.334473,46.936031,0.523438,-0.822754,-0.18457,-146.148682,93.864433,163.047775
-0.456299,0.224365,0.333008,-145.439148,-189.941391,56.40411,0.544678,-0.751953,-0.119629,-123.954765,124.237053,138.908386
-0.409912,0.178467,0.291016,-138.435364,-225.913986,69.114685,0.319092,-1.123291,-0.195801,-229.408249,22.575377,203.475937
-0.418701,0.484619,0.440918,-167.037949,-94.932549,38.131714,0.538086,-0.770996,-0.063232,-87.463371,184.799179,91.880791
-0.180664,0.083496,0.177002,-116.325371,-249.992355,95.91674,0.531494,-0.699219,0.001709,-59.326168,208.534225,61.31744
-0.063232,0.015381,0.125732,-97.488396,-249.992355,106.712334,0.489502,-0.58252,0.110596,-34.431458,225.959763,28.381346
0.0271,-0.035156,0.078857,-76.889038,-249.992355,116.302483,0.467041,-0.479248,0.215088,-16.777039,235.32103,-4.394531
0.0896,-0.033936,0.001465,-64.002991,-249.984726,130.470276,0.531738,-0.769043,-0.083008,-109.710686,154.571533,116.439812
0.141357,0.02124,-0.113281,-63.560482,-249.992355,152.786255,-0.856689,0.333008,0.082031,-33.050537,-35.301208,69.084167
0.200684,0.094238,-0.192383,-65.582275,-249.984726,178.642258,-0.732666,0.376953,0.033447,-30.784605,-15.541076,65.1474
0.326172,0.158447,-0.282227,-64.445496,-249.229416,209.457382,-0.613281,0.428223,0.06543,-29.991148,-13.755797,61.744686
0.52124,0.216064,-0.369873,-60.821529,-249.992355,241.523727,-0.443115,0.51416,0.064453,-23.826597,-25.161741,57.075497
0.760254,0.256592,-0.425293,-48.500057,-249.992355,249.992355,-0.29834,0.616699,0.052734,-10.833739,-43.624874,50.712582
1.037354,0.291748,-0.5,-26.016233,-207.618698,249.992355,-0.254639,0.70752,0.073242,6.553649,-68.771362,40.985104
-0.306396,0.139893,0.231689,-129.684448,-248.443588,82.962029,-0.275391,0.737305,0.098389,23.971556,-92.552177,30.029295
1.405029,0.042969,-1.718262,-29.235838,138.809204,-249.870285,-0.313232,0.681641,0.108154,34.103394,-104.499809,21.614073
1.174805,0.105225,-1.559326,-31.646727,90.415947,-249.93132,-0.385254,0.589111,0.103271,36.094666,-101.829521,17.303467
1.030029,0.138184,-1.45459,-50.506588,69.854736,-249.992355,-0.475342,0.477783,0.117432,33.485413,-88.058464,15.914916
0.920166,0.098145,-1.392578,-56.343075,58.1665,-249.992355,-1.20459,-0.469238,0.408203,-3.540039,2.166748,-76.972961
0.798584,-0.073486,-0.917969,-69.625854,98.81591,-249.992355,-0.541016,0.279541,0.154053,30.72357,-51.99432,12.550353
0.817627,-0.007568,-1.246338,-53.565975,78.170776,-249.992355,-0.584961,0.204346,0.163818,30.082701,-38.993835,7.354736
0.818604,-0.009521,-1.180908,-58.906551,87.432854,-249.992355,-0.627441,0.133301,0.177734,27.9541,-21.553038,-7.164001
0.814453,-0.032227,-1.07666,-64.254761,92.277519,-249.992355,-0.653809,0.076416,0.198975,20.13397,-3.257751,-21.972654
0.860352,0.045654,-1.315674,-52.169796,64.193726,-249.992355,-0.736572,0.035889,0.249268,13.786315,7.987976,-32.310486
1.694824,0.157715,-1.849365,-51.132198,215.476974,-249.992355,-0.842773,-0.002686,0.354248,21.064756,14.068603,-38.162231
-0.018311,0.9729,-0.59668,-104.324333,-170.059189,-90.827934,-0.897705,-0.068848,0.362549,23.29254,19.40918,-45.829769
1.735352,0.51416,-1.968262,-82.168571,249.992355,-233.451828,-0.945801,-0.155029,0.376465,18.630981,19.989014,-55.282589
1.569824,0.769531,-2.080811,-93.559258,249.992355,-215.354904,-1.003174,-0.253174,0.37915,12.092589,15.632628,-64.033508
1.333984,1.033447,-2.217773,-94.65789,248.817429,-200.752243,-1.089111,-0.358154,0.387695,4.53186,8.872986,-71.136475
1.021973,1.172119,-2.349609,-79.307556,249.992355,-190.658554,-1.047119,0.241699,0.185791,-45.005795,-62.782284,79.170227
0.797363,1.15332,-2.315186,-46.730038,249.992355,-191.459641,-0.525879,0.369873,0.139893,31.211851,-69.076538,14.556884
0.571533,1.273682,-2.171875,-35.736084,188.476547,-195.564255,-1.308105,0.067383,0.257324,-63.285824,-78.865051,99.464409
0.238037,1.28125,-1.747314,-50.209042,97.396843,-179.199203,-2.770264,-2.338135,0.977051,113.952629,-171.890244,249.992355
0.143555,1.170898,-1.274902,-61.805721,9.788513,-152.381897,-1.598145,-0.448242,0.150635,-67.718506,-67.146301,148.536682
0.151855,1.204834,-1.034912,-70.94574,-69.168091,-127.716057,-1.340088,-0.582764,0.438965,-11.505126,-2.845764,-83.007805
0.040039,1.168457,-0.864502,-85.762016,-127.319328,-107.39135,-0.87207,-1.108643,0.057129,-37.437439,-62.988277,249.992355
0.715332,-0.110107,-0.730713,-69.007874,110.343925,-249.992355,-1.114258,-1.24292,0.166016,-33.004761,-53.405758,249.992355
1.804688,0.329346,-1.882813,-68.756104,249.847397,-248.176559,-1.379395,-1.395752,0.29248,-26.084898,-42.304989,249.992355
0.593994,-0.15332,-0.586426,-57.495113,126.274101,-249.992355,-1.611816,-1.534668,0.418701,-14.10675,-25.917051,249.992355
0.663574,-0.812012,-0.421143,26.504515,186.386093,-117.622368,-1.812012,-1.661377,0.502686,1.228333,-6.446838,249.992355
0.390869,-0.3125,-0.420166,-9.872437,167.976364,-249.992355,-1.974121,-1.782715,0.560791,17.585754,12.092589,249.992355
0.035156,0.783936,-0.266846,-116.920464,-192.031845,-74.989319,-2.158936,-1.895508,0.642578,36.590576,24.688719,249.992355
2.974609,0.514648,-0.912598,164.321884,126.235954,249.992355,-2.30835,-1.995361,0.751221,57.380672,28.617857,249.992355
2.946289,0.651855,-0.898682,160.385132,132.194519,248.558029,-2.367432,-2.086426,0.851563,79.63562,22.773741,249.992355
2.609131,0.668945,-0.919922,137.069702,154.273987,202.613815,-1.515137,-0.181885,0.241211,-74.890137,-75.996399,126.319878
2.336914,0.522461,-0.935303,113.861076,166.175827,161.872849,-2.457275,-2.158203,0.940186,98.06823,1.502991,249.992355
2.180908,0.227295,-0.832275,105.087273,149.360657,130.0354,-2.562744,-2.281982,1.000488,112.899773,-105.102531,249.992355
1.776611,-0.048828,-0.623291,110.610954,137.72583,98.182671,-2.977783,-2.318359,0.853027,93.856804,-219.558701,249.992355
1.385254,-0.217529,-0.490723,124.855034,147.155762,62.423702,-3.112305,-2.20166,0.742188,57.655331,-231.964096,249.992355
1.237549,-0.315918,-0.494141,114.479057,161.659225,17.578125,-3.349365,-2.216309,0.701416,29.83856,-206.596359,249.992355
1.152588,-0.430908,-0.473633,85.426323,169.769272,-31.272886,-3.49707,-2.133301,0.793213,32.409668,-169.502243,249.824509
0.479248,-0.225098,-0.503662,-36.056519,145.782471,-249.992355,-3.210205,-1.574219,0.80249,55.351254,-133.514404,249.18364
1.067139,-0.561279,-0.540283,54.695126,172.508224,-71.960449,-2.845703,-1.276611,0.608398,75.973511,-104.99572,249.992355
0.893311,-0.75708,-0.593018,12.672423,172.134384,-105.773918,-2.397949,-1.32959,0.379639,56.892391,-86.868279,247.16185
0.502441,-0.778076,-0.392578,47.737118,199.508652,-133.880615,-1.942627,-1.136963,0.194824,7.781982,-76.74408,189.414963
0.459473,-0.728027,-0.475342,43.922421,201.637253,-152.114868,-1.698975,-0.775391,0.084473,-40.748592,-67.886353,157.272339
0.457764,-0.702393,-0.498535,28.816221,200.447067,-171.211227,-2.525146,-2.224121,0.975342,106.391899,-41.305538,249.992355
0.398193,-0.73584,-0.451904,23.216246,205.398544,-193.420395,-0.682373,-1.014893,-0.011963,-37.101746,-70.075989,249.992355
0.348633,-0.680664,-0.407471,37.902832,211.318954,-217.376694,-1.461914,-0.700439,0.480225,-20.500181,-8.277893,-91.339104
0.325684,-0.588623,-0.436279,40.306087,214.950546,-239.959702,-1.750732,-0.968018,0.547607,-42.66357,-19.332886,-111.381523
0.32251,-0.510742,-0.385742,31.463621,213.508591,-249.847397,0.224365,-1.007813,0.144775,-223.152145,46.379086,-127.281181
0.333252,-0.449707,-0.334473,24.131773,204.086288,-249.992355,0.239746,-1.066162,0.156982,-223.625168,75.996399,-98.403923
0.344238,-0.381104,-0.355225,11.337279,189.056381,-249.992355,0.246582,-1.115967,0.133057,-218.948349,102.340691,-66.90979
1.027344,-0.667725,-0.636475,25.978086,171.241745,-96.252434,0.288086,-1.141113,0.058838,-210.571274,120.017998,-35.980225
2.921387,0.513916,-1.019287,151.2146,123.977654,249.328598,0.322998,-1.138428,-0.034668,-200.851425,129.814148,-6.233215
0.105957,0.697754,-0.141357,-120.666496,-185.333237,-57.601925,0.30542,-1.119141,-0.136719,-191.734299,133.598328,21.125792
0.046631,0.599365,-0.122559,-111.061089,-128.036499,-18.493652,0.282471,-1.101074,-0.214844,-182.739243,135.368347,48.377987
0.968506,1.117676,-0.488525,-55.053707,-249.992355,249.992355,0.188965,-1.062012,-0.271729,-171.157822,139.419556,79.322815
1.195801,1.168701,-0.552734,-56.137081,-247.66539,249.992355,0.009033,-1.03833,-0.293945,-157.066345,145.133972,111.595146
1.385254,1.202881,-0.61499,-52.261349,-230.766281,249.992355,-0.136963,-1.022705,-0.3125,-131.584167,153.800964,169.815048
1.594238,1.246094,-0.669189,-54.824825,-211.746201,249.992355,0.203613,-0.952637,0.145752,-218.193039,20.217894,-153.312683
1.855713,1.321045,-0.676514,-63.179012,-191.932663,249.992355,-0.145752,-1.005371,-0.331543,-118.85833,146.682739,197.967514
2.114746,1.409912,-0.699707,-67.321777,-165.51207,249.992355,-0.259033,-1.00708,-0.328125,-96.618645,103.378288,246.772751
2.294922,1.507324,-0.801514,-64.834595,-132.354736,249.992355,-0.391846,-0.980713,-0.311279,-84.823601,77.880859,249.992355
2.43042,1.529053,-0.893555,-53.840633,-114.654533,249.992355,-0.587402,-0.932861,-0.289795,-72.250366,53.894039,249.992355
2.500977,1.550293,-1.04834,-49.446102,-118.576042,249.992355,-0.801025,-0.904785,-0.281982,-62.187191,28.83148,249.992355
2.764404,1.68457,-1.10083,-2.479553,-150.260925,249.992355,-0.988525,-0.926758,-0.261475,-57.067867,5.79071,249.992355
0.747314,1.022949,-0.408203,-47.927853,-249.862656,249.992355,-1.277344,-0.964844,-0.201904,-54.084774,-13.22174,249.992355
2.99707,1.534424,-1.105957,15.892028,-133.857727,249.992355,-1.612305,-1.003662,-0.10791,-50.704952,-25.993345,249.992355
3.302979,1.047607,-1.010986,57.266232,-47.050472,249.992355,-1.868652,-1.036133,-0.046387,-47.241207,-32.081604,249.992355
3.277344,0.853027,-0.951172,71.075439,-2.601623,249.992355,-2.104248,-1.092285,-0.013916,-44.578548,-35.423279,249.992355
3.296387,0.758545,-1.007324,69.664001,60.531612,249.68718,-1.578857,-0.825928,0.518066,-31.257627,-14.617919,-100.898735
3.295898,0.626465,-1.112061,63.751217,122.665398,249.80162,-0.182129,-1.004883,-0.337891,-107.063286,128.509521,225.563034
3.074219,0.451172,-1.146484,63.636776,170.516953,249.992355,0.19873,-0.901123,0.142334,-209.495529,-1.533508,-178.817734
2.600098,0.315674,-1.124756,63.568111,208.465561,239.570602,-0.101318,-1.033691,-0.295166,-143.867493,151.527405,141.235352
2.136475,0.19458,-1.087891,63.537594,242.073044,191.482529,0.25,-0.845215,0.226074,-189.254745,-24.322508,-218.490585
1.921143,0.035156,-0.892822,64.559937,246.917709,143.081665,-1.946289,-1.093994,0.593018,-48.416134,-18.783569,-124.961845
1.61499,-0.138672,-0.593262,62.637325,235.19133,98.342888,0.219238,-0.86792,0.172363,-200.370773,-17.26532,-200.439438
0.12915,0.655273,-0.147461,-118.240349,-161.125168,-39.283752,-2.111572,-1.215576,0.674072,-43.594357,-11.871337,-144.271851
3.247803,1.357666,-1.126221,32.096863,-89.50042,249.992355,-2.309814,-1.385986,0.750732,-33.592224,1.083374,-168.777451
0.573242,0.927734,-0.337646,-44.197079,-249.420151,249.992355,-2.563721,-1.598633,0.809082,-21.583555,18.379211,-193.206772
2.572266,1.665039,-1.152344,-32.951355,-136.268616,249.992355,-2.715332,-1.841064,0.836426,-9.376526,29.312132,-221.862778
0.252686,0.776855,-0.148926,-45.715328,-217.063889,232.620224,-2.537109,-2.009521,0.821045,2.540588,22.354124,-247.459396
0.410889,0.840576,-0.253906,-46.012875,-239.173874,248.718246,-2.775391,-1.931885,0.685547,26.123045,88.264458,-249.992355
-0.13208,0.512695,0.036133,-90.736382,-68.519592,28.388975,-2.91333,-2.03125,0.707275,25.672911,154.197693,-249.992355
-0.181885,0.501221,0.088867,-82.916252,-40.794369,51.10931,-2.757813,-2.156738,0.84375,20.172117,199.676498,-249.992355
-0.175049,0.516602,0.126953,-78.399658,-16.693115,71.18988,-2.569092,-2.186523,0.976563,19.561768,215.637192,-249.992355
-0.180176,0.537109,0.161377,-75.546265,2.02179,88.958733,-2.443848,-1.963379,0.772949,17.631531,32.12738,-249.992355
-0.206543,0.555176,0.178467,-73.768616,14.892577,105.88073,-1.387207,-2.05127,0.786377,1.38855,179.87059,-249.992355
-0.22583,0.566895,0.187988,-71.937561,23.651121,122.306816,0.279297,-0.810547,0.277588,-177.139267,-22.491453,-236.251816
-0.217529,0.58252,0.193604,-69.107056,30.258177,136.352539,-2.129883,-2.1604,0.995117,18.165588,202.720627,-249.992355
-0.209961,0.602539,0.196289,-66.894531,36.270142,148.284912,0.349854,-0.814941,0.275391,-160.133362,5.081176,-249.992355
-0.20874,0.618408,0.193848,-67.054749,41.488644,159.065247,0.21875,-0.88623,0.258301,-148.155212,34.957886,-249.832138
-0.205322,0.63916,0.182373,-70.472717,44.830318,166.77092,-0.085938,-1.003906,0.321777,-131.645203,73.387146,-249.961838
-0.047119,0.546875,-0.053467,-100.616447,-96.900932,5.043029,0.318359,-0.793213,0.290527,-168.617233,-13.389586,-249.473557
-0.225342,0.668213,0.195557,-80.070496,39.581299,171.699509,-0.82959,-1.478027,0.521973,-89.920036,133.659363,-249.992355
-0.205078,0.657471,0.181885,-75.325012,44.624325,170.402512,-1.008545,-1.700439,0.458496,-61.859127,150.650024,-249.992355
0.066162,0.70874,-0.028809,-51.437374,-158.805847,206.83287,-1.052246,-1.870361,0.549316,-27.328489,160.865768,-249.992355
0.011475,0.690674,0.021729,-52.642818,-124.031059,195.99913,-0.45752,-1.198975,0.487061,-111.785881,107.429497,-249.992355
-0.058594,0.664307,0.079346,-53.489681,-86.364738,188.003525,-0.23999,0.47998,0.130127,9.613037,-118.682854,-136.947632
-0.130859,0.623047,0.116455,-57.723995,-51.078793,179.801926,-3.611572,0.684814,0.919189,76.889038,-5.279541,105.522148
0.147461,0.735107,-0.06665,-45.425411,-189.407333,215.866074,-3.217773,0.76001,0.940918,49.446102,-65.353394,46.272274
-0.242432,0.594238,0.198242,-67.7948,0.724792,164.321884,-2.542969,0.973633,0.852051,58.441158,-122.161858,-8.293152
-0.251465,0.613037,0.219482,-75.836182,17.028809,163.848862,-2.151367,1.139648,0.812256,77.766418,-165.740952,-52.925106
-0.253662,0.650879,0.20752,-81.497185,30.281065,169.815048,-2.037842,1.119873,0.537598,75.035095,-191.604599,-81.520073
-0.193848,0.596924,0.162109,-62.278744,-22.018431,170.79924,-1.803467,0.898926,0.265625,54.89349,-195.37352,-99.906914
1.399902,0.699219,-1.337891,-22.666929,125.007622,-249.992355,-1.320801,0.68042,0.169922,33.39386,-184.494003,-114.540092
0.61792,-0.101318,-0.380859,14.785766,24.681089,-212.364182,-0.802002,0.579102,0.133301,20.172117,-164.871201,-125.205986
0.692871,0.044189,-0.4729,1.88446,12.001037,-212.692245,-0.447998,0.535889,0.109375,14.396667,-143.486023,-132.667542
0.781738,0.184082,-0.606201,-14.495849,6.41632,-219.070419,-0.1604,0.394043,0.239502,3.372192,-90.995781,-137.466431
0.878174,0.309814,-0.764648,-31.10504,11.291503,-230.0186,-0.170898,-0.079102,0.159668,25.749205,164.459213,-65.010071
0.987305,0.43335,-0.929443,-44.982906,24.093626,-242.271408,-0.124756,0.224365,0.483887,-8.300781,-30.59387,-129.53186
1.088623,0.523438,-1.057373,-51.99432,40.344234,-249.404892,-0.111328,0.147949,0.431641,-10.185241,0.75531,-122.268669
0.546631,-0.235352,-0.307373,26.641844,39.016724,-219.459518,-0.107666,0.065674,0.357178,-10.45227,32.501221,-114.898674
1.106934,0.604248,-1.174072,-43.365475,60.493465,-249.992355,-0.118896,0.000977,0.29126,-8.903503,63.926693,-108.383171
1.174316,0.689697,-1.309814,-28.503416,92.666618,-249.992355,-0.114258,-0.041992,0.252197,-6.530761,94.062798,-101.753227
1.565918,0.778809,-1.446533,-16.281128,166.557297,-249.992355,-0.101074,-0.051758,0.243408,-2.578735,119.73571,-93.811028
1.859131,1.530518,-1.022217,9.742737,249.992355,-249.992355,-0.098389,-0.029053,0.239502,4.074097,139.015198,-84.83123
1.926025,0.989502,-1.482422,18.447876,249.992355,-249.992355,-0.119629,0.000244,0.205811,13.259887,151.626587,-76.507568
1.994629,1.244873,-1.355957,21.850584,249.992355,-249.992355,-0.153076,-0.01123,0.172852,21.232603,159.889221,-70.137024
1.94043,1.419922,-1.187988,18.768311,249.992355,-249.992355,-3.547607,0.883545,0.866699,119.087212,35.888672,166.954025
1.785156,1.716309,-0.922607,-6.141662,249.992355,-249.992355,-0.138916,0.300781,0.400146,-3.578186,-61.256405,-135.124207
1.605469,2.01123,-0.917236,-37.826538,249.984726,-249.992355,-3.358154,1.189697,0.970215,128.074646,38.43689,227.279648
1.294434,2.308594,-0.956543,-95.024101,249.992355,-249.992355,0.108398,-0.523926,-0.191406,-71.655273,213.050827,50.239559
