ax,ay,az,gx,gy,gz,ax,ay,az,gx,gy,gz
1.750244,-0.121094,-0.560059,202.453598,13.954162,-235.534653,1.120117,-0.516602,0.367188,117.828362,20.759581,-195.785507
1.481689,-0.163086,-0.427979,200.317368,14.923095,-227.699265,0.93457,-0.52124,0.36084,113.746635,41.366573,-181.091293
2.310791,-0.070557,-0.831787,205.772385,18.989563,-248.4207,0.776123,-0.517822,0.340088,113.05999,55.786129,-165.870651
2.733154,0.167969,-0.923828,205.780014,51.650997,-249.916061,0.631104,-0.528076,0.300293,115.013115,64.476013,-151.092529
-0.192383,0.475342,0.14209,79.238892,-34.431458,-23.567198,1.329102,-0.465088,0.362793,123.291008,-4.211426,-208.618149
2.15332,0.202881,-0.671143,193.22966,-14.373778,-249.992355,1.393311,1.189209,0.304199,221.244797,-105.651848,0.282288
1.553223,0.221436,-0.471436,188.667282,-48.46191,-249.038681,3.499756,0.042236,0.666992,151.954651,-12.565612,-249.992355
1.109619,0.286621,-0.344238,183.006271,-70.381165,-214.53093,3.84375,0.036377,0.70752,170.127853,-66.955566,-232.528671
0.828125,0.359863,-0.243896,173.57634,-79.788208,-173.538193,4.087646,0.146729,0.738037,183.1436,-116.065971,-185.874924
0.608398,0.415283,-0.139404,162.391647,-79.780579,-134.353638,4.140625,0.334961,0.839355,200.370773,-153.198242,-125.717155
0.470703,0.449219,-0.049072,149.57428,-71.929932,-102.98156,4.154785,0.66626,0.919189,218.719467,-164.718613,-66.28418
0.410156,0.458984,0.015625,137.077332,-60.050961,-83.374016,4.034424,1.136719,0.931885,221.084579,-138.778687,-30.548094
0.310547,0.475586,0.049072,124.244682,-48.385616,-69.419861,3.525635,1.411865,0.861572,222.915634,-99.639885,-11.566161
0.118896,0.49292,0.078857,109.687798,-39.520264,-54.298397,2.59668,1.419922,0.604492,223.97612,-92.39196,2.349854
-0.067383,0.483887,0.121582,94.421379,-35.140991,-38.314819,3.098389,0.044434,0.577881,141.960144,37.17804,-249.992355
1.04541,-0.331787,-0.285156,196.205124,19.65332,-212.432846,-0.187256,0.675781,-0.133301,176.826462,-85.494987,-17.64679
2.543213,0.213623,-0.824707,199.90538,21.888731,-249.511703,0.125732,0.609131,0.064941,211.12822,-117.950432,-24.322508
0.846191,-0.404541,-0.221191,195.739731,19.737244,-201.5457,0.032471,0.57373,0.006348,201.492294,-110.633842,-21.591185
0.056152,-0.968994,0.084717,37.353516,-75.469971,6.881713,-0.079346,0.596924,-0.061523,190.177902,-99.281303,-19.615173
0.492188,-0.570557,-0.159424,190.83403,22.377012,-175.20903,-0.237305,0.785889,-0.19043,159.263611,-71.395874,-14.503478
-0.277344,0.49292,0.129395,62.866207,-33.210754,-9.101868,-0.272949,0.906006,-0.232666,135.643005,-57.937618,-10.437011
2.847412,0.7146,-1.189453,-36.254883,-115.478508,128.631592,-0.280762,0.986572,-0.275391,108.673088,-47.012325,-5.79071
2.911621,0.445557,-1.138672,-46.005245,-144.714355,108.703606,-0.260742,1.012939,-0.313721,81.581108,-38.909912,-0.564575
2.811768,0.072266,-1.047852,-53.558346,-161.697372,89.958183,-0.212646,0.999268,-0.3479,55.610653,-33.737183,5.226135
2.50293,-0.263428,-0.888672,-55.572506,-153.030396,86.34185,-0.158936,0.971436,-0.389893,29.327391,-31.661985,11.482238
2.073486,-0.44165,-0.702637,-52.436825,-132.705688,91.278069,2.644531,-0.07373,0.502197,144.874573,71.617126,-249.603256
1.669922,-0.491699,-0.512207,-46.653744,-116.981499,97.648613,0.596436,0.905518,0.149902,219.108566,-117.767326,-13.191222
1.32959,-0.509521,-0.338623,-38.68866,-107.810966,100.33416,2.199219,-0.249756,0.456055,150.764465,93.666069,-249.992355
1.05249,-0.550049,-0.198975,-29.541014,-100.341789,94.139091,-0.182373,-1.237305,-0.216553,141.052246,18.592834,-94.871513
0.80957,-0.623291,-0.109863,-19.40155,-92.170708,79.116821,1.507324,-0.488037,0.349854,154.930115,120.674126,-249.992355
0.661377,-0.481201,-0.184082,194.206223,20.843504,-189.620956,0.643555,-0.040039,-0.085205,-58.784481,22.605894,95.962517
0.568359,-0.715088,-0.046631,-8.308411,-85.33477,61.43951,0.310547,-0.187744,-0.09375,-42.92297,29.251097,74.378967
0.163818,-0.878174,0.047852,20.156858,-77.667236,27.06909,0.061035,-0.343994,-0.083496,-21.606443,26.05438,57.044979
-0.009521,-1.056641,0.094727,56.571957,-71.731567,-14.656066,-0.077881,-0.44458,-0.070557,-4.943848,7.446289,45.600887
-0.053223,-1.133057,0.080811,77.476501,-63.674923,-33.805847,-0.14917,-0.477783,-0.070801,4.608154,-16.532898,35.27832
-0.069824,-1.186279,0.05835,99.769585,-50.85754,-50.666805,-0.209961,-0.57959,-0.097656,14.633178,-32.188416,22.872923
-0.047607,-1.204346,0.023438,121.467583,-35.247803,-68.786621,-0.299561,-0.69043,-0.16626,27.465818,-41.564938,8.323669
0.006348,-1.170654,-0.022949,140.632629,-18.478394,-89.431755,-0.440918,-0.790039,-0.246582,44.136044,-46.882626,-9.719849
0.068359,-1.082031,-0.068604,156.62384,-3.112793,-110.397331,-0.555176,-0.885742,-0.312988,64.14032,-47.508236,-30.502317
0.13501,-0.950195,-0.10376,169.143661,9.414673,-129.379272,-0.573242,-0.992188,-0.336426,86.364738,-43.151852,-51.673885
0.220947,-0.806885,-0.128662,178.474411,17.700195,-145.40863,1.81665,-0.392334,0.412598,153.518677,109.367363,-249.992355
0.3396,-0.678711,-0.14209,185.569748,21.820066,-159.980774,-0.502197,-1.124512,-0.313721,112.197868,-31.639097,-70.785522
0.338379,-0.799805,0.005859,5.058288,-80.665581,44.319149,-0.095947,0.939697,-0.426758,3.036499,-32.104492,17.036438
2.646729,0.804688,-1.205322,-26.473997,-96.885674,138.328552,-0.057129,-1.212158,-0.135986,148.345947,43.617245,-106.079094
-0.344238,0.541504,0.086914,44.708248,-29.434202,6.988525,0.057861,-1.153076,-0.102051,157.012939,61.119076,-116.58477
-0.352539,0.605713,0.004395,5.874633,-16.227722,34.767151,0.196777,-1.079102,-0.074463,162.094101,75.09613,-130.767822
1.987549,-0.951416,-0.200684,-79.162598,8.81958,109.069817,0.352051,-0.980713,-0.031982,165.100082,85.739128,-147.041321
1.492432,-1.017822,-0.028809,-56.541439,27.145384,94.40612,0.521484,-0.876709,0.026855,165.878281,95.314018,-163.757309
0.965088,-1.044434,0.067871,-37.376404,31.661985,81.207268,0.690674,-0.778564,0.0979,165.657028,105.567924,-182.13652
0.489746,-1.068115,0.124756,-20.606993,23.54431,69.725037,0.854492,-0.689697,0.160156,164.054855,115.82946,-202.827438
0.119629,-1.11377,0.179199,-3.723144,6.67572,58.303829,1.037598,-0.613037,0.220947,160.377502,124.092094,-225.875839
-0.1604,-1.157715,0.196777,11.535644,-14.770507,48.706051,1.252686,-0.553223,0.280273,156.997681,126.152031,-245.674118
-0.337646,-1.218994,0.20459,26.962278,-35.858154,39.848328,-0.35498,-1.248291,-0.260742,136.314392,-9.719849,-83.061211
-0.412842,-1.267822,0.209961,45.074459,-50.094601,29.808043,-0.030762,0.893555,-0.433105,-18.058777,-32.775879,23.803709
-0.431152,-1.274414,0.200195,65.040588,-55.892941,17.631531,0.266113,0.709961,0.108398,216.735825,-121.147148,-23.15521
-0.389893,-1.176514,0.112549,104.751579,-51.033016,-9.056091,0.0354,0.844727,-0.403809,-36.209106,-32.791138,32.577515
2.425537,-0.830811,-0.435791,-101.104729,-21.919249,117.866508,-0.225586,-0.499268,-0.069336,26.153563,-50.575253,33.737183
-0.323242,-1.109375,0.069336,122.528069,-45.051571,-24.80316,-0.268799,-0.571777,-0.086182,47.149654,-52.391048,17.066956
-0.102539,-0.939697,0.069336,152.587891,-35.995483,-64.315796,-0.268799,-0.665771,-0.090576,70.091248,-48.027035,1.029968
0.018311,-0.839355,0.095459,165.534958,-35.835266,-85.723869,-0.241943,-0.756348,-0.086182,92.26226,-35.957336,-13.511657
0.149658,-0.742432,0.122314,179.069504,-35.743713,-104.927055,-0.194824,-0.818359,-0.064941,110.656731,-16.815186,-25.588987
0.287354,-0.634766,0.132813,191.902145,-31.997679,-119.400017,-0.144531,-0.844971,-0.031982,124.847404,4.730225,-35.614014
0.452881,-0.511475,0.112061,203.43779,-23.727415,-126.937859,-0.095215,-0.859863,0.001953,135.543823,24.436949,-45.524593
0.659912,-0.414063,0.072266,214.164719,-10.055541,-132.347107,-0.027344,-0.882324,0.038086,144.714355,41.275021,-54.954525
0.87915,-0.332764,0.009521,224.418625,8.308411,-136.993408,0.062988,-0.883789,0.075928,152.153015,57.228085,-62.591549
1.101807,-0.265869,-0.067627,233.726486,26.733397,-142.784119,0.303467,-0.772949,0.157959,162.963852,90.400688,-80.955498
1.273193,-0.206299,-0.15332,241.126999,40.809628,-148.956299,-0.123291,-0.456787,-0.05127,7.774353,-44.43359,50.2243
-0.360352,0.58252,0.035156,25.260923,-23.399351,22.430418,0.424561,-0.684814,0.182617,166.046127,105.476372,-94.91729
-0.216797,-1.031494,0.059814,138.542175,-39.405823,-43.365475,0.679932,-0.515381,0.26001,169.28862,119.956963,-128.868103
2.915039,-0.604492,-0.689941,-116.027824,-59.623714,115.921013,0.802979,-0.468994,0.331787,170.265182,114.730827,-147.079468
-0.423584,-1.237061,0.168701,85.731499,-55.5191,4.486084,0.937988,-0.444336,0.410889,172.378525,100.273125,-166.221603
3.250244,0.108398,-0.939697,-116.653435,-103.72924,152.252197,1.110107,-0.39624,0.471924,174.888596,80.665581,-184.959396
3.309082,-0.271973,-0.86084,-119.071953,-93.383781,120.75042,1.356445,-0.296387,0.530518,176.269516,61.019894,-202.438339
-0.311523,0.575684,-0.04126,-27.206419,-6.202697,51.254269,1.659424,-0.161133,0.566162,177.215561,46.081539,-218.910202
-0.251709,0.536133,-0.061768,-40.90118,-3.471374,56.632992,2.003174,0.003174,0.594482,177.764877,37.597656,-232.536301
-0.157715,0.506348,-0.080566,-52.154537,-1.228333,61.180111,2.355957,0.161133,0.634521,180.084213,33.889771,-241.027817
-0.050537,0.493164,-0.094971,-60.913082,1.00708,65.559387,2.676025,0.285645,0.664551,186.058029,30.517576,-241.821274
0.070801,0.487061,-0.113037,-67.91687,3.39508,71.327209,0.12915,0.822266,-0.356201,-57.640072,-33.39386,41.076656
0.21875,0.490479,-0.141357,-73.150635,6.202697,77.163696,0.553223,-0.592529,0.213623,168.098434,116.043083,-111.389153
0.392822,0.490723,-0.168213,-76.538086,9.506226,81.924431,0.022461,-0.43457,-0.050049,-9.216309,-37.04834,65.635681
0.566162,0.48291,-0.19873,-78.468323,11.802672,85.876457,0.177246,-0.8479,0.122314,158.508301,73.669434,-70.533752
0.704346,0.475342,-0.248779,-79.76532,12.016295,91.110222,0.444092,-0.428467,-0.108154,-43.724056,-34.843445,88.829033
0.825439,0.467285,-0.317627,-81.268303,11.009215,99.044792,0.211914,-0.425781,-0.084717,-26.000975,-33.866882,79.086304
-0.342285,0.601318,-0.014648,-11.657714,-10.185241,44.120785,0.405273,0.768066,-0.240723,-98.579399,-33.13446,57.846066
1.076904,0.43457,-0.472656,-83.877556,13.801574,122.451775,0.586182,0.726563,-0.18042,-119.239799,-23.025511,64.506531
0.954346,0.449951,-0.395264,-82.855217,11.291503,109.550468,0.774902,0.713135,-0.123291,-137.580872,-8.506775,71.18988
2.738281,0.672607,-1.049072,-110.130302,-68.275452,185.882553,0.97876,0.681641,-0.076172,-150.421143,8.163452,78.781128
2.415771,0.665283,-1.033447,-102.72216,-55.007931,189.361557,1.173584,0.637695,-0.02832,-158.409119,20.874022,88.386528
2.112793,0.486328,-0.955811,-94.238274,-41.641232,187.873825,1.369629,0.60083,-0.018311,-163.74205,27.740477,96.137993
1.84375,0.404053,-0.866699,-89.141838,-26.458738,185.523972,1.580566,0.545654,-0.023682,-165.481552,32.958984,100.433342
2.983887,0.462891,-0.996094,-113.876335,-87.120049,178.199753,1.80542,0.515625,-0.055664,-169.03685,43.136593,102.989189
1.411621,0.477783,-0.691162,-84.144585,4.173279,172.256454,2.025146,0.496826,-0.092041,-168.090805,56.930538,107.208244
1.281494,0.458252,-0.615723,-83.717339,14.320373,156.005859,2.254883,0.512207,-0.133301,-165.916428,72.692871,115.295403
1.183594,0.436523,-0.545166,-83.95385,16.418457,138.175964,2.468262,0.539551,-0.161621,-168.098434,93.749992,126.16729
1.606201,0.447998,-0.775635,-86.029045,-10.765075,181.854233,0.251221,0.80835,-0.29834,-78.948975,-35.484314,49.369808
0.774658,0.032471,-0.142334,155.74646,63.140865,-142.066956,0.663574,-0.403076,-0.0896,-63.468929,-40.664669,98.091118
0.759521,-0.074951,-0.472656,145.469666,124.519341,-64.743042,2.745117,0.357422,-0.175293,-164.779648,129.104614,153.556824
0.732178,-0.041504,-0.415283,147.277832,116.333,-76.171875,2.690674,0.254639,-0.2146,-155.143738,111.091606,167.945847
0.694336,0.007568,-0.346924,148.803711,106.1325,-86.120598,2.533936,0.177734,-0.243652,-146.858215,62.660213,180.892929
0.695801,0.039063,-0.283691,150.749207,97.076408,-95.91674,2.479492,0.175049,-0.243164,-145.431519,1.38092,192.642197
0.721436,0.040527,-0.227539,153.053284,90.179436,-105.308525,2.454834,0.197266,-0.172119,-147.125244,-41.503902,195.976242
0.727295,0.033447,-0.201904,154.640198,81.344597,-114.257805,2.158203,0.124023,-0.083496,-142.127991,-59.410091,181.00737
0.774902,-0.103516,-0.51709,143.623352,129.814148,-52.49786,1.70752,-0.026611,-0.048584,-126.571648,-61.241146,154.251099
0.743896,0.025146,-0.189209,155.128479,71.94519,-123.39019,1.326904,-0.185547,-0.048828,-106.811516,-57.456966,130.226135
0.760254,0.032227,-0.167969,155.532837,65.605164,-132.591248,0.972168,-0.318359,-0.064697,-85.426323,-50.376888,111.465446
0.770996,0.018555,-0.119141,155.670166,63.987728,-151.077271,2.655518,0.485107,-0.168701,-169.601425,117.057793,138.98468
0.652588,-0.040527,0.117432,163.940414,84.136955,-186.340317,0.588135,-0.295654,0.469482,146.957397,76.194763,-213.996872
0.716309,-0.02002,-0.012451,156.913757,69.885254,-167.190536,0.534912,-0.298096,0.440674,147.026062,76.812744,-203.620895
0.696289,-0.030273,0.04126,158.508301,74.211121,-174.70549,0.501709,-0.296387,0.419189,149.269104,78.956604,-191.558823
0.67041,-0.03833,0.092041,160.858139,79.360962,-180.831894,0.484375,-0.307129,0.395996,153.862,82.893364,-177.459702
0.636719,-0.036133,0.12207,166.755661,86.822502,-190.574631,0.38916,-0.375977,0.000244,174.758896,115.928642,-81.260674
0.634766,-0.023438,0.126465,169.631943,87.287895,-193.824753,0.422852,-0.355957,0.304688,165.817245,96.115105,-143.64624
0.66748,0.0,0.115479,172.103867,86.868279,-197.471603,0.403809,-0.376709,0.222656,170.776352,103.950493,-124.084465
0.712646,0.039063,0.093018,173.57634,85.288994,-201.118454,0.391602,-0.38501,0.116455,173.645004,111.709587,-103.4851
0.775146,0.096924,0.070313,174.545273,82.153313,-204.643234,0.654297,-0.277832,0.518799,148.338318,77.49939,-222.572311
0.859863,0.161865,0.049561,174.942001,78.430176,-208.541855,0.45874,-0.333008,0.363525,159.980774,89.141838,-161.422714
0.806885,-0.151611,-0.54248,142.478943,134.490967,-40.939327,0.727051,-0.23291,0.592285,148.925781,79.399109,-229.949936
0.743652,-0.004395,-0.067627,155.891418,66.314697,-159.118652,1.27832,0.092285,0.950439,148.719788,-33.340454,-223.449692
0.850586,-0.173828,-0.541016,139.884949,134.429932,-28.640745,0.868164,-0.069824,0.769043,146.54541,73.440552,-238.685593
0.962891,0.235596,0.0271,174.743637,74.699402,-212.829575,0.938721,0.015869,0.859131,143.089294,58.105465,-238.616928
0.932373,-0.223877,-0.606201,125.846855,117.980949,-9.567261,1.009766,0.062744,0.926514,141.952515,31.997679,-235.267624
1.382568,0.535645,-0.598389,-21.118162,-48.530575,164.436325,1.126221,0.07959,0.937256,144.424438,-0.846863,-229.660019
1.451172,0.487305,-0.699951,-24.902342,-52.833553,173.179611,1.448975,0.102783,0.926025,156.158447,-61.157223,-216.804489
1.523438,0.499023,-0.788574,-30.136106,-59.486385,179.069504,1.616211,0.115234,0.883789,166.76329,-79.345703,-209.98381
1.630615,0.52124,-0.877197,-36.018372,-66.749573,181.320175,1.806152,0.106201,0.851074,179.512009,-86.364738,-202.262863
1.76123,0.500732,-0.930176,-40.588375,-69.244385,180.50383,1.960938,0.109863,0.793701,193.702682,-82.557671,-193.824753
1.864746,0.439209,-0.945557,-41.725155,-63.270565,179.389938,2.0979,0.162354,0.700684,204.864487,-66.612244,-186.744675
1.924072,0.343506,-0.928711,-39.512634,-50.186153,177.032455,2.231445,0.229492,0.615967,207.954391,-42.106625,-178.153976
1.922363,0.229248,-0.875977,-35.003662,-35.934448,172.035202,0.799805,-0.162109,0.679443,148.353577,79.055786,-235.717758
1.860107,0.106445,-0.78418,-27.107237,-22.27783,163.337692,0.402832,-0.351563,-0.119385,174.980148,114.791862,-58.448788
1.775635,0.006592,-0.703857,-16.326904,-6.04248,150.398254,2.29834,0.24585,0.539795,203.857407,-20.202635,-168.28154
0.875244,-0.191895,-0.562744,133.735657,127.92968,-17.76886,0.379395,-0.312744,-0.25,173.614487,98.388664,-16.00647
1.668213,-0.029297,-0.642334,-4.562378,11.70349,135.864258,1.890869,-0.19165,0.074951,-60.997005,20.523069,82.649223
1.374756,-0.155273,-0.516602,24.032591,29.090879,108.489983,1.913086,-0.249268,0.053711,-51.513668,22.102354,85.929863
1.254639,-0.223145,-0.479492,37.765503,27.900694,89.24102,1.890869,-0.230469,0.019775,-43.136593,25.718687,89.073174
1.129639,-0.219971,-0.470459,50.010677,20.774839,72.540283,1.83252,-0.15625,-0.033203,-37.956238,28.846739,92.834465
1.087402,-0.191406,-0.493652,61.271664,14.511107,59.440609,1.761719,-0.0979,-0.094238,-32.63855,27.290342,97.702019
1.066895,-0.168945,-0.557129,71.723938,17.25769,49.21722,1.649902,-0.127441,-0.139893,-25.611876,26.596067,101.203911
1.069092,-0.156494,-0.62085,81.115715,29.029844,41.847225,1.58252,-0.223389,-0.170654,-17.776489,31.211851,102.622978
1.092773,-0.172607,-0.672607,90.118401,47.439571,33.981323,1.563232,-0.361328,-0.203613,-6.568908,46.241756,106.323235
1.118164,-0.216553,-0.699463,98.831169,68.389893,23.269651,1.595703,-0.428955,-0.260742,10.803222,73.524475,114.250175
1.091309,-0.25415,-0.691162,107.482903,87.570183,9.902954,1.579102,-0.360596,-0.32959,28.083799,106.170647,120.384209
1.018555,-0.243896,-0.655518,116.378777,103.965752,-1.235962,1.489502,-0.25708,-0.385498,44.525143,129.043579,123.489372
1.517334,-0.060547,-0.572021,9.399414,24.559019,123.680107,1.415039,-0.179688,-0.392578,61.561581,129.440308,128.448486
1.078857,0.310059,0.006104,174.262985,70.701599,-217.376694,1.327881,-0.175049,-0.355469,70.236206,116.744987,133.651733
1.198486,0.380371,-0.017334,172.996506,66.177368,-221.83989,1.220703,-0.246338,-0.314941,73.051453,97.763054,134.941101
1.319336,0.450195,-0.054688,170.753464,61.180111,-225.479111,1.095947,-0.270508,-0.260498,76.713562,71.937561,128.967285
-0.233398,0.525146,-0.060303,43.258663,26.702879,-7.072448,0.983154,-0.286621,-0.20459,85.678093,53.558346,117.057793
-0.256104,0.548096,-0.079834,31.86035,22.3999,12.306212,0.896973,-0.318115,-0.15625,100.257866,46.646114,103.775017
-0.276123,0.564453,-0.105957,19.302368,14.488219,30.174253,0.817383,-0.307861,-0.128174,113.372795,45.372005,91.087334
-0.266602,0.568848,-0.137695,6.820678,4.943848,45.890804,0.709229,-0.297607,-0.127197,123.527519,51.246639,77.323914
-0.230713,0.570557,-0.177734,-5.050659,-3.883362,59.799191,0.598145,-0.292236,-0.153809,133.293152,60.6842,61.500546
-0.171143,0.571777,-0.231934,-15.747069,-9.559631,72.8302,0.517822,-0.293213,-0.194824,145.210266,70.3125,43.29681
-0.094727,0.577148,-0.290039,-25.749205,-10.307311,85.159294,0.455811,-0.293213,-0.232422,158.378601,78.643799,23.986814
-0.005859,0.572021,-0.338379,-33.828735,-5.805969,96.351616,0.404785,-0.298584,-0.251465,168.418869,87.707512,4.40979
0.091309,0.549561,-0.375,-39.634705,2.716064,106.071465,0.39917,-0.328613,-0.217773,175.285324,108.512871,-36.819458
0.186279,0.510254,-0.406494,-42.770382,14.343261,114.585869,1.831055,-0.101807,0.088135,-68.252563,20.118711,79.528809
-0.203369,0.486328,-0.047363,52.268978,28.045652,-28.030394,2.321289,0.164063,0.499023,201.530441,-10.765075,-157.463074
0.271729,0.461182,-0.435303,-42.228695,27.999876,122.50518,2.526611,-0.114502,0.579102,227.813705,-33.287048,-118.194572
0.444092,0.385254,-0.505127,-34.301758,57.228085,136.08551,0.518311,0.558594,-0.101807,-54.588314,-14.411925,53.62701
0.537598,0.381592,-0.530762,-28.503416,69.046021,140.731812,0.59668,0.517578,-0.111084,-60.623165,-2.5177,52.841183
0.63208,0.386475,-0.544678,-22.384642,74.691772,143.585205,0.72583,0.503662,-0.118652,-64.529419,17.14325,50.98724
0.727295,0.394287,-0.54248,-15.747069,71.69342,144.592285,0.894287,0.537842,-0.122559,-69.404602,51.124569,49.766537
0.834229,0.416016,-0.528564,-8.964539,60.073849,144.561768,1.043457,0.573242,-0.106934,-75.057983,95.901482,49.858089
0.967285,0.456543,-0.537354,-3.196716,39.863586,145.103455,1.173096,0.596436,-0.052734,-81.924431,140.068054,50.094601
1.130127,0.497559,-0.602295,0.289917,9.918213,145.706177,1.25415,0.58374,0.031982,-87.516777,171.096786,50.567623
1.368164,0.513184,-0.735596,0.091553,-26.000975,144.447327,1.254883,0.54126,0.097656,-92.323296,178.825363,52.726742
1.678711,0.515381,-0.889893,-2.983093,-56.838985,143.02063,1.309082,0.468506,0.111084,-96.336357,165.313705,55.175777
2.026611,0.573242,-1.040527,-8.232117,-76.629639,142.059326,1.452148,0.386963,0.080078,-99.792473,141.296387,59.997555
0.356201,0.414063,-0.471191,-39.031982,42.66357,129.875183,0.441406,0.611084,-0.103271,-44.837948,-23.406981,52.162167
-0.160889,0.446045,-0.050537,58.258053,26.596067,-49.652096,1.697998,0.322021,0.037842,-104.293816,115.646355,67.939758
2.356201,0.715576,-1.155518,-16.357422,-87.638847,141.50238,2.341797,0.192383,-0.050049,-112.792961,85.288994,98.396294
-0.070801,0.392334,-0.0625,70.503235,37.132263,-92.819206,2.595215,0.17041,-0.125977,-115.631096,82.702629,118.553154
1.436279,0.515137,-0.094727,167.953476,57.495113,-227.638229,2.736328,0.147217,-0.158203,-116.859428,82.763664,141.12854
1.553955,0.573975,-0.145264,164.901718,57.464596,-229.240402,2.732666,0.067871,-0.111572,-109.298698,65.788269,161.582932
1.664551,0.628662,-0.216797,161.10228,61.042782,-231.651291,2.6521,0.037598,-0.024658,-93.688957,23.643492,175.491318
1.72168,0.667725,-0.301514,156.051636,62.58392,-234.626755,2.580078,0.132813,-0.027344,-85.510246,-21.881102,178.123459
1.709473,0.678955,-0.401611,148.292542,55.465694,-236.656174,2.503174,0.293457,-0.074219,-91.110222,-41.503902,177.017197
1.672363,0.64209,-0.498779,138.069153,37.200928,-240.585312,2.25415,0.349854,-0.041504,-94.337456,-36.29303,167.999252
-0.133545,0.416504,-0.049805,64.01062,28.396605,-71.479797,1.709961,0.264648,-0.019775,-86.151115,-17.39502,145.309448
1.589111,0.528809,-0.59082,119.766228,-32.409668,-249.916061,1.083984,0.125488,-0.052002,-72.70813,6.187438,119.880669
1.655273,0.568359,-0.61499,111.907951,-74.516296,-249.992355,2.050537,0.27002,-0.014404,-110.023491,96.30584,81.466667
1.828857,0.612305,-0.628906,107.681267,-106.513969,-249.992355,0.347656,0.646973,-0.106445,-31.661985,-30.700682,50.60577
2.067627,0.644531,-0.623779,108.093254,-117.004387,-249.908432,2.377197,0.007813,0.52124,211.387619,-17.044067,-141.372681
1.615723,0.567871,-0.554932,128.242493,7.209777,-246.849045,0.182617,0.67041,-0.121338,2.685547,-33.576965,48.187252
2.258057,0.610352,-0.626221,114.654533,-68.763733,-249.992355,2.675293,-0.126709,0.644531,241.516098,-51.933285,-90.179436
2.155029,0.446045,-0.661865,122.200005,-16.418457,-245.903,2.78418,-0.048828,0.692871,249.366745,-72.006226,-59.341427
1.829834,0.339111,-0.654785,124.031059,32.722473,-235.679611,2.792969,0.112549,0.670654,249.992355,-90.164177,-31.10504
1.431885,0.314209,-0.584961,118.797295,67.947388,-222.419724,2.685059,0.3479,0.609619,249.992355,-104.591362,-6.179809
1.023926,0.327393,-0.492676,110.351555,88.409416,-204.757675,2.506104,0.581787,0.500977,249.992355,-116.058342,18.890381
0.623535,0.350098,-0.397461,102.371208,92.636101,-181.671127,2.218506,0.782471,0.341064,249.992355,-121.665947,37.605286
0.39917,0.354492,-0.289795,96.04644,87.898247,-160.865768,0.253662,0.659668,-0.111328,-15.785216,-34.156799,49.736019
0.290039,0.356934,-0.18457,90.515129,79.589844,-144.989014,1.429443,0.96167,0.03418,249.992355,-115.234367,32.608032
0.174805,0.375732,-0.12793,84.121696,66.40625,-129.493713,1.058594,0.922607,-0.063721,249.992355,-116.035454,21.499632
0.047852,0.380127,-0.096191,77.362061,50.72784,-112.17498,0.704834,0.839111,-0.130615,249.992355,-124.214165,12.496947
2.237793,0.664307,-0.616699,110.000603,-104.530327,-249.992355,0.434814,0.737793,-0.164795,249.80925,-133.811951,6.004333
2.821289,0.017334,-1.252197,-33.073425,-50.6134,220.420822,1.824951,0.92041,0.182129,249.992355,-119.842522,41.358944
2.638916,0.075195,-1.120605,-35.758972,-37.185669,230.476364,0.186523,0.634033,-0.186523,249.992355,-126.518242,-0.87738
2.446777,0.099854,-0.983154,-41.458126,-12.535094,242.546066,0.12793,0.637695,-0.19458,241.73735,-113.18206,-1.075745
2.277588,0.12915,-0.882324,-51.87225,18.455505,249.992355,0.103271,0.659912,-0.169678,223.564133,-96.67968,1.861572
1.468262,0.4375,-0.714355,-132.93457,61.706539,249.351486,0.101563,0.693848,-0.136963,201.347336,-77.980042,6.950378
1.965576,0.249023,-0.784668,-84.289543,63.3316,249.847397,0.101563,0.719971,-0.108887,174.690231,-58.0368,13.038634
1.813721,0.306396,-0.758301,-102.821342,70.358276,249.992355,0.092529,0.725586,-0.092773,144.828796,-39.703369,19.447327
1.65332,0.371094,-0.735596,-119.674675,68.79425,249.992355,0.071533,0.721924,-0.095703,112.533562,-27.801512,26.268003
2.120605,0.187744,-0.824951,-66.566467,45.81451,249.992355,0.052246,0.705811,-0.105713,80.482475,-24.650572,33.210754
3.003418,-0.0896,-1.321045,-33.683777,-57.113644,201.156601,0.074707,0.691162,-0.118164,50.6134,-27.030943,39.321899
-0.302002,-1.112793,0.280518,27.984617,-106.50634,33.599854,0.123291,0.682373,-0.129395,24.79553,-30.685423,44.746395
2.892822,-0.439453,-1.217773,-43.441769,-60.958858,136.772156,0.276855,0.665283,-0.173096,249.992355,-134.910583,1.487732
2.523438,-0.641602,-1.025391,-45.913692,-54.13818,118.125908,0.293457,-0.308105,0.067139,-65.483093,61.95068,153.030396
2.115967,-0.766846,-0.780273,-43.090816,-41.15295,99.723808,0.609619,-0.255371,0.040039,-75.958252,67.7948,168.220505
1.64624,-0.814209,-0.559814,-40.145874,-31.219481,82.077019,0.950195,-0.192627,0.049805,-86.082451,71.113586,183.883652
1.089111,-0.830566,-0.351074,-40.870663,-36.4151,73.96698,1.282227,-0.121826,0.10083,-98.213188,70.373535,199.592575
0.557129,-0.841797,-0.14209,-41.130062,-54.344173,72.181702,3.188965,0.040527,0.500732,-169.998154,58.235165,192.573532
0.154785,-0.845459,0.033447,-37.117004,-76.919556,72.174072,2.209473,-0.033203,0.325928,-124.328606,61.706539,227.416977
-0.099365,-0.874512,0.164307,-27.297972,-96.992485,70.320129,2.696777,-0.0354,0.431641,-138.282776,64.567566,225.288376
-0.223877,-0.932373,0.249512,-12.596129,-108.551018,62.728878,3.007813,0.00293,0.495117,-154.449463,65.90271,211.616501
-0.272949,-1.021729,0.289307,6.67572,-111.137383,50.163265,1.680176,-0.050049,0.205566,-111.785881,65.498352,215.942368
1.269775,0.488281,-0.677979,-141.288757,53.436275,240.921005,0.11084,-0.338623,0.117432,-55.77087,53.817745,139.144897
3.087891,-0.246338,-1.313721,-37.780762,-61.027523,166.831955,-0.048828,-0.660156,0.125488,86.944572,27.053831,-58.723446
1.076172,0.509033,-0.615723,-145.172119,47.821041,227.622971,-0.05542,-0.395508,0.190918,-39.611816,31.578062,113.578789
-0.516602,0.86792,0.191162,-16.929626,56.228634,87.257378,-0.113525,-0.462891,0.195313,-24.864195,13.229369,96.740715
0.707764,0.521729,-0.423828,-144.721985,47.828671,204.811081,-0.140381,-0.515625,0.174561,-9.315491,-7.339477,76.789856
-0.281982,-1.186279,0.226563,49.72076,-95.939629,12.825011,-0.155273,-0.542236,0.123047,5.485534,-23.223875,55.854794
2.299316,0.20874,-0.935303,108.261101,-51.322933,-241.844162,-0.169189,-0.539307,0.06543,20.51544,-31.066893,35.041809
1.913818,0.25,-0.739502,108.90197,-35.873413,-222.190842,-0.184326,-0.53125,0.008545,33.77533,-29.266356,14.900207
1.414551,0.335938,-0.525146,106.109612,-14.282226,-189.132675,-0.186279,-0.556396,-0.027832,46.920773,-20.339964,-4.165649
0.957764,0.425049,-0.35498,96.740715,1.708984,-151.901245,-0.172607,-0.599609,-0.028809,60.127254,-8.003235,-21.736143
0.58374,0.505859,-0.201172,85.914604,9.056091,-118.003838,-0.151123,-0.642334,0.007324,71.372986,4.997253,-36.514282
0.354736,0.584229,-0.064697,77.682495,13.984679,-88.928215,-0.109863,-0.667725,0.064453,80.635063,16.975403,-48.767086
0.16333,0.655518,0.04541,69.297791,18.669128,-61.050411,3.203613,0.051514,0.45459,-180.778488,47.8363,168.960556
-0.025879,0.705078,0.126709,59.654232,23.445127,-33.256531,0.018311,-0.356201,0.172119,-48.606869,44.143673,126.976006
-0.190186,0.720947,0.184326,48.942562,28.999327,-7.6828,3.09668,0.090332,0.406494,-188.613876,43.861385,141.098022
0.890869,0.516357,-0.529297,-145.698547,46.340939,215.614304,0.321777,0.675537,0.279541,-192.024216,60.531612,-31.402586
-0.337891,0.700195,0.227539,37.033081,35.835266,15.922545,2.677002,0.272949,0.260986,-199.172958,55.892941,85.525505
-0.507568,0.787598,0.218506,6.065368,52.040096,66.993713,0.02832,-0.618652,0.187256,90.179436,34.301758,-67.687988
-0.496338,0.890869,0.16333,-40.840145,59.944149,103.637688,-0.067871,0.906006,-0.014404,109.580986,-24.574278,-59.028622
-0.443359,0.855225,0.121826,-63.110348,64.460754,118.919365,-0.169189,0.900635,-0.075195,77.9953,-41.267391,-59.715267
-0.334961,0.780518,0.073975,-82.473747,68.061829,131.843567,-0.22876,0.919189,-0.106445,45.173641,-52.581783,-57.746883
-0.211182,0.707031,0.021973,-98.762505,68.916321,144.210815,-0.227295,0.921387,-0.135254,10.032654,-54.817196,-53.764339
-0.087646,0.66748,-0.038086,-113.014214,66.734314,157.943726,-0.204346,0.899658,-0.118652,-19.622803,-49.293514,-49.713131
0.069336,0.63623,-0.099609,-124.977104,63.591,169.570908,-0.177002,0.895508,-0.06665,-40.52734,-39.1922,-47.088619
0.244873,0.589844,-0.154053,-133.491516,60.134884,177.894577,-0.130615,0.929443,0.019775,-59.623714,-25.833128,-45.608517
0.399902,0.552002,-0.227051,-138.885498,55.824276,185.615524,-0.076416,0.988281,0.060303,-85.548393,-5.615234,-45.372005
0.541504,0.536133,-0.32251,-142.410278,51.193233,194.686874,-0.012451,0.992432,0.092285,-113.578789,16.868591,-43.55621
-0.440186,0.71167,0.238037,23.78845,44.288631,41.252132,2.892334,0.189453,0.340088,-195.770248,47.775265,113.136284
-0.213867,-1.226074,0.17627,73.829651,-77.278137,-11.344909,0.03833,0.945068,0.157959,-139.915466,34.416199,-39.543152
2.459473,0.256836,-1.094482,107.170097,-50.437923,-248.054489,0.204346,0.789795,0.245117,-181.747421,56.480404,-34.78241
-0.000732,-1.07373,0.028564,117.378227,-22.804258,-66.345215,0.456299,0.574463,0.277588,-200.279221,57.891842,-26.908873
0.314209,0.675293,-0.165283,108.77227,-80.505363,-43.197628,0.637451,0.496338,0.262207,-208.114609,51.132198,-23.452757
0.25415,0.647949,-0.09375,94.299309,-77.545166,-29.861448,0.851807,0.405518,0.243408,-210.23558,40.344234,-18.829346
0.194824,0.624756,-0.038818,79.26178,-79.139709,-21.530149,1.084961,0.346436,0.195068,-206.413254,31.059263,-11.779784
0.124268,0.603516,0.002686,64.338684,-82.366936,-14.648437,1.427002,0.383789,0.121826,-204.078659,36.92627,-1.434326
0.072021,0.587891,0.029297,50.956722,-83.747856,-7.087707,1.760986,0.516602,0.065918,-213.569626,58.837887,12.237548
0.041992,0.572266,0.038086,38.81073,-80.902092,1.441955,1.956299,0.459961,0.131836,-210.144028,73.226929,26.18408
0.027344,0.543457,0.032471,27.503965,-74.333191,11.024474,2.153809,0.344482,0.177002,-200.355515,69.190979,41.069027
0.01709,0.509033,0.046875,18.325806,-64.781189,20.874022,2.426514,0.330322,0.186523,-200.317368,61.866756,61.096188
0.037842,0.483887,0.05542,11.283874,-51.414486,30.860899,0.103027,0.86792,0.217529,-162.246689,47.523495,-36.804199
0.093506,0.473633,0.039551,5.622863,-34.172058,41.267391,0.032227,0.937744,0.080078,141.845703,-5.676269,-56.991573
0.428467,0.67627,-0.23999,123.947136,-87.249748,-63.629147,0.120361,-0.557617,0.232666,91.583244,40.260311,-76.957703
0.17041,0.47168,0.01001,1.449585,-13.671874,51.452633,0.355957,-0.394531,0.291992,90.774529,54.847713,-99.395744
0.305908,0.487305,-0.039795,-2.723694,25.245665,69.862366,0.26709,1.234619,-0.112793,88.722221,40.618893,-28.533934
0.352051,0.507324,-0.050049,-3.608703,35.202026,77.880859,0.245361,1.281738,-0.106934,61.241146,68.855286,-13.763427
0.38623,0.529053,-0.06665,-4.53949,36.5448,86.425774,0.241455,1.253174,-0.135254,34.042358,86.051933,1.594543
0.455322,0.546875,-0.095703,-6.118774,29.96826,95.947258,0.269531,1.166992,-0.145264,8.750916,96.17614,15.693664
0.550049,0.56543,-0.125,-7.774353,17.822266,106.018059,0.332275,1.04541,-0.185547,-12.512206,103.691093,27.595518
0.674316,0.601807,-0.166748,-9.368896,2.27356,116.226189,0.425293,0.911621,-0.186523,-28.244017,109.466545,36.254883
0.844971,0.637207,-0.223145,-11.512755,-14.244079,125.434868,0.518066,0.787842,-0.133057,-41.427608,113.410942,42.678829
1.03418,0.651611,-0.300537,-13.824462,-28.411863,133.522034,0.648438,0.689941,-0.090088,-54.458614,115.623466,49.316402
1.194336,0.637939,-0.401611,-15.99121,-38.543701,142.486572,0.763916,0.61084,-0.040283,-64.964294,114.501945,56.465145
1.306641,0.597168,-0.497314,-18.333435,-44.631954,153.35083,0.981689,0.54248,0.10376,-80.955498,109.550468,70.701599
0.243408,0.472412,-0.017334,-1.25885,7.698059,61.149593,0.256836,1.152344,-0.06958,115.19622,6.507873,-43.876644
0.579834,0.632568,-0.307129,138.717651,-94.223015,-89.210503,1.01709,0.5,0.163086,-84.938042,107.437126,77.476501
-0.127441,-1.186523,0.111572,97.946159,-51.925655,-37.67395,1.101807,0.440186,0.201172,-89.317314,87.928764,79.658508
0.880371,0.455078,-0.441895,162.094101,-91.613762,-154.678345,1.182861,0.386719,0.200195,-89.279167,75.325012,77.514648
0.112305,-0.931152,-0.00708,132.385254,6.385803,-97.511284,1.27002,0.312256,0.200684,-88.081352,68.969727,75.172424
0.148438,-0.804688,-0.02124,144.569397,26.832579,-127.120964,1.362305,0.264404,0.183838,-88.417046,72.135925,73.173523
0.14502,-0.741455,-0.088867,150.489807,37.818909,-150.993347,1.408691,0.206787,0.153076,-87.165825,68.695068,73.501587
0.204102,-0.664307,-0.122803,149.093628,36.369324,-163.703903,1.397949,0.098633,0.131836,-82.862846,51.818844,71.456909
0.361084,-0.575439,-0.116943,150.543213,30.532835,-175.552353,1.475342,0.008545,0.119141,-77.774048,33.470154,70.236206
0.49292,-0.527588,-0.143066,152.488708,24.505613,-186.691269,1.62793,-0.021484,0.10791,-73.905945,24.597166,72.288513
0.713379,0.555176,-0.369385,151.519775,-96.794121,-118.652336,1.753662,-0.028564,0.099121,-72.280884,21.362303,76.194763
0.809814,-0.337646,-0.25415,162.643417,23.15521,-188.331589,0.231201,-0.481201,0.266602,91.560356,47.08099,-87.585442
1.035645,-0.198975,-0.383545,167.793259,28.854368,-194.908127,1.044922,0.45752,0.198242,-87.074272,99.548332,80.612175
1.225342,-0.09375,-0.553467,170.143112,31.402586,-210.678085,0.25415,1.114258,0.004883,139.099121,-29.33502,-60.821529
1.323975,-0.098145,-0.738525,171.394333,27.877806,-222.885117,0.888184,0.569336,0.031494,-73.875427,111.198418,63.072201
0.621582,-0.462158,-0.178223,157.096863,20.286558,-189.544662,0.192871,1.141357,0.169434,188.44603,-84.968559,-91.392509
1.789307,0.027588,-1.00293,176.040634,48.141476,-241.180405,0.240723,1.130371,0.071533,164.184555,-62.347408,-77.453613
2.005371,0.00415,-1.041504,185.760483,74.798584,-248.80217,0.610352,-0.254395,0.364746,89.187614,64.796448,-123.794548
2.141357,-0.035645,-1.05835,197.486862,100.20446,-249.992355,0.73999,-0.262695,0.423828,90.286247,58.914181,-135.551453
2.254639,-0.043213,-1.02832,206.848129,113.761894,-249.992355,0.901855,-0.322021,0.493408,96.92382,42.91534,-146.987915
2.31665,0.067871,-0.98584,207.550034,113.616936,-249.992355,1.153564,-0.35498,0.574707,108.917229,22.262571,-158.424377
2.087402,0.271729,-0.90918,198.14299,80.284119,-249.68718,1.5271,-0.315918,0.667969,124.229424,0.869751,-168.991074
1.830566,0.377686,-0.780518,189.07164,22.560118,-249.992355,1.957275,-0.202637,0.759033,140.586853,-22.117613,-177.146896
1.662354,0.379395,-0.712158,183.502182,-25.535582,-249.992355,2.33252,-0.034912,0.837891,156.860352,-51.818844,-181.060776
1.370117,0.37207,-0.681152,178.245529,-59.638973,-238.311752,2.603271,0.127441,0.932373,175.437912,-93.612663,-178.1082
1.097412,0.367188,-0.54541,170.745834,-79.391479,-197.235092,2.786133,0.20874,1.051514,200.447067,-142.082214,-171.470627
1.540527,-0.046631,-0.91333,172.950729,30.960081,-231.956467,2.897705,0.272461,1.170654,229.049667,-179.977402,-164.108261
-0.043701,0.741699,-0.041748,24.436949,3.852844,22.743223,0.483154,-0.311035,0.322754,90.057365,61.927792,-111.54937
-0.019775,0.714355,-0.118652,36.605835,-0.617981,-1.25885,3.016357,0.507324,1.413086,249.992355,-178.98558,-139.328003
0.045654,0.674805,-0.196533,48.324581,-4.089355,-30.71594,2.989746,0.365723,1.293457,247.741684,-193.458542,-153.884888
0.203369,0.610596,-0.251221,58.883663,-6.576538,-66.15448,0.279541,1.159912,0.379883,229.255661,-86.814873,-112.93029
1.85083,0.451904,-0.678223,83.19091,0.366211,-249.992355,0.458496,1.0896,0.53125,248.214706,-73.59314,-121.772758
0.57959,0.515137,-0.339355,78.37677,-18.302917,-148.277283,0.787109,1.042725,0.687012,249.992355,-60.920712,-127.784721
0.86792,0.481934,-0.354736,83.778374,-24.131773,-198.295578,1.26001,1.128174,0.816895,249.793991,-57.151791,-132.873535
1.314697,0.460938,-0.445313,83.404533,-20.63751,-244.613632,0.200439,1.167236,0.260986,208.183273,-93.01757,-102.874748
0.389648,0.55249,-0.304199,69.122314,-11.001586,-104.980461,2.426758,1.224121,1.2229,249.992355,-94.398491,-129.089355
-0.0896,0.749756,0.025146,12.870788,7.202148,44.525143,2.921631,1.009033,1.366699,249.992355,-118.919365,-126.403801
0.156494,0.613281,-0.086182,-91.88842,41.275021,196.449265,3.030029,0.711182,1.277588,249.992355,-147.880554,-129.554749
-0.220703,0.739746,0.089355,-8.758545,6.477355,87.646477,1.793945,1.25,1.004639,249.923691,-70.999146,-133.560181
-0.279785,0.753662,0.089111,-21.072386,5.226135,109.756462,-0.147949,0.447266,-0.121094,-95.329277,-30.609129,0.595093
-0.289795,0.77124,0.075684,-34.492493,6.439209,130.256653,-0.310547,0.825195,0.113281,34.851074,-27.6947,-28.770445
-0.259033,0.777344,0.062012,-47.920223,11.45935,148.040771,-0.337402,0.802246,0.055664,14.48059,-22.483824,-27.755735
-0.204834,0.772949,0.047363,-60.226437,19.317627,162.330612,-0.365479,0.770996,0.006104,-5.15747,-18.478394,-26.06201
-0.140869,0.752197,0.033936,-70.808411,27.618406,172.828659,-0.394043,0.724121,-0.02417,-24.696348,-19.004822,-23.727415
-0.085449,0.717041,0.025146,-79.185486,33.8974,180.686935,-0.395508,0.664063,-0.046875,-43.067928,-23.643492,-20.355223
-0.041504,0.682861,0.011719,-84.976189,37.513733,186.264023,-0.354492,0.60083,-0.074463,-59.501644,-28.739927,-15.35797
0.020264,0.653809,-0.009033,-88.798515,39.245605,189.903244,-0.295654,0.873291,0.19165,54.985043,-29.693602,-28.411863
0.088867,0.631104,-0.037842,-91.178886,40.252682,192.398056,-0.278564,0.535889,-0.094482,-73.280334,-31.10504,-9.490967
2.313477,0.407227,-0.94043,88.272087,35.179138,-249.55748,-0.20752,0.484619,-0.103027,-84.678642,-31.181334,-3.929138
-0.150391,0.742676,0.071045,2.227783,7.843017,65.795898,-0.099854,0.422363,-0.139893,-104.49218,-29.434202,3.875732
2.671143,0.286377,-1.124023,96.061699,66.474915,-249.80162,0.263184,0.376709,-0.088135,-135.391235,-48.286434,20.576475
0.980225,-0.289307,-0.156006,167.663559,21.40045,-249.641403,0.013428,0.420898,-0.1521,-119.636528,-27.557371,9.979248
3.11499,0.071777,-1.422852,101.921074,68.183899,-249.992355,0.065918,0.410645,-0.135742,-127.006523,-33.27179,13.763427
0.232666,0.59375,-0.150879,-91.232292,43.17474,203.010544,0.154053,0.378662,-0.105713,-131.68335,-42.465206,16.76178
-0.072998,-0.983398,0.219482,100.158684,-33.454895,-71.266174,0.386963,0.410889,-0.080078,-142.601013,-51.23901,25.489805
-0.065674,-1.004395,0.235352,119.255058,-20.507811,-88.844292,0.555176,0.435303,-0.069092,-150.680542,-50.003048,28.884886
-0.04541,-0.985596,0.218262,137.176514,-5.40924,-106.399529,0.751465,0.438477,-0.066406,-155.204773,-41.336056,32.142639
0.007324,-0.945801,0.178955,152.244568,11.009215,-125.610344,0.943115,0.44165,-0.073975,-156.600952,-26.046751,38.17749
0.08667,-0.881348,0.128418,164.085373,28.45764,-146.827698,1.123047,0.465332,-0.096436,-159.843445,-11.466979,46.096798
0.167969,-0.792236,0.084473,171.592697,44.479366,-169.471725,1.319092,0.484375,-0.119629,-165.832504,0.343323,54.283138
0.228516,-0.685303,0.0625,174.285873,55.282589,-191.032394,-0.263184,0.958984,0.281982,76.690674,-28.022764,-21.797178
0.271729,-0.577393,0.066162,174.232468,58.647152,-208.671555,-0.035645,0.419434,-0.150879,-112.586967,-27.870176,6.484985
0.338379,-0.499756,0.062988,173.19487,55.39703,-221.641525,-0.156738,1.090088,0.38623,99.647514,-21.14868,-6.782531
2.958496,0.145508,-1.289795,100.875847,78.399658,-249.992355,1.535645,0.42041,-0.107666,-160.926804,8.361816,62.225338
0.447998,-0.452881,0.037354,171.730026,48.355099,-231.78862,0.7146,1.530273,0.585693,155.357361,17.456055,39.344788
0.787109,-0.342285,-0.061523,169.227585,29.953001,-244.377121,-0.123535,-0.810059,0.072021,185.096725,1.754761,-115.768425
1.159912,-0.218994,-0.277832,164.146408,13.397216,-249.992355,-0.015381,-0.779053,0.12085,200.515732,19.744873,-119.61364
1.343262,-0.163086,-0.429932,158.950806,7.530212,-249.992355,0.098633,-0.72583,0.167725,211.814865,32.119751,-125.038139
1.565674,-0.091064,-0.606934,153.007507,4.91333,-249.992355,0.248047,-0.688721,0.207275,221.412643,43.258663,-132.522583
1.814697,-0.026367,-0.809814,146.934509,5.020141,-249.992355,0.432373,-0.648193,0.232666,230.979904,56.800838,-141.777039
2.039307,0.024902,-0.996338,138.801575,5.187988,-249.992355,0.632568,-0.600098,0.246826,241.950974,74.745178,-154.022217
2.310059,0.062256,-1.157959,129.318237,6.958007,-249.992355,0.839355,-0.519775,0.261963,249.29808,98.57177,-170.104965
2.574463,0.093018,-1.311768,118.896477,10.772704,-249.992355,1.054199,-0.398438,0.282227,249.992355,125.885002,-189.117416
2.821289,0.083984,-1.430664,109.52758,21.621702,-249.992355,1.25293,-0.277588,0.317871,249.992355,148.117065,-208.030685
3.033447,0.061768,-1.468262,103.652946,44.082638,-249.992355,1.479004,-0.186279,0.357422,247.383102,157.653809,-224.395737
0.593262,-0.398438,-0.002686,170.204147,39.520264,-238.044724,0.088379,1.29834,0.483154,124.90844,-5.599975,14.953612
-0.047852,-0.919434,0.169434,82.450859,-41.336056,-54.916378,1.737305,-0.172363,0.423096,239.044174,150.474548,-236.587509
0.334229,0.575195,-0.230713,-89.75219,45.997616,211.059555,2.565186,-0.435303,0.631348,238.792404,52.276608,-232.284531
0.591064,0.536377,-0.403809,-82.481377,53.436275,225.883469,3.178711,-0.503418,0.739014,245.620712,-35.148621,-210.052475
-0.588379,-1.51416,0.2229,78.208923,-79.353333,-44.578548,3.802246,-0.47168,0.808594,249.908432,-122.932426,-172.210678
-0.447998,-1.289795,0.13623,95.054619,-80.169678,-71.166992,4.298096,-0.32959,0.870605,249.992355,-188.896164,-111.213676
-0.292236,-1.050049,0.064209,107.078545,-76.080322,-96.908562,4.611572,-0.130859,1.049072,249.710068,-212.936386,-51.589962
-0.162354,-0.813232,0.003418,115.379326,-73.509216,-118.270866,4.813232,0.208496,1.226074,249.992355,-180.465683,-18.554688
-0.027588,-0.636963,-0.058594,122.459404,-67.428589,-130.737305,4.769287,0.705566,1.217529,249.992355,-84.136955,4.096985
0.105469,-0.559326,-0.136475,125.831596,-58.906551,-137.496948,4.299805,1.193115,1.156006,236.053452,19.195557,30.479429
0.253906,-0.470947,-0.171143,127.601616,-50.651546,-145.637512,3.28418,1.554932,0.956787,212.814316,62.255856,53.352352
0.425537,-0.45874,-0.197021,131.324768,-36.437988,-150.32959,1.919434,1.669189,0.751953,186.93541,46.348568,56.617733
0.538818,-0.488037,-0.241943,134.277344,-22.377012,-152.435303,2.075928,-0.283691,0.520264,235.961899,117.706291,-241.249069
0.895508,-0.567139,-0.258545,140.945435,-3.723144,-153.427124,1.859375,0.444336,-0.106689,-158.790588,24.452208,70.739746
-0.642334,-1.685059,0.303955,54.191586,-74.684143,-16.143799,-0.244873,-0.805908,0.021484,169.15892,-16.372681,-110.244743
1.093018,-0.562744,-0.289795,144.439697,4.53949,-158.592224,2.378906,0.580322,0.017334,-178.222641,80.299377,95.336906
1.542725,-0.312988,-0.369385,152.565002,14.122008,-167.449936,0.292969,-0.620361,0.197998,155.87616,26.878355,-67.466736
1.741699,-0.129395,-0.486328,156.562805,13.229369,-172.859177,0.431885,-0.513428,0.237061,161.819443,33.279419,-75.584412
2.043457,-0.015625,-0.679199,158.325195,23.330687,-184.570297,0.55957,-0.426758,0.27124,168.228134,33.561707,-85.029594
2.280029,-0.10083,-0.915283,162.010178,52.62756,-196.861252,0.695068,-0.346191,0.29541,174.285873,28.221128,-95.848076
2.481445,-0.065186,-1.094238,162.315353,83.32061,-205.627426,0.849121,-0.259277,0.327393,181.121811,17.51709,-106.269829
2.587891,0.056641,-1.220215,156.211853,92.567436,-213.623032,1.051514,-0.174072,0.360107,189.903244,1.701355,-115.20385
2.641357,0.205811,-1.290771,143.333435,71.136475,-224.937424,1.294434,-0.082275,0.415283,200.576767,-15.647887,-122.985832
2.677246,0.337158,-1.286865,125.15258,26.046751,-241.943344,1.590576,0.016846,0.48291,210.227951,-29.273985,-130.256653
2.602783,0.333252,-1.222656,112.030022,-21.39282,-249.992355,1.940186,0.154297,0.559326,218.132004,-37.284851,-135.391235
0.462402,0.552246,-0.320068,-86.677544,49.888607,218.742355,2.287598,0.340332,0.636475,223.739609,-45.532223,-134.742737
1.331055,-0.464111,-0.320313,147.81189,10.56671,-163.337692,0.150146,-0.744873,0.159668,150.726318,13.862609,-60.325619
-0.695068,-1.737305,0.36377,23.712156,-73.135376,14.129638,2.540527,0.461426,0.66333,231.231674,-62.217709,-127.288811
0.670898,-0.508545,-0.258301,136.34491,-12.634276,-150.497437,2.797852,0.21167,0.691406,249.877914,-120.849602,-96.076958
-0.649414,-1.635986,0.387451,-39.756775,-83.656303,52.101131,2.850098,0.064697,0.895508,249.992355,-149.269104,-69.984436
-0.727295,-1.699707,0.390381,-8.552551,-77.423096,37.910461,3.016357,0.158447,1.13623,249.855026,-147.270203,-49.896236
0.880859,0.55835,-0.502441,-71.762085,53.718563,244.560226,3.303955,0.681396,1.280518,249.961838,-91.354362,-41.084286
1.101074,0.552979,-0.52002,-62.767025,53.672787,249.618515,3.359131,1.210938,1.394775,249.992355,-9.19342,-29.678343
1.327393,0.544189,-0.535645,-50.811764,56.877132,249.992355,2.702393,1.402832,1.254395,245.033249,48.362728,-16.899109
1.539063,0.529541,-0.570313,-36.857605,60.920712,249.992355,1.559326,1.266846,0.866455,227.851852,61.462399,-16.983032
1.74585,0.471436,-0.619385,-21.14105,60.241695,249.992355,0.739502,1.095947,0.52124,211.013779,44.189449,-29.373167
1.935547,0.396973,-0.685303,-6.065368,50.376888,249.992355,0.381104,1.010742,0.327881,190.025314,26.649473,-45.021053
2.118408,0.342041,-0.814697,3.288269,28.099058,249.992355,0.18335,0.96875,0.19873,169.128403,11.741637,-52.8717
2.381592,0.321045,-0.987549,4.058838,-6.324768,249.992355,2.696533,0.389404,0.654053,243.720993,-88.821404,-114.906303
2.742676,0.452393,-1.164307,-3.585815,-46.386715,249.618515,-0.00293,-0.871582,0.114746,143.516541,-3.219604,-54.76379
3.165039,0.733887,-1.306641,-18.554688,-79.925537,249.992355,2.153564,0.593262,-0.07666,-170.524582,54.76379,82.298271
0.715088,0.545898,-0.46167,-77.758789,54.962154,234.771713,-0.291748,-1.049805,0.031982,118.827812,-38.978577,-47.241207
4.015381,0.786377,-1.435547,-46.051022,-129.470825,232.208237,2.610596,0.484863,0.099121,-175.575241,93.223564,105.720512
3.601318,0.892578,-1.391846,-31.127928,-100.379936,249.992355,2.854492,0.410889,0.096191,-175.804123,103.065483,116.798393
-0.248047,-1.429443,0.202393,-91.690056,-84.342949,63.354488,3.006348,0.312256,0.101318,-176.170334,107.124321,136.489868
0.188721,-1.368408,0.008301,-109.02404,-68.511963,52.345272,2.922852,0.251709,0.064941,-175.651535,90.690605,160.133362
0.99292,-1.382324,-0.213135,-115.867607,-37.574768,33.462524,2.726807,0.28418,0.022949,-176.34581,45.913692,180.679306
2.133545,-1.339111,-0.376709,-111.007683,-11.627196,23.002623,2.525879,0.262939,0.016113,-178.146347,-8.422852,189.842209
-0.505859,-1.545898,0.325928,-68.122864,-87.661736,61.866756,2.474609,0.207031,0.019531,-180.068954,-53.680416,196.662888
3.541016,-0.682617,-1.031494,-121.559135,-116.378777,88.127129,2.433105,0.148926,0.018066,-178.802475,-83.427422,204.582199
4.063721,-0.012695,-1.375732,-121.437065,-182.189926,102.119438,2.157471,0.117432,0.040039,-176.460251,-97.328178,199.546799
4.277588,0.50415,-1.485352,-85.58654,-175.003036,158.592224,1.678711,0.09668,0.0625,-171.264633,-93.833916,176.628098
3.034912,-1.156738,-0.667969,-110.229485,-37.750244,50.720211,1.300049,0.046875,0.099365,-164.085373,-76.766968,148.330688
0.793701,-0.136719,-0.186523,149.017334,72.990417,-153.259277,-0.155762,-0.976318,0.072266,133.262634,-21.804808,-50.300594
0.301514,-0.24292,-0.096924,105.506889,-22.750853,-113.945,0.692139,-0.121826,0.335449,-149.650574,-28.633116,104.194633
0.329102,-0.271729,-0.127441,108.131401,-15.762328,-118.019096,0.293701,-0.247314,0.296143,-136.795044,-12.367248,88.172905
0.361572,-0.270752,-0.151611,111.28997,-4.974365,-121.345512,-0.059814,-0.376709,0.246338,-116.973869,-6.591796,70.396423
0.409424,-0.256836,-0.160156,115.493767,7.545471,-123.802177,-0.284424,-0.49707,0.252197,-91.369621,-13.298034,49.148556
0.46875,-0.258789,-0.166016,120.346062,21.430967,-128.234863,-0.392334,-0.569824,0.210205,-66.299438,-30.09033,28.823851
0.530029,-0.254395,-0.168457,126.296989,35.980225,-133.491516,-0.473633,-0.596924,0.164551,-46.279903,-47.317501,11.901855
0.302246,-0.209961,-0.07373,103.309624,-24.024961,-111.686699,-0.547119,-0.645508,0.110352,-24.391172,-57.769772,-4.241943
0.59668,-0.219482,-0.177734,132.8125,50.193783,-137.718201,-0.584717,-0.768555,0.031494,4.798889,-63.491817,-20.233152
0.689697,-0.171387,-0.183105,140.037537,63.255306,-142.799377,-0.588623,-0.92334,-0.013428,38.18512,-65.078735,-31.059263
0.832275,-0.11084,-0.2146,157.943726,77.850342,-163.23851,-0.535889,-1.036865,-0.016357,70.94574,-60.913082,-37.940979
1.461914,0.111084,-0.394287,197.212204,105.88073,-187.667831,-0.42334,-1.068359,0.000977,98.518364,-52.452084,-44.082638
1.046143,-0.049805,-0.273926,175.994858,85.571281,-174.293503,1.044678,-0.033936,0.219238,-156.806946,-52.932735,122.75695
1.180908,-0.008545,-0.315918,184.555038,93.322746,-177.864059,2.141113,-0.164795,0.073242,130.821228,-108.306877,-151.46637
1.317627,0.051758,-0.360352,191.658005,101.554863,-181.571945,1.793457,-0.116943,0.098389,124.572746,-113.250725,-168.380722
1.592773,0.199707,-0.431885,200.004562,103.553764,-194.320663,1.467773,-0.106934,0.123047,120.834343,-105.796806,-182.411179
1.693848,0.291748,-0.481445,198.570236,91.140739,-199.638351,1.174805,-0.123535,0.15625,119.377129,-87.593071,-191.955551
1.785645,0.357422,-0.544189,194.473251,71.563721,-204.269394,0.612549,-0.131836,0.222168,115.234367,1.823425,-207.359299
1.851807,0.367676,-0.61084,188.636765,54.176327,-209.617599,0.793701,-0.128174,0.196777,116.409294,-36.308289,-200.248703
1.810303,0.343018,-0.651855,182.13652,41.290279,-209.907516,0.725098,-0.122803,0.195557,115.882866,-16.410828,-202.545151
1.693848,0.333008,-0.658447,175.392136,31.295774,-202.087387,0.665283,-0.127197,0.214355,115.531914,-3.547668,-205.352768
0.350098,-0.164551,-0.061279,101.799004,-21.453856,-109.809868,2.506104,-0.234619,0.05127,140.182495,-92.529289,-132.8125
0.920898,-0.074463,-0.239014,166.51152,80.482475,-169.029221,0.946777,-0.134766,0.18457,117.866508,-62.286373,-197.26561
0.439453,-0.11084,-0.083984,100.45623,-16.151428,-107.192986,2.828613,-0.266846,0.034424,153.297424,-67.581177,-114.18914
1.55249,0.335449,-0.642822,168.502792,20.843504,-191.253647,1.701172,0.417969,-0.303223,173.32457,-131.42395,-23.277281
0.671387,-0.00293,-0.149658,100.776665,-1.121521,-97.381584,2.897705,0.259277,-0.158447,177.246078,-4.348755,-41.847225
1.056396,-0.039063,-0.431885,-112.533562,45.387264,44.631954,2.523438,0.473633,-0.241211,172.965988,-19.767761,-27.44293
1.050537,-0.167725,-0.476807,-91.094963,58.265682,30.372618,2.164063,0.57666,-0.312012,169.746384,-51.643368,-25.360106
1.058105,-0.250977,-0.541748,-67.741394,71.990967,15.907287,1.844482,0.536377,-0.340332,167.27446,-93.635551,-25.901793
1.104004,-0.246582,-0.620117,-47.050472,90.576164,3.303528,1.639893,0.337891,-0.260498,185.890182,-145.072937,-19.561768
1.128662,-0.223145,-0.688232,-26.840208,107.612602,-8.743286,1.591797,0.328125,-0.261963,193.824753,-141.76178,-14.22882
1.160156,-0.183105,-0.725098,-9.57489,119.583122,-19.798279,1.46167,0.35791,-0.259521,195.693954,-137.138367,-5.271911
1.195068,-0.143799,-0.696045,6.309509,126.7929,-29.914854,1.26123,0.407959,-0.237793,193.504318,-137.626648,5.500793
1.212402,-0.127197,-0.635254,23.742674,127.822868,-38.459778,1.017822,0.451416,-0.218506,189.178452,-142.669678,14.328002
1.205322,-0.138428,-0.573242,43.319698,126.266472,-47.309872,0.560547,-0.147217,0.225342,115.188591,1.312256,-207.565292
1.175293,-0.140869,-0.510742,64.697266,125.205986,-56.632992,3.034424,-0.193604,0.00708,169.212326,-35.751343,-93.124382
0.565918,-0.059082,-0.12085,100.090019,-8.232117,-103.744499,0.48999,-0.164551,0.232178,114.112846,-3.303528,-207.115158
1.115234,-0.109863,-0.441895,86.906425,122.734062,-63.08746,0.809082,0.503662,0.13501,120.231621,99.105827,-145.484924
1.022461,0.0,-0.404053,117.385857,106.063835,-73.478699,0.354492,-0.149658,0.238037,111.381523,-8.255005,-204.864487
0.955566,0.068848,-0.410645,124.298088,87.448112,-76.179504,0.617188,0.098145,-0.374756,34.172058,-40.985104,-110.244743
0.912598,0.138428,-0.427979,126.014702,63.880917,-77.354431,0.785645,0.226807,-0.407227,34.751892,-50.094601,-125.633232
0.916748,0.195068,-0.439453,124.02343,40.748592,-78.414917,0.940918,0.357422,-0.442139,34.507751,-50.010677,-136.901855
0.940674,0.232422,-0.43457,120.780937,23.300169,-78.269958,1.048828,0.446045,-0.453369,36.773682,-41.824337,-145.385742
0.966064,0.246826,-0.429932,117.073051,13.702392,-77.270508,1.152832,0.492432,-0.443604,43.083187,-28.060911,-150.45166
0.987549,0.224609,-0.405029,113.273613,11.07788,-79.147339,1.226074,0.509766,-0.418213,52.963253,-11.489867,-151.428223
0.959229,0.179932,-0.349609,108.970634,11.314391,-83.984367,1.259766,0.531494,-0.360596,65.910339,5.233764,-151.435852
0.856689,0.13501,-0.276367,104.61425,9.399414,-87.524406,1.324951,0.598633,-0.272217,79.89502,25.184629,-149.780273
0.748047,0.071045,-0.202148,102.020256,4.79126,-90.705864,1.374512,0.710938,-0.193604,91.842644,54.496761,-142.448425
1.074951,-0.059082,-0.404785,104.766838,117.507927,-68.54248,1.323242,0.785645,-0.118164,98.205559,84.945671,-134.513855
1.42041,0.350098,-0.620361,160.781845,9.399414,-180.526718,0.417236,-0.165771,0.233887,112.190239,-8.399963,-206.153854
1.087891,-0.004639,-0.444336,-129.020691,29.754637,57.708736,1.180664,0.746826,-0.031982,105.308525,103.301994,-132.125854
1.338379,0.386719,-0.568115,144.111633,-11.390685,-169.395432,0.774414,0.452637,-0.188721,185.661301,-145.202637,19.065857
0.532471,0.490234,-0.654785,11.276244,39.894104,104.74395,0.679688,0.374512,0.193115,122.688286,93.284599,-154.441833
0.621826,0.471924,-0.659424,18.005371,39.848328,108.757011,0.630859,0.276367,0.204102,122.207634,83.801262,-160.255432
0.727295,0.436768,-0.668457,25.588987,32.501221,114.097588,0.551025,0.208252,0.204834,118.232719,73.974609,-166.236862
0.846924,0.409668,-0.688477,32.592773,19.14978,120.925896,0.433594,0.116943,0.209717,115.165703,65.505981,-174.362167
1.015625,0.421143,-0.755615,37.452698,2.372742,127.403252,0.376221,0.029297,0.220947,115.318291,54.359432,-182.922348
1.243652,0.467285,-0.863525,39.413452,-13.664245,132.362366,0.342041,-0.037354,0.231934,116.363518,40.313717,-190.689072
1.538574,0.522461,-1.000732,39.581299,-27.091978,135.025024,0.326904,-0.072754,0.233887,115.417473,23.994444,-195.693954
1.87915,0.646484,-1.130615,37.368774,-39.810181,133.972168,0.283203,-0.101807,0.243164,112.983696,9.208679,-199.676498
2.217041,0.870117,-1.236328,28.213499,-54.779049,130.912781,0.293701,-0.13208,0.24292,111.80114,-1.686096,-203.002914
2.562256,0.997559,-1.276855,13.298034,-74.85199,123.031609,1.006348,0.634521,0.052734,113.906853,104.705803,-136.34491
0.458984,0.485107,-0.649658,3.829956,25.184629,100.799553,0.648193,0.429932,-0.157959,183.204636,-142.555237,22.125242
2.86377,0.872314,-1.227539,1.564026,-101.135246,105.781548,3.07666,0.007568,-0.058105,179.077133,-10.353087,-67.169189
2.925537,0.101563,-1.04126,-5.79071,-115.737907,73.371887,0.52002,0.408447,-0.144775,171.096786,-131.698608,25.489805
2.668945,-0.253906,-0.925537,-8.041382,-84.815971,65.200806,2.442383,0.40625,-0.144531,-48.46954,56.28204,90.538017
2.23999,-0.466797,-0.725098,-3.356933,-58.013912,60.607906,2.708496,0.425537,-0.159668,-49.812313,81.657402,107.025139
1.770996,-0.547363,-0.497314,9.750366,-46.409603,58.79974,2.728027,0.338623,-0.130127,-50.86517,85.159294,130.073547
1.367676,-0.563477,-0.339355,22.766111,-39.657593,49.194332,2.600098,0.219971,-0.066162,-47.439571,55.633541,146.697998
1.055908,-0.600586,-0.240723,30.815123,-35.522461,30.273436,2.472168,0.217285,-0.04541,-44.776913,11.83319,154.86908
0.753174,-0.664063,-0.139404,37.42218,-35.743713,8.995056,2.448242,0.329102,-0.077148,-49.46899,-23.612974,158.226013
0.455811,-0.729492,-0.03125,45.3186,-39.451599,-9.391785,2.234131,0.386719,-0.105469,-55.14526,-34.599304,149.887085
0.216309,-0.786377,0.061523,55.763241,-43.060299,-25.398252,1.7854,0.306396,-0.075684,-52.803036,-26.56555,128.105164
0.053711,-0.849121,0.118164,67.909241,-43.991085,-40.214535,1.299316,0.169678,-0.054443,-46.249386,-14.694213,100.090019
2.990723,0.54126,-1.136475,-3.982544,-122.879021,85.868828,0.816162,0.021484,-0.053711,-37.391663,-4.829407,74.920654
0.322021,0.486084,-0.625977,-3.753662,-0.411987,95.977776,2.049316,0.360107,-0.10791,-46.997066,37.590027,79.788208
1.348145,0.372803,-0.591064,152.282715,-1.686096,-172.492966,0.42627,-0.105469,-0.052734,-25.291441,3.52478,55.27496
0.071289,0.471924,-0.546631,-10.726928,-41.343685,82.44323,0.032471,-0.238525,-0.037109,-1.014709,8.514404,26.756285
1.327881,0.371582,-0.54248,137.298584,-20.179747,-170.059189,-0.135986,-0.281982,-0.039307,10.154723,3.295898,12.565612
1.282471,0.348389,-0.498291,132.301331,-26.44348,-169.883713,-0.228271,-0.350586,-0.05127,23.124693,-7.484436,-0.778198
1.230225,0.331543,-0.43457,127.868645,-26.794432,-167.411789,-0.296631,-0.404053,-0.063721,36.705017,-21.972654,-13.397216
1.165527,0.314209,-0.370361,122.657768,-20.843504,-165.473923,-0.375977,-0.472412,-0.081299,51.780697,-33.920288,-28.602598
1.030762,0.309082,-0.322754,115.867607,-14.205932,-162.300095,-0.428955,-0.585938,-0.102051,70.892334,-39.299011,-46.340939
0.787842,0.308594,-0.283447,107.604973,-11.436461,-152.381897,-0.450684,-0.712402,-0.101074,94.604485,-39.291382,-64.064026
0.367432,0.308105,-0.190918,91.751091,-9.040833,-118.431084,-0.45874,-0.791016,-0.074707,118.301384,-35.934448,-78.720093
0.244385,0.301025,-0.154541,84.030144,-7.629394,-100.639336,-0.437256,-0.816406,-0.042969,138.778687,-31.166075,-90.637199
0.155273,0.289551,-0.132324,76.568604,-6.721496,-84.678642,0.569336,0.419434,-0.144043,178.565964,-138.031006,24.101255
0.057861,0.286377,-0.124268,69.43512,-6.301879,-68.67218,0.195801,-0.197021,-0.043945,-12.08496,8.987427,40.061951
0.548828,0.311523,-0.233887,99.655144,-10.307311,-136.695862,1.699463,0.351074,-0.055176,-42.823788,36.79657,66.711426
-0.054199,0.320313,-0.144531,54.855343,-1.426697,-35.438538,-0.360596,-0.812012,-0.016357,155.235291,-26.428221,-101.310722
-0.027344,0.293945,-0.130615,62.026974,-5.104064,-51.269527,1.196533,0.487305,0.00415,-29.319761,73.066711,57.022091
-0.133057,0.404297,-0.421875,-7.156372,-66.421509,67.710876,1.398926,0.411865,-0.017578,-36.987305,50.636288,58.212276
-0.244141,0.335205,-0.352295,-4.272461,-71.815491,59.700008,0.457031,0.413818,-0.159912,152.694702,-113.357536,34.484863
-0.321777,0.269775,-0.297363,1.190186,-65.925598,49.156185,0.375732,0.422363,-0.137695,140.823364,-104.499809,39.024353
-0.341064,0.25708,-0.258057,9.407043,-50.086971,38.047791,0.332031,0.424072,-0.112793,129.615784,-92.720024,43.273922
-0.036865,0.448975,-0.492432,-9.841919,-55.625912,75.172424,0.280273,0.434326,-0.097412,119.293205,-77.819824,48.263546
-0.239502,0.325684,-0.2229,26.931761,-10.498046,9.025574,0.255859,0.446045,-0.088379,108.123772,-64.628601,51.139828
-0.145752,0.342285,-0.203613,36.430359,0.465393,-6.29425,0.248291,0.458984,-0.08667,95.588676,-54.862972,53.245541
-0.081787,0.342529,-0.175537,46.188351,2.326965,-20.935057,0.259277,0.469482,-0.080322,82.710258,-48.294064,56.182858
-0.316162,0.290283,-0.236328,17.753601,-29.724119,24.467466,0.248291,0.47168,-0.068604,69.725037,-43.128963,58.586117
0.178467,0.477051,-0.59082,-8.369446,-23.54431,89.088432,0.229248,0.4646,-0.070068,57.815548,-38.970947,58.738705
0.083984,-0.654053,-0.238525,140.617371,3.105163,-70.777893,0.254883,0.447266,-0.084473,48.744198,-33.683777,57.052608
0.122803,-0.657959,-0.115723,21.026609,-54.100033,99.411003,0.500244,0.401855,-0.144775,163.192734,-122.51281,29.510496
-0.073975,-0.67334,-0.092041,28.572081,-63.621517,89.843742,0.36499,0.430664,-0.122803,35.247803,-15.945434,53.802486
-0.178223,-0.719238,-0.080811,39.94751,-66.169739,76.515198,0.441406,0.415039,-0.140381,30.288694,-3.486633,51.856991
-0.239258,-0.808105,-0.086914,54.420467,-63.568111,59.707638,0.535645,0.416748,-0.155762,26.31378,13.778686,50.849911
-0.26709,-0.897705,-0.113037,70.68634,-56.587215,42.274471,0.629639,0.421387,-0.152588,20.759581,36.605835,50.468441
-0.251221,-0.947754,-0.137451,88.096611,-45.776363,21.621702,0.714844,0.422607,-0.14917,15.983581,61.958309,50.23193
-0.182861,-0.946289,-0.132324,105.804436,-33.706665,-4.005432,0.7854,0.446289,-0.14624,11.177062,85.762016,49.247738
-0.11084,-0.883301,-0.133057,121.6278,-21.347044,-29.472349,0.860596,0.498779,-0.128662,4.096985,103.401176,49.415585
-0.021973,-0.77124,-0.170898,133.43811,-8.880615,-52.352901,0.924316,0.537109,-0.0896,-4.333496,111.785881,51.689144
2.209473,0.086914,-1.115234,162.040695,108.619682,-166.664108,0.979736,0.548584,-0.042969,-12.977599,108.863823,54.809566
0.489258,-0.49707,-0.442871,143.814087,42.877193,-103.042595,1.065674,0.535156,-0.001709,-21.682737,94.429008,56.732174
0.687012,-0.473145,-0.472412,141.792297,56.564327,-108.596794,0.299561,0.437988,-0.100098,41.923519,-25.733946,55.297848
0.89624,-0.487305,-0.48877,141.151428,68.374634,-114.181511,2.874268,1.429688,-0.250244,167.243942,38.818359,-67.199707
1.077148,-0.444092,-0.513428,139.541626,70.671082,-119.659416,1.157227,-0.802734,-0.088379,137.512207,166.679367,-248.657211
1.313232,-0.361328,-0.567139,139.282227,70.43457,-124.90844,0.884521,-0.848145,-0.098877,132.9422,162.002548,-228.660568
1.536377,-0.289307,-0.663574,140.846252,71.250916,-131.271362,0.613037,-0.885498,-0.098633,132.164001,156.661987,-198.440536
1.74707,-0.22998,-0.785889,144.195557,75.294495,-138.023376,-0.430176,-1.159424,-0.010986,117.462151,113.098137,-55.671688
1.955566,-0.178223,-0.907715,150.779724,85.510246,-146.186829,0.105713,-0.990967,-0.063477,136.764526,154.190063,-147.331238
2.126709,-0.09375,-1.009033,159.378052,101.776115,-155.410767,-0.07959,-1.057617,-0.032959,139.846802,156.288147,-124.038689
0.429443,-0.685547,-0.129395,17.486572,-38.513184,108.01696,-0.199707,-1.119385,-0.008545,139.656067,153.892517,-102.081291
0.193604,-0.572754,-0.312988,144.90509,15.769958,-84.32769,-0.30542,-1.155273,-0.002686,132.095337,139.892578,-79.360962
0.7854,-0.738281,-0.147949,14.625548,-20.904539,122.50518,0.342285,-0.929688,-0.089111,133.506775,153.450012,-171.852097
1.673584,-0.039795,-0.769287,-21.308897,-17.410278,174.926743,1.383301,-0.692871,-0.103027,139.884949,167.007431,-249.992355
1.397705,-0.848633,-0.335693,2.853393,6.088256,160.125732,2.742432,0.299316,-0.032959,67.276001,-32.203674,-249.389633
0.059082,0.648438,-0.067627,-63.484188,12.535094,5.332946,1.145996,0.479736,-0.217041,-110.771172,0.816345,68.084717
0.208984,0.630371,-0.05542,-71.769714,9.346008,16.494751,2.145508,-0.063965,-0.08374,93.193047,102.905266,-249.992355
0.369385,0.608887,-0.073975,-76.972961,9.353638,29.823301,2.416748,0.165039,-0.045654,78.033447,43.502804,-249.992355
0.528076,0.567627,-0.131104,-79.666138,12.321471,44.868465,3.15625,0.254639,-0.049316,69.869995,-100.547783,-249.992355
0.693359,0.505859,-0.22583,-81.504814,16.441345,61.294552,3.645508,0.137207,-0.044678,94.985954,-141.624451,-249.992355
0.827881,0.443115,-0.324219,-83.053581,18.936157,79.048157,3.981445,0.112793,-0.081787,139.457703,-157.913208,-220.756516
0.968262,0.374268,-0.41748,-83.290092,18.52417,95.405571,4.31543,0.406738,-0.147949,174.011215,-149.261475,-158.126831
1.124268,0.295166,-0.4646,-80.01709,19.264221,108.879082,4.469238,0.974609,-0.118408,173.400864,-79.872131,-100.112907
1.245117,0.224365,-0.500977,-71.731567,23.15521,122.497551,3.861328,1.398682,-0.155273,164.306625,11.741637,-74.493408
1.343994,0.157715,-0.545166,-59.066769,28.228758,137.611389,-0.576416,-1.113281,-0.041992,96.038811,78.651428,-31.501768
1.10498,-0.785645,-0.218994,9.292603,-4.989624,143.295288,1.618408,-0.497559,-0.119141,130.752563,158.866882,-249.992355
1.435547,0.104004,-0.600342,-46.165462,28.854368,152.47345,-0.701416,-1.007568,-0.101807,70.098877,43.891903,-6.584167
1.598389,-0.020264,-0.71167,-26.748655,4.112244,169.860825,2.483887,-0.4646,-0.175537,-119.674675,51.818844,206.375107
2.25,0.34375,-1.1521,155.212402,82.321159,-184.844955,-0.790039,-0.727539,-0.194824,21.263121,-5.363464,53.909298
1.773438,0.034912,-0.835938,-19.012451,-39.085388,178.199753,1.642578,1.198486,-0.19751,172.920212,4.798889,-71.289063
1.884277,0.109863,-0.903809,-19.691467,-57.441708,184.623703,1.343506,0.39917,-0.193115,-114.028923,8.995056,68.275452
2.050537,0.053955,-0.940674,-23.010252,-71.357727,195.632919,1.563477,0.350586,-0.176758,-117.324821,24.894712,68.855286
2.375977,-0.170898,-0.938232,-27.923582,-75.874329,193.183884,1.779053,0.331055,-0.1521,-123.550407,46.806332,72.509766
2.667969,-0.509033,-0.878906,-28.060911,-63.369747,168.548569,1.97583,0.303711,-0.133545,-132.263184,69.969177,79.185486
2.582275,-0.809326,-0.76709,-22.056578,-34.996033,150.794983,2.222656,0.248291,-0.120605,-138.717651,96.260063,88.645927
2.161133,-0.938721,-0.634521,-14.968871,-8.033752,157.272339,2.536621,0.188965,-0.083008,-142.921448,133.804321,100.044243
1.72876,-0.925049,-0.477539,-5.714416,6.225585,164.955124,2.84082,0.125732,-0.031006,-147.102356,185.66893,110.771172
1.522217,0.048096,-0.661377,-35.28595,20.507811,163.23851,3.025391,0.01709,0.015137,-147.727966,234.359726,124.679558
2.307129,0.517334,-1.123047,146.255493,23.91815,-207.672104,3.069092,-0.143799,0.015137,-142.021179,249.992355,142.250061
0.323486,-0.52832,-0.389893,145.942688,29.441832,-94.482414,-0.778564,-0.857666,-0.163086,44.647213,15.159606,21.39282
2.391602,0.448242,-1.024658,145.217896,-36.224365,-228.927597,2.972412,-0.341797,-0.034668,-132.278442,224.922165,162.498459
1.002441,0.293945,-0.331787,42.678829,-62.820431,54.222103,2.750977,-0.431396,-0.147461,-123.664848,99.540703,210.662827
1.062988,0.300049,-0.315674,35.476685,-89.897148,63.072201,2.126709,-0.525391,-0.180664,-110.427849,13.587951,199.424728
1.161133,0.312256,-0.330078,27.076719,-116.790764,71.022034,1.588379,-0.55249,-0.153809,-101.020805,-15.258788,198.928818
1.280029,0.33374,-0.392334,17.00592,-138.572693,77.697754,0.956787,-0.582764,-0.165527,-88.790886,-29.373167,198.310837
1.389648,0.365234,-0.500977,3.463745,-152.71759,84.045403,0.450684,-0.621338,-0.216064,-72.174072,-33.13446,193.008408
1.476563,0.413818,-0.644775,-15.563964,-161.132797,91.217033,0.054199,-0.635254,-0.248291,-54.51965,-29.823301,182.281479
1.546143,0.455322,-0.756348,-40.138245,-166.77092,97.908012,-0.216553,-0.634521,-0.245117,-38.772583,-26.420591,167.045578
1.613281,0.487549,-0.777832,-67.817688,-170.67717,103.118889,-0.431641,-0.623535,-0.241699,-25.337217,-25.688169,145.744324
1.677979,0.505371,-0.731934,-94.993584,-173.606857,106.559746,-0.595215,-0.612793,-0.235107,-13.397216,-24.749754,119.537346
1.719727,0.442383,-0.567383,-139.190674,-170.555099,111.099236,-0.717529,-0.64209,-0.209473,1.190186,-18.836975,88.294975
0.964355,0.297607,-0.355957,49.194332,-41.938778,45.1889,2.868652,-0.446533,-0.092773,-124.710075,162.86467,191.940292
1.677246,0.374268,-0.481445,-153.755188,-163.322433,114.105217,0.670898,0.956787,-0.098389,176.887497,-52.947994,-83.503716
1.49585,0.224854,-0.358398,-170.791611,-149.56665,111.373894,1.888916,-0.279053,-0.101563,111.404411,139.205933,-249.984726
1.334717,0.170166,-0.337891,-174.468979,-144.386292,107.803337,0.015869,0.777344,-0.014648,173.042282,-130.0354,-96.30584
1.135986,0.151611,-0.331055,-176.177963,-139.503479,107.254021,1.717529,0.146484,-0.658203,-25.665281,-54.336544,107.414238
1.018555,0.166992,-0.320801,-172.294601,-135.780334,106.50634,1.784912,0.015625,-0.666504,-16.670227,-71.136475,115.417473
1.016113,0.162354,-0.384033,-168.571457,-125.648491,103.118889,1.930908,-0.131836,-0.672607,-4.241943,-86.067192,127.014153
1.040039,0.140869,-0.494385,-166.030869,-103.47747,98.884575,2.052002,-0.273682,-0.6875,6.652832,-93.124382,143.249512
1.088623,0.074463,-0.543945,-160.263062,-69.320679,92.247002,2.090332,-0.381104,-0.68335,16.304016,-91.903679,161.804184
1.132813,0.022705,-0.55127,-153.236389,-29.823301,81.916801,2.027344,-0.409668,-0.644043,26.046751,-77.354431,176.788315
1.129395,-0.005615,-0.506348,-143.211365,5.1651,69.831848,1.897705,-0.389893,-0.584229,34.927368,-39.756775,186.241135
2.427246,0.250977,-0.894775,152.435303,-65.475464,-242.805466,1.776855,-0.362305,-0.546631,42.91534,9.498596,190.58226
1.598389,0.299805,-0.415283,-164.12352,-155.410767,114.936821,1.583984,-0.319336,-0.51416,48.408504,54.618832,189.941391
0.918213,0.318604,-0.370117,55.473324,-30.021666,36.201477,1.262695,-0.270752,-0.470703,48.46191,92.330925,181.64061
1.722168,0.489014,-0.659912,-119.377129,-174.316391,108.734123,1.711426,0.244141,-0.641357,-33.348083,-40.016174,101.409904
0.683105,0.373291,-0.324463,69.122314,-23.651121,17.913818,0.908691,-0.254395,-0.427002,45.684811,122.192375,164.726242
0.820801,0.346436,-0.360107,61.981197,-25.215147,27.381895,0.363037,-0.258545,-0.362305,47.767635,145.614624,120.704643
1.68335,0.160889,-0.599121,171.714767,-64.89563,-211.959824,0.179443,-0.252197,-0.360107,50.941463,142.913818,96.694939
1.232422,0.25293,-0.485352,179.672226,-50.193783,-174.949631,0.091797,-0.231689,-0.363037,51.101681,134.231567,74.287415
0.842041,0.355225,-0.421875,180.419907,-35.438538,-136.741638,0.055908,-0.191162,-0.375977,45.791622,118.263237,52.230831
0.5979,0.381592,-0.330078,177.925095,-23.178099,-110.54229,0.01709,-0.15625,-0.39209,37.666321,95.306389,28.022764
0.489258,0.355957,-0.175537,177.711472,-13.572692,-98.121635,0.014404,-0.145264,-0.38501,31.204222,69.099426,2.464294
0.38208,0.331055,-0.01123,177.597031,-6.912231,-92.559807,0.10083,-0.15332,-0.373047,28.877256,44.639584,-21.240232
0.218994,0.312012,0.119873,176.086411,-5.424499,-88.401787,0.20166,-0.14624,-0.366699,29.014585,23.483274,-42.678829
0.030518,0.310547,0.247559,174.468979,-6.935119,-81.497185,0.322998,-0.10791,-0.361084,30.59387,1.419067,-66.40625
-0.110107,0.318359,0.36377,173.774704,-6.370544,-72.479248,0.462158,-0.016357,-0.362549,32.501221,-22.354124,-89.630119
-0.210693,0.34375,0.398438,172.767624,-1.00708,-62.217709,0.614502,-0.259277,-0.384033,45.120235,139.793396,143.852234
-0.308594,0.374512,0.39624,169.677719,8.06427,-49.674984,1.703125,0.311035,-0.62085,-42.030331,-32.501221,97.236626
2.170166,0.144287,-0.758789,161.796555,-71.678162,-237.571701,0.225586,0.822998,-0.021729,178.031906,-101.84478,-92.231743
0.544189,0.387939,-0.270264,77.835083,-21.514891,7.698059,1.582031,0.375977,-0.587891,-58.509823,-42.304989,94.375603
-0.33374,0.373291,0.364014,160.606384,23.147581,-29.479979,1.653076,0.358398,-0.609131,-50.415035,-33.77533,95.077507
-0.280518,0.365723,0.320313,154.060364,30.303953,-25.779722,-0.06958,0.780518,-0.118164,151.252747,-115.104668,-90.942375
-0.204102,0.372314,0.2771,144.958496,34.713745,-24.513243,-0.013672,0.8479,-0.165039,137.489319,-71.258545,-85.365288
-0.145264,0.387695,0.228027,135.734558,32.875061,-23.277281,0.011719,0.934814,-0.200928,118.949883,-14.442443,-76.065063
-0.08667,0.409424,0.156738,126.15966,26.176451,-20.668028,-0.036621,1.017578,-0.22876,94.322197,37.452698,-61.340328
0.00708,0.411621,0.080566,116.752617,16.014099,-16.662598,-0.10498,1.070557,-0.275391,63.499447,71.495056,-43.05267
0.131348,0.410889,-0.009521,107.742302,4.226685,-12.71057,-0.174561,1.068115,-0.318359,31.707762,86.738579,-24.848936
0.271484,0.407959,-0.108154,97.877495,-7.217407,-8.171082,-0.206055,1.023193,-0.3396,5.40924,88.829033,-6.996154
0.408691,0.396973,-0.19458,87.7304,-16.235352,-1.441955,-0.169189,0.966797,-0.335693,-15.396117,84.930412,11.795043
-0.350098,0.381592,0.388184,165.405258,16.441345,-37.559509,-0.087646,0.916992,-0.298584,-34.606934,79.559326,32.836914
1.416748,0.031982,-0.669922,-65.452576,29.235838,219.535812,-0.013672,0.860352,-0.25,-54.13055,72.242737,52.467342
1.266113,0.120605,-0.675781,-77.285767,35.438538,215.621933,-0.086914,0.762207,-0.058838,162.689194,-135.238647,-95.085136
1.117676,0.195068,-0.642578,-87.631218,37.078857,211.311325,0.13501,0.69873,-0.196533,-89.637749,45.463558,83.816521
0.959961,0.275879,-0.547119,-98.159782,32.684326,205.726608,0.041504,0.790771,-0.214355,-74.005127,60.127254,69.229126
0.164795,0.799805,-0.151367,-118.675224,15.045165,156.440735,1.380859,0.379395,-0.532715,-77.926636,-74.935913,96.694939
0.674316,0.480957,-0.329834,-116.920464,17.105103,187.728867,1.230225,0.388428,-0.503906,-91.079704,-88.127129,99.555962
0.505371,0.598145,-0.247559,-122.177116,12.641906,178.932175,1.077881,0.408936,-0.473633,-102.584831,-92.575066,104.782097
0.331055,0.71167,-0.189697,-122.978203,12.557982,169.021591,0.92749,0.424805,-0.432373,-110.671989,-88.157646,109.916679
1.587402,-0.079834,-0.666016,-50.582882,22.857664,222.030624,1.50415,0.378662,-0.562256,-67.199707,-57.258602,94.863884
0.818115,0.376221,-0.433594,-108.367912,24.818419,197.250351,0.616943,0.449707,-0.325684,-117.698662,-49.789425,115.57769
1.753906,-0.192383,-0.687988,-33.966064,18.737793,223.548874,0.500732,0.486572,-0.270508,-113.929741,-19.142151,114.578239
2.331299,-0.218994,-0.884766,4.737854,0.999451,188.240036,0.404297,0.53418,-0.222656,-106.094353,9.155273,108.039848
2.013672,-0.365723,-0.808594,-8.56781,15.335082,223.228439,0.279785,0.600342,-0.196777,-98.655693,30.22003,96.67205
2.102539,-0.457275,-0.856689,-1.617432,14.381408,218.109116,0.774658,0.432861,-0.378662,-115.859978,-73.684692,113.372795
2.157471,-0.477295,-0.887451,2.250671,13.008117,209.678635,2.633301,-0.512695,-0.092285,-137.199402,142.601013,112.05291
2.222656,-0.374268,-0.88916,4.180908,9.140015,199.432358,1.695557,0.188477,-0.020996,-153.4729,68.145752,57.006832
2.485596,-0.165771,-0.934326,2.212524,-11.985778,174.659714,1.844482,0.160889,0.016602,-154.36554,79.391479,63.377377
2.659668,-0.257568,-0.988037,-3.990173,-26.420591,152.206421,1.946045,0.116699,0.027832,-155.731201,79.88739,69.038391
2.715576,-0.45459,-0.983643,-13.305663,-34.584045,120.445244,2.054932,0.054932,0.01001,-157.646179,69.534302,74.157715
2.508057,-0.64209,-0.879883,-23.750303,-39.360046,91.88842,2.216797,-0.010498,-0.016602,-159.454346,56.480404,80.986015
2.086182,-0.702881,-0.7229,-32.997131,-49.629208,79.833984,2.426514,-0.082031,-0.022217,-158.52356,60.699459,86.21978
1.640625,-0.648682,-0.555908,-38.665771,-61.614986,81.93206,2.621094,-0.163086,-0.01001,-155.662537,92.475883,90.354912
1.893555,-0.276367,-0.742188,-19.302368,16.555786,224.563583,2.695557,-0.306396,-0.024902,-149.284363,132.362366,98.472588
-0.001709,0.861572,-0.123291,-109.916679,18.547058,142.26532,1.514648,0.211182,-0.056885,-154.052734,50.186153,51.048275
1.35376,-0.602051,-0.395508,-40.191647,-63.140865,82.267754,1.453125,-0.556641,-0.17749,-89.393608,-1.76239,107.315056
-0.33667,0.892822,-0.074219,-80.780022,28.022764,110.229485,2.528076,-0.635254,-0.174316,-116.065971,11.787414,162.948593
2.572998,0.235107,-1.268066,127.723686,152.763367,-248.458847,2.2771,-0.587402,-0.222656,-111.79351,14.938354,145.126343
2.414063,0.460205,-1.321045,115.70739,115.676872,-249.992355,1.914063,-0.572998,-0.202881,-101.623528,13.046264,125.289909
2.306641,0.623047,-1.309814,96.191399,36.148071,-249.992355,1.003662,-0.562256,-0.203125,-73.493958,-14.694213,93.27697
2.261719,0.582031,-1.186768,81.520073,-47.431942,-249.992355,0.694092,-0.596436,-0.23291,-53.359982,-17.951965,87.905876
2.165527,0.404053,-0.994141,78.330994,-89.088432,-249.68718,0.45874,-0.624023,-0.235107,-31.974791,-10.627746,86.074821
1.966553,0.290039,-0.75293,82.809441,-86.532585,-249.992355,0.210938,-0.61792,-0.235352,-12.252807,1.983642,81.520073
1.729492,0.27832,-0.566406,83.709709,-65.681458,-249.992355,-0.0271,-0.59082,-0.238281,6.233215,12.565612,70.808411
1.321777,0.336182,-0.464355,76.591492,-53.108212,-234.397873,-0.255859,-0.582031,-0.250488,24.536131,16.975403,53.718563
0.761475,0.415527,-0.381836,68.649292,-49.011227,-206.672653,1.285156,0.240479,-0.071289,-155.49469,32.585144,46.180721
0.358154,0.471436,-0.297119,61.592098,-43.823238,-180.557236,2.526123,-0.693604,-0.159912,-123.916618,103.317253,133.049011
-0.176514,0.892822,-0.102051,-96.878044,22.888182,127.159111,1.046875,0.28125,-0.087646,-156.539917,22.369383,42.358395
0.12085,0.515625,-0.230957,54.13818,-35.171509,-156.341553,-0.171143,0.761719,-0.464355,18.569946,-47.996517,3.204345
-0.100586,0.563965,-0.031982,40.008545,-9.300232,-110.839836,0.662842,0.398438,-0.116211,-150.436401,16.50238,34.057617
-0.150635,0.550049,0.073975,34.332275,1.571655,-92.079155,1.95166,0.89917,0.765625,124.992363,146.057129,148.918152
-0.206299,0.513428,0.157471,29.548643,8.430481,-75.614929,0.818848,0.986328,0.345215,102.752678,103.919975,137.802124
-0.29126,0.512451,0.162598,24.032591,12.931823,-57.434078,0.161621,0.894531,0.139648,96.17614,54.76379,111.427299
-0.394531,0.543457,0.115967,15.159606,17.074585,-35.91156,-0.103271,0.805664,0.032471,99.44915,11.291503,82.954399
-0.478516,0.588135,0.071777,2.815246,21.293638,-11.20758,-0.221436,0.743408,-0.009277,102.462761,-22.02606,58.937069
-0.527832,0.647705,0.033447,-12.054442,25.901793,16.220093,-0.276611,0.703369,-0.029297,102.058403,-46.028133,40.763851
-0.526855,0.716309,-0.002686,-28.495787,30.883787,43.495174,-0.284912,0.686523,-0.05835,98.175041,-62.614437,28.930662
-0.486084,0.782715,-0.02124,-46.287533,33.599854,68.389893,-0.276123,0.684326,-0.109375,90.087883,-73.074341,19.989014
-0.432861,0.846436,-0.033936,-63.690182,32.333374,90.446465,-0.276611,0.692139,-0.182617,79.277039,-78.575134,12.954711
-0.024414,0.547363,-0.14209,46.516415,-22.796629,-132.8125,-0.270508,0.707031,-0.258301,67.03186,-78.300476,8.285522
2.632324,0.100098,-1.180908,128.02887,153.320313,-233.009323,0.850342,0.335205,-0.098145,-154.701233,17.974854,38.05542
1.192627,-0.634521,-0.229492,-35.095215,-51.101681,70.075989,-0.251709,0.744385,-0.343506,52.543636,-72.288513,4.707336
0.747559,-0.727783,0.036865,-15.304564,-35.484314,28.907774,-0.394531,-0.60498,-0.260254,43.182369,14.282226,34.637451
2.448242,-0.012695,-0.941162,202.842697,38.30719,-183.464035,-0.112061,0.754883,-0.488281,0.396728,-33.599854,4.608154
2.490723,0.067627,-1.01001,188.537582,-4.394531,-195.014938,-0.058594,0.751465,-0.496338,-19.432068,-19.493103,7.659912
2.526855,0.062988,-1.066895,175.598129,-36.781311,-203.155502,0.021973,0.777588,-0.484131,-40.946957,-5.554199,12.245177
2.438965,0.041504,-1.064209,166.534409,-44.654842,-202.087387,0.107422,0.816406,-0.428711,-63.774105,8.81958,16.967773
2.219238,0.084229,-0.97998,159.797668,-37.445068,-197.303757,0.175049,0.827393,-0.360596,-86.60125,22.132872,21.682737
1.896973,0.14624,-0.841309,154.418945,-30.609129,-193.260178,0.232178,0.789551,-0.276123,-108.245842,29.151915,26.344297
1.473389,0.223389,-0.639404,146.91925,-33.363342,-186.630234,0.295166,0.690918,-0.196533,-124.999992,28.20587,29.380796
1.090332,0.313232,-0.439453,135.284424,-42.572018,-178.977951,0.376465,0.570068,-0.14209,-135.772705,22.979734,30.34973
0.888916,0.376953,-0.256348,121.734612,-51.834103,-174.32402,0.495361,0.472656,-0.121582,-143.943787,18.173218,31.562803
0.786133,0.431152,-0.141113,108.345024,-55.13763,-171.768173,-0.222168,0.763916,-0.416016,36.04126,-61.454769,2.76947
2.427246,-0.147949,-0.863281,211.700424,64.117432,-173.301682,-0.450439,-0.634766,-0.253662,61.927792,5.401611,16.571045
0.678223,0.466064,-0.082275,96.282951,-47.653194,-169.563278,2.510986,-0.720459,-0.149414,-116.828911,41.130062,157.875061
0.300049,0.456055,0.027588,79.429626,-14.35852,-163.200363,-0.51123,-0.671143,-0.246826,80.505363,-6.584167,-2.304077
0.045898,0.467285,0.047852,71.533203,2.357483,-150.001526,2.671631,0.848145,0.837891,184.593185,-170.074448,-61.386105
-0.222168,0.510742,0.083252,64.247131,17.799377,-130.523682,2.070557,0.943115,0.717041,178.718552,-194.457993,-35.53009
-0.410156,0.571533,0.086914,53.37524,28.213499,-107.055656,1.480957,0.986572,0.583496,172.416672,-203.918442,-19.966125
-0.524658,0.625,0.07251,38.352966,32.119751,-84.991447,1.051514,0.995361,0.444092,165.328964,-198.65416,-11.375426
-0.598633,0.6604,0.057373,20.530699,31.234739,-64.620972,0.830566,0.996582,0.300293,157.463074,-184.463486,0.968933
-0.57373,0.693115,0.015381,2.204895,27.938841,-45.272823,0.647461,1.012451,0.161377,148.384094,-163.230881,15.914916
-0.459473,0.705322,-0.050049,-16.639709,24.108885,-28.381346,0.431152,1.040039,0.002686,139.266968,-135.795593,26.924131
-0.278076,0.695068,-0.088135,-35.163879,20.698545,-14.701842,0.210449,1.081787,-0.149902,129.653931,-106.094353,31.509398
-0.099121,0.668457,-0.088867,-51.246639,17.028809,-4.272461,0.013672,1.137695,-0.278076,116.409294,-79.956055,31.028746
0.515869,0.458008,-0.008789,87.074272,-31.181334,-168.457016,-0.114014,1.205078,-0.423584,83.526604,-51.177975,38.345337
2.337402,-0.260254,-0.777344,212.432846,69.786072,-164.024338,3.289551,0.689209,0.887451,190.96373,-134.597778,-88.531487
1.024902,-0.700928,-0.067627,-25.05493,-36.994934,49.491879,-0.127686,1.241699,-0.425049,62.995907,-45.539852,48.675533
2.015381,-0.325195,-0.620361,200.279221,67.901611,-150.611877,-0.16626,1.246338,-0.364258,10.681151,-34.77478,61.347958
2.186523,-0.308838,-0.700439,207.588181,68.397522,-156.539917,-0.117676,1.189209,-0.364258,-13.618468,-31.486509,62.408443
0.408203,-0.715576,0.094727,-6.576538,-48.286434,12.138366,-0.025391,1.099121,-0.377686,-33.607483,-28.182981,62.065121
0.109619,-0.690918,0.130859,2.723694,-67.459106,-0.434875,0.080566,1.001709,-0.384033,-50.437923,-23.590086,60.630795
-0.109619,-0.683105,0.153564,14.495849,-84.594719,-9.773254,0.209473,0.899414,-0.385986,-63.720699,-17.532349,58.990475
-0.267578,-0.700928,0.162598,29.052732,-96.504204,-17.356873,0.403564,0.796143,-0.379883,-74.546814,-10.940551,59.020992
-0.371826,-0.726318,0.138672,44.891354,-102.97393,-25.207518,0.605469,0.701172,-0.348877,-84.693901,-6.256103,61.355587
-0.415771,-0.749023,0.083008,60.501095,-104.461662,-34.828186,0.789063,0.62915,-0.315674,-95.191948,-3.974914,64.193726
-0.383545,-0.799805,-0.058838,91.110222,-92.452995,-59.486385,0.971436,0.560303,-0.267334,-104.667656,-2.792358,66.757202
-0.326172,-0.753418,-0.130615,107.185356,-77.331543,-69.465637,-0.585205,-0.742676,-0.257568,100.090019,-17.539978,-21.980284
-0.241943,-0.662354,-0.205322,122.909538,-54.336544,-77.651978,-0.159668,1.260498,-0.382568,37.734985,-39.680481,57.098385
-0.15918,-0.559814,-0.280762,138.137817,-28.640745,-85.327141,3.832764,0.456299,0.866455,199.218735,-97.900383,-118.774406
-0.412598,-0.783203,0.01416,75.3479,-100.891106,-46.966549,-0.093506,1.173828,-0.375732,100.296013,-61.576839,31.936644
0.015381,-0.392334,-0.387451,155.441284,12.84027,-102.172844,4.145264,-0.163086,0.731689,215.91185,-68.336487,-200.592026
0.124023,-0.315918,-0.370605,162.796005,26.977537,-109.016411,4.142822,0.149414,0.793457,210.128769,-74.34082,-156.616211
0.248047,-0.284912,-0.357422,167.884811,37.92572,-111.518852,-0.633301,-0.917969,-0.273438,140.74707,-27.229307,-50.60577
1.828857,-0.344238,-0.563232,192.131027,68.374634,-143.943787,-0.584473,-0.986084,-0.259766,158.073425,-22.117613,-55.854794
0.395996,-0.287109,-0.38623,170.753464,45.585629,-112.129204,-0.499512,-1.024902,-0.23877,173.44664,-6.660461,-61.546322
0.5896,-0.302734,-0.433594,172.256454,51.23901,-113.403313,-0.387207,-1.051025,-0.204346,186.225876,16.517639,-70.083618
0.816895,-0.325195,-0.480469,173.469528,56.083675,-116.363518,-0.253906,-1.082275,-0.153809,195.480331,47.149654,-78.125
1.061035,-0.344971,-0.517334,175.33873,60.714718,-121.086113,-0.089355,-1.115479,-0.106689,202.072128,80.558769,-86.708061
1.324463,-0.354004,-0.543945,178.977951,65.132141,-127.342216,0.061768,-1.140381,-0.057861,205.154404,112.838737,-95.863335
1.598633,-0.355225,-0.551025,184.699997,68.099976,-135.528564,0.197266,-1.150635,0.00415,204.57457,140.457153,-108.116142
-0.076904,-0.466309,-0.352783,148.551941,-5.813598,-92.987053,0.369385,-1.142334,0.074951,199.562057,158.508301,-122.688286
0.908203,0.375488,-0.237793,88.790886,61.126705,-136.375427,0.546875,-1.128418,0.160645,188.995346,164.474472,-136.665344
1.326416,0.361816,-0.320313,100.669853,36.575317,-144.226074,0.702393,-1.15625,0.255371,175.918564,158.859253,-150.932312
1.602539,0.359131,-0.391602,108.177177,-4.234314,-148.887634,-0.633057,-0.832764,-0.273926,120.87249,-24.559019,-39.1922
2.107422,0.574219,-0.616943,160.705551,-46.241756,-172.523483,3.924805,-0.398682,0.747803,210.281357,-74.234009,-238.311752
1.997803,0.439209,-0.531738,119.285576,-71.586609,-165.092453,1.11792,-1.462646,0.55249,171.226486,108.428947,-181.465134
2.080811,0.495605,-0.594971,128.662109,-84.228508,-170.005783,1.42041,-1.561523,0.691895,183.670029,70.838928,-198.120102
2.105713,0.54834,-0.626953,142.616272,-74.790955,-172.500595,1.762695,-1.491699,0.773682,192.886337,30.982969,-215.423569
0.522949,0.381104,-0.150391,77.522278,68.695068,-121.704094,2.095215,-1.270752,0.793701,193.054184,-7.286071,-233.314499
1.82666,0.388184,-0.460449,113.05999,-42.984005,-157.066345,2.425293,-0.973389,0.777832,184.371933,-41.717525,-247.16185
0.273438,0.382568,-0.078369,68.382263,67.672729,-105.133049,2.793701,-0.710205,0.768311,173.217758,-71.212769,-249.992355
-0.192383,0.335449,-0.177734,-33.401489,-37.521362,72.58606,3.148438,-0.562988,0.814697,171.272263,-91.361992,-249.725327
-0.028564,0.408691,-0.01709,47.401424,47.20306,-72.715759,3.446045,-0.526367,0.841064,182.243332,-96.16851,-249.992355
-0.155518,0.402344,-0.012695,36.506653,31.669615,-54.38232,3.687744,-0.50708,0.808105,197.143539,-87.120049,-249.992355
-0.246582,0.392334,-0.016602,26.05438,17.593384,-34.950256,0.877197,-1.283936,0.388916,167.869553,140.174866,-165.710434
-0.294434,0.383545,-0.034668,15.762328,6.54602,-15.571593,0.010986,0.648193,-0.152832,86.97509,-62.637325,32.76062
-0.303711,0.380615,-0.065674,6.111145,-1.075745,3.211975,0.018311,0.687012,-0.121826,102.485649,-66.314697,36.758423
-0.29834,0.377441,-0.085205,-2.738952,-7.041931,19.699097,0.075928,0.708496,-0.076172,117.988579,-67.962646,41.244503
-0.295898,0.380127,-0.10376,-11.154174,-14.450072,34.584045,0.194092,0.70874,-0.006592,132.530212,-67.909241,45.249935
-0.284424,0.378418,-0.125732,-19.180298,-23.620604,48.645016,1.277344,0.557129,0.505615,204.559311,-65.925598,44.822689
-0.255127,0.362793,-0.14917,-26.718138,-32.00531,61.492916,0.493652,0.668457,0.198975,161.499008,-59.745785,47.523495
2.073975,0.579102,-0.580078,179.832443,-9.887695,-168.624863,0.721924,0.635742,0.32251,177.268967,-54.054256,46.363827
0.10791,0.400391,-0.043213,58.349606,60.050961,-89.065544,0.970947,0.593994,0.423828,192.306503,-54.458614,44.822689
1.986084,0.560547,-0.528809,197.227463,23.361204,-162.956223,0.017578,0.619629,-0.164307,71.914673,-56.350704,30.525206
0.580078,-0.169922,0.057373,204.376205,20.950315,-149.726868,0.324219,0.692383,0.090332,146.697998,-65.1474,47.401424
1.791504,0.394287,-0.417236,222.351059,73.188782,-159.637451,0.040283,0.615234,-0.155029,55.107113,-49.499508,29.670713
-0.109131,0.311768,-0.202148,-37.956238,-36.460876,81.565849,0.37915,0.596924,-0.081055,-50.308224,-53.779598,27.435301
0.709229,0.047363,-0.132568,119.964592,27.557371,-124.328606,0.099121,0.651611,-0.138672,15.937804,-43.54858,29.563902
0.69751,-0.017578,-0.078613,124.160759,26.077269,-133.842468,0.130127,0.64917,-0.130859,-3.234863,-47.286983,29.33502
0.636963,-0.076172,-0.027344,129.432678,22.598265,-144.439697,0.193604,0.634766,-0.111816,-20.584105,-51.513668,29.098509
0.522217,-0.124756,0.015869,135.314941,16.75415,-152.175903,0.281494,0.612305,-0.096436,-35.903931,-54.733273,28.434752
0.390381,-0.15625,0.053223,142.250061,9.078979,-156.044006,0.486816,0.577393,-0.073242,-62.599178,-48.515316,26.596067
0.289551,-0.202393,0.081543,150.924683,1.548767,-156.692505,0.588379,0.541992,-0.069824,-71.327209,-38.406372,24.024961
0.238037,-0.229004,0.089111,159.385681,-2.159119,-154.037476,0.709229,0.486328,-0.059326,-75.904846,-21.743773,20.431517
0.263428,-0.233154,0.0896,167.976364,0.854492,-151.054382,0.875488,0.416992,-0.045166,-76.187134,2.464294,18.52417
0.319824,-0.227051,0.085205,176.666245,8.224487,-150.146484,1.070801,0.356934,-0.036377,-72.952271,38.314819,18.4021
1.873535,0.497803,-0.477295,211.708054,51.284786,-159.095764,1.224854,0.348389,-0.016602,-69.236755,83.602898,18.035889
0.377441,-0.231445,0.077881,184.677109,16.304016,-150.802612,0.07251,0.632813,-0.144287,36.170959,-44.219967,29.403685
0.469238,-0.202148,0.068848,198.39476,21.568296,-150.039673,1.754395,0.523193,0.602539,214.813217,-83.984367,42.213436
0.715332,-0.129639,0.032715,210.296616,22.796629,-149.986267,1.303711,0.368896,0.032959,-68.191528,122.894279,19.15741
0.872314,-0.080322,-0.000977,216.896042,28.900145,-150.07019,2.420898,0.388184,0.782471,237.503036,-118.515007,14.183043
1.057129,-0.028076,-0.056152,222.625717,39.718628,-150.947571,0.158691,-0.452148,0.240967,182.342514,-7.438659,-153.915405
1.230225,0.006104,-0.11499,228.202805,53.100582,-152.580261,0.17334,-0.440918,0.265137,193.878159,-12.863158,-164.459213
1.373291,0.030762,-0.167725,232.246384,66.001892,-152.748108,0.193604,-0.431396,0.301514,203.697189,-20.233152,-172.485336
1.526123,0.079346,-0.220947,234.458908,77.354431,-153.770447,0.243652,-0.429932,0.341553,212.730392,-28.137205,-179.138168
1.659424,0.123291,-0.274658,236.038193,88.645927,-156.616211,0.338623,-0.42749,0.375977,220.680222,-34.675598,-182.76976
1.704102,0.174805,-0.327393,234.56572,93.376152,-157.485962,0.443604,-0.416748,0.390137,228.378281,-39.337158,-184.967026
1.755127,0.280273,-0.371582,229.682907,88.35601,-158.676147,0.521973,-0.396729,0.396973,235.107407,-41.961666,-185.089096
0.412598,-0.234863,0.068848,191.833481,21.377562,-151.390076,0.622803,-0.384521,0.414551,241.897568,-45.249935,-183.28093
0.700928,0.119385,-0.153809,117.225639,29.220579,-119.216911,0.755127,-0.376953,0.451904,248.496994,-48.767086,-181.144699
-0.019531,0.29126,-0.220703,-41.114803,-30.494688,88.767998,0.927734,-0.374512,0.498535,249.992355,-50.277706,-178.87114
0.154541,0.246582,-0.240479,-39.520264,-13.130187,97.663872,1.133789,-0.368408,0.557861,249.992355,-48.072811,-175.933823
0.083984,-0.529053,-0.036133,100.234978,-0.267029,-32.043457,1.375,-0.354736,0.621582,249.992355,-42.449947,-172.874435
-0.051758,-0.539063,-0.045166,106.712334,-3.227234,-44.097897,1.624756,-0.328857,0.687256,249.992355,-34.484863,-169.692978
-0.118652,-0.54541,-0.06958,112.442009,-6.935119,-52.978512,1.868652,-0.294678,0.751221,249.992355,-27.084349,-166.252121
-0.110107,-0.554688,-0.106934,117.057793,-8.789063,-61.096188,2.092285,-0.258301,0.8125,249.992355,-25.634764,-160.797104
-0.05127,-0.568359,-0.142334,120.086662,-9.025574,-71.044922,2.283203,-0.234375,0.874756,249.992355,-34.355164,-151.550293
0.024902,-0.583008,-0.165039,122.215263,-8.44574,-81.848137,2.448242,-0.22583,0.933105,249.992355,-51.330563,-138.298035
0.087158,-0.581299,-0.198975,124.084465,-5.28717,-90.904228,2.625244,-0.216064,0.998535,249.992355,-70.098877,-121.551506
0.158203,-0.56958,-0.27002,125.801079,2.212524,-97.846977,2.785645,-0.173828,1.051025,249.992355,-86.875908,-101.280205
0.243652,-0.54541,-0.361328,126.350395,13.96942,-103.790276,2.878174,-0.078857,1.069336,249.923691,-101.692192,-74.195862
0.328125,-0.513428,-0.449707,125.274651,28.411863,-109.138481,2.87793,0.051514,1.043945,249.992355,-116.470329,-42.8009
0.250488,-0.517822,-0.035889,92.102043,-0.50354,-15.747069,2.770996,0.186035,0.992188,249.992355,-128.242493,-16.494751
0.421387,-0.479004,-0.52832,121.635429,42.510983,-113.883965,2.617188,0.303711,0.899414,247.131332,-129.447937,0.968933
0.678955,-0.499268,-0.514893,108.726494,54.656979,-125.755302,2.161133,0.462891,0.677246,226.066574,-101.570122,29.571531
0.869629,-0.548584,-0.434814,105.49926,57.723995,-133.621216,0.159668,-0.452393,0.220703,169.03685,-3.952026,-139.564514
1.075928,-0.559814,-0.436768,105.36956,64.582825,-141.891479,1.319336,0.375732,0.064941,-69.869995,142.01355,23.468016
1.293457,-0.499268,-0.512695,105.606071,75.22583,-149.864197,1.46167,0.261719,-0.029297,-73.684692,130.531311,32.447815
1.519287,-0.38916,-0.600342,106.582634,87.10479,-157.409668,0.023682,-0.915527,0.185791,164.649948,-28.45001,-155.685425
1.758545,-0.251221,-0.700439,109.138481,96.17614,-166.084274,0.105469,-0.859375,0.215332,164.695724,-18.600464,-160.484314
2.04126,-0.117188,-0.824219,112.251274,105.12542,-178.115829,0.184814,-0.818604,0.25,163.833603,-12.496947,-164.680466
2.333496,-0.015381,-0.955566,116.775505,119.453423,-192.993149,0.25708,-0.803223,0.27832,163.215622,-11.19995,-169.746384
2.560059,0.037842,-1.074219,123.069756,138.542175,-211.311325,0.351563,-0.812256,0.332031,164.581284,-14.320373,-176.086411
0.08252,0.263184,-0.232178,-41.481014,-21.39282,94.16198,0.475586,-0.812256,0.412354,167.129501,-19.950867,-182.853683
0.534912,-0.469482,-0.557129,115.272514,51.61285,-119.079582,0.638184,-0.782959,0.500244,168.487534,-24.642942,-190.170273
0.450195,-0.504395,-0.051514,82.283012,-3.471374,2.761841,0.852783,-0.736816,0.579102,167.213425,-24.703978,-197.273239
0.712891,0.205322,-0.157471,115.005486,32.089233,-119.575493,1.108643,-0.715088,0.663818,165.107712,-17.753601,-202.583298
0.785889,-0.397461,-0.140381,59.867855,-21.316526,44.68536,1.374756,-0.750488,0.761963,164.306625,-5.889892,-205.017075
0.655518,-0.464844,-0.098145,71.411133,-9.262085,23.03314,-0.054932,-0.963867,0.149902,162.048325,-40.641781,-149.604797
0.398682,0.220947,-0.299316,-34.713745,-3.768921,104.11071,1.637939,-0.812012,0.844727,164.031967,6.080627,-204.147324
0.513184,0.19458,-0.3479,-31.173704,0.419617,107.177727,2.318359,-0.885498,1.017334,163.49028,8.888245,-185.836777
0.617432,0.159912,-0.399414,-27.809141,0.900268,109.458916,2.723633,-0.901855,1.111084,154.556274,-16.601563,-162.322983
0.730713,0.152832,-0.447998,-24.642942,-0.732422,112.014763,3.04126,-1.062256,1.302246,144.676208,-73.814392,-127.326958
0.875977,0.185059,-0.487793,-21.820066,-2.067566,115.997307,3.358643,-1.446289,1.57251,151.947021,-146.026611,-79.76532
1.054199,0.201172,-0.5271,-17.654419,-1.113892,119.461052,3.731689,-1.743164,1.731689,167.129501,-195.060715,-23.590086
1.203857,0.197266,-0.583984,-12.96997,-2.281189,122.535698,3.98999,-1.663818,1.817627,169.937119,-197.944626,35.095215
1.383301,0.196777,-0.64917,-9.979248,-6.187438,124.450676,4.066406,-1.320557,1.833984,179.229721,-149.520874,90.026848
1.586182,0.173584,-0.72168,-7.972717,-7.629394,123.344414,4.187988,-0.691895,1.760254,182.113632,-52.536007,120.903008
1.784668,0.151611,-0.808838,-5.638122,-3.128052,120.651237,3.998291,0.04126,1.535645,164.466843,72.769165,126.022331
0.266846,0.24292,-0.263184,-37.857056,-8.94165,101.181023,3.212158,0.564697,1.161377,147.171021,147.796631,137.283325
2.167236,0.39209,-0.873291,-4.714966,-6.523132,109.138481,1.939697,-0.862305,0.918945,164.093002,13.015746,-198.913559
2.381592,0.569336,-0.84082,-8.651733,-27.19116,99.304192,-0.119141,-0.996338,0.103516,155.654907,-53.367611,-143.089294
2.631348,0.548584,-0.782227,-11.016845,-50.743099,82.344048,1.349609,0.339355,0.041992,-72.639465,142.051697,28.015135
2.764893,0.311768,-0.730469,-7.102966,-63.20953,61.271664,-0.208496,-0.973389,0.012939,133.300781,-76.011658,-129.570007
2.640137,0.026123,-0.657715,1.098633,-59.791561,50.186153,1.633301,0.156738,-0.11499,-73.379517,110.79406,38.230896
2.31665,-0.154785,-0.584961,7.293701,-52.223202,46.989437,1.919189,0.029297,-0.171875,-70.533752,91.598503,45.417782
1.906982,-0.234131,-0.495361,11.19995,-51.910397,46.165462,2.278564,-0.084717,-0.197021,-66.78772,86.174004,60.218807
1.479004,-0.244629,-0.388916,16.586304,-58.853146,51.498409,2.47998,-0.21582,-0.232666,-64.971924,87.837212,82.977287
1.13208,-0.231201,-0.293457,25.276182,-61.592098,60.028072,2.490723,-0.438721,-0.229248,-58.097836,82.405083,111.061089
0.922852,-0.248779,-0.228027,36.231995,-54.038998,65.536499,2.455811,-0.613281,-0.154053,-42.854305,61.454769,139.923096
0.837158,-0.312012,-0.182617,48.095699,-38.68866,61.19537,2.446045,-0.434326,0.152588,-24.658201,-0.747681,157.081604
1.97583,0.209717,-0.867188,-3.677368,1.197815,116.264336,2.363037,-0.195557,0.199951,-34.805298,-8.720398,163.192734
2.002197,0.257324,-0.800537,139.762878,24.009703,-148.31543,1.874512,-0.047119,0.128906,-44.43359,-2.655029,151.794434
1.799805,0.241699,-0.780273,130.104065,27.503965,-136.84082,1.230957,-0.034424,-0.015137,-41.419979,12.443542,121.383659
1.598145,0.167969,-0.720947,123.573296,34.317017,-127.845757,2.445557,-0.623047,0.000977,-26.725767,26.145933,153.160095
0.354248,-0.533447,-0.302246,116.867058,42.16003,-111.1679,0.324219,-0.195313,-0.208496,-16.181946,25.070189,49.781796
1.107666,-0.071533,-0.563232,115.921013,42.984005,-110.527031,0.742432,-0.099609,-0.133545,-30.838011,24.162291,85.762016
0.843506,-0.215332,-0.487305,114.509575,45.577999,-106.460564,-0.253174,-0.849854,-0.067627,104.042046,-83.366386,-110.847466
0.64502,-0.365967,-0.427979,114.265434,47.45483,-105.850212,-0.268799,-0.776123,-0.104492,88.60778,-81.741325,-97.503654
0.479248,-0.457275,-0.369385,116.012566,46.234127,-107.559196,-0.284424,-0.696289,-0.129639,73.295593,-74.752808,-82.298271
1.375,0.05542,-0.642822,118.865959,39.848328,-118.629448,-0.293945,-0.620361,-0.139648,58.79211,-60.401913,-66.230774
2.205322,0.247803,-0.760986,152.633667,24.459837,-164.604172,-0.232422,-0.917725,-0.029053,118.713371,-81.504814,-121.314995
1.602539,0.444092,-0.228271,192.497238,-34.957886,-219.100937,-0.214844,-0.484131,-0.207275,33.27179,-17.356873,-30.479429
2.474854,0.462402,-0.609131,176.246628,9.597778,-200.843796,-0.137695,-0.408691,-0.26123,19.081116,1.968384,-10.490417
2.549805,0.591797,-0.513672,181.518539,-10.45227,-219.757065,0.021729,-0.305908,-0.264893,1.869202,16.12854,15.86914
2.487793,0.600098,-0.424316,185.867294,-27.023314,-237.564072,-0.263428,-0.54834,-0.158447,45.280453,-39.680481,-48.698421
2.139404,0.517578,-0.322021,190.574631,-33.676147,-238.693222,-0.16748,-0.998535,0.05957,146.026611,-66.123962,-136.306763
1.174072,0.397949,-0.147461,187.980637,-36.476135,-194.541916,3.117188,0.813477,0.959229,197.669968,-228.569016,-149.971008
0.863037,0.371582,-0.043213,178.573593,-40.679928,-172.340378,1.588867,-0.827148,0.587646,63.911434,45.982357,-245.559677
0.560791,0.375488,0.035156,166.458115,-48.385616,-152.145386,1.960449,-0.845459,0.570068,75.09613,-12.107848,-249.992355
0.285156,0.387939,0.056152,151.473999,-57.052608,-134.986877,2.369141,-0.847412,0.564453,95.252983,-78.163147,-249.832138
0.097656,0.37207,0.108154,135.696411,-65.544128,-119.842522,2.787598,-0.782471,0.590576,120.223991,-149.19281,-249.977097
0.275146,-0.600342,-0.233154,115.013115,36.109924,-112.915031,3.1604,-0.612061,0.649902,141.777039,-214.660629,-249.992355
-0.033936,0.354248,0.141602,121.574394,-71.060181,-104.400627,3.423096,-0.366699,0.723877,153.961182,-248.062119,-244.01091
2.369141,0.308105,-0.690918,166.343674,22.209166,-183.357224,3.502441,-0.107178,0.834229,165.710434,-249.526962,-218.605026
0.213379,-0.671143,-0.158936,110.725395,31.677244,-110.687248,3.418945,0.160889,0.920898,183.219894,-249.992355,-192.001328
0.258301,-0.838867,-0.026123,-18.348694,-95.6726,91.979973,3.30957,0.481445,0.949219,195.617661,-249.992355,-171.066269
0.205322,-0.817139,-0.23291,98.648064,26.931761,-86.730949,0.477295,0.891357,-0.323975,69.618225,-39.131165,-44.952389
-0.112305,0.338623,0.14917,108.726494,-73.318481,-89.195244,1.334473,1.295898,0.6521,194.885239,-154.312134,-121.170036
2.056396,0.671631,-1.157959,-61.44714,-128.898621,231.170639,0.840576,1.320313,0.56958,189.079269,-150.413513,-119.186394
2.401855,0.565674,-1.186768,-68.79425,-143.936157,236.57988,0.548096,1.296631,0.467773,178.222641,-150.367737,-116.043083
2.719238,0.297852,-1.189941,-70.007324,-138.130188,232.284531,0.384033,1.244873,0.330811,166.633591,-150.695801,-110.755913
2.935303,-0.010986,-1.172607,-71.342468,-127.136223,209.564194,0.313477,1.195557,0.174316,156.028748,-147.026062,-104.125969
2.896729,-0.290527,-1.109863,-76.515198,-120.315544,178.581223,0.288818,1.169434,0.013184,141.88385,-135.574341,-96.336357
2.593994,-0.528564,-0.982422,-84.358208,-117.164604,154.815674,0.321289,1.133789,-0.127686,123.39782,-115.69976,-85.083
2.147461,-0.690674,-0.780029,-90.774529,-118.011467,143.058777,0.39502,1.062256,-0.225098,104.766838,-89.538567,-71.090698
1.686035,-0.754395,-0.537598,-90.095512,-122.306816,138.328552,0.457275,0.972656,-0.284424,87.60833,-62.416073,-57.472225
1.309326,-0.762451,-0.330078,-81.352226,-125.190727,133.811951,1.26123,-0.833496,0.604492,60.745235,98.94561,-227.600082
0.194824,-0.745361,-0.150391,104.721062,29.190062,-102.394096,2.672363,1.063477,0.891602,196.044907,-190.864548,-133.407593
1.008789,-0.766602,-0.18457,-67.9245,-121.261589,126.373283,0.95459,-0.858887,0.600098,62.484737,148.414612,-204.986557
0.474121,-0.812988,-0.032471,-34.469604,-102.561943,106.307976,-0.223877,-0.722412,-0.285156,58.181759,24.696348,49.041744
0.06958,-0.875977,-0.064453,-3.700256,-92.735283,75.630188,0.521484,-0.980225,0.508789,79.475403,230.232224,-157.745361
-0.07373,-0.936768,-0.104004,12.420653,-89.584343,59.204098,1.772217,-0.187744,-0.158203,-100.784294,102.188103,126.815788
-0.162842,-1.011719,-0.150391,28.57971,-82.298271,43.495174,1.463379,-0.219971,-0.213135,-82.450859,104.62188,122.604362
-0.212891,-1.085449,-0.236572,43.952938,-72.097778,26.664732,1.096436,-0.217529,-0.242188,-68.504333,93.002312,120.628349
-0.268311,-1.122314,-0.327148,58.212276,-60.501095,12.649535,0.739746,-0.23291,-0.263916,-59.463497,68.695068,120.208733
-0.274414,-1.097656,-0.388184,69.519043,-46.463009,4.173279,0.463379,-0.290039,-0.250977,-48.828121,35.858154,122.795097
-0.131348,-1.050293,-0.418213,79.322815,-25.55084,-10.543822,0.27124,-0.336426,-0.206299,-35.202026,3.288269,125.267021
0.066162,-0.995605,-0.393311,88.417046,-0.236511,-35.720825,0.113037,-0.350098,-0.16748,-22.033689,-18.77594,125.526421
0.169922,-0.908447,-0.329346,94.360344,19.638062,-63.247677,0.001709,-0.351563,-0.143555,-9.735107,-30.860899,122.00927
0.726318,-0.786133,-0.093262,-51.895138,-112.17498,117.431633,-0.05835,-0.359619,-0.133057,2.365112,-36.29303,115.180962
1.749756,0.600098,-1.106445,-47.866817,-86.59362,226.913437,-0.08667,-0.376953,-0.140869,12.954711,-35.125732,107.223503
-0.135254,0.328125,0.148438,96.67968,-73.287964,-76.980591,0.702148,-0.907959,0.563965,69.023132,193.618759,-181.518539
-0.123047,0.346924,0.128174,78.186035,-68.351746,-59.783932,-0.125,-0.420166,-0.179199,23.391722,-25.894163,97.396843
1.752197,0.074951,-0.453369,-12.695312,-70.617676,96.618645,-0.213867,-0.61377,-0.283203,45.852657,5.889892,68.206787
1.732178,-0.057129,-0.361816,-7.186889,-62.690731,81.703178,0.498047,0.797363,-0.351563,51.963802,-22.308348,-33.424377
1.639648,-0.259277,-0.297363,0.839233,-49.560543,64.277649,-0.206055,-0.821289,-0.253418,68.79425,47.46246,27.641294
1.478027,-0.335938,-0.228271,10.261535,-38.345337,49.362179,-0.148682,-0.925049,-0.179688,78.742981,76.080322,5.706787
1.340088,-0.44043,-0.196777,22.216795,-24.681089,36.018372,-0.054443,-1.022949,-0.075684,88.851921,111.93084,-14.968871
1.190674,-0.547119,-0.206055,35.209656,-8.804321,23.651121,0.054932,-1.100586,0.03833,96.939079,154.73938,-35.751343
1.042725,-0.598877,-0.229492,48.393246,6.484985,12.573241,0.137207,-1.160889,0.145996,101.425163,198.257431,-58.746334
0.92041,-0.57666,-0.270752,60.516354,19.073486,1.976013,0.194336,-1.18335,0.240234,102.737419,234.237656,-83.908073
0.840332,-0.461914,-0.343262,68.435669,29.861448,-6.958007,0.29126,-1.151123,0.326172,99.418633,249.992355,-109.184258
0.838867,-0.32251,-0.416748,74.485779,42.8009,-14.366149,0.399658,-1.07373,0.423828,90.843193,249.992355,-133.705139
1.765869,0.123535,-0.533203,-15.907287,-72.799683,110.046379,-0.169922,-0.500488,-0.240967,34.27124,-11.291503,84.236137
0.896973,-0.212158,-0.475586,79.25415,58.998104,-23.849485,0.55835,0.696289,-0.354736,35.858154,-12.550353,-22.880552
1.001465,-0.007813,-0.557617,85.449211,98.098747,-43.785091,1.999268,1.211182,0.756836,195.87706,-165.565475,-124.481194
1.033447,0.078125,-0.557617,87.837212,114.883415,-52.421566,0.616455,0.57666,-0.331543,22.201536,-8.453369,-13.252257
1.072754,0.139648,-0.487305,88.844292,124.496452,-63.522335,1.363525,-0.102783,0.091553,-48.96545,87.303154,102.912895
1.120361,0.190674,-0.383057,89.927666,124.443047,-80.169678,1.322266,-0.153076,0.032227,-47.225948,74.104309,106.048576
1.114746,0.267334,-0.263184,92.063896,113.212578,-97.259514,1.310303,-0.21582,-0.023438,-42.213436,60.676571,112.655632
1.034668,0.352783,-0.16748,95.405571,94.818108,-108.573906,1.321045,-0.271973,-0.070313,-35.751343,49.087521,122.611992
0.976318,0.387451,-0.101563,100.059502,75.828552,-116.470329,1.371094,-0.310303,-0.091309,-28.388975,43.640133,134.223938
0.937012,0.367432,-0.060059,104.949944,60.020443,-123.252861,1.435791,-0.327637,-0.077393,-21.14105,47.187801,146.034241
0.860107,0.319092,-0.079102,109.664909,47.790524,-126.342766,1.42334,-0.330078,-0.029541,-13.175963,59.783932,154.243469
0.763184,0.27124,-0.121094,112.93792,38.169861,-123.870842,1.317871,-0.32251,0.014893,-4.058838,77.598572,155.62439
0.953613,-0.104004,-0.519775,82.382195,77.896118,-34.339905,1.169678,-0.282959,0.063232,3.227234,91.339104,151.618958
1.809326,0.145264,-0.609619,-17.921448,-72.982788,122.520439,0.715576,-0.213135,0.112549,14.320373,96.412651,123.687737
-0.133057,0.326172,0.148193,86.524956,-71.884155,-67.932129,1.40918,-0.075684,0.151123,-47.737118,100.135796,101.333611
1.918701,0.237793,-0.757324,-11.840819,-77.522278,147.720337,0.544922,-0.207275,0.129883,21.377562,92.77343,104.179375
-0.101807,0.383789,0.083496,70.869446,-61.973568,-51.963802,0.263916,-0.23291,0.148193,38.345337,76.812744,55.503841
-0.056641,0.418945,0.047363,64.63623,-51.948544,-44.738766,0.215088,-0.272949,0.160156,49.438473,65.887451,29.937742
-0.008545,0.462402,0.007813,59.692379,-37.92572,-36.026001,0.182129,-0.322021,0.170166,62.515255,52.680965,5.310058
0.048096,0.516602,-0.0354,56.228634,-21.499632,-24.581907,0.162354,-0.370361,0.177246,76.828003,38.581848,-18.135071
0.120605,0.568848,-0.072266,54.000851,-5.40924,-12.153625,0.168213,-0.399414,0.175293,91.781609,24.368284,-39.772034
0.197998,0.619873,-0.0979,53.352352,6.835937,0.312805,0.162598,-0.416504,0.181152,107.490532,12.96997,-61.180111
1.867676,0.172852,-0.686768,-16.334534,-73.501587,135.658264,0.160645,-0.433838,0.188965,123.924248,5.79071,-82.519524
0.359131,0.733643,-0.155273,54.458614,12.596129,25.382994,0.169189,-0.446289,0.197266,139.801025,1.686096,-103.027336
0.451904,0.81543,-0.196533,54.435726,6.576538,40.466305,0.169678,-0.451416,0.206787,154.716492,-1.319885,-122.222893
0.581299,0.905273,-0.25708,52.780148,-1.869202,56.648251,0.672363,0.436523,-0.305664,14.137267,-8.232117,-4.417419
0.748047,0.973145,-0.324219,50.216671,-9.399414,73.486328,0.384277,-0.211426,0.143066,29.075621,85.739128,81.375114
0.277344,0.674072,-0.127686,53.810116,13.023376,12.382506,1.439209,-0.075195,0.176758,-45.455929,110.54229,100.08239
1.059326,0.958496,-0.476074,44.082638,-15.800475,108.833305,0.945068,-0.237061,0.099854,8.453369,96.633904,140.937805
1.177002,0.877686,-0.531006,41.65649,-15.518188,126.106255,1.583008,-0.077637,0.143555,-41.465755,112.014763,94.734184
1.268066,0.782715,-0.581543,38.520813,-16.914368,140.686035,1.495361,-0.088135,0.179199,-43.731686,115.394585,98.655693
1.329834,0.710449,-0.61084,33.729553,-26.321409,150.627136,0.838379,0.169434,-0.271484,14.907836,-3.761291,10.45227
1.390381,0.694336,-0.625244,26.985167,-45.463558,156.257629,0.92334,0.070557,-0.246338,20.721434,3.082275,16.059875
1.498047,0.707031,-0.649658,19.172668,-67.070007,158.851624,1.005615,0.01416,-0.214111,26.962278,8.628845,21.675108
1.639648,0.701172,-0.690186,11.405944,-83.435051,160.606384,1.047607,-0.000977,-0.152588,31.234739,9.498596,26.428221
1.776855,0.636475,-0.732178,4.486084,-91.285698,162.620529,1.068115,0.003906,-0.085693,33.073425,4.959106,30.2124
1.892578,0.512695,-0.761963,-1.571655,-90.309135,161.628708,1.105225,0.009033,-0.030518,33.004761,-0.205994,33.309937
1.94043,0.362061,-0.779053,-6.660461,-83.938591,156.295776,1.165039,0.006348,0.012939,32.150269,-1.220703,34.706116
0.915039,0.997314,-0.404541,47.126766,-14.076232,90.904228,1.229492,0.010742,0.046143,31.73065,1.197815,36.29303
1.143066,-0.078125,-0.83667,42.839046,83.732597,33.912659,1.267822,0.032959,0.072021,28.556822,0.709534,38.459778
1.406738,-0.11084,-0.866455,48.522945,99.388115,48.103329,1.293701,0.028809,0.095947,24.101255,-4.890442,40.931698
1.571289,-0.122314,-0.848877,48.194881,88.98925,69.107056,1.319336,-0.012939,0.112061,20.64514,-13.038634,43.945309
1.540771,-0.128662,-0.791748,42.312618,59.890743,90.888969,0.75,0.29541,-0.290039,12.321471,-7.591247,3.723144
1.317139,-0.504395,-0.400635,6.752014,4.554749,142.036438,1.614258,-0.054932,0.093994,-38.330078,98.098747,87.577812
1.204102,-0.229736,-0.603516,26.779173,3.280639,118.972771,1.448242,-0.10498,0.136475,15.007018,-25.856016,50.407406
1.070557,-0.315674,-0.501221,20.744322,-6.111145,128.669739,1.49292,-0.121094,0.138184,11.665343,-30.540464,53.695675
1.094482,-0.429199,-0.42627,15.1062,-2.723694,135.299683,1.516602,-0.123779,0.128418,7.896423,-35.812378,56.457516
1.38208,-0.163818,-0.707031,34.332275,27.290342,106.849663,1.57666,-0.113037,0.119629,3.028869,-35.385132,60.249325
0.968994,-0.037109,-0.817139,35.858154,50.315853,22.445677,1.655518,-0.083496,0.093506,-3.097534,-19.65332,66.40625
0.138428,-0.469238,-0.045166,50.758358,-18.180847,-150.772095,1.690918,-0.054443,0.055908,-9.277344,6.141662,72.639465
0.974854,-0.0354,-0.809082,18.058777,-37.734985,-0.25177,1.675537,-0.051025,0.038818,-16.746521,34.378052,75.393677
1.077393,-0.058838,-0.818115,9.613037,-69.549561,-12.191772,1.670654,-0.060547,0.030273,-25.169371,60.256954,79.345703
1.17627,-0.106689,-0.789063,5.813598,-82.122795,-24.04022,1.615723,-0.057129,0.051758,-32.562256,80.368034,83.740227
1.250732,-0.16748,-0.725342,7.438659,-74.577332,-36.453247,1.376465,-0.05835,0.124268,17.875671,-20.538328,47.012325
1.281494,-0.221191,-0.642578,12.107848,-51.574703,-52.734371,-0.149658,-0.00415,-0.083984,61.470028,41.290279,17.745972
1.228516,-0.274658,-0.547852,16.624451,-23.986814,-72.227478,-0.080566,0.021729,-0.101318,50.697323,59.829708,63.224789
1.070068,-0.328857,-0.405518,20.751951,-3.631592,-92.758171,0.013184,0.007324,-0.11084,40.977474,79.170227,108.558647
0.852783,-0.397461,-0.240967,28.19824,6.362915,-114.868156,0.101318,-0.050293,-0.122803,32.142639,97.778313,153.671265
0.580322,-0.428467,-0.137451,35.78186,4.737854,-133.773804,1.407227,-0.679199,-0.227051,-3.753662,150.344849,249.67955
0.310059,-0.443359,-0.076416,43.037411,-6.16455,-144.371033,0.326904,-0.244873,-0.128906,12.954711,132.6828,237.754807
1.688965,-0.450684,-0.426514,-5.432128,8.132935,154.266357,0.533691,-0.371338,-0.146729,4.920959,147.453308,249.992355
0.918945,-0.023682,-0.805664,27.6947,5.973815,11.428832,0.861572,-0.508057,-0.185547,-0.946045,154.792786,249.992355
2.018799,-0.303711,-0.502686,-18.90564,-5.691528,170.783981,-0.223877,-0.065918,-0.068359,71.601868,24.085997,-25.657652
1.296143,0.474365,-0.419678,-49.209591,-16.120911,221.504196,0.190186,-0.130859,-0.125732,22.392271,115.226738,197.631821
2.161133,-0.269531,-0.650635,-48.027035,-56.877132,194.122299,-0.256836,-0.141113,-0.075439,82.145683,9.010315,-64.323425
0.069336,-0.491943,-0.061035,57.708736,-24.978636,-154.350281,-0.205811,-0.396973,-0.054443,124.542229,-56.121822,-194.946274
-0.172852,0.712646,0.084717,-49.133297,26.840208,76.972961,-0.233887,-0.237305,-0.082764,102.104179,-14.945983,-125.587456
-0.097168,0.675049,0.082031,-54.359432,36.643982,89.050285,-0.232178,-0.266602,-0.07959,109.65728,-25.474546,-148.933411
-0.037842,0.62915,0.080566,-57.655331,43.098446,99.189751,-0.233887,-0.312744,-0.072266,115.95916,-36.018372,-167.922958
0.012695,0.59082,0.057861,-60.218807,44.281002,110.656731,-0.226807,-0.359131,-0.065186,120.99456,-46.356197,-182.998642
0.084229,0.55835,0.010986,-62.789913,40.878292,123.504631,-0.170166,-0.429199,-0.038086,126.640312,-65.719604,-204.627975
0.192627,0.519531,-0.025879,-64.445496,36.102295,136.192322,-0.131592,-0.455811,-0.023682,127.983086,-73.745728,-211.50206
0.312012,0.493652,-0.062988,-64.468384,31.753538,148.849487,-0.075684,-0.480225,-0.009766,130.386353,-78.369141,-217.163071
0.440918,0.476318,-0.115723,-63.20953,27.931211,162.445053,-0.003418,-0.482178,-0.004639,132.698059,-78.605652,-222.251877
0.583984,0.452393,-0.164063,-60.577389,24.16992,176.910385,0.07251,-0.466064,-0.002686,133.720398,-74.264526,-225.578293
2.116699,-0.266602,-0.558105,-31.898497,-35.316467,184.692368,0.160156,-0.449463,-0.003906,133.392334,-66.940308,-226.943954
0.748047,0.432861,-0.212891,-56.78558,19.126892,190.689072,-0.246582,-0.202148,-0.07959,92.77343,-3.509521,-97.480766
1.102783,0.448486,-0.343506,-50.643917,-1.76239,212.425217,1.953857,-0.883301,-0.296875,-7.614135,135.681152,249.992355
1.486572,0.47168,-0.48877,-47.874447,-31.074522,230.064377,0.260254,-0.432373,-0.000732,132.781982,-58.532711,-227.897629
1.665527,0.419189,-0.558105,-46.722408,-46.028133,237.030014,2.204346,-1.095459,-0.468506,-51.307674,107.162468,210.48735
1.833496,0.318604,-0.616455,-46.211239,-60.035702,240.35643,0.828369,0.430664,0.027588,-101.104729,13.96942,23.979185
1.953125,0.203369,-0.662842,-46.371456,-74.134827,241.096481,1.005127,0.395508,0.103027,-111.961357,22.666929,31.10504
2.102295,0.077148,-0.725342,-48.744198,-84.281914,231.895432,1.172363,0.369873,0.167969,-123.626701,34.568787,38.673401
2.111572,0.165527,-0.744141,-51.475521,-91.835014,223.289474,1.318604,0.329102,0.215332,-135.96344,47.676083,45.486446
2.115723,0.269775,-0.699219,-54.939266,-104.583733,224.594101,1.450439,0.279053,0.268311,-144.691467,62.423702,51.948544
2.295654,0.038818,-0.712402,-55.847164,-100.418083,211.997971,1.552734,0.230225,0.335693,-151.069641,76.73645,57.937618
2.28418,-0.199463,-0.762207,-54.862972,-75.462341,199.996933,1.641357,0.199951,0.40625,-157.089233,85.182182,65.185547
0.919189,0.431152,-0.271973,-53.176876,10.589599,202.484116,1.657715,0.164063,0.451172,-163.520798,81.573479,73.165894
0.051514,-0.499268,-0.093018,64.422607,-21.179197,-154.205322,1.607178,0.104248,0.437988,-170.516953,65.77301,79.109192
-0.238281,0.736572,0.083984,-41.717525,15.48767,61.958309,1.606445,0.017822,0.398438,-178.2379,39.123535,84.815971
0.104004,-0.509277,-0.121582,78.994751,9.857178,-148.788452,1.658691,-0.090088,0.331787,-184.677109,8.514404,91.049187
-0.246826,0.566406,-0.174072,-47.07336,-14.129638,30.204771,1.755859,-0.193848,0.243164,-188.003525,-12.863158,95.809929
-0.309082,0.572266,-0.134766,-53.512569,6.782531,50.025936,1.918945,-0.293701,0.157471,-186.126694,-13.893126,99.021904
-0.356689,0.585693,-0.104492,-57.907101,32.974243,68.16864,2.104736,-0.381592,0.088867,-179.092392,8.369446,102.439873
-0.407715,0.613037,-0.094482,-63.491817,58.265682,84.312431,2.183594,-0.446777,0.059082,-167.747482,46.211239,105.056755
-0.438721,0.622803,-0.064941,-70.663452,76.957703,99.685661,2.180176,-0.436768,0.063232,-154.785156,82.19146,108.856194
-0.377441,0.614014,-0.030518,-76.477051,88.699333,113.830559,2.10083,-0.352783,0.073486,-144.15741,103.546135,116.4627
-0.229004,0.572266,-0.016357,-81.581108,97.511284,124.02343,2.030029,-0.260986,0.0271,-141.639709,115.722649,122.138969
-0.067383,0.51416,-0.019043,-83.580009,105.781548,130.134583,2.004639,-0.277588,-0.064209,-140.716553,129.348755,120.24688
0.05957,0.465576,-0.048828,-82.916252,111.907951,135.307312,2.039307,-0.412109,-0.143555,-132.453918,138.298035,118.125908
0.185303,0.428223,-0.101563,-80.581657,114.143364,140.7547,2.123779,-0.581543,-0.243408,-118.499748,138.61084,123.336784
-0.149658,0.571045,-0.233887,-39.916992,-24.467466,8.895874,2.229492,-0.744629,-0.364502,-104.042046,131.278992,139.99176
0.314697,0.398438,-0.154785,-77.445984,112.213127,146.186829,2.234375,-0.936035,-0.456543,-83.70208,117.324821,170.974716
0.602783,0.369141,-0.301758,-70.365906,99.32708,156.013489,2.181885,-1.064941,-0.4021,-21.537779,116.882317,243.476852
0.766602,0.366943,-0.394287,-67.314148,91.644279,162.681564,0.69458,0.483643,-0.06665,-87.509148,9.490967,17.417908
0.945557,0.373535,-0.495605,-63.926693,85.922234,170.80687,0.384277,-0.423096,0.009766,133.720398,-48.797604,-229.911789
1.142578,0.371582,-0.602295,-59.669491,82.68737,179.916367,0.723145,-0.381348,0.044434,136.581421,-13.412475,-232.429489
1.326416,0.367188,-0.708252,-54.626461,82.031242,189.277634,-0.001953,0.817383,-0.197266,-117.050163,47.538754,2.952575
1.476563,0.357666,-0.803711,-48.622128,81.550591,198.318466,0.050537,0.729736,-0.179199,-136.924744,54.77142,5.172729
1.572754,0.338379,-0.881592,-40.733334,78.598022,207.611069,0.148682,0.612061,-0.157959,-152.275085,57.41119,4.356384
1.612061,0.322021,-0.940186,-32.371521,66.757202,216.453537,0.276855,0.47583,-0.123779,-161.247238,58.639523,2.227783
1.577148,0.351807,-0.995361,-29.296873,31.684874,221.58049,0.434326,0.35376,-0.105225,-166.595444,59.55505,-0.709534
1.580322,0.459473,-1.052979,-35.049438,-26.329039,224.136337,0.612549,0.25415,-0.087891,-169.097885,60.356136,-2.189636
0.45166,0.377686,-0.216309,-73.898315,106.864922,150.886536,0.794922,0.174316,-0.044922,-170.433029,60.752865,-1.747131
-0.009766,0.584717,-0.293213,-31.501768,-24.147032,-13.160705,0.985107,0.118652,0.003174,-171.974167,58.303829,0.076294
0.063477,-0.49707,-0.121338,71.273804,-8.491516,-151.382446,1.187988,0.074707,0.044189,-173.56871,53.230282,2.914428
0.400879,0.539063,-0.488037,-12.733459,-22.40753,-63.018795,1.411621,0.032227,0.083984,-174.308762,47.698971,6.217956
0.128906,-0.532715,-0.127441,87.341301,31.86035,-147.262573,-0.028809,0.906738,-0.214111,-98.289482,37.322998,-1.350403
0.144043,-0.517578,-0.141602,93.879692,56.129452,-143.936157,1.654785,-0.01416,0.111328,-175.247177,43.037411,11.45172
0.176025,-0.497314,-0.157471,98.884575,82.511894,-141.532898,2.131348,-0.138916,0.132813,-176.437363,34.042358,28.45764
0.227295,-0.483643,-0.175781,103.500359,108.467094,-140.907288,2.391846,-0.19873,0.137939,-173.393234,31.47888,42.892452
0.253174,-0.442139,-0.207764,105.705254,130.966187,-140.739441,2.62085,-0.218262,0.140869,-168.395981,37.93335,60.203548
0.256348,-0.35498,-0.265869,102.836601,141.716003,-140.190125,2.753662,-0.18042,0.133057,-163.192734,53.443905,78.102112
0.178467,0.586426,-0.386475,-22.583006,-20.004272,-34.934998,2.76416,-0.143311,0.141113,-156.951904,67.115784,94.924919
0.486816,-0.111572,-0.388428,91.88842,145.568848,-134.819031,2.715332,-0.115967,0.182129,-149.505615,68.572998,111.564629
0.67627,-0.017822,-0.457275,85.59417,138.35144,-137.710571,2.611328,-0.080811,0.215332,-142.364502,62.70599,125.343315
0.898926,0.066162,-0.539551,78.437805,124.15313,-145.553589,2.489014,-0.053467,0.180664,-137.47406,60.012814,135.848999
1.126953,0.135742,-0.664551,71.479797,107.246391,-155.021667,2.346436,-0.070801,0.091797,-130.332947,68.901062,140.37323
0.35376,-0.227051,-0.323242,97.702019,145.736694,-137.115479,2.075684,-0.123047,-0.041992,-117.958061,87.150566,134.872437
1.621826,0.25708,-0.973145,68.626404,95.680229,-172.965988,1.890381,-0.071289,0.124756,-176.681503,39.047241,18.486023
1.73999,0.382568,-1.135498,66.589355,88.897697,-173.881516,-0.045654,0.982178,-0.240234,-77.468872,22.514341,-6.500244
1.8396,0.579346,-1.270264,54.550167,58.975216,-179.702744,0.531982,-0.414063,0.023926,136.032104,-33.966064,-231.933578
1.973633,0.732422,-1.32251,31.22711,-0.183105,-198.188766,-0.086914,0.994141,-0.251465,-31.135557,-20.39337,-13.267516
2.02417,0.769043,-1.289063,8.781433,-71.968079,-205.970749,0.933594,-0.340088,0.087646,133.81958,9.063721,-230.842575
2.048584,0.611816,-1.182617,0.778198,-116.149895,-197.875961,1.13208,-0.325684,0.157959,127.876274,26.885984,-228.981003
2.076172,0.406982,-1.059326,3.372192,-111.54937,-191.162094,1.358887,-0.32959,0.250244,119.750969,35.15625,-226.50145
1.793701,0.328857,-0.967041,2.334595,-81.977837,-172.752365,1.671875,-0.356445,0.354004,112.022392,31.35681,-219.100937
