ax,ay,az,gx,gy,gz,ax,ay,az,gx,gy,gz
-0.151611,0.658447,0.054199,-34.919739,-51.49078,89.965813,0.744141,0.383545,-0.006104,-143.821716,-9.040833,38.269043
0.130615,-0.514404,-0.137695,99.166862,54.183956,-15.510558,1.220703,-0.414551,-0.29541,-102.127068,-50.636288,44.624325
2.161133,-0.213867,-0.263184,-111.434929,-70.198059,167.732224,2.074951,0.348389,-0.270752,-163.963303,36.750793,83.923332
0.256104,-0.65332,-0.112793,66.314697,49.804684,18.39447,2.086426,0.219727,-0.227295,-158.821106,83.229057,89.401237
2.25293,0.021484,-0.337158,-120.048515,-85.952751,184.79155,1.943115,0.103516,-0.19165,-152.328491,104.324333,91.423027
2.246338,-0.087891,-0.303467,-117.477409,-80.42144,176.521286,1.754395,0.066895,-0.178467,-148.277283,88.905327,91.987602
0.082764,0.466064,-0.061523,-78.338623,-49.552914,97.961418,1.577881,0.063965,-0.15625,-147.010803,49.057003,89.981071
0.167236,0.408447,-0.068604,-89.187614,-37.04834,98.121635,1.442139,-0.023682,-0.154541,-141.975403,7.965087,82.916252
0.249023,0.383301,-0.053467,-97.31292,-23.29254,99.555962,1.365967,-0.182129,-0.186279,-131.68335,-25.573729,69.641113
0.334961,0.374268,-0.024414,-103.584282,-10.238647,102.653496,1.30957,-0.317627,-0.256104,-117.942802,-44.662472,54.580685
0.426758,0.365234,-0.003174,-108.230583,0.114441,106.666557,1.094482,-0.458984,-0.282959,-85.449211,-50.758358,44.55566
0.522705,0.356689,0.003662,-111.656181,6.965637,111.351006,1.959473,0.356201,-0.27832,-159.896851,-14.183043,76.469421
0.623291,0.347412,-0.001953,-114.082329,9.69696,116.325371,-0.122803,-0.406982,-0.000732,57.205196,16.075134,-2.494812
0.726318,0.334961,-0.014648,-115.562431,9.19342,120.36132,-0.143799,-0.345459,0.012695,46.82159,9.773254,15.632628
0.82251,0.336426,-0.028809,-115.798943,6.233215,125.175468,-0.14502,-0.292725,0.026123,37.277222,8.300781,33.683777
0.920898,0.352051,-0.053711,-116.020195,1.625061,133.087158,-0.119141,-0.25,0.032227,28.823851,12.184142,50.331112
-0.002686,0.527344,-0.030762,-65.742493,-57.968136,98.205559,1.267334,-0.029541,0.248291,214.340195,146.79718,-180.87767
1.178223,0.349854,-0.12915,-116.111748,-4.051208,152.282715,0.047119,-0.246338,-0.045166,15.144347,26.222227,81.077568
1.040039,0.361816,-0.091553,-116.5924,-2.494812,143.341064,0.18457,-0.238525,-0.118164,6.576538,26.542662,94.619743
2.180908,0.169434,-0.366211,-118.698112,-79.170227,188.079819,-0.092285,-0.478516,-0.010254,67.802429,26.756285,-18.959045
2.149658,0.259521,-0.360596,-116.821281,-67.28363,187.499985,0.334961,-0.201904,-0.187256,-3.341675,20.149229,105.37719
2.040527,0.353271,-0.336914,-114.379875,-52.230831,188.606247,-0.047852,-0.23877,0.010742,21.789549,19.561768,66.062927
1.874512,0.409668,-0.302979,-110.671989,-34.423828,187.087997,-0.051758,-0.5625,-0.00293,79.139709,41.084286,-33.477783
2.207764,0.093994,-0.354736,-119.667046,-85.792534,188.81987,0.35083,-0.416016,0.196533,136.314392,118.377678,-90.950005
1.574707,0.36499,-0.23291,-106.597893,-3.593445,169.143661,0.07959,-0.658691,0.072021,101.799004,74.08905,-54.76379
1.458496,0.326172,-0.193359,-108.978264,0.221252,161.85759,0.155518,-0.633057,0.121582,111.694328,89.309685,-62.660213
1.32373,0.328857,-0.161621,-113.121025,-1.991272,157.707214,0.22168,-0.568359,0.165527,120.208733,101.776115,-70.510864
1.708496,0.406982,-0.263672,-107.337944,-16.426086,179.344162,0.28125,-0.490967,0.190674,127.784721,111.282341,-79.727173
-0.043213,-0.446533,0.067383,100.440971,-42.350765,9.811401,0.44165,-0.352539,0.187988,146.621704,124.389641,-103.790276
1.727783,-0.957764,-0.345215,54.710384,21.530149,62.019344,0.568115,-0.301514,0.177002,158.729553,129.920959,-117.942802
1.357666,-0.840088,-0.250488,62.820431,20.027161,76.309204,0.709473,-0.264404,0.176025,172.950729,134.880066,-133.514404
1.100586,-0.697021,-0.183105,68.687439,13.198852,78.041077,0.864014,-0.226074,0.176758,187.896713,138.48877,-149.940491
0.849121,-0.609619,-0.143311,72.875977,4.081726,67.459106,1.052734,-0.152588,0.196533,201.6754,142.127991,-166.076645
0.592773,-0.559814,-0.087158,76.469421,-6.324768,53.787228,0.468994,-0.14502,-0.237305,-13.031005,9.666443,112.29705
0.377441,-0.517578,-0.037354,80.535881,-14.793395,41.343685,0.006104,-0.629639,0.031494,90.873711,57.54089,-45.379635
2.201904,-0.928223,-0.437988,44.486996,10.360717,50.47607,0.660889,-0.046143,-0.224609,-21.575926,-0.244141,120.178215
0.225342,-0.482178,0.005371,86.09771,-20.210264,30.151365,0.185791,0.569336,-0.140381,-36.239624,32.028198,28.999327
0.092529,-0.455078,0.035645,93.322746,-26.199339,19.561768,1.543701,0.247314,-0.177002,-28.190611,2.922058,148.147583
-0.127441,-0.460205,0.098633,108.993523,-67.7948,-0.63324,1.487549,0.14624,0.313965,225.257858,151.618958,-193.069443
0.029785,-0.496094,0.112793,159.729004,-101.432793,-47.920223,0.272705,0.551025,-0.065674,-45.989986,27.008055,32.150269
-0.107178,-0.522949,0.106201,130.683899,-105.24749,-22.041319,0.36792,0.515869,-0.017822,-53.733822,16.220093,34.446716
-0.070801,-0.531006,0.107666,141.723633,-109.802238,-32.859802,0.4729,0.484131,0.001709,-59.783932,-1.472473,36.437988
-0.028809,-0.52002,0.109863,151.031494,-107.498161,-40.679928,0.610352,0.462402,-0.006104,-64.239502,-26.596067,37.162781
0.096436,-0.457275,0.122314,167.823776,-93.376152,-57.28149,0.780762,0.451172,-0.041016,-66.848755,-54.557796,36.773682
0.166992,-0.423584,0.130615,175.346359,-84.442131,-67.268372,0.986328,0.447754,-0.079346,-66.818237,-79.856873,36.376953
0.234131,-0.399902,0.10376,180.183395,-68.748474,-75.683594,1.19165,0.457275,-0.115479,-64.086914,-98.686211,37.216187
0.30835,-0.442627,0.080322,184.501633,-41.435238,-81.05468,1.39624,0.475586,-0.15332,-59.883114,-107.681267,40.06958
0.422363,-0.569824,0.112793,194.007858,-12.023925,-94.360344,1.599121,0.512207,-0.176758,-54.88586,-106.735222,44.883724
0.445068,-0.581787,0.141846,203.224167,8.712769,-111.2976,1.769287,0.552734,-0.205078,-49.285885,-98.091118,50.468441
2.367676,-0.720459,-0.520752,33.882141,-8.010864,57.548519,1.907959,0.586914,-0.26123,-43.128963,-81.260674,55.221554
-0.13501,-0.489258,0.109619,119.468681,-90.888969,-11.360168,2.060303,0.62085,-0.332275,-36.376953,-51.193233,60.714718
2.17627,-0.479004,-0.584229,25.413511,-7.713317,74.615479,2.2146,0.648926,-0.433838,-28.373716,-9.07135,69.953918
0.538818,-0.445801,0.164063,206.352219,20.050049,-113.342278,2.372314,0.661133,-0.526367,-21.492002,38.17749,84.373466
1.729004,-0.288818,-0.732666,15.228271,44.212337,88.546745,2.515381,0.650146,-0.536865,-19.302368,88.020317,104.476921
-0.030762,0.522949,0.012207,17.036438,-66.604614,22.697447,2.609375,0.601807,-0.457275,-20.996092,134.078979,126.617424
0.05835,0.484131,-0.05127,0.083923,-69.526672,22.377012,2.64209,0.476563,-0.342529,-19.615173,161.918625,144.432068
0.130859,0.430908,-0.112061,-16.601563,-70.327759,18.90564,2.586182,0.349609,-0.249512,-13.732909,156.906128,156.37207
0.194824,0.376465,-0.17334,-33.256531,-70.449829,15.907287,2.5,0.379883,-0.223145,-12.901305,115.333549,175.033554
0.260254,0.331787,-0.244629,-49.209591,-69.137573,15.708922,2.411133,0.496826,-0.213379,-19.462585,61.431881,191.284164
0.333984,0.304688,-0.325439,-65.361023,-65.605164,17.379761,2.233398,0.515381,-0.199951,-25.81024,25.283812,183.456406
0.416992,0.276855,-0.397705,-81.413261,-59.585567,19.813538,1.952148,0.409668,-0.185303,-28.991697,9.979248,163.74205
0.527832,0.23291,-0.441895,-96.351616,-52.452084,21.255491,1.047607,0.093018,-0.191162,-26.176451,-2.723694,133.529663
0.657959,0.167725,-0.469238,-108.345024,-43.41888,20.904539,1.726563,0.352295,0.405762,233.291611,153.533936,-202.537521
0.796631,0.091553,-0.497559,-116.516106,-30.326841,19.897461,1.049561,0.756104,-0.016357,-125.251762,-140.434265,99.472038
1.924805,-0.31958,-0.65625,19.447327,17.326355,85.479729,2.184082,0.758789,0.598633,247.581467,134.941101,-207.145676
0.944824,0.016113,-0.528809,-120.903008,-12.260436,19.233704,0.340576,0.790527,-0.079346,-52.474972,-36.026001,27.214048
1.240723,-0.153564,-0.613281,-118.087761,37.727356,23.826597,0.438477,0.779053,-0.054443,-68.93158,-31.364439,40.214535
1.299072,-0.240967,-0.641357,-111.709587,56.40411,28.480528,0.529785,0.760742,-0.028076,-83.847038,-17.196655,54.183956
1.331299,-0.33667,-0.653809,-102.172844,66.947937,36.109924,0.581543,0.711182,-0.018311,-94.66552,-2.853393,67.359924
1.338379,-0.413574,-0.65918,-88.020317,72.380066,45.860287,0.638916,0.660156,-0.013672,-102.516167,2.39563,77.102661
1.349365,-0.446045,-0.678223,-71.19751,76.179504,56.083675,0.695068,0.615967,0.01001,-105.735771,-3.784179,83.770744
1.376953,-0.427246,-0.697998,-53.146358,81.382744,67.321777,0.760254,0.623047,0.022217,-107.780449,-24.909971,86.936943
1.4375,-0.40625,-0.709717,-34.004211,88.348381,75.500488,0.843262,0.691162,0.012207,-113.052361,-57.907101,89.881889
1.457031,-0.412354,-0.73584,-16.586304,90.606682,82.107536,0.950439,0.73999,0.005615,-117.85125,-98.548882,95.008842
1.445801,-0.434082,-0.77002,-2.029419,80.299377,87.989799,1.222168,0.68335,-0.013428,-126.678459,-174.171432,99.983208
1.549805,-0.37207,-0.779053,8.895874,63.529964,89.225761,0.251709,0.823242,-0.096924,-34.500122,-35.400391,14.137267
1.104004,-0.066162,-0.575928,-121.482841,11.756896,20.530699,1.49292,0.571777,-0.034424,-133.041382,-179.817184,98.518364
0.674072,-0.366211,0.147217,205.505356,26.397703,-117.546074,2.219482,0.470215,-0.159912,-143.821716,-65.422058,105.766289
-0.115234,0.520264,0.058838,33.889771,-58.570858,17.860413,2.489502,0.677002,-0.281982,-163.261398,41.046139,120.017998
0.970947,-0.153809,-0.041748,196.75444,29.937742,-115.653984,2.48999,0.893799,-0.329102,-178.062424,134.422302,131.835938
-0.052979,0.675537,-0.324707,24.79553,-44.174191,60.226437,2.281738,0.996338,-0.259277,-173.469528,185.775742,142.341614
-0.00708,0.687012,-0.366211,1.243591,-45.646664,73.83728,2.045166,0.989014,-0.126709,-160.728439,192.481979,149.978638
0.055664,0.683594,-0.392578,-21.461485,-42.320248,85.159294,1.750732,0.936768,-0.051025,-152.397156,170.242294,141.815186
0.12207,0.656738,-0.393555,-44.05212,-38.162231,94.085686,1.4729,0.80957,-0.046387,-146.92688,129.570007,120.407097
0.180664,0.595459,-0.341797,-63.873287,-35.896301,100.21209,1.288818,0.622314,-0.056152,-139.022827,83.396904,94.902031
0.214355,0.523193,-0.285645,-78.437805,-34.439087,102.554314,1.205322,0.468506,-0.074951,-129.264832,47.660824,71.70105
0.221191,0.464355,-0.29834,-89.805595,-31.898497,107.948296,1.966064,0.565918,0.511963,240.23436,148.452759,-207.649216
0.244629,0.431396,-0.360107,-101.005547,-27.420042,116.96624,1.850586,0.485596,-0.0979,-141.563416,-143.531799,99.19738
0.291992,0.413086,-0.447021,-113.143913,-20.13397,122.566216,0.161377,0.864014,-0.108887,-12.725829,-35.232544,1.289368
0.344971,0.388184,-0.520508,-125.007622,-9.83429,124.160759,1.152588,0.351563,-0.079102,-119.285576,22.583006,51.765438
-0.075928,0.653564,-0.256836,47.409054,-37.139893,46.218868,-0.010742,0.928955,-0.14209,39.657593,-37.635803,-28.152464
0.4021,0.364014,-0.56543,-135.154724,2.960205,123.405449,0.068359,0.903809,-0.12085,12.496947,-36.743164,-12.298583
0.589111,0.328857,-0.632324,-148.353577,36.636353,120.048515,2.575195,1.036133,0.710693,249.992355,88.378899,-187.469467
0.716064,0.311523,-0.674316,-150.344849,59.097286,118.873589,2.714111,1.189941,0.756836,249.992355,64.208984,-170.791611
0.838379,0.282471,-0.696045,-149.665833,82.015984,116.752617,2.786377,1.35791,0.796875,249.992355,47.256466,-148.94104
0.974854,0.230713,-0.668701,-145.362854,102.188103,113.319389,2.759521,1.477539,0.839111,249.992355,37.208557,-126.068108
1.119629,0.177734,-0.61499,-137.924194,116.012566,109.390251,2.650391,1.543213,0.880859,249.992355,33.363342,-109.558098
1.266113,0.146973,-0.569092,-127.975456,117.561333,105.11779,2.476074,1.596436,0.910156,249.870285,37.971497,-98.556511
1.432373,0.148926,-0.534912,-116.355888,99.655144,99.555962,2.231201,1.669189,0.902344,249.992355,46.356197,-87.158195
1.625732,0.155273,-0.547119,-108.070366,60.882565,92.102043,1.856934,1.746582,0.8125,249.992355,47.615047,-76.332092
1.874756,0.091064,-0.599365,-104.583733,13.954162,82.458488,1.384277,1.751953,0.672852,243.202194,38.711548,-70.594788
2.143799,-0.059814,-0.636963,-97.602837,-21.247862,71.212769,0.953613,1.640869,0.546143,234.93956,26.351927,-72.723389
0.480225,0.350342,-0.602783,-143.295288,17.89093,121.833794,2.388916,0.910645,0.66333,249.992355,113.990776,-200.16478
-0.072998,0.626221,-0.186768,66.207886,-26.008604,33.081055,0.304688,1.234375,0.365967,222.755417,-2.319336,-94.352715
0.770752,-0.211182,0.053711,198.875412,27.099607,-114.875786,0.106201,1.041504,0.294678,214.431747,-18.699646,-101.84478
-0.001221,0.568359,-0.171387,97.267143,4.203796,9.666443,-0.036621,0.900635,0.223633,203.628525,-33.477783,-106.361382
1.180908,-0.25708,-0.158203,201.881393,39.955139,-134.925842,-0.134277,0.82373,0.13623,191.59697,-42.266842,-109.497063
1.256348,-0.276123,-0.266357,200.904831,44.380184,-148.223877,-0.154053,0.807617,0.067871,177.803024,-44.265743,-109.107964
1.368652,-0.192383,-0.35498,194.328293,41.023251,-155.052185,-0.144531,0.828857,0.023682,160.888657,-42.129513,-103.60717
1.508545,-0.124023,-0.446045,186.698898,34.339905,-164.543137,-0.13916,0.862305,-0.02417,141.586304,-39.054871,-93.200676
1.625488,-0.078613,-0.556641,180.015549,28.602598,-169.898972,-0.14502,0.9021,-0.090332,119.720451,-37.727356,-79.322815
1.786133,-0.03833,-0.669189,175.292953,28.19824,-174.682602,-0.133301,0.929199,-0.139648,94.993584,-37.467957,-63.095089
2.060791,0.075195,-0.832275,166.557297,28.244017,-172.172531,-0.08252,0.940186,-0.153564,67.726135,-37.590027,-45.623775
2.210205,0.117432,-0.889648,162.590012,28.572081,-178.199753,0.608643,1.446777,0.448486,228.63768,12.756347,-82.5653
2.306152,0.186523,-0.934082,160.400391,28.564451,-183.02916,1.650146,0.419434,-0.227783,-165.603622,-12.046813,77.812195
2.336426,0.268799,-0.955566,158.721924,24.238585,-184.242233,1.470215,0.42627,-0.164063,-170.837387,-37.361145,77.049255
1.906982,0.010742,-0.763184,170.623764,28.282164,-174.011215,1.301758,0.411865,-0.10791,-174.942001,-54.244991,76.065063
2.131104,0.37915,-0.953369,149.879456,-2.830505,-172.180161,0.613525,0.516357,-0.074463,-161.064133,-32.829285,58.822628
2.257813,0.347656,-0.958496,154.319763,11.95526,-179.893478,0.995605,0.404785,-0.037354,-177.917465,-61.874386,74.287415
0.171631,0.465332,-0.27002,123.245232,31.249998,-18.226624,0.865967,0.430176,-0.028564,-175.659164,-54.222103,71.998596
0.355957,0.405029,-0.327393,130.935669,40.733334,-37.193298,0.73584,0.473877,-0.049561,-169.883713,-43.098446,66.337585
0.552734,0.334473,-0.408936,136.34491,46.19598,-58.303829,0.489502,0.513184,-0.0979,-151.260376,-22.308348,51.10931
0.825928,0.251953,-0.516846,141.212463,44.30389,-83.061211,1.136963,0.398682,-0.065186,-177.566513,-62.507626,74.928284
0.055908,0.529053,-0.222656,111.373894,19.058228,-2.456665,1.846924,0.37207,-0.268555,-157.264709,17.379761,81.115715
1.467041,0.204346,-0.739746,146.92688,12.115478,-129.554749,2.727295,0.142822,-0.44751,-110.740654,136.482239,143.028259
1.75,0.283447,-0.846191,146.018982,-4.371643,-142.906189,2.254883,0.248779,-0.311279,-135.4599,71.174622,92.735283
1.967285,0.357666,-0.916992,147.201538,-10.215758,-159.072876,2.491211,0.22583,-0.354248,-126.815788,99.769585,107.070915
1.14624,0.194092,-0.623535,145.645142,31.898497,-110.305779,2.665771,0.202148,-0.399902,-119.48394,125.289909,125.312798
-0.046387,0.596191,-0.155273,82.351677,-11.680602,20.599363,2.734375,0.01416,-0.451416,-98.869316,128.723145,158.889771
0.551514,0.231201,-0.422363,-99.266045,-25.436399,71.853638,2.665039,-0.077393,-0.415527,-86.273186,108.978264,170.883163
-0.330811,0.390137,0.053711,-21.354673,-31.867979,67.062378,2.531982,-0.037842,-0.381592,-80.947868,87.440483,178.832993
-0.278076,0.350098,0.035889,-29.655455,-34.759521,67.41333,2.373291,0.024658,-0.32959,-80.528252,75.141907,181.678757
-0.223145,0.297363,0.013184,-37.094116,-37.139893,66.123962,2.07373,0.006104,-0.269287,-76.820374,70.457458,177.032455
-0.164063,0.251709,-0.027344,-43.914791,-41.992184,64.52179,1.544434,-0.082275,-0.232178,-68.649292,61.729427,161.087021
-0.112305,0.212158,-0.087891,-51.300045,-49.118038,65.917969,0.382568,0.528076,-0.120605,-140.586853,-10.002136,43.403622
-0.035156,0.187988,-0.147461,-59.829708,-56.846615,69.160461,1.018555,-0.218506,-0.242432,-55.435177,44.464108,136.123657
0.086182,0.197266,-0.224854,-70.167542,-59.257504,72.257996,2.03833,0.300537,-0.286621,-146.064758,44.715878,85.632317
0.233643,0.222412,-0.306885,-81.130974,-53.260799,72.792053,0.284668,0.551758,-0.136719,-128.509521,-0.823975,35.02655
0.384033,0.228516,-0.373047,-90.88134,-41.648861,72.036743,-0.176514,0.996094,0.212646,119.155876,-71.228027,-70.709229
1.960449,0.072021,-0.500488,-38.261414,-12.435912,131.690979,0.140869,0.615967,-0.156738,-100.349419,8.216858,17.379761
0.972168,0.165771,-0.423584,-113.281242,25.222776,77.377319,0.700439,-0.355713,-0.27002,-36.872864,24.414061,114.936821
1.080322,0.131104,-0.391602,-111.946098,33.782959,83.374016,3.247559,-0.202393,0.59668,242.202744,4.28772,-198.791489
1.17041,0.106934,-0.376709,-107.315056,38.208008,90.705864,3.767578,-0.260986,0.632568,249.481186,-55.656429,-171.951279
1.263184,0.090088,-0.374756,-100.021355,39.543152,98.854057,4.116943,-0.107666,0.739014,249.992355,-103.4851,-127.861015
1.366211,0.074707,-0.37793,-90.171806,39.581299,107.345573,4.100342,0.203857,0.885254,249.992355,-130.828857,-87.516777
1.479004,0.065674,-0.397705,-78.117371,40.710445,115.310661,3.870605,0.641846,0.834229,249.80162,-115.95916,-57.754513
1.598633,0.064453,-0.421875,-65.368652,40.771481,122.024529,3.747559,1.083496,0.69165,249.992355,-64.949036,-20.164488
1.69751,0.064697,-0.447754,-54.069515,32.295227,127.67791,3.359131,1.389648,0.573242,249.992355,-32.020569,7.637023
1.808594,0.061279,-0.481934,-44.990536,12.313842,130.912781,2.22998,1.527832,0.535156,239.707932,-31.539915,8.346558
-0.358887,0.40625,0.061768,-11.45172,-28.396605,63.400265,0.973389,1.450439,0.52124,219.69603,-41.267391,-14.556884
0.724609,0.219238,-0.446289,-106.300346,-6.622314,71.57135,0.207764,0.592773,-0.144775,-115.943901,5.004883,26.275633
-0.342529,0.398193,0.067871,-0.778198,-24.909971,57.151791,0.299316,1.273682,0.459229,194.503769,-52.864071,-42.060848
2.609375,0.569092,-0.823242,140.365601,-86.578362,-149.581909,-0.128174,1.021973,0.299561,143.028259,-69.892883,-71.151733
-0.142334,0.38501,0.052002,18.760681,-17.478943,40.687557,-0.205811,1.016846,0.109863,95.397942,-66.444397,-66.009521
0.85498,-0.205322,-0.084229,233.978256,-33.38623,-185.226425,-0.233398,1.011475,0.016846,71.205139,-56.724545,-60.386654
0.98999,-0.11792,-0.22168,228.729233,-27.511595,-185.455307,-0.258057,0.963623,-0.067139,47.21069,-44.960018,-54.51965
1.15332,-0.055908,-0.400146,221.748337,-16.143799,-183.540329,-0.242676,0.887939,-0.129639,22.743223,-33.241272,-47.378536
1.303223,-0.00708,-0.583984,214.126572,-0.480652,-183.700546,-0.189697,0.804932,-0.172363,-0.938415,-21.881102,-37.773132
1.437012,0.054443,-0.746338,206.649765,13.771056,-185.66893,-0.126709,0.736816,-0.201172,-23.361204,-11.657714,-26.000975
1.562012,0.142334,-0.888672,200.721725,25.901793,-183.898911,-0.071045,0.679688,-0.208252,-43.708797,-2.63977,-13.359069
1.682617,0.239746,-1.012207,193.801865,29.411314,-180.450424,0.001709,0.641602,-0.196289,-63.08746,3.890991,-1.800537
1.817139,0.303467,-1.102295,184.768661,17.028809,-178.779587,0.069824,0.626953,-0.175537,-82.221977,7.942199,7.987976
1.978027,0.359619,-1.147217,177.48259,-4.066467,-177.246078,0.002686,1.122559,0.376709,168.189987,-63.3316,-62.263485
2.173584,0.44165,-1.174561,171.958908,-24.017332,-175.628647,0.532959,-0.462646,-0.264893,-16.014099,8.056641,103.164665
-0.26709,0.381592,0.068359,9.208679,-20.88928,49.583431,2.731689,0.006592,0.581055,235.000595,60.18829,-213.241562
2.384521,0.558838,-1.155273,167.182907,-38.497925,-170.2957,0.232422,-0.527344,-0.14917,26.56555,-13.168334,88.180534
2.64209,0.711426,-0.956055,151.733398,-73.654175,-149.932861,2.643799,1.215088,0.370117,167.251572,-20.126341,-213.188156
2.150879,0.074707,-0.498291,-33.996582,-33.096313,130.653381,2.619385,1.342285,0.379395,179.656967,-45.341488,-192.436203
2.321289,0.368408,-0.682373,127.105705,-82.420341,-143.234253,2.653564,1.580811,0.375,184.715256,-51.353451,-158.073425
1.714111,0.255859,-0.58374,116.958611,-68.29071,-112.121574,2.474121,1.766357,0.38208,182.968124,-36.018372,-130.783081
1.159912,0.279541,-0.552734,105.766289,-49.171444,-70.091248,1.994873,1.780762,0.375488,182.235703,-14.015197,-123.710625
0.83667,0.323486,-0.494141,90.2481,-29.365538,-34.759521,1.433594,1.682373,0.357178,177.993759,-4.920959,-123.939507
0.617676,0.357178,-0.4021,74.760437,-16.899109,-7.965087,0.905029,1.541992,0.303223,167.884811,-14.762877,-119.789116
0.39917,0.43042,-0.312256,58.647152,-13.229369,11.901855,0.479248,1.393555,0.202148,154.777527,-38.337708,-111.274712
0.19751,0.46875,-0.173584,42.060848,-13.839721,24.337767,0.167236,1.250977,0.113281,141.38031,-65.254211,-103.675835
0.017334,0.434326,-0.024658,28.762815,-15.350341,32.264709,-0.147461,1.024414,-0.05127,114.120476,-106.178276,-87.821953
2.545898,0.692139,-1.079346,160.415649,-53.794857,-159.637451,2.733643,1.124023,0.360352,156.654358,7.453918,-227.569565
2.360352,0.025879,-0.474854,-30.197142,-46.913143,127.517693,-0.174072,0.962402,-0.11377,98.487846,-115.936272,-78.460693
0.865723,0.189697,-0.442383,-110.984795,11.398314,72.982788,-0.174561,0.886475,-0.284912,67.863464,-99.243156,-58.197018
2.539795,-0.064697,-0.44751,-25.642393,-56.755062,121.574394,-0.164063,0.86377,-0.390625,52.825924,-77.056885,-47.340389
1.73291,-0.396484,-0.670654,155.929565,37.994385,-197.082504,-0.150635,0.822754,-0.479736,38.024902,-52.24609,-34.973145
1.837891,-0.338623,-0.702881,157.012939,46.035763,-195.098862,-0.124756,0.762207,-0.518311,24.55139,-29.037474,-22.186277
1.906006,-0.326416,-0.735352,157.501221,46.70715,-191.040024,-0.092285,0.703857,-0.500244,12.451171,-9.735107,-10.055541
1.983887,-0.328369,-0.76001,157.142639,47.142025,-187.423691,-0.050537,0.652588,-0.443359,2.090454,6.019592,1.785278
2.0271,-0.236572,-0.761719,155.357361,48.484798,-181.907639,-0.007324,0.608643,-0.365234,-6.843566,18.39447,11.566161
2.023926,-0.109131,-0.724609,153.533936,42.213436,-176.086411,0.049805,0.583984,-0.2854,-16.174316,27.114866,18.77594
1.930664,-0.036621,-0.679688,152.877808,23.384092,-166.915878,0.115723,0.574219,-0.217773,-26.237486,31.799314,24.375914
1.800049,-0.05127,-0.628418,152.671814,-9.384155,-157.302856,0.375488,-0.519775,-0.220703,5.767822,-3.791809,96.183769
1.652344,-0.085693,-0.582764,153.465271,-38.909912,-145.744324,-0.179199,0.918701,-0.189453,82.695,-113.571159,-68.595886
1.232178,0.008789,-0.46582,155.853271,-56.640621,-102.935783,2.730713,1.041748,0.363037,147.262573,26.214598,-241.23381
1.599365,-0.452637,-0.627441,153.892517,23.185728,-194.015488,-0.059326,1.120605,0.026611,128.334045,-88.325493,-96.702568
1.04541,0.119629,-0.438965,153.907776,-46.44775,-79.208374,2.431641,0.843018,0.300049,134.719849,55.236813,-242.851242
0.731689,0.2854,-0.393555,138.534546,-7.965087,-54.954525,2.612549,0.980469,0.34668,138.687134,40.283199,-246.53624
0.532227,0.343994,-0.327393,126.647942,3.341675,-47.645565,0.016602,-0.500244,-0.042725,60.218807,-19.187927,63.751217
0.371338,0.389648,-0.218506,114.044182,4.325867,-42.556759,-0.035156,-0.489746,-0.024902,74.34845,-15.098571,49.430843
0.252197,0.388672,-0.089355,102.264397,-2.288818,-38.619995,-0.053711,-0.491943,-0.029053,85.830681,-5.218505,33.584595
0.14917,0.390381,0.0271,92.376701,-11.642455,-32.310486,-0.038086,-0.519775,-0.036377,95.382683,9.475708,18.287659
0.05835,0.402832,0.093994,83.511345,-20.088194,-23.513792,-0.026367,-0.589355,-0.040039,104.202263,28.472898,5.79071
-0.021973,0.423584,0.115479,73.677063,-25.619505,-13.778686,-0.001953,-0.668457,-0.026123,111.396782,50.643917,-3.837585
-0.094482,0.45166,0.116211,62.133785,-32.287598,-3.14331,0.054932,-0.730225,-0.008789,117.210381,73.852539,-11.657714
-0.144287,0.493408,0.095459,48.97308,-45.288082,8.377075,0.134521,-0.75415,0.016846,122.25341,96.977226,-18.165588
2.683105,-0.196045,-0.443115,-22.071836,-55.39703,109.672539,0.219238,-0.724609,0.050781,125.778191,119.911186,-23.628233
0.900146,0.219238,-0.424805,147.994995,-26.931761,-63.163754,0.330811,-0.666016,0.075928,127.952568,143.669128,-30.433653
1.398926,-0.478027,-0.55249,151.184082,4.417419,-187.072739,0.100098,-0.513672,-0.088623,44.540401,-18.577576,76.896667
1.466064,-0.067383,-0.526855,154.99115,-54.191586,-127.014153,0.572266,-0.524414,0.100586,132.530212,192.863449,-55.02319
0.938965,-0.410645,-0.372314,145.103455,-7.125854,-178.947433,0.458984,-0.602295,0.088867,130.210876,169.136032,-40.573116
1.155029,-0.469238,-0.459473,148.628235,-7.591247,-181.327805,1.943359,0.315186,0.196289,134.719849,90.194695,-220.497116
2.395264,-0.531738,-0.326416,-12.001037,-10.475158,93.048088,1.659424,0.055908,0.174316,134.178162,111.511223,-202.140793
1.960449,-0.587646,-0.206787,-2.304077,3.372192,97.724907,1.395752,-0.133301,0.172119,132.69043,136.650085,-180.351242
1.600342,-0.595215,-0.085693,10.208129,5.432128,92.475883,1.178223,-0.230957,0.176025,130.706787,163.284286,-157.188416
1.265625,-0.585693,0.002197,19.874573,1.541138,81.214897,2.212158,0.601318,0.236328,134.407043,71.983337,-233.962997
0.897949,-0.579346,0.040283,26.107786,-5.874633,73.364258,0.845947,-0.299072,0.155273,132.263184,206.657394,-112.243645
0.607666,-0.584961,0.069092,32.608032,-16.464233,65.185547,0.760254,-0.360352,0.136475,133.399963,214.668259,-91.880791
0.401855,-0.612061,0.070801,40.199276,-28.137205,55.282589,0.670654,-0.438965,0.110596,133.529663,209.655746,-72.914124
0.211426,-0.657715,0.050049,48.179623,-39.962769,44.120785,0.990967,-0.262695,0.161377,130.455017,188.102707,-134.185791
0.091064,-0.694336,0.039307,57.868954,-52.421566,27.008055,0.179932,0.614502,-0.027344,170.967087,-47.866817,56.076046
0.038818,-0.692383,0.016602,68.840027,-61.180111,3.707886,2.562256,0.668701,0.552002,229.309067,-68.099976,-25.55847
0.01123,-0.671143,-0.049561,77.407837,-61.088558,-17.616272,2.402344,0.5979,0.467529,223.129257,-53.314205,15.884398
2.681641,-0.379883,-0.422852,-18.554688,-35.27832,95.100395,2.08374,0.617188,0.420166,214.294418,-40.458675,46.852108
0.772949,-0.364258,-0.303955,141.25061,-0.663757,-175.628647,1.591064,0.659424,0.35791,204.612717,-35.720825,61.592098
0.025635,-0.618164,-0.178223,89.195244,-41.839596,-53.100582,1.19458,0.678223,0.300537,195.602402,-38.795471,70.701599
0.068848,-0.583252,-0.197266,93.635551,-29.58679,-72.624207,0.868408,0.662109,0.212158,189.57518,-45.951839,76.48468
0.126953,-0.569336,-0.171143,97.801201,-19.40918,-96.519463,2.794434,0.823486,0.669434,230.468735,-71.090698,-61.973568
0.180908,-0.574463,-0.121094,105.041496,-12.046813,-121.925346,0.583008,0.632568,0.114746,185.104355,-51.567074,75.172424
0.219727,-0.588135,-0.081299,116.409294,-7.919311,-142.021179,0.33252,0.615723,0.043457,179.412827,-52.337643,66.680908
0.273682,-0.568115,-0.076416,127.319328,-5.210876,-150.917053,0.123535,0.61377,-0.086182,160.980209,-40.061951,47.103878
0.369385,-0.506104,-0.110596,134.712219,-0.961304,-153.511047,0.04541,0.652588,-0.219482,90.728752,-9.277344,26.115416
0.492432,-0.43457,-0.172119,138.526917,3.65448,-159.156799,0.056152,0.643066,-0.155762,136.421204,-23.345945,34.01947
0.627441,-0.372314,-0.246582,139.465332,4.234314,-167.640671,0.034668,0.655273,-0.1875,122.695915,-19.470215,30.22003
0.003906,-0.652588,-0.12793,83.82415,-53.649899,-35.797119,0.036865,0.659668,-0.20874,107.498161,-15.655517,27.496336
0.954102,0.473633,-0.527832,165.51207,16.563416,-81.260674,0.060059,0.630371,-0.224609,74.172974,-1.655578,26.786802
1.03418,0.431152,-0.508301,171.56218,14.068603,-92.216484,0.089111,0.609863,-0.225098,57.449337,6.828308,29.136656
1.112793,0.387939,-0.478271,175.437912,10.56671,-106.0028,0.122803,0.586426,-0.218994,41.03088,15.098571,31.875608
1.188477,0.340576,-0.436768,177.528366,10.009766,-122.398369,0.148682,0.572266,-0.195801,26.115416,22.53723,34.0271
1.655273,0.010498,-0.5354,166.00798,93.238823,-197.143539,0.180176,0.568848,-0.153076,11.093139,28.297422,35.621643
1.35083,0.225586,-0.414551,175.926193,35.522461,-155.250549,0.224365,0.55542,-0.110107,-2.304077,31.35681,38.047791
1.445068,0.151123,-0.44751,172.843918,59.30328,-169.677719,3.072754,0.966309,0.76001,229.660019,-60.104366,-99.494926
1.550293,0.089844,-0.493408,169.853195,80.963127,-183.456406,0.09375,0.626709,-0.12207,149.635315,-31.021116,39.718628
0.88208,0.512451,-0.528564,157.737732,17.570496,-73.051453,3.24585,0.964111,0.794922,234.626755,-48.141476,-142.463684
1.269043,0.290283,-0.414551,177.780136,17.799377,-139.701843,-0.161133,-0.491455,0.003906,63.323971,46.485897,-24.124144
0.834961,0.539551,-0.507568,148.300171,15.289306,-66.215515,3.137695,0.555176,0.684326,244.201645,-58.868404,-221.359238
0.885986,0.407959,-0.235596,91.171257,-9.719849,-36.026001,0.275391,0.532715,-0.072998,-12.908935,31.929014,40.946957
0.88208,0.519775,-0.371582,127.258293,3.700256,-57.66296,-0.143799,-0.560059,-0.006592,70.144653,66.574097,-37.834167
0.922852,0.513916,-0.321045,117.691032,-1.846313,-53.062435,-0.122803,-0.604492,-0.021729,76.004028,84.182732,-49.667355
0.939209,0.500244,-0.298584,108.795158,-6.17218,-46.798702,-0.068604,-0.621582,-0.031982,81.192009,97.351067,-59.158321
0.931885,0.464355,-0.267578,99.685661,-8.392334,-41.023251,0.006836,-0.603027,-0.026855,85.258476,105.88073,-66.810608
0.791992,0.348633,-0.205078,82.450859,-9.887695,-29.975889,0.074463,-0.571533,-0.000244,88.066093,111.053459,-74.72229
0.656738,0.299805,-0.186523,72.624207,-10.688781,-20.835875,0.147461,-0.535645,0.037598,89.256279,114.532463,-84.243767
0.530273,0.262939,-0.166748,62.416073,-13.198852,-10.894774,0.235107,-0.499268,0.093262,87.951653,116.538994,-95.748894
0.441406,0.229736,-0.149902,52.047726,-17.929077,-2.044678,0.334229,-0.476074,0.154541,85.548393,117.401115,-110.214226
0.359375,0.205322,-0.146973,41.007992,-25.039671,5.683898,0.43457,-0.454834,0.19873,84.014885,116.027824,-126.609795
0.303955,0.187744,-0.152832,29.243467,-32.112122,11.863708,0.546875,-0.431396,0.233643,83.854668,110.252373,-144.210815
0.833008,0.541016,-0.45459,137.535095,9.681702,-60.829159,0.673096,-0.433838,0.261475,84.381096,95.993034,-163.635239
1.763428,-0.065918,-0.583984,161.621078,99.411003,-209.312424,0.808838,-0.516602,0.271973,90.583794,67.680359,-185.569748
0.268066,0.171143,-0.155029,17.913818,-38.314819,16.212463,0.995605,-0.622559,0.262695,104.385368,26.756285,-208.961472
2.045166,-0.134033,-0.595703,157.287598,114.135735,-207.900986,1.251465,-0.671631,0.246826,122.329704,-16.273499,-232.627853
0.552002,-0.491211,-0.098389,47.523495,-31.761168,62.911983,1.551758,-0.638672,0.238525,142.333984,-52.284237,-248.512253
0.336182,-0.537109,-0.085205,53.558346,-32.737732,55.610653,1.85791,-0.525879,0.244385,162.200912,-78.414917,-249.992355
0.163818,-0.582031,-0.061279,61.721798,-29.891966,49.522396,2.13623,-0.343994,0.271729,180.213913,-97.412102,-249.992355
0.061523,-0.616699,-0.028564,72.227478,-25.177,41.465755,2.361572,-0.119629,0.338867,195.381149,-111.137383,-249.992355
0.032715,-0.64502,-0.014648,84.640495,-18.493652,28.190611,2.554932,0.104004,0.420166,207.420334,-118.591301,-249.862656
0.070313,-0.658447,-0.006836,97.862236,-7.324218,8.392334,2.734863,0.298828,0.47998,215.744003,-116.256706,-249.923691
0.101807,-0.638916,0.006104,109.886162,5.41687,-13.59558,2.885498,0.417969,0.518555,223.464951,-101.799004,-249.992355
0.123535,-0.606445,0.029053,121.139519,15.495299,-34.759521,3.006104,0.462891,0.579346,235.221848,-79.330444,-245.498642
0.13916,-0.56958,0.046143,131.019592,21.110533,-54.672237,3.261475,0.770752,0.7771,242.912277,-47.45483,-185.04332
0.155029,-0.534912,0.019043,138.572693,19.058228,-73.188782,0.341553,0.513916,-0.0625,-21.759031,31.822203,44.097897
1.903809,-0.114746,-0.599121,159.500122,107.170097,-213.378891,0.088379,-0.404785,0.294922,161.514267,80.726616,-144.386292
0.181885,-0.501465,-0.038818,143.798828,8.125305,-88.691704,0.464111,0.453613,-0.07251,-32.569885,28.45001,49.865719
0.337402,-0.401855,-0.21167,149.276733,-13.565063,-105.201714,0.077148,-0.247803,0.044922,93.635551,-4.898071,-36.16333
0.480957,-0.338135,-0.314941,149.810791,-14.244079,-110.465996,0.051758,-0.302979,0.067383,101.112358,2.334595,-49.713131
0.650391,-0.250977,-0.414307,148.612976,-5.455017,-114.730827,0.018555,-0.34668,0.104736,108.39843,11.520385,-62.591549
0.835938,-0.168945,-0.48999,145.820618,8.499146,-120.376579,-0.040039,-0.371582,0.151611,115.348808,21.537779,-75.775146
1.018066,-0.139648,-0.523926,143.714905,20.553587,-130.592346,-0.077393,-0.381104,0.19165,121.566765,31.929014,-88.439934
1.200684,-0.157715,-0.529785,144.577026,33.164978,-141.059875,-0.081055,-0.380859,0.223877,127.449028,41.770931,-100.059502
1.437988,-0.16626,-0.575928,147.163391,52.131649,-152.748108,-0.074951,-0.383545,0.246338,133.483887,51.467892,-110.702507
1.664795,-0.136963,-0.614502,149.024963,74.508667,-165.359482,-0.050293,-0.393555,0.257568,140.144348,61.126705,-120.346062
1.869141,-0.11499,-0.619629,151.58844,96.30584,-178.092941,-0.010986,-0.397705,0.269043,147.17865,70.480347,-128.90625
2.025146,-0.125732,-0.602295,154.716492,111.305229,-193.824753,0.040039,-0.398193,0.282959,154.190063,77.728271,-136.703491
0.230713,-0.462646,-0.120117,147.247314,-4.951477,-99.19738,0.136719,-0.205566,0.041992,86.21978,-8.483887,-20.622252
0.779053,-0.451904,-0.127441,41.366573,-27.366636,74.783325,0.405273,0.487793,-0.067871,-28.167723,30.906675,47.424313
0.248779,0.152344,-0.164551,7.720947,-42.488094,18.783569,0.209961,-0.419678,0.33252,178.016647,69.999695,-157.524109
0.198486,0.105713,-0.196777,-9.170532,-43.136593,22.064207,0.297119,-0.389404,0.354004,185.234055,59.715267,-162.910446
1.436768,-0.514404,-0.379883,69.847107,10.238647,-4.951477,0.409668,-0.3479,0.362549,192.306503,51.078793,-168.098434
1.035645,-0.418457,-0.258057,84.060661,-2.563476,18.371582,0.552979,-0.313477,0.363281,200.218185,47.599789,-173.744186
0.802979,-0.317871,-0.133057,100.013725,-15.373229,31.463621,0.735352,-0.28833,0.370117,208.816513,52.459713,-179.649338
0.668701,-0.262207,-0.040527,115.188591,-23.002623,30.899046,0.955078,-0.259766,0.376709,217.277512,67.733765,-186.622604
0.599609,-0.260742,0.026611,128.868103,-25.161741,18.585205,1.205811,-0.204102,0.388672,224.73143,90.927116,-195.823654
0.479004,-0.274902,0.060547,140.960693,-24.513243,3.059387,1.452637,-0.112549,0.413574,230.369553,113.914482,-206.954941
0.311279,-0.27832,0.090576,150.520325,-23.620604,-10.665893,1.696289,-0.012451,0.456299,234.168991,126.464836,-217.750534
0.170898,-0.286621,0.136963,158.935547,-25.459288,-24.002073,1.966553,0.073486,0.510498,236.549362,122.283928,-223.564133
0.072754,-0.303711,0.188477,167.762741,-32.562256,-38.955688,0.141602,-0.419922,0.309082,169.692978,77.911377,-151.45874
0.010498,-0.328613,0.239502,176.948532,-43.464657,-54.13818,0.270752,-0.175781,0.020264,79.368591,-7.736206,-4.920959
2.078857,-0.527344,-0.474365,57.571407,14.404296,-29.617308,2.300781,0.106689,0.554443,236.038193,100.227348,-221.656784
-0.023193,-0.346924,0.25293,185.440048,-54.51202,-67.863464,0.721436,-0.052734,-0.030273,65.093994,4.257202,26.466368
-0.000244,-0.374268,0.2771,200.080856,-68.79425,-92.315666,0.544678,0.432861,-0.07959,-35.850525,25.894163,52.406307
0.039307,-0.384277,0.283691,207.130417,-69.618225,-104.675285,0.642578,0.415283,-0.090576,-37.521362,22.300718,55.412289
0.10791,-0.393799,0.275635,213.493332,-65.628052,-117.942802,0.748047,0.404053,-0.106934,-36.750793,14.739989,59.799191
0.185547,-0.38623,0.266846,218.528732,-58.570858,-131.637573,0.863037,0.405762,-0.130615,-34.52301,4.524231,65.811157
0.251221,-0.377197,0.26416,222.740158,-51.750179,-145.004272,0.950195,0.39917,-0.150879,-30.189512,-7.56073,70.716858
0.314941,-0.373779,0.258789,227.6306,-47.615047,-155.975342,1.067871,0.399902,-0.195557,-24.772642,-16.929626,74.256897
0.398438,-0.365234,0.228027,231.567368,-44.334408,-163.604721,0.466553,-0.137207,-0.010986,72.364807,-2.63977,9.170532
0.482178,-0.346191,0.176514,234.466537,-41.297909,-169.120773,1.359131,0.406982,-0.285645,-12.924193,-13.458251,80.787651
0.584961,-0.318115,0.109863,236.259445,-38.925171,-174.07988,1.4729,0.375488,-0.336426,-5.783081,-3.440857,81.619255
0.721436,-0.275635,0.024902,236.366257,-36.842346,-180.206284,1.602783,0.319092,-0.366943,1.907349,10.0708,81.848137
-0.019775,-0.360107,0.260742,193.176254,-63.354488,-80.314629,1.785156,0.242432,-0.376953,10.604857,28.770445,83.099358
2.496338,-0.363525,-0.544678,45.394894,0.190735,-38.619995,1.215576,0.406982,-0.240479,-19.15741,-18.890381,77.552795
0.230713,0.133301,-0.177246,-1.243591,-43.579098,20.271299,2.235107,0.112061,-0.384766,22.712706,97.427361,89.988701
2.365723,0.152832,-0.588135,30.59387,-9.933472,-24.665831,2.385254,0.069336,-0.4021,23.849485,134.506226,99.731438
0.167969,0.062012,-0.213867,-16.273499,-43.441769,24.131773,2.412354,-0.0271,-0.394043,26.268003,153.427124,110.435478
0.142578,0.017578,-0.233643,-23.078917,-44.540401,26.733397,2.308838,-0.221191,-0.3396,35.91156,139.656067,118.537895
0.133301,-0.006104,-0.273926,-30.311583,-45.783993,29.312132,2.11792,-0.353516,-0.240967,50.125118,92.742912,124.984734
0.156982,-0.018555,-0.322754,-37.979126,-46.646114,30.09796,2.02002,-0.26123,-0.142822,57.319637,34.965515,128.944397
0.198486,-0.027344,-0.368896,-45.722958,-46.058651,29.159544,1.984863,-0.037598,-0.097656,55.625912,0.045776,125.358574
0.243896,-0.043945,-0.403564,-52.886959,-44.250484,26.679991,1.916016,0.134277,-0.082275,53.215023,-1.899719,111.007683
2.523682,-0.07373,-0.581055,35.415649,-18.501282,-32.485962,1.650146,0.152832,-0.048584,54.649349,6.134033,85.288994
0.373291,-0.095947,-0.421143,-61.531063,-38.887024,17.959595,1.158691,0.063477,-0.0354,58.891293,8.171082,53.649899
0.468506,-0.12915,-0.425537,-60.69183,-32.501221,12.329101,2.01416,0.169678,-0.37915,17.753601,58.181759,84.625237
0.581299,-0.168945,-0.448486,-56.198116,-20.713804,7.110595,0.560547,-0.59375,0.198486,87.760918,102.844231,-153.633118
0.68335,-0.19873,-0.505615,-49.22485,-4.890442,2.250671,0.389648,-0.636719,0.212158,88.951103,102.210991,-139.785767
0.300293,-0.065918,-0.417969,-58.692928,-42.16766,23.086546,0.224854,-0.683105,0.224121,91.567986,102.34832,-127.487175
0.859131,-0.262939,-0.636719,-32.165527,28.396605,-6.889343,0.072754,-0.726074,0.222656,94.978325,103.004448,-116.493217
0.916748,-0.274414,-0.694092,-23.773191,38.543701,-10.528563,-0.280762,-0.683105,0.007324,104.934685,80.79528,-56.53381
0.986816,-0.256104,-0.73584,-16.601563,43.17474,-12.191772,-0.133057,-0.769531,0.169434,101.814262,102.249138,-93.452446
1.067627,-0.218262,-0.771729,-9.857178,43.41888,-12.405395,-0.191162,-0.762207,0.12085,104.911797,97.633354,-82.405083
1.191895,-0.151367,-0.786621,-3.417969,38.002014,-11.169433,-0.244629,-0.738281,0.064941,106.414787,90.309135,-70.648193
1.378906,-0.088135,-0.786865,2.5177,29.380796,-10.742187,-0.051025,-0.756348,0.202637,98.388664,103.645317,-105.049126
1.616943,-0.080078,-0.786133,9.284973,24.597166,-12.413024,0.736816,-0.569336,0.203125,88.012688,101.783745,-169.67009
1.861572,-0.099609,-0.770508,17.524719,28.068541,-15.48767,3.788086,1.031006,0.785889,242.004379,-160.552979,-151.229858
2.083984,-0.012451,-0.73877,24.116514,30.815123,-19.218445,1.111084,-0.52832,0.277832,89.302055,85.365288,-207.923874
2.234375,0.140625,-0.662842,27.786253,17.601013,-21.820066,1.349365,-0.48999,0.331543,90.858452,68.885803,-230.1483
0.775879,-0.230469,-0.57251,-40.824886,12.489318,-2.319336,1.655273,-0.42041,0.38501,94.65789,47.996517,-247.657761
0.026855,-0.71875,0.111816,147.399902,-2.380371,-65.223694,2.037109,-0.30542,0.446289,100.395195,23.200987,-249.992355
-0.026123,-0.753418,0.094971,134.536743,-9.20105,-41.259762,2.469727,-0.137695,0.520752,107.360832,-6.050109,-249.977097
-0.085205,-0.754639,0.098877,121.063225,-17.272949,-17.982483,2.916016,0.058838,0.601563,117.370598,-41.816708,-249.610886
-0.134766,-0.734619,0.087158,107.299797,-23.857115,1.861572,3.32373,0.250732,0.657715,133.995056,-82.275383,-249.992355
0.151855,-0.57373,-0.009766,52.001949,-26.969908,69.396973,3.631592,0.444336,0.670654,158.01239,-119.964592,-249.992355
-0.115723,-0.676025,0.063965,82.588188,-25.444029,35.095215,3.801758,0.645996,0.681152,185.485825,-147.186279,-226.11235
-0.073486,-0.63623,0.039795,70.854187,-24.80316,48.652645,3.840332,0.832764,0.74585,214.805588,-162.574753,-190.07872
0.019775,-0.59668,0.010742,60.531612,-25.779722,59.570309,-0.288818,-0.597656,-0.049072,100.143425,68.748474,-39.527893
-0.143311,-0.703125,0.07251,94.314568,-26.05438,19.340515,0.914307,-0.550293,0.233398,88.577263,96.496574,-187.904343
0.091064,-0.67041,0.131348,160.064697,3.40271,-85.998528,-0.280518,-0.504639,-0.075439,92.369072,56.106564,-19.798279
2.040771,0.06543,-0.458496,248.825058,21.736143,-167.9077,2.195068,0.165283,-0.121826,-22.331236,2.456665,167.533859
0.226807,-0.52832,0.17041,184.165939,6.248474,-119.300835,-0.219971,-0.356689,-0.049805,71.403503,36.392212,22.949217
0.334473,-0.464355,0.175293,195.915207,4.005432,-129.821777,3.637451,1.301025,0.775146,249.992355,-131.30188,-109.130852
0.462891,-0.410645,0.137451,206.245407,2.655029,-138.450623,1.541992,0.335205,-0.360596,-120.11718,-84.045403,64.77356
0.593018,-0.355225,0.071533,214.485153,2.487183,-144.012451,1.762207,0.383545,-0.383057,-112.266533,-53.421017,69.213867
0.748291,-0.294189,-0.001221,220.748886,3.227234,-146.018982,1.962891,0.431885,-0.372314,-106.407158,-16.342163,79.322815
0.946045,-0.22583,-0.074219,226.188644,5.966186,-149.002075,2.135986,0.43042,-0.330322,-100.624077,19.004822,91.720573
1.143799,-0.160889,-0.154053,231.292709,8.44574,-152.938843,2.308838,0.342773,-0.284912,-88.264458,47.58453,103.042595
1.363525,-0.099121,-0.230713,236.145004,9.925842,-156.303406,2.518066,0.338135,-0.310791,-79.414368,74.485779,115.638725
1.602051,-0.039795,-0.317383,240.966782,14.251708,-158.828735,2.712402,0.355225,-0.355957,-75.050354,101.699821,133.354187
1.852783,0.017822,-0.393555,245.933517,21.759031,-163.467392,2.823242,0.280762,-0.360596,-68.908691,120.864861,149.787903
0.299316,-0.55957,-0.024902,45.173641,-25.848387,79.589844,2.770264,0.126221,-0.322754,-55.725094,116.432182,159.996033
0.158203,-0.605957,0.145508,172.225937,6.645202,-104.537956,-0.260498,-0.426514,-0.075439,82.244865,45.005795,1.495361
0.460449,-0.554688,-0.043457,39.482117,-19.630432,90.156548,2.595459,-0.015869,-0.257568,-38.825989,78.75824,169.601425
1.827393,0.045166,-0.662598,-53.565975,23.254393,99.792473,2.376953,0.136719,-0.150391,-26.466368,0.88501,181.503281
0.838623,-0.551025,-0.126221,28.060911,5.653381,105.422966,1.753662,0.110107,-0.106689,-17.715454,6.729125,147.315979
2.204102,0.121338,-0.526611,248.878464,11.71112,-171.195969,1.181396,-0.00415,-0.135742,-11.20758,0.854492,128.486633
0.437256,0.177979,-0.163086,-105.804436,-47.386166,44.967648,0.723389,-0.12207,-0.172363,-2.13623,-6.309509,115.402214
0.55835,0.165039,-0.217041,-111.488335,-34.90448,42.594906,0.44751,-0.209961,-0.171143,8.056641,-7.270813,107.109062
0.679199,0.151611,-0.276855,-116.325371,-21.110533,41.450497,0.243896,-0.25293,-0.133057,18.920898,-1.441955,98.274223
0.790527,0.135986,-0.326172,-119.35424,-8.506775,41.625973,0.101807,-0.266357,-0.102539,30.487059,7.919311,87.127678
0.892578,0.116455,-0.375,-120.529167,1.182556,43.922421,-0.008545,-0.26416,-0.078857,42.4118,16.952515,74.058533
1.000488,0.085693,-0.420166,-119.598381,8.31604,48.133846,-0.091064,-0.274658,-0.048584,52.74963,24.269102,59.646603
1.117432,0.048828,-0.461426,-116.600029,14.579772,53.581234,-0.154785,-0.306396,-0.032227,61.614986,30.273436,42.900082
1.231445,0.015625,-0.501953,-110.580437,23.101805,60.195919,2.46582,0.022461,-0.198242,-29.548643,27.313231,180.641159
1.329346,0.000488,-0.541992,-101.325981,34.126282,68.603516,3.232666,1.501465,0.727539,249.992355,-88.027946,-76.545715
0.642334,-0.546143,-0.075684,34.103394,-8.094788,99.708549,1.296387,0.312744,-0.330566,-128.982544,-99.861137,64.529419
1.405029,0.025146,-0.56665,-90.049736,41.641232,79.048157,1.703613,1.35498,0.439941,249.992355,-48.431393,-67.375183
1.629883,0.082275,-0.619385,-64.163208,31.410215,97.152702,1.936768,0.550537,-0.122559,-63.392635,-63.117977,95.268242
1.989746,0.013184,-0.686279,-45.82214,9.223938,98.94561,2.011475,0.539063,-0.186523,-58.609005,-51.887508,101.493828
2.189453,0.054932,-0.679688,-42.03796,-7.942199,97.946159,2.165527,0.528809,-0.240479,-54.565426,-31.265257,109.809868
2.417725,0.035889,-0.625488,-39.123535,-20.057678,97.633354,2.375732,0.494385,-0.260498,-51.345821,8.766174,122.76458
2.62207,-0.117676,-0.562256,-33.584595,-19.645691,95.596306,2.518066,0.436523,-0.240234,-47.531124,62.561031,137.565613
2.765625,-0.391846,-0.510498,-24.375914,-0.617981,83.106987,2.524902,0.388916,-0.20459,-44.029232,110.633842,150.764465
2.599121,-0.652588,-0.426514,-11.749267,23.590086,69.366455,2.394775,0.349609,-0.180908,-40.100098,137.214661,160.03418
2.030762,-0.746826,-0.352295,1.525879,35.102844,74.195862,2.203857,0.306641,-0.176514,-35.652161,135.002136,165.840134
1.46582,-0.687744,-0.279541,12.779235,31.913755,90.270988,2.007568,0.293457,-0.170898,-34.744263,110.260002,166.618332
1.091064,-0.597412,-0.203369,21.110533,20.004272,102.645866,1.812012,0.271484,-0.143311,-37.895203,79.574585,156.936646
1.490723,0.062988,-0.580811,-76.980591,39.131165,89.363091,1.841553,0.571777,-0.073486,-68.122864,-71.495056,88.180534
0.306641,0.199951,-0.114014,-99.182121,-58.952328,47.7066,1.644775,0.180664,-0.125488,-39.955139,52.131649,139.671326
2.353271,0.159668,-0.60083,247.192368,4.737854,-173.309311,1.138428,-0.089111,-0.140381,-31.173704,10.162353,105.682365
2.530762,0.282715,-0.665771,239.98259,14.495849,-175.399765,0.875244,-0.194336,-0.151855,-24.681089,-2.449036,96.702568
0.833252,0.379883,-0.446533,-91.590874,-17.837524,55.572506,0.619385,-0.280762,-0.152832,-15.304564,-10.093688,88.546745
0.947021,0.366943,-0.51709,-91.26281,-7.240295,63.880917,0.380859,-0.344971,-0.170654,-2.571106,-16.403198,77.285767
1.033203,0.35376,-0.56958,-90.75927,-1.426697,73.59314,0.234619,-0.384766,-0.157715,10.673522,-18.852234,65.231323
1.118652,0.330322,-0.602295,-89.805595,0.839233,84.426872,0.199219,-0.401367,-0.110596,23.071287,-15.396117,55.282589
1.223389,0.304932,-0.614746,-86.685173,6.286621,96.221916,0.122559,-0.401611,-0.053711,33.813477,-8.781433,43.708797
1.309814,0.283936,-0.614502,-80.101013,17.417908,109.176628,0.008301,-0.395752,-0.00708,42.098995,-0.282288,28.373716
1.367432,0.264404,-0.620361,-70.579529,29.731749,122.985832,-0.077393,-0.408691,0.011963,49.423214,10.978698,10.742187
1.424561,0.258057,-0.620605,-60.56213,36.773682,135.345459,-0.141846,-0.433105,0.014648,56.52618,26.81732,-7.545471
1.492676,0.244629,-0.613525,-51.055904,34.301758,143.592834,1.419434,0.039063,-0.123291,-36.872864,28.663633,120.475761
1.729004,0.205322,-0.58252,-36.865234,2.403259,148.956299,1.709473,0.585693,-0.052734,-72.58606,-77.217102,81.359856
0.705566,0.387451,-0.371826,-90.805046,-29.525755,47.630306,2.502686,1.501465,0.585693,249.992355,-55.442806,-65.315247
1.877197,0.184814,-0.57373,-31.906126,-19.348145,149.513245,1.349365,0.54248,-0.016846,-82.885735,-66.02478,71.731567
2.227295,0.050049,-0.530273,-22.384642,-48.912045,145.088196,1.033203,1.144043,0.332275,249.877914,-64.453125,-70.793152
2.362061,-0.055908,-0.518799,-17.456055,-51.36871,139.022827,0.542969,0.934082,0.230469,249.992355,-95.16906,-72.738647
2.403076,-0.19873,-0.500732,-11.817931,-42.999264,129.249573,0.235107,0.797363,0.143555,249.992355,-129.013062,-74.317932
2.300049,-0.356445,-0.462646,-3.189087,-27.06146,117.59948,0.115479,0.760742,0.066162,245.26976,-152.267456,-73.631287
2.038086,-0.431396,-0.415527,7.514953,-14.175414,110.069267,0.111572,0.772217,-0.051025,230.972275,-151.817322,-70.281982
1.675049,-0.401123,-0.398682,15.975951,-10.101317,111.450188,0.10498,0.778564,-0.185791,215.66008,-123.718254,-67.863464
1.375977,-0.359619,-0.370361,21.743773,-12.96234,113.029472,-0.010986,0.898193,-0.4646,172.69133,-34.492493,-63.2019
1.210693,-0.381836,-0.279297,28.167723,-18.257141,105.072014,-0.115234,1.023193,-0.578369,145.927429,3.860473,-57.075497
1.020264,-0.422852,-0.185059,34.996033,-22.697447,90.164177,-0.151855,1.162842,-0.649414,112.93792,41.78619,-48.927303
2.480225,0.209717,-0.660645,244.400009,8.857727,-174.049362,-0.146484,1.274902,-0.645752,72.090149,81.726067,-35.339355
2.05249,0.132324,-0.543945,-27.481077,-37.857056,148.651123,0.074707,0.812744,-0.317383,195.938095,-79.444885,-67.28363
0.57251,0.383301,-0.293213,-87.707512,-38.452148,39.001465,-0.091797,1.211426,-0.355469,-9.368896,120.185844,2.006531
1.598633,0.222412,-0.593262,-43.121334,21.659849,148.002625,-0.128418,1.287109,-0.534424,28.823851,110.748283,-17.89093
0.315918,0.394043,-0.161377,-75.767517,-41.793819,25.032042,0.957764,0.576172,0.040771,-91.26281,-33.004761,66.978455
0.445068,0.385254,-0.2229,-82.5653,-42.304989,31.22711,0.764404,0.62793,0.071045,-91.804497,-12.130736,66.230774
2.292236,0.32666,-0.62207,220.756516,-31.47888,-182.159409,0.592529,0.692627,0.098145,-91.194145,8.361816,65.658569
2.121826,0.243164,-0.59082,210.983261,-52.932735,-182.083115,0.42041,0.753662,0.118408,-91.293327,29.594419,64.941406
1.858643,0.18042,-0.510986,204.757675,-49.514767,-168.90715,1.153564,0.547852,0.01123,-88.203423,-51.086422,68.80188
1.5354,0.210938,-0.430664,197.906479,-33.699036,-144.599915,0.139404,0.919434,0.107666,-80.978386,74.478149,55.709835
1.290771,0.25293,-0.337891,187.988266,-14.144897,-124.633781,0.059326,1.003174,0.003418,-64.743042,94.66552,42.778011
1.020508,0.286865,-0.217041,176.238998,1.518249,-110.435478,-0.023682,1.106934,-0.167236,-41.03088,112.060539,23.16284
0.750488,0.340088,-0.110596,163.505539,10.261535,-97.56469,0.255615,0.841797,0.131104,-89.408867,52.574154,62.240597
0.532959,0.402832,-0.012451,149.69635,14.808654,-89.385979,1.536865,0.564209,-0.040039,-77.110291,-76.217651,75.248718
0.344238,0.47583,0.049316,136.291504,15.815734,-83.19854,2.945313,-0.09668,-0.354004,-82.94677,62.286373,249.740585
0.136963,0.50293,0.06958,123.13842,10.665893,-75.004578,1.361572,0.420898,-0.275146,-117.736809,27.076719,104.721062
2.44165,0.338379,-0.641357,232.223495,0.709534,-178.092941,1.56958,0.368896,-0.297119,-115.188591,35.53772,107.246391
-0.174316,0.51001,0.019775,92.620842,-5.836486,-50.666805,1.814209,0.338867,-0.346924,-112.037651,47.775265,110.946648
-0.062256,0.504639,0.051758,108.7799,1.983642,-62.965389,2.085205,0.385742,-0.4104,-116.21093,67.5354,121.452324
0.050293,0.454346,-0.117432,-58.059689,-31.845091,14.427184,2.381836,0.281982,-0.42334,-115.821831,87.425224,139.526367
-0.053711,0.49292,-0.139404,-45.158382,-25.93231,10.726928,2.709717,0.114746,-0.459961,-113.357536,102.195732,161.720261
-0.125244,0.517822,-0.149902,-28.099058,-22.415159,7.469177,3.012451,0.022705,-0.52002,-119.186394,115.562431,188.911423
-0.192871,0.516357,-0.142578,-8.926392,-20.271299,3.410339,3.171631,-0.046143,-0.522949,-120.49102,120.185844,223.09874
0.177979,0.419678,-0.123291,-67.970276,-38.024902,19.714355,3.119629,-0.125244,-0.444824,-103.286736,101.318352,247.550949
-0.290771,0.503662,-0.094971,33.462524,-15.151977,-11.344909,-0.162598,-0.509521,0.012695,18.02063,5.630493,40.702816
-0.298584,0.499756,-0.056641,54.817196,-13.351439,-23.521421,2.275391,0.103271,-0.182861,-74.661255,19.676208,239.265427
-0.253906,0.50293,-0.016357,74.798584,-10.963439,-37.582397,1.766113,0.052734,-0.133057,-69.030762,18.966675,216.865524
-0.249512,0.507568,-0.121582,11.573791,-18.089294,-2.510071,1.184082,-0.024658,-0.103027,-64.727783,16.906738,199.081406
1.155029,0.188477,-0.617676,-110.244743,32.76062,86.410515,0.609619,-0.118652,-0.100098,-58.647152,14.747619,178.939804
0.272461,0.298096,-0.220947,-68.084717,-55.549618,64.094543,0.197021,-0.206543,-0.102783,-48.202511,12.748717,152.763367
0.405029,0.311035,-0.304443,-80.01709,-49.34692,63.865658,-0.039551,-0.301025,-0.085693,-34.507751,12.153625,125.976555
0.525391,0.316895,-0.39209,-91.491692,-39.367676,63.720699,-0.119141,-0.386475,-0.04126,-19.943237,12.557982,102.523796
0.629395,0.299316,-0.468018,-101.249687,-27.412413,64.331055,-0.129883,-0.446045,0.000732,-7.095336,12.443542,81.970207
0.734375,0.275879,-0.530029,-109.03167,-14.98413,66.253662,-0.137451,-0.487793,0.018799,5.195617,10.292052,61.782833
0.839355,0.24585,-0.561523,-114.456169,-1.785278,69.549561,1.150879,0.445801,-0.260498,-116.485588,18.226624,101.943962
0.12915,0.290283,-0.145996,-55.053707,-57.098385,61.302181,2.825684,0.030273,-0.264404,-76.477051,31.044004,249.992355
0.943359,0.21875,-0.58252,-116.363518,11.070251,74.386597,0.982178,0.584473,-0.263184,-119.453423,9.483337,93.734734
1.039795,0.203857,-0.606201,-114.929192,22.468565,80.528252,-0.266113,1.03125,-0.216309,22.743223,-21.77429,-2.471924
1.284912,0.175781,-0.618164,-102.577202,41.542049,91.903679,0.670166,0.493164,-0.287354,-104.99572,-1.800537,85.494987
2.326172,0.080078,-0.64502,-54.832455,4.837036,80.67321,3.32373,1.119873,0.450439,217.338547,-87.783806,-75.6073
1.606201,0.169678,-0.615234,-82.122795,41.725155,99.166862,2.750488,1.182617,0.329102,203.041061,-102.676384,-59.387203
1.831299,0.138916,-0.611328,-71.792603,30.700682,95.626823,2.086182,1.148438,0.27124,188.240036,-113.922112,-54.88586
2.071045,0.10791,-0.62915,-62.58392,15.945434,88.98925,1.459229,1.034912,0.21582,174.301132,-117.507927,-53.833004
2.532471,0.005371,-0.638184,-47.46246,1.045227,73.265076,0.93457,0.898438,0.155762,159.568787,-117.248528,-52.383419
2.610596,-0.11792,-0.60083,-40.214535,-1.213074,70.495605,0.508789,0.787109,0.065918,144.668579,-115.058891,-53.390499
2.584961,-0.259521,-0.555176,-33.370972,-7.194519,66.749573,0.260742,0.735352,0.022705,131.088257,-105.8731,-53.588863
2.460693,-0.404785,-0.498047,-26.489256,-12.092589,58.769222,0.148682,0.733154,0.010742,117.034904,-86.082451,-47.813412
2.156494,-0.5,-0.419434,-19.515991,-13.34381,57.693478,0.050781,0.779053,-0.056641,103.782646,-64.247131,-38.9328
1.749512,-0.51001,-0.328369,-11.550902,-14.419555,67.321777,-0.127686,0.875,-0.111816,91.857903,-48.370358,-32.966614
0.017822,0.30127,-0.077148,-43.16711,-53.87878,55.053707,0.855469,0.678467,-0.308105,-123.435966,2.822876,82.374565
1.423828,0.174561,-0.620605,-92.712395,45.486446,97.167961,-0.310303,0.971436,-0.115234,80.207825,-40.466305,-27.412413
-0.079346,0.330078,-0.01123,-33.195496,-49.171444,52.11639,-0.32666,1.060303,-0.184326,43.258663,-28.427122,-12.08496
1.425293,-0.4646,-0.229004,-3.158569,-14.503478,76.133728,-0.207764,-0.528809,0.002197,31.951902,0.465393,17.715454
-0.258301,0.354736,0.074219,-8.018494,-32.38678,43.075558,-0.176758,1.008057,-0.216064,2.555847,-15.670775,8.575439
2.058594,0.105225,-0.986816,198.211655,41.28265,-135.856628,-0.078857,1.01123,-0.210205,-16.76178,-10.414123,19.020081
2.209229,0.119629,-1.005859,194.686874,41.679379,-137.72583,0.011475,1.0354,-0.217529,-35.484314,-5.432128,29.426573
2.374268,0.155518,-0.99585,194.35881,47.676083,-139.450073,0.097168,1.010498,-0.217285,-51.216122,-3.128052,40.679928
2.488525,0.216553,-0.947998,194.572433,54.38995,-141.075134,0.203125,0.934326,-0.222168,-65.971375,-3.814697,51.437374
2.549561,0.355225,-0.846924,193.878159,39.413452,-144.927979,0.32666,0.796143,-0.238037,-80.345146,-3.570556,61.683651
2.525635,0.425049,-0.782471,190.925583,-6.614685,-153.419495,0.460693,0.593994,-0.245605,-89.561455,-1.739502,73.379517
2.38208,0.406982,-0.759277,184.356674,-54.420467,-153.953552,0.569092,0.49292,-0.265381,-97.084038,0.053406,83.663933
2.132813,0.357666,-0.708252,177.177414,-73.646545,-139.36615,-0.369629,1.045166,-0.135254,63.606258,-34.690857,-20.111082
1.84668,0.325928,-0.642822,170.219406,-59.455868,-120.513908,-0.251709,-0.561768,-0.005127,46.440121,-0.518799,-6.790161
1.529297,0.295898,-0.56958,158.401489,-27.9541,-100.524895,2.643311,0.108643,-0.220459,-77.400208,20.950315,249.992355
-0.172852,0.348389,0.040283,-21.598814,-43.144222,49.21722,-0.268799,-0.624023,-0.023438,60.69183,5.355834,-31.867979
1.090332,0.293457,-0.489502,144.004822,3.501892,-77.018738,0.458008,1.314453,0.240479,148.94104,-56.335445,-42.587276
0.489258,0.326904,-0.282471,116.889946,32.897949,-46.012875,0.137451,1.166016,0.178955,132.972717,-71.243286,-42.472836
0.319824,0.372559,-0.184082,102.401726,28.358458,-38.406372,-0.020508,1.044189,0.102295,116.134636,-83.45031,-39.726257
0.174561,0.378418,-0.046143,87.989799,19.790649,-33.996582,-0.108154,0.961426,-0.012451,99.616997,-86.791985,-35.91156
0.040283,0.348145,0.058594,75.828552,10.772704,-27.832029,-0.129395,0.917725,-0.114014,82.054131,-77.301025,-30.96771
-0.07959,0.333252,0.112305,64.682007,4.257202,-19.241333,-0.150879,0.884521,-0.174805,64.292908,-56.083675,-25.93231
-0.169678,0.339111,0.119873,53.207394,0.160217,-8.544922,-0.161377,0.847168,-0.226074,45.913692,-30.395506,-22.071836
-0.239258,0.345459,0.117188,40.977474,-1.647949,3.471374,-0.146973,0.813721,-0.266357,27.389524,-3.448486,-17.25769
-0.283691,0.355225,0.11084,28.732298,-2.418518,15.35797,-0.123779,0.777832,-0.296875,9.803772,20.843504,-8.987427
-0.307129,0.355713,0.104004,17.089844,-7.965087,26.527403,-0.168945,0.722412,-0.292236,-21.77429,39.299011,9.162903
-0.301758,0.356934,0.09082,4.989624,-19.042969,35.369873,1.127441,1.498047,0.290771,160.97258,-43.205257,-35.728455
0.725586,0.308594,-0.399414,130.54657,25.451658,-58.212276,-0.181396,0.71167,-0.29834,-35.53009,30.4718,13.336181
1.190918,-0.430664,-0.141357,4.615784,-14.503478,77.896118,-0.056152,0.635498,-0.226318,-61.050411,-9.849548,29.273985
0.955811,-0.432617,-0.064697,11.901855,-13.099669,73.066711,0.036133,0.593262,-0.16626,-74.09668,-29.983519,40.054321
0.726318,-0.45874,-0.009766,19.737244,-11.70349,62.606808,0.145752,0.559814,-0.109863,-91.873161,-45.501705,48.980709
2.31958,0.211426,-0.922607,167.457565,49.018856,-148.719788,0.289551,0.513672,-0.111328,-115.898125,-55.763241,53.298946
2.270508,0.301514,-0.88916,162.376389,36.2854,-148.757935,0.433838,0.416748,-0.132568,-133.460999,-61.103817,56.991573
2.127197,0.329102,-0.838379,154.495239,2.761841,-150.772095,0.561768,0.361816,-0.173584,-143.1427,-66.474915,62.126156
1.933105,0.275879,-0.790527,147.132874,-31.433104,-144.073486,0.681641,0.423096,-0.248779,-157.546997,-79.238892,63.720699
1.711914,0.246582,-0.741699,141.532898,-45.211788,-124.580376,0.870361,0.457275,-0.290039,-161.079391,-95.962517,60.333248
1.520264,0.266602,-0.678711,135.055542,-35.438538,-104.064934,1.085205,0.385254,-0.313965,-144.90509,-103.759758,61.607357
1.329834,0.307617,-0.588623,125.427238,-13.755797,-85.998528,-0.258057,-0.719238,-0.038086,75.012207,19.332886,-56.02264
1.046143,0.362061,-0.505127,113.655083,7.888793,-70.091248,-0.13623,0.671387,-0.281982,-47.439571,11.421203,19.40155
0.751953,0.419434,-0.427734,99.647514,24.841307,-57.319637,2.025635,1.66333,0.336914,169.105515,-35.736084,-27.610777
0.545166,0.445557,-0.337158,84.274284,35.476685,-49.293514,-0.128174,0.743652,-0.304932,-6.652832,36.254883,1.502991
2.277832,0.125244,-0.941406,168.548569,44.967648,-149.078369,3.494141,1.444336,0.43457,185.058578,-84.060661,-56.930538
0.364258,0.45874,-0.26709,68.878174,39.512634,-42.991634,2.898926,1.674805,0.380859,176.231369,-46.852108,-30.96771
0.025635,0.4646,-0.144287,35.102844,25.588987,-29.113768,-0.200928,-0.927734,-0.030029,98.930351,63.995358,-89.569084
-0.124756,0.436523,-0.047607,19.706726,11.299132,-19.264221,-0.149414,-0.983643,-0.01709,106.460564,81.115715,-100.296013
-0.224365,0.412354,0.008789,5.455017,-3.265381,-6.759643,-0.089355,-0.983154,0.002686,112.091057,92.994682,-109.947197
-0.287598,0.402588,0.033203,-8.842468,-16.746521,6.324768,0.009277,-0.932373,0.042236,116.073601,99.647514,-118.629448
-0.334229,0.414063,0.037598,-23.857115,-31.532286,20.050049,0.132568,-0.843506,0.067139,117.34771,102.493279,-126.785271
-0.315674,0.425293,0.029541,-38.398743,-47.668453,33.042908,0.266113,-0.737549,0.069824,115.875237,103.637688,-136.367798
-0.249512,0.409668,0.022705,-51.780697,-60.577389,42.961117,0.410156,-0.634033,0.060303,112.739555,103.47747,-148.429871
-0.150879,0.379639,0.013184,-63.575741,-67.558289,48.332211,0.556396,-0.549561,0.051514,109.580986,100.662224,-162.742599
-0.043945,0.332764,-0.006592,-73.783875,-69.519043,49.575802,0.693604,-0.485107,0.043701,106.63604,92.674248,-178.878769
0.058105,0.285156,-0.030273,-83.145134,-68.55011,49.293514,0.834717,-0.44751,0.037842,104.225151,78.643799,-196.296677
0.188721,0.476807,-0.229736,51.803585,35.78949,-36.369324,1.019043,-0.427979,0.024658,103.324883,60.745235,-215.064987
2.134521,0.089111,-0.934814,166.755661,39.245605,-148.033142,-0.234131,-0.832764,-0.039063,88.478081,41.206356,-75.737
0.165039,0.23584,-0.06665,-91.476433,-66.009521,48.812862,3.696533,1.019043,0.424561,190.780624,-121.368401,-106.37664
1.911621,-0.001953,-0.84082,161.201462,52.536007,-145.759583,1.566162,-0.302002,-0.016846,103.73687,28.381346,-249.29808
0.493164,-0.481201,0.008301,26.046751,-16.273499,52.101131,1.925537,-0.150879,-0.00415,104.972832,18.844604,-249.992355
0.257813,-0.511475,0.034912,32.775879,-25.863646,43.823238,2.320801,0.057373,0.041504,107.063286,12.245177,-249.992355
0.046143,-0.539551,0.072021,40.351864,-36.376953,37.528992,2.706543,0.288086,0.09668,109.924309,3.204345,-249.68718
-0.104736,-0.568604,0.087402,47.294613,-46.203609,32.966614,3.063721,0.460938,0.127686,116.333,-12.023925,-249.992355
-0.192627,-0.603516,0.087646,55.107113,-52.101131,27.770994,3.398438,0.510986,0.129395,127.563469,-30.868528,-249.992355
-0.213867,-0.638916,0.080811,63.705441,-53.146358,20.477293,3.670166,0.514893,0.142578,138.549805,-50.598141,-236.740097
2.006348,0.05249,-0.888672,164.00145,43.601986,-147.651672,3.762695,0.513184,0.243408,155.265808,-76.904297,-201.484665
-0.136963,-0.706299,0.085938,84.236137,-40.100098,-8.659363,3.74292,0.634521,0.367188,179.824814,-112.190239,-158.981323
-0.103027,-0.711182,0.07959,95.108025,-30.761717,-28.511045,1.261963,-0.389648,-0.000488,103.523247,42.716976,-236.343369
-0.071533,-0.687256,0.060303,104.858391,-23.132322,-49.179073,0.059326,0.724854,-0.139648,135.452271,-88.531487,18.074036
-0.046387,-0.639648,0.0271,113.18206,-18.02063,-66.841125,0.098877,0.68335,-0.126221,144.760132,-104.194633,19.676208
-0.183838,-0.675049,0.081299,73.417664,-48.759457,8.476257,0.1604,0.63208,-0.0979,152.938843,-119.636528,22.094725
0.100098,-0.502686,-0.099121,127.04467,-14.717101,-88.127129,0.224365,0.581055,-0.066895,161.163315,-132.545471,25.337217
0.218506,-0.433838,-0.178955,132.125854,-11.016845,-95.443718,1.654297,0.567139,-0.039795,203.445419,-106.0028,56.52618
0.359619,-0.361572,-0.258545,135.475159,-3.952026,-99.777214,0.486816,0.55957,-0.013672,181.205734,-140.388489,36.03363
0.547119,-0.291992,-0.330078,138.1073,5.523681,-103.050224,0.80127,0.571777,0.001709,189.842209,-131.584167,42.945858
0.746338,-0.24585,-0.391113,140.625,14.144897,-108.322136,1.166504,0.583984,-0.006836,197.700485,-118.247978,47.805782
0.945801,-0.206543,-0.448975,142.868042,20.080564,-114.166252,0.017578,0.753906,-0.157227,125.137321,-73.768616,16.777039
1.155029,-0.154297,-0.515625,145.172119,23.742674,-120.574944,0.30835,0.55835,-0.039063,170.936569,-140.197754,29.380796
1.374023,-0.134521,-0.612549,148.551941,28.572081,-128.28064,-0.016113,0.765381,-0.185303,113.517754,-62.33215,15.411376
1.611084,-0.124512,-0.709473,153.114319,39.260864,-136.070251,0.171143,0.640381,-0.325928,29.71649,-9.422302,42.724606
1.798096,-0.074707,-0.790527,157.615662,50.86517,-142.01355,-0.002441,0.758789,-0.241455,86.196892,-44.723507,16.479492
0.007324,-0.572998,-0.024658,120.36132,-16.136169,-79.109192,0.012695,0.738037,-0.260742,71.95282,-36.682129,20.248411
0.820068,0.518555,-0.549316,151.741028,-12.908935,-50.23193,0.049316,0.734863,-0.286377,56.373592,-28.373716,25.93231
0.878906,0.474365,-0.570801,163.673386,-3.52478,-56.007381,0.11084,0.712646,-0.311279,41.40472,-18.676758,34.156799
1.050049,0.385498,-0.563965,173.561081,8.148193,-68.717957,0.248047,0.619629,-0.3396,16.860962,2.220154,50.926205
1.293213,0.292236,-0.563477,181.053146,17.654419,-85.235588,0.310791,0.568115,-0.343262,7.156372,12.222289,60.05859
2.176758,0.287109,-0.675049,197.708115,16.914368,-134.712219,0.385986,0.539551,-0.351074,-0.328064,19.462585,63.438412
1.848877,0.240967,-0.591553,190.986618,13.008117,-121.101372,0.484131,0.630371,-0.383545,-13.72528,30.96771,66.03241
2.100586,0.294189,-0.618408,194.709763,6.790161,-134.872437,0.554199,0.580811,-0.356934,-21.179197,39.199829,75.370789
2.232666,0.324463,-0.639893,196.975693,8.636475,-137.428284,0.624023,0.486572,-0.343994,-23.956297,37.727356,83.641045
1.561523,0.237305,-0.570313,186.576828,19.645691,-103.012077,-0.025635,0.762207,-0.210449,100.5783,-52.947994,15.11383
0.840332,0.516113,-0.491943,139.778137,-16.914368,-50.422665,2.218018,0.480957,-0.0896,206.825241,-97.496025,66.741943
-0.042236,0.134277,-0.02417,40.885921,-40.588375,8.995056,0.72583,0.473145,-0.340332,-28.358458,36.087036,88.279716
0.841064,0.435791,-0.300781,118.911736,-5.859375,-50.704952,3.058838,0.018555,0.035645,216.278061,-87.310783,58.860775
0.776611,0.363525,-0.185303,112.18261,1.625061,-48.46191,0.287842,-0.120117,0.182129,93.1549,-13.336181,-232.353195
0.67334,0.304199,-0.11377,106.369011,4.844666,-46.859737,0.299561,-0.125488,0.175049,95.214836,-10.391234,-235.099777
0.533447,0.276611,-0.073486,98.503105,3.852844,-43.998714,0.363037,-0.13501,0.173096,97.198479,-5.096435,-234.352097
0.379883,0.258301,-0.036133,89.675896,0.793457,-37.574768,0.407471,-0.146973,0.174072,99.761955,-2.052307,-231.780991
0.243652,0.239746,-0.000488,80.490105,-2.822876,-28.823851,0.431641,-0.164551,0.18457,102.653496,-2.922058,-230.812057
0.149658,0.218506,0.022217,71.990967,-6.79779,-20.278929,0.496582,-0.173584,0.200439,105.506889,-7.751464,-229.850754
0.086182,0.19458,0.03418,63.926693,-12.46643,-12.687682,0.599121,-0.168701,0.229492,107.704155,-17.150879,-226.982101
0.041504,0.172119,0.026611,56.343075,-19.599915,-5.943298,0.708252,-0.154785,0.259521,109.489433,-31.448362,-223.442062
-0.007568,0.151611,0.004395,48.728939,-29.067991,1.335144,0.820557,-0.145508,0.280762,111.534111,-47.935482,-220.504745
2.065674,0.204834,-0.710449,198.410019,26.466368,-134.841919,0.981934,-0.158447,0.302246,114.105217,-64.346313,-215.545639
0.856445,0.48999,-0.407715,128.646851,-13.885497,-51.765438,2.701172,0.284424,-0.080566,211.448654,-93.238823,68.084717
1.912598,0.115234,-0.717041,196.807846,26.771544,-135.856628,1.170654,-0.188965,0.323975,117.744438,-80.566399,-208.061203
0.35083,-0.327393,-0.044434,132.804871,-31.524656,-111.129753,1.671143,-0.288818,0.328125,130.218506,-101.21154,-187.026962
1.460205,-0.00708,-0.669434,185.218796,24.765013,-136.84082,2.050049,-0.348633,0.292236,141.586304,-93.223564,-173.057541
-0.046875,0.122803,-0.064697,32.646179,-52.185055,16.487122,2.44873,-0.375977,0.242432,152.587891,-65.460205,-154.083252
0.647705,-0.13208,-0.229492,96.488945,11.940001,-57.090755,2.783203,-0.357422,0.226318,158.981323,-27.992247,-127.784721
0.505615,-0.139404,-0.164307,98.396294,10.971068,-62.789913,3.033203,-0.343018,0.262695,163.146957,0.617981,-98.045341
0.376709,-0.158447,-0.109375,100.303642,7.293701,-68.191528,3.189941,-0.393066,0.334229,170.730576,8.895874,-67.817688
0.265625,-0.182617,-0.067383,102.241508,2.197266,-72.769165,3.322998,-0.489258,0.387451,182.037338,-1.472473,-37.414551
0.172363,-0.209473,-0.04126,103.927605,-3.173828,-74.760437,3.377197,-0.54541,0.435791,195.915207,-24.330137,-9.635925
0.122559,-0.238525,-0.015625,106.323235,-8.239746,-76.568604,3.301514,-0.46875,0.34082,208.694443,-51.300045,15.670775
0.102051,-0.270752,0.006592,109.558098,-13.404845,-79.101563,3.234375,-0.25708,0.175781,216.018661,-73.669434,39.81781
0.092773,-0.29541,0.017334,113.258354,-19.241333,-82.176201,1.381836,-0.233887,0.336182,122.840874,-94.711296,-199.02037
0.113281,-0.307373,0.025146,117.271416,-25.215147,-87.120049,0.271729,-0.118652,0.185303,91.117851,-11.367797,-230.552658
1.672607,0.054199,-0.699463,191.551193,23.16284,-135.238647,0.821045,0.415527,-0.324463,-30.769346,36.323547,90.843193
0.154297,-0.313477,0.027832,121.086113,-30.487059,-93.65081,1.076904,0.316895,-0.327881,-27.709959,41.687008,96.130363
0.267822,-0.321777,-0.014648,128.761292,-35.438538,-105.957024,-0.276367,-0.717529,0.270996,130.187988,76.461792,-170.623764
0.443359,-0.332031,-0.076904,137.779236,-24.971006,-116.600029,-0.226318,-0.737061,0.29126,135.414124,79.284668,-178.443893
0.553955,-0.325195,-0.124023,143.013,-17.532349,-122.673027,-0.144531,-0.720215,0.315918,139.793396,79.566956,-184.181198
0.655762,-0.310791,-0.186523,148.025513,-10.078429,-128.578186,-0.025879,-0.671143,0.328613,141.967773,78.857422,-189.361557
0.765381,-0.27832,-0.264404,152.351379,-4.898071,-134.002686,0.115723,-0.606934,0.336182,143.234253,76.950073,-194.847092
0.868896,-0.251953,-0.349121,156.570435,-0.534058,-137.947083,0.253174,-0.543945,0.330566,144.78302,72.692871,-201.553329
0.992188,-0.226074,-0.440918,161.60582,6.607055,-140.25116,0.400391,-0.503906,0.315674,146.17157,64.552307,-210.914597
1.106201,-0.204346,-0.532471,167.572006,16.845703,-141.487122,0.558105,-0.486084,0.306885,147.796631,53.222652,-221.366867
1.21582,-0.154785,-0.602539,173.19487,25.650023,-141.098022,0.740479,-0.472656,0.302979,150.650024,38.787842,-233.978256
1.327148,-0.079346,-0.639648,178.802475,27.915953,-139.572144,0.953125,-0.453857,0.302734,154.60968,22.15576,-247.03215
0.200928,-0.320313,0.013428,124.961845,-34.568787,-100.448601,-0.297363,-0.664795,0.243164,124.580376,68.92395,-159.843445
-0.02124,0.112793,-0.117188,23.620604,-61.714169,23.651121,1.205078,-0.424805,0.314941,159.408569,4.974365,-249.992355
0.780029,-0.130859,-0.305908,93.978874,8.811951,-50.918575,1.834717,-0.327148,0.335938,171.157822,-24.665831,-249.992355
0.088867,0.075195,-0.215332,6.454467,-68.16864,32.775879,2.201172,-0.265869,0.33667,177.833542,-33.843994,-249.992355
0.310791,-0.34082,0.032227,99.525444,-27.259825,19.592285,2.599121,-0.186279,0.339355,185.691818,-40.161129,-249.969467
0.146729,-0.375,0.100586,112.976067,-24.909971,8.796692,3.009277,-0.07666,0.337158,195.327744,-50.796505,-249.68718
0.007568,-0.40918,0.158936,125.892632,-23.056028,-1.602173,3.437012,-0.009521,0.354248,207.649216,-68.206787,-249.992355
-0.083496,-0.437988,0.217041,138.908386,-23.941038,-13.885497,3.898438,0.016113,0.400391,217.55217,-76.10321,-249.992355
-0.123291,-0.455566,0.260742,152.061462,-27.763365,-28.884886,4.261719,0.091553,0.456787,220.649704,-62.07275,-230.010971
-0.134277,-0.453613,0.288086,163.848862,-33.065796,-44.410702,4.345947,0.243408,0.539063,225.410446,-44.30389,-198.448166
-0.12207,-0.450439,0.293945,173.095688,-38.070679,-59.242245,4.164795,0.521973,0.605469,229.881271,-47.401424,-153.22113
-0.092773,-0.454346,0.290527,180.557236,-42.121883,-73.570251,0.929932,0.338379,-0.310059,-29.678343,36.712646,93.917839
-0.047363,-0.459473,0.281738,186.714157,-45.539852,-87.005608,1.501709,-0.380859,0.330078,165.222153,-11.169433,-249.992355
0.012695,-0.468506,0.263428,192.199692,-48.370358,-98.587029,-0.298828,-0.584229,0.208252,117.927544,57.502743,-145.179749
0.478027,-0.301514,-0.040527,86.357109,-28.70178,29.541014,3.829834,0.88501,0.582764,226.486191,-69.358826,-106.140129
0.079346,-0.473145,0.23291,196.777328,-51.589962,-106.842033,-0.241211,-0.444092,0.126465,100.166313,39.024353,-105.11779
0.276367,-0.466309,0.140869,202.972397,-53.077694,-114.044182,-0.288086,-0.501709,0.166992,109.664909,46.417233,-126.785271
0.440186,-0.451416,0.094727,205.253586,-47.088619,-117.210381,1.283936,0.406494,-0.390137,-25.779722,63.293453,103.004448
0.631104,-0.425537,0.050781,207.878098,-37.879944,-121.902458,1.371826,0.36377,-0.409668,-19.493103,67.588806,106.399529
0.804443,-0.372314,-0.020752,210.601791,-27.915953,-126.747124,1.48291,0.305908,-0.452881,-11.886596,66.711426,106.414787
0.967529,-0.290283,-0.127197,212.043747,-18.760681,-130.516052,1.680176,0.233154,-0.502197,-5.142211,67.03949,106.834404
1.138428,-0.182861,-0.254639,211.776718,-9.223938,-131.233215,1.983643,0.128906,-0.55249,-2.182007,77.133179,108.795158
1.320557,-0.079346,-0.42041,210.227951,0.778198,-130.241394,2.393555,0.018066,-0.609619,-7.5531,103.187553,115.570061
1.523438,-0.01416,-0.613037,208.412155,12.413024,-132.713318,2.722168,-0.112793,-0.633301,-17.501831,133.361816,132.080078
1.707031,0.033936,-0.783203,206.45903,24.765013,-136.253357,2.782227,-0.302246,-0.598633,-17.829895,147.033691,155.693054
1.888428,0.074219,-0.910889,203.369125,36.026001,-135.643005,2.591064,-0.499023,-0.538818,-1.358032,130.393982,176.72728
0.160645,-0.4729,0.189941,200.180038,-54.298397,-111.572258,2.367676,-0.532227,-0.493408,21.194456,88.592522,191.673264
0.625,-0.282715,-0.120117,73.471069,-31.425474,36.018372,1.195068,0.381592,-0.370361,-27.626036,52.009579,98.701469
0.029541,0.092041,-0.167969,14.923095,-67.100525,29.052732,2.141846,-0.142334,-0.384277,32.051086,16.929626,191.604599
1.237305,-0.355957,-0.307373,44.754025,-33.111572,14.091491,1.961182,0.028809,-0.320557,27.542112,14.518737,171.333298
0.167236,0.062012,-0.256104,-2.39563,-64.720154,35.980225,1.639893,0.072998,-0.220215,25.375364,20.874022,147.911072
0.263672,0.048828,-0.285645,-10.795592,-55.732723,37.475586,1.024902,0.02002,-0.126709,25.268553,24.497984,117.332451
0.369873,0.030273,-0.298828,-16.983032,-42.510983,36.29303,0.442383,-0.089844,-0.081055,28.808592,23.071287,78.994751
0.4646,0.003662,-0.30542,-20.1416,-27.587889,33.51593,0.122314,-0.207031,-0.067383,37.414551,18.745422,41.816708
0.552979,-0.025635,-0.326416,-22.15576,-13.877868,30.548094,0.0354,-0.291016,-0.046875,48.118587,15.037536,13.046264
0.645508,-0.054443,-0.351563,-22.293089,-2.632141,26.161192,0.016357,-0.333984,-0.012451,58.860775,15.312194,-9.902954
0.82666,-0.30127,-0.191406,59.822079,-34.347534,32.38678,-0.026611,-0.361572,0.02832,69.816589,21.224974,-32.356262
0.836426,-0.099609,-0.428711,-17.906189,13.992309,14.259337,-0.083984,-0.385498,0.06665,80.55114,28.785704,-56.327816
0.920898,-0.101318,-0.483643,-15.243529,18.386841,10.131835,-0.159424,-0.407959,0.097168,90.240471,34.255981,-81.17675
1.015625,-0.086914,-0.527588,-12.20703,20.500181,7.362365,2.24585,-0.369873,-0.435303,32.12738,43.365475,199.134811
1.120605,-0.072266,-0.558594,-7.743835,20.988462,5.088806,3.017578,0.141602,0.186768,121.047966,-12.908935,-249.80162
0.74292,-0.081055,-0.383545,-20.706175,6.752014,20.271299,2.973633,0.141846,0.119873,110.519402,2.243042,-249.900803
1.356201,0.043213,-0.656982,0.724792,10.467528,6.843566,2.849121,0.129883,0.09375,106.170647,18.486023,-249.992355
1.54248,0.073975,-0.73877,5.0354,6.935119,7.67517,2.65625,0.009277,0.091797,104.652397,37.025452,-249.977097
1.731445,0.050049,-0.824463,8.399963,10.475158,7.446289,1.136475,-0.434814,0.02124,122.032158,115.07415,-172.164902
1.892334,0.079834,-0.867676,9.078979,10.559081,6.141662,2.008301,-0.354736,0.060059,108.52813,64.903259,-228.332504
2.066406,0.243164,-0.808838,6.645202,-7.408142,3.303528,1.696289,-0.435303,0.043701,111.228935,81.062309,-209.030136
2.255615,0.36084,-0.662598,5.53894,-47.607418,-1.022339,1.403564,-0.449219,0.032227,115.737907,98.480217,-190.299973
2.459717,0.272949,-0.581543,5.882263,-87.051384,-7.980346,3.061035,0.25,0.297363,133.605957,-32.226563,-249.992355
2.637939,-0.038086,-0.592529,9.422302,-83.038322,-16.357422,2.349609,-0.188477,0.085938,106.010429,51.36871,-244.445786
2.49707,-0.313965,-0.526123,19.226074,-49.652096,-22.102354,3.176025,0.50293,0.441162,138.35907,-45.639034,-247.184738
1.897217,-0.391113,-0.429443,31.082151,-32.196045,-10.414123,0.811279,1.132813,0.3479,57.350155,-113.647453,-149.932861
1.228027,-0.02002,-0.598389,-3.479004,17.623901,4.974365,2.435303,1.173096,0.61792,107.696526,-5.195617,-204.528793
1.52832,-0.018799,-0.854736,150.428772,25.436399,-171.012863,1.89209,1.172607,0.596436,90.75927,-15.602111,-196.136459
1.347656,-0.064453,-0.768066,151.794434,27.267454,-174.056992,1.406738,1.123779,0.529297,77.346802,-45.951839,-183.540329
1.214844,-0.115479,-0.64624,153.144836,30.624388,-175.613388,1.020996,1.102783,0.435059,68.099976,-83.511345,-167.793259
1.076904,-0.155518,-0.482666,155.74646,33.561707,-175.178513,0.664063,1.139648,0.2854,45.700069,-128.295898,-131.866455
0.427979,-0.529297,0.013672,140.197754,16.609192,-144.073486,0.544678,1.114258,0.269287,33.569336,-122.741692,-115.478508
0.785156,-0.307373,-0.122803,158.981323,36.270142,-170.761093,0.464844,1.07373,0.256348,18.844604,-101.165764,-101.181023
0.668945,-0.378174,-0.026611,155.487061,36.399841,-164.192184,0.322754,1.0271,0.1875,3.494262,-77.24762,-88.966362
0.549072,-0.441162,-0.000732,148.223877,29.640196,-154.632568,0.154541,0.978516,0.064209,-9.82666,-64.77356,-77.171326
0.928711,-0.221436,-0.294678,159.011841,34.858704,-173.660263,0.919922,-0.423828,0.017822,130.073547,129.562378,-153.999329
1.708252,0.028076,-0.884033,151.313782,25.207518,-167.846664,3.18457,0.824219,0.54248,133.811951,-38.200378,-227.577194
0.631348,0.334229,-0.35791,98.495476,-37.879944,33.477783,0.75,-0.435791,0.014893,138.381958,139.389038,-136.299133
2.05835,0.109375,-0.851807,159.118652,36.178589,-158.576965,-0.188965,-0.701416,-0.107178,106.117241,35.682678,17.166138
2.206543,0.179932,-0.812744,164.405807,54.420467,-154.060364,0.491211,-0.520996,0.028564,150.886536,133.728027,-106.12487
2.218994,0.300781,-0.761475,164.352402,55.717464,-148.551941,2.792969,-0.279297,-0.49292,-95.748894,92.247002,220.855698
2.109375,0.362305,-0.722168,160.644516,25.382994,-144.546509,2.439697,-0.251221,-0.400391,-85.83831,71.258545,214.820847
1.90918,0.32666,-0.709229,153.785706,-19.462585,-140.037537,2.041992,-0.299561,-0.295898,-71.075439,55.084225,195.526108
1.637695,0.218262,-0.68457,144.294739,-53.161617,-125.961296,1.581299,-0.368408,-0.210938,-55.320736,41.793819,171.867355
1.342773,0.105225,-0.611084,136.535645,-64.720154,-94.833366,1.126709,-0.436768,-0.168945,-40.977474,31.715391,152.71759
1.059326,0.114258,-0.547852,127.906792,-60.195919,-52.078243,0.792725,-0.506592,-0.182129,-25.321959,25.207518,141.288757
0.842041,0.174561,-0.502686,118.278496,-51.727291,-9.82666,0.489746,-0.560059,-0.195068,-6.240844,20.935057,129.829407
0.709717,0.258057,-0.438232,109.230034,-43.388363,20.614622,0.241699,-0.593506,-0.177734,14.289855,17.417908,113.464348
0.304199,-0.634033,0.008057,130.470276,0.892639,-132.6828,0.112793,-0.62207,-0.157715,33.493042,15.251159,95.451347
1.857178,0.082031,-0.878906,154.335022,25.642393,-163.284286,0.046387,-0.661865,-0.148438,52.429195,15.968322,78.75824
0.185791,-0.73999,-0.020264,118.324272,-13.702392,-119.056694,0.611328,-0.4729,0.016357,145.217896,141.105652,-120.323174
1.231445,-0.712158,0.071533,-41.053768,3.814697,74.157715,-0.041992,-0.681641,-0.129395,72.021484,19.889832,61.126705
-0.001953,-0.9021,-0.048096,92.002861,-38.948059,-84.388725,0.046143,0.942383,-0.055664,-21.347044,-64.674377,-61.889645
0.543945,0.374023,-0.271484,86.47155,-38.9328,34.439087,-0.205078,-0.744629,-0.098389,120.582573,46.455379,-3.410339
1.841309,0.283203,-0.44751,-87.013237,47.409054,128.646851,-0.208496,-0.810791,-0.074219,132.69043,56.678768,-21.27075
1.9646,0.272949,-0.506592,-78.887939,38.169861,131.126404,-0.214844,-0.873535,-0.073242,141.738892,66.062927,-37.101746
2.108887,0.341064,-0.561279,-73.96698,7.362365,130.241394,-0.180176,-0.913086,-0.077881,149.330139,73.852539,-49.705502
2.329102,0.437012,-0.602051,-70.075989,-25.733946,127.983086,-0.096924,-0.894531,-0.057373,155.632019,79.902649,-58.601376
2.562744,0.452393,-0.624023,-68.626404,-45.303341,129.104614,0.004639,-0.824707,-0.013428,159.461975,85.609428,-65.872192
2.756348,0.307373,-0.595459,-69.541931,-54.794308,131.17981,0.106934,-0.730957,0.03125,160.194397,93.955986,-73.188782
2.898193,0.068115,-0.517334,-70.831299,-66.986084,123.825066,0.226563,-0.643555,0.049805,158.294678,106.269829,-82.038872
2.922363,-0.175293,-0.445557,-73.318481,-80.451958,104.339592,0.363037,-0.573975,0.04541,154.960632,120.841972,-93.116753
2.709473,-0.408691,-0.359375,-73.135376,-79.544067,92.750542,-0.135498,-0.685303,-0.109863,90.12603,26.44348,40.092468
0.094238,-0.837402,-0.048096,105.522148,-26.664732,-102.294914,0.000244,0.914063,-0.120117,-32.646179,-72.845459,-42.961117
2.317139,-0.555176,-0.238037,-67.634583,-61.164852,97.496025,2.918213,1.070313,0.59082,122.711174,-17.097473,-213.569626
1.620605,-0.662354,-0.010986,-50.73547,-11.978148,92.361443,-0.038574,0.862793,-0.161377,-55.6488,-96.42791,-15.129088
0.738037,-0.747803,0.105713,-31.341551,4.806519,59.379574,1.687256,-0.588867,-0.338623,33.363342,145.248413,100.730888
0.306641,-0.774414,0.109375,-22.087095,-4.882813,50.170895,1.633789,-0.654297,-0.272949,32.318115,151.542664,102.050774
0.01416,-0.815186,0.105713,-12.306212,-18.424988,43.04504,1.55957,-0.713135,-0.195557,32.501221,150.917053,104.072563
-0.117188,-0.883057,0.111572,0.305176,-31.425474,32.150269,1.460449,-0.705566,-0.084229,31.990049,142.150879,108.085625
-0.150146,-0.938965,0.106689,15.800475,-41.458126,15.480041,1.311768,-0.63623,0.022217,29.426573,125.213615,110.595695
-0.176514,-0.949951,0.072021,31.707762,-48.080441,-3.753662,1.135742,-0.54126,0.098633,25.489805,99.388115,105.186455
-0.164063,-0.947998,0.028076,47.7066,-51.628109,-22.78137,1.015381,-0.456299,0.122559,24.513243,68.061829,91.76635
-0.128906,-0.947754,0.003662,64.170837,-51.62048,-43.55621,0.97168,-0.387695,0.10791,27.687071,35.705566,74.783325
-0.077881,-0.935547,-0.030762,78.468323,-47.744747,-64.659119,0.935059,-0.327637,0.083496,33.52356,7.995605,55.191036
1.932861,-0.609375,-0.126953,-59.906002,-35.820007,102.020256,0.887695,-0.25293,0.064697,40.138245,-13.259887,34.080505
1.660889,0.334229,-0.390625,-98.281853,37.918091,124.458305,1.696289,-0.565186,-0.373779,34.317017,133.995056,98.579399
0.423828,0.391846,-0.16748,73.699951,-44.021603,30.570982,0.7771,-0.163086,0.054688,47.309872,-28.19824,8.605957
0.206543,0.349854,-0.086182,47.828671,-53.581234,27.923582,0.555664,-0.014404,0.025635,59.898373,-31.295774,-52.528378
1.541748,-0.074463,-0.511963,-48.675533,-51.376339,106.117241,0.454346,0.011719,0.011719,66.734314,-20.629881,-85.426323
1.586426,-0.120361,-0.501221,-46.691891,-46.890255,104.553215,0.378418,0.009277,0.014648,73.905945,-5.531311,-116.34063
1.616699,-0.167236,-0.487549,-41.90826,-37.55188,99.83062,0.300293,0.002686,0.020996,79.200745,8.354187,-143.089294
1.624756,-0.2229,-0.467773,-34.667969,-25.253294,91.117851,0.205322,-0.009766,0.021484,83.480827,17.440796,-166.717514
1.581787,-0.283936,-0.457275,-25.863646,-14.587401,81.115715,0.153564,-0.037109,0.043945,87.898247,21.331785,-187.225327
1.475342,-0.334473,-0.469971,-16.76178,-8.453369,72.174072,0.152344,-0.064697,0.080811,90.75927,20.225523,-203.025803
1.40625,-0.373779,-0.480225,-7.942199,-4.28772,62.904354,0.176758,-0.083008,0.117188,91.690056,13.801574,-213.676437
1.40332,-0.374512,-0.492432,1.754761,2.258301,51.986691,0.190918,-0.096436,0.145996,91.552727,3.601074,-222.21373
1.465088,-0.318115,-0.510498,11.566161,15.586852,39.909363,-0.041016,0.886719,-0.158203,-43.937679,-85.20507,-26.489256
1.623047,-0.238525,-0.535889,33.370972,63.293453,13.183593,0.655762,-0.078369,0.042725,53.924557,-34.141541,-20.668028
1.47998,-0.015381,-0.520996,-48.271175,-49.880978,105.339043,1.690674,-0.555176,-0.389648,32.791138,117.668144,97.80883
1.623047,-0.225098,-0.536377,43.830868,83.686821,-0.816345,0.211182,-0.109131,0.175537,90.866081,-5.53894,-228.546127
1.391846,-0.201172,-0.54248,62.057491,88.630669,-19.439697,1.654541,-0.463379,-0.333984,19.248962,87.219231,99.563591
1.250244,-0.157471,-0.545166,69.946289,69.725037,-24.696348,1.68457,-0.525146,-0.37793,27.519224,101.051323,99.174492
1.1604,-0.104736,-0.544189,75.775146,40.603634,-29.655455,0.152832,0.824219,-0.209229,-81.565849,-104.301445,2.548218
1.110107,-0.059814,-0.559082,79.078674,10.589599,-33.058167,0.313477,0.799805,-0.268066,-95.062248,-100.662224,10.459899
1.090088,-0.04126,-0.554932,81.123344,-10.231017,-35.15625,0.478516,0.775146,-0.362305,-106.704704,-93.513481,18.188477
1.089355,-0.050781,-0.535645,83.94622,-17.616272,-38.063049,0.634277,0.76123,-0.492432,-116.630547,-85.487358,26.046751
1.056885,-0.06958,-0.516846,86.677544,-14.793395,-40.611263,0.771973,0.741455,-0.629395,-124.282829,-75.393677,37.002563
0.980957,-0.095703,-0.480469,89.035027,-7.17926,-42.961117,0.914063,0.709961,-0.753418,-129.356384,-59.944149,50.6134
0.888672,-0.117432,-0.405518,91.300957,1.800537,-46.06628,1.076172,0.638184,-0.8396,-131.42395,-38.955688,65.254211
0.309082,0.388184,-0.116699,60.56213,-49.690243,28.030394,1.231445,0.560303,-0.842041,-128.15094,-12.611388,80.749504
1.528564,-0.220215,-0.53833,53.489681,92.941277,-11.871337,1.356934,0.484131,-0.753418,-120.338432,17.837524,97.06115
1.414795,0.044434,-0.509277,-45.410152,-42.144772,102.21862,1.440918,0.400146,-0.616699,-109.771721,45.379635,109.832756
1.551514,-0.267578,-0.527344,22.171019,37.406921,27.359007,0.029541,0.84375,-0.175293,-68.161011,-102.951042,-5.935668
1.299316,0.119629,-0.422852,-37.445068,-15.975951,91.148369,1.516113,0.241699,-0.412354,-83.801262,72.845459,122.573845
1.357422,0.09082,-0.475342,-41.458126,-30.082701,97.015373,1.546143,0.178467,-0.354004,-71.19751,77.690125,124.259941
0.089844,0.272461,-0.141113,23.597715,-54.412838,31.127928,1.582275,0.104248,-0.360352,-59.463497,78.742981,124.26757
0.046387,0.240723,-0.168701,10.06317,-53.749081,33.981323,1.612061,0.01709,-0.375,-47.195431,75.767517,124.076836
0.005615,0.202393,-0.170898,-1.548767,-52.12402,38.627625,1.635254,-0.071289,-0.380127,-34.751892,70.480347,122.703545
0.003906,0.187012,-0.170654,-11.482238,-47.45483,42.938229,1.666016,-0.145996,-0.374268,-24.002073,68.107605,119.338982
0.050049,0.178955,-0.157227,-20.324705,-36.628723,43.235775,1.696289,-0.213867,-0.362305,-14.389037,69.900513,114.868156
0.091553,0.175049,-0.126221,-28.106688,-22.560118,41.725155,1.70459,-0.278809,-0.344482,-5.393981,73.417664,110.656731
0.095703,0.17334,-0.097412,-34.217834,-9.338379,40.382381,1.668457,-0.334229,-0.314453,2.845764,76.515198,105.796806
0.095215,0.169434,-0.078125,-38.536072,-0.198364,39.642334,1.638184,-0.39624,-0.305176,10.780334,79.742432,101.173393
0.139648,0.169922,-0.092285,-41.206356,6.340026,39.215088,1.483154,0.313477,-0.497314,-97.099297,63.354488,117.774956
0.214111,0.171387,-0.121826,-43.55621,11.802672,39.039612,-0.029541,-0.950195,0.016846,119.621269,60.722347,-106.483452
0.145752,0.310059,-0.10083,36.109924,-54.580685,29.21295,0.168701,-0.179443,-0.069336,-75.164795,-34.27124,122.093193
0.398926,0.146729,-0.116455,-45.150753,18.920898,39.833069,0.45166,-0.099854,-0.10376,-89.836113,-40.702816,156.852722
0.303711,0.159668,-0.123291,-45.104977,16.105652,38.917542,0.984619,0.019287,-0.135498,-102.355949,-44.448849,193.946823
1.176758,0.119629,-0.304443,-32.615662,8.636475,78.010559,2.669189,-0.262695,-0.592041,-129.127502,125.343315,247.871384
1.110596,0.117676,-0.26123,-32.592773,14.915465,71.105957,2.179932,0.168945,-0.295654,-113.861076,-45.082088,244.88829
1.039063,0.119385,-0.217285,-33.943176,16.716003,64.39209,2.321777,0.074707,-0.392578,-110.221855,-39.466858,249.992355
0.950928,0.127197,-0.18042,-36.010742,16.448975,58.387753,2.371338,-0.132813,-0.496826,-105.506889,-9.45282,249.992355
1.234619,0.123535,-0.359131,-34.172058,-2.182007,84.884636,2.479248,-0.293701,-0.576172,-112.228386,53.146358,249.862656
0.719971,0.144531,-0.134277,-40.718075,15.983581,49.102779,1.708252,0.130371,-0.201172,-110.710136,-45.753475,225.074753
0.602783,0.144775,-0.122314,-42.625423,17.562866,45.249935,0.048828,-0.229004,-0.032471,-60.295101,-24.574278,93.055717
0.494629,0.145508,-0.116211,-44.151302,19.271851,42.182919,-0.323242,-0.499512,-0.054199,22.041319,-13.992309,-12.680053
0.840332,0.136719,-0.15332,-38.253784,15.800475,53.543087,-0.087402,-0.320068,-0.026855,-30.227659,-9.628296,50.384518
3.349365,-0.375244,-0.619141,-100.280754,-125.366203,93.048088,-0.194824,-0.365723,-0.03418,-13.984679,-9.819031,30.960081
1.23999,0.264404,-0.404541,-64.216614,110.069267,192.810043,-0.27417,-0.423828,-0.041748,3.593445,-12.512206,9.925842
1.412842,0.334717,-0.487305,-56.350704,78.445435,197.036728,-0.338867,-0.593018,-0.083496,41.038509,-10.978698,-35.461426
1.638184,0.350342,-0.588867,-53.161617,23.04077,195.144638,-0.326172,-0.703369,-0.105469,59.539791,-2.006531,-57.02972
1.942627,0.275635,-0.701416,-56.495663,-43.060299,183.02916,-0.311523,-0.82959,-0.106689,76.164246,11.45935,-75.439453
2.299805,0.203125,-0.786865,-63.018795,-97.106926,169.738754,-0.279053,-0.922363,-0.081787,90.415947,26.641844,-88.73748
2.670898,0.12915,-0.845947,-70.396423,-123.832695,156.196594,-0.213623,-0.963867,-0.041992,101.982109,40.832516,-96.977226
1.071045,0.22998,-0.323486,-73.661804,123.321526,187.248215,-0.133789,-0.97168,-0.006348,111.473076,52.192684,-102.21862
2.963379,0.060547,-0.826904,-81.909172,-130.752563,144.15741,2.92041,-0.07373,-0.545898,-140.426636,170.051559,226.127609
3.183594,-0.096924,-0.719482,-93.200676,-135.322571,126.045219,-0.002686,-0.275635,-0.023926,-45.516964,-14.991759,69.93866
3.306152,-0.765625,-0.53125,-94.894402,-76.385498,57.975765,2.901611,0.070801,-0.476074,-133.964539,167.510971,195.716843
0.288818,-0.826904,0.129883,-24.780272,-8.712769,49.575802,0.522461,0.486572,-0.099121,-140.899658,-26.43585,69.511414
2.084229,-1.032471,-0.17041,-60.775753,22.720335,37.42218,2.226563,0.242188,-0.335449,-122.055046,118.896477,152.114868
1.307617,-0.93335,-0.031494,-48.561092,23.651121,42.41943,0.090332,-0.898438,0.023682,126.029961,67.199707,-110.443108
0.693359,-0.861328,0.063721,-36.903381,8.575439,46.768185,0.081543,0.517334,-0.112305,22.224424,-46.218868,-25.512693
0.053955,-0.821533,0.151855,-12.802123,-23.925779,49.819942,0.048828,0.538086,-0.132324,5.271911,-30.364988,-16.105652
-0.086914,-0.845703,0.158447,-0.610352,-37.284851,45.577999,0.021484,0.5625,-0.141113,-12.763976,-16.181946,-7.202148
-0.183838,-0.888672,0.166016,11.428832,-50.72784,36.689758,0.012695,0.580322,-0.12915,-30.487059,-5.447387,2.26593
-0.252441,-0.916016,0.1604,24.192808,-65.292358,25.543211,0.029053,0.594482,-0.097412,-48.286434,1.075745,13.771056
-0.276123,-0.918701,0.136475,37.269592,-77.629089,13.931273,0.059082,0.604492,-0.079346,-66.184998,3.623962,25.0473
-0.249756,-0.915283,0.104492,50.392147,-83.335869,1.792908,0.086426,0.604248,-0.066406,-82.870476,3.250122,34.759521
0.934814,0.240234,-0.264648,-83.343498,129.127502,181.266769,0.129639,0.593018,-0.055908,-97.579948,0.1297,42.457577
2.834473,-1.033691,-0.354736,-77.163696,-12.809752,39.894104,0.189453,0.580322,-0.053223,-111.221306,-4.631042,48.614498
0.828125,0.262695,-0.221436,-91.590874,130.081177,175.262436,2.587891,0.139648,-0.395264,-123.420708,143.333435,170.341476
-0.197754,-0.899414,0.072266,63.980099,-82.542412,-11.940001,0.255859,0.545654,-0.052246,-121.780388,-10.925292,54.557796
0.618896,0.3125,-0.194824,-105.041496,111.068718,162.315353,0.408203,0.484863,-0.072266,-136.131287,-24.665831,64.834595
1.673828,0.540771,-0.693848,71.578979,5.683898,-122.062675,0.612305,0.462158,-0.125,-143.791199,-24.963377,75.820923
1.105957,0.554688,-0.557129,60.752865,4.692078,-84.060661,0.706299,0.439697,-0.143799,-145.339966,-20.858763,80.657951
0.719482,0.571533,-0.455078,50.239559,1.38092,-51.422115,0.831299,0.436768,-0.187256,-144.683838,-11.497497,86.540215
0.504883,0.617432,-0.391113,36.560059,2.5177,-29.33502,0.987305,0.453369,-0.230225,-142.608643,6.088256,93.711845
0.403564,0.645752,-0.270752,21.354673,7.377624,-20.004272,1.144043,0.486328,-0.26123,-140.670776,30.006407,100.807182
0.302246,0.631836,-0.151855,7.728576,11.886596,-17.601013,1.280029,0.505859,-0.281738,-137.702942,53.25317,108.01696
0.154297,0.586182,-0.069092,-4.600525,13.198852,-14.556884,1.428711,0.492188,-0.289307,-132.766724,70.030212,116.058342
0.000732,0.543945,-0.042725,-16.746521,12.229918,-6.729125,1.627441,0.453857,-0.296143,-129.15802,82.206718,125.335686
-0.095703,0.510986,-0.053711,-29.136656,10.429381,5.043029,1.903564,0.37085,-0.308594,-126.113884,98.083488,137.336731
-0.151855,0.492676,-0.065918,-42.434689,7.591247,19.714355,0.324463,0.509521,-0.058594,-129.814148,-18.234253,60.211178
0.728271,0.286865,-0.202393,-98.991386,123.992912,169.273361,0.22583,-0.823242,0.02417,130.67627,71.723938,-115.127556
-0.191162,0.484375,-0.0625,-55.152889,4.234314,34.866333,0.687256,0.609619,-0.084229,-171.241745,33.64563,74.707031
-0.154541,0.473145,-0.061279,-78.521729,1.739502,61.56921,0.512939,-0.651123,-0.003662,134.971619,73.08197,-131.317139
-0.11377,0.458252,-0.06958,-88.325493,4.03595,73.410034,-0.254639,0.919678,-0.14502,-22.377012,-27.404783,-52.192684
-0.06665,0.442139,-0.081055,-96.519463,8.888245,84.724419,-0.195068,0.959717,-0.17627,-43.685909,-21.263121,-40.512081
-0.018311,0.436279,-0.10498,-103.294365,16.166687,96.328728,-0.152588,0.973633,-0.208252,-63.606258,-11.909484,-28.419493
0.036865,0.424561,-0.123291,-108.551018,24.581907,107.910149,-0.101563,0.973633,-0.225098,-82.588188,-2.906799,-16.860962
0.099121,0.412109,-0.125732,-111.92321,33.317566,118.377678,-0.024902,0.950928,-0.22168,-99.83062,5.500793,-3.471374
0.185059,0.397217,-0.125,-113.845818,43.273922,127.960197,0.052002,0.875732,-0.189697,-112.037651,11.398314,12.268065
0.287354,0.380615,-0.137451,-114.120476,56.846615,136.993408,0.146484,0.853027,-0.145264,-127.189629,15.289306,25.016783
0.397705,0.365479,-0.164307,-112.823479,74.211121,146.102905,0.270508,0.865723,-0.111328,-144.767761,20.26367,36.03363
0.506104,0.337158,-0.184814,-109.840385,93.475334,154.815674,0.387451,0.829102,-0.094238,-158.065796,26.077269,50.498959
-0.1875,0.479004,-0.053467,-67.245483,2.082825,48.835751,0.528564,0.746582,-0.081299,-167.861923,32.218933,63.972469
-0.130127,-0.867188,0.038574,77.529907,-76.896667,-28.274534,-0.275391,0.876221,-0.119873,-2.113342,-29.182432,-63.514706
2.2771,0.564453,-0.820801,82.405083,-1.457214,-156.181335,0.857422,0.495117,-0.112793,-169.799789,30.883787,82.771294
0.034912,-0.777344,-0.022705,101.203911,-52.330013,-62.911983,1.327148,0.460449,-0.243896,-166.465744,38.322449,90.484612
0.330811,0.338379,-0.214355,51.11694,-18.554688,9.338379,1.584961,0.456787,-0.289795,-168.243393,50.98724,97.763054
0.121582,0.370605,-0.135986,39.733887,-11.436461,24.101255,1.838867,0.368896,-0.291748,-165.389999,61.363216,108.039848
-0.036133,0.39624,-0.029297,28.854368,-8.003235,37.284851,2.070801,0.275391,-0.296631,-159.469604,63.995358,117.958061
-0.127686,0.414795,0.05835,18.501282,-8.384705,47.973629,2.33374,0.219971,-0.344971,-152.534485,62.805172,129.219055
-0.202637,0.436523,0.091309,7.80487,-11.322021,56.877132,2.633301,0.171631,-0.433838,-146.568298,66.986084,142.303467
-0.27417,0.462891,0.079346,-4.631042,-15.129088,67.459106,2.920166,0.103027,-0.529785,-145.217896,83.183281,159.217834
-0.316406,0.486816,0.058838,-18.569946,-18.02063,78.887939,3.106689,-0.034424,-0.562256,-140.739441,103.416435,177.642807
-0.310791,0.496094,0.033447,-32.707214,-20.195005,88.546745,3.117188,-0.216553,-0.552734,-125.297539,114.608757,193.656906
-0.265869,0.468018,0.003906,-46.737667,-21.453856,94.474785,0.365723,-0.73877,0.012939,133.674622,73.96698,-121.665947
-0.199463,0.41748,-0.027832,-60.127254,-21.026609,97.099297,1.080811,0.447998,-0.173828,-166.671738,30.807493,86.85302
0.513428,0.330078,-0.307373,62.744137,-32.920837,-4.470825,-0.229248,0.819824,-0.094971,17.318726,-32.25708,-73.188782
-0.131592,0.371582,-0.063721,-72.135925,-19.241333,97.869865,3.012451,-0.32373,-0.539795,-107.025139,110.183708,209.876999
0.069336,0.357666,-0.131836,-93.559258,-13.153075,96.534721,-0.015381,0.744141,0.016113,50.949093,-60.836788,-89.721672
0.188232,0.363281,-0.155029,-102.714531,-10.0708,93.185417,-0.121094,0.77124,-0.050049,34.736633,-42.114254,-81.085197
0.319824,0.36499,-0.172852,-110.656731,-6.095886,90.461723,0.815674,-0.485596,-0.05542,134.460449,60.424801,-157.25708
0.469727,0.357178,-0.195557,-117.332451,-0.343323,89.942924,0.980225,-0.419189,-0.071777,132.804871,48.042294,-172.973618
0.617188,0.341064,-0.220459,-121.856682,6.683349,90.843193,1.173828,-0.373047,-0.086914,131.355286,32.50885,-190.010056
0.767822,0.326416,-0.246826,-124.435417,13.587951,93.383781,1.408447,-0.327148,-0.089111,131.17981,15.388488,-208.35112
0.906006,0.32251,-0.269531,-124.748222,17.715454,97.869865,1.693359,-0.248779,-0.06665,130.882263,0.900268,-225.631699
1.048828,0.338135,-0.28833,-122.932426,19.004822,104.644768,2.029785,-0.120117,-0.021484,129.432678,-7.713317,-239.669785
1.234863,0.365479,-0.30249,-117.736809,20.774839,111.808769,2.402832,0.045898,0.032959,128.02124,-12.107848,-248.741135
1.449707,0.369141,-0.338135,-109.352104,26.672361,118.652336,2.760986,0.259033,0.088135,126.15966,-17.417908,-249.992355
-0.041504,0.354492,-0.099854,-83.366386,-16.647339,98.121635,3.06543,0.461426,0.119385,125.373833,-26.473997,-244.712814
0.625732,0.308105,-0.408936,76.377869,-55.503841,-21.179197,3.297852,0.521484,0.106201,127.815239,-35.774231,-231.758102
-0.055176,-0.817871,0.005859,89.767448,-67.276001,-45.654293,0.663818,-0.566895,-0.028564,135.314941,68.763733,-143.234253
1.036377,0.139893,-0.520752,94.337456,-91.117851,-94.123833,3.440918,0.250244,0.133545,144.340515,-65.986633,-186.0504
0.119141,-0.737549,-0.045898,111.648552,-35.453796,-81.17675,3.397705,0.32666,0.213867,159.034729,-96.794121,-155.281067
0.198486,-0.67041,-0.044678,121.101372,-20.919798,-99.418633,3.389404,0.716797,0.256836,156.661987,-104.759209,-118.179314
0.265137,-0.572998,-0.047852,128.761292,-10.147094,-114.715569,3.200195,1.091309,0.274658,143.623352,-78.50647,-87.821953
0.357422,-0.46875,-0.078369,134.277344,0.022888,-124.992363,2.619629,1.245361,0.321777,133.872986,-56.571957,-74.028015
0.493652,-0.41333,-0.117676,139.228821,13.22174,-132.835388,1.787598,1.215332,0.338867,125.640862,-57.746883,-73.692322
0.635742,-0.385742,-0.165283,144.058228,28.343199,-141.143799,0.97583,1.076416,0.282959,114.456169,-69.984436,-80.749504
0.87915,-0.303467,-0.28418,148.727417,49.209591,-151.748657,0.461426,0.91748,0.217529,100.662224,-79.338074,-89.218132
1.011475,-0.287109,-0.37085,148.544312,51.551815,-154.60968,0.176514,0.80127,0.142334,85.449211,-83.091728,-96.519463
1.152344,-0.244873,-0.474609,147.117615,48.889156,-156.814575,0.027832,0.749268,0.08252,68.206787,-77.583313,-96.733086
1.3125,-0.19873,-0.587402,144.821167,42.808529,-158.966064,3.426514,0.406738,0.093994,131.637573,-45.31097,-212.470993
0.761963,-0.342529,-0.216309,147.720337,41.519161,-147.666931,1.313721,0.127197,-0.441406,38.192749,117.996208,58.242794
1.657959,-0.144043,-0.808838,140.090942,28.343199,-162.902817,1.230469,0.333984,-0.21875,45.219418,-73.143005,6.011962
1.48584,-0.169434,-0.704834,142.623901,35.820007,-161.34642,1.111816,0.299072,-0.17627,43.037411,-68.222046,4.981995
1.735107,0.129883,-0.696533,104.003899,-79.406738,-156.486511,1.010254,0.319824,-0.130127,37.330627,-52.673336,6.996154
2.197754,0.145264,-0.818359,111.717216,-46.249386,-168.800339,0.681641,0.528564,-0.087891,42.739864,18.615723,17.181396
2.486572,0.137695,-0.939453,119.956963,-21.14868,-169.15892,0.89209,0.421875,-0.080811,33.332825,-13.229369,13.298034
2.492188,0.135498,-1.019287,125.762932,-16.227722,-168.052658,0.858887,0.448242,-0.078369,35.202026,2.082825,15.167235
1.374268,0.103271,-0.595215,98.930351,-94.001762,-131.904602,0.806152,0.476563,-0.081543,36.972046,11.604308,15.380858
2.202393,0.04834,-1.015869,135.3302,-15.419005,-166.25975,0.740479,0.503418,-0.084473,39.360046,16.487122,15.853881
1.982666,-0.029541,-0.946533,135.96344,-5.722045,-163.848862,0.938232,0.378418,-0.095947,32.981873,-32.691956,10.0708
1.803711,-0.093018,-0.885498,136.978149,13.000487,-162.559494,1.36792,0.377441,-0.262451,41.511532,-60.195919,9.269714
2.395264,0.106201,-1.05127,131.614685,-16.921997,-168.724045,1.239746,0.077637,-0.510986,41.755672,-32.806396,27.671812
0.781738,0.22168,-0.464355,87.539665,-77.23999,-51.643368,1.574463,0.284668,-0.337158,19.65332,-0.114441,16.853333
0.697754,0.328613,-0.468506,11.123656,-40.52734,16.799927,1.547119,0.133789,-0.398193,24.574278,20.76721,21.736143
0.055664,0.229736,-0.087891,53.932186,-34.873962,-62.004086,1.41748,0.036865,-0.463623,37.17041,11.589049,26.092527
0.064697,0.272705,-0.129883,47.981258,-37.902832,-51.177975,1.218994,0.113281,-0.571777,46.279903,-84.510796,27.458189
0.100586,0.311279,-0.170166,41.481014,-42.366024,-40.39764,1.345215,0.098145,-0.647217,55.976864,-99.761955,30.632017
0.160645,0.343262,-0.212158,35.102844,-45.639034,-30.708311,1.49585,0.091797,-0.69751,59.234615,-70.083618,36.491394
0.236816,0.367432,-0.256348,29.304502,-47.027584,-22.140501,1.571777,0.106934,-0.688232,56.266781,-13.710021,43.014523
0.323975,0.373535,-0.298096,23.887632,-46.890255,-13.626098,1.560059,0.156738,-0.646973,47.821041,49.98016,47.874447
0.410156,0.364502,-0.3396,18.997192,-46.180721,-5.28717,1.453857,0.167969,-0.548828,39.779663,99.464409,53.688046
0.499756,0.351074,-0.376465,15.541076,-45.082088,2.456665,0.618652,0.550537,-0.087158,46.691891,19.813538,17.341614
0.600098,0.342285,-0.4104,13.107299,-42.92297,10.032654,1.504395,0.38208,-0.30249,29.975889,-32.50885,13.153075
1.359619,-0.134277,-0.436768,4.112244,3.227234,60.478207,0.55835,0.563232,-0.093506,51.445004,21.240232,15.945434
1.007813,0.266357,-0.594727,6.820678,-33.432007,33.485413,0.261475,0.604736,-0.069824,152.145386,-70.579529,-62.728878
1.135254,0.210938,-0.609619,7.644653,-26.580809,37.216187,0.479492,0.584961,-0.123535,64.208984,24.238585,8.621216
1.239258,0.147461,-0.624756,8.956909,-18.287659,40.06958,1.252441,0.102295,-0.366211,37.361145,119.155876,61.500546
1.30957,0.089844,-0.647949,9.162903,-10.856627,42.5415,3.121826,1.271484,0.648682,198.417648,-26.496885,-146.614075
1.349609,0.048828,-0.661133,8.552551,-5.683898,44.55566,2.795654,1.510986,0.571045,189.163193,-42.266842,-124.252312
1.377441,0.020264,-0.650879,6.942749,-3.799438,46.806332,2.344482,1.527344,0.446533,184.03624,-53.489681,-120.292656
1.39502,-0.013184,-0.619629,4.600525,-3.562927,49.102779,1.875,1.359375,0.362793,181.076035,-56.205746,-122.459404
1.404297,-0.05542,-0.574463,2.960205,-1.823425,51.780697,1.521729,1.125244,0.291504,180.00029,-53.283688,-119.338982
1.390869,-0.093262,-0.514404,2.487183,1.281738,55.732723,1.163818,0.916748,0.224121,179.595932,-50.949093,-112.480156
0.047607,0.198242,-0.043945,59.082027,-34.156799,-71.716309,0.868164,0.764893,0.170898,178.573593,-52.467342,-104.583733
0.791016,0.316162,-0.524902,9.147644,-39.009094,22.956846,0.657227,0.662354,0.130859,177.345261,-57.022091,-96.374504
0.032715,0.174561,-0.014404,63.575741,-35.652161,-80.154419,0.550537,0.625488,0.083252,174.613937,-62.904354,-86.120598
1.127441,0.179932,-0.134033,152.236938,-12.535094,-126.197807,0.513428,0.575928,-0.106445,57.556149,23.223875,13.175963
0.011963,0.140869,0.02124,73.493958,-38.467407,-97.511284,0.472656,0.628662,0.054688,169.998154,-69.252014,-77.201843
1.831299,0.251465,-0.472412,214.820847,98.991386,-98.411552,0.319092,0.61084,-0.029541,158.966064,-72.341919,-66.413879
1.907471,0.294678,-0.479004,224.754318,97.976677,-98.884575,0.21582,0.587158,-0.094238,143.737793,-67.474365,-59.730526
1.980713,0.322998,-0.510742,232.841476,101.264946,-97.351067,0.21582,0.564453,-0.114014,134.45282,-62.805172,-54.969784
2.027832,0.336182,-0.538574,237.449631,109.489433,-96.93145,0.23584,0.546387,-0.139404,124.755852,-55.686947,-47.592159
2.062744,0.402588,-0.541016,239.860519,120.10955,-97.984306,0.274902,0.536133,-0.171631,115.295403,-45.539852,-38.635254
2.113525,0.560303,-0.505615,239.776596,123.321526,-99.365227,0.314209,0.535889,-0.191162,106.498711,-31.806944,-30.197142
2.189453,0.71167,-0.415283,236.07634,105.278008,-104.598991,0.361572,0.543701,-0.196289,97.885124,-15.289306,-22.499083
2.276367,0.768555,-0.329102,228.721603,62.19482,-116.996758,0.410889,0.555664,-0.183838,89.157097,1.281738,-14.144897
2.340088,0.693359,-0.286377,218.032822,12.496947,-133.224487,0.448242,0.570068,-0.168213,80.474846,14.297484,-5.378723
2.212402,0.536133,-0.250732,205.82579,-19.554138,-139.549255,0.461914,0.582764,-0.150635,71.746826,21.751402,2.449036
0.018066,0.158203,0.004883,68.283081,-37.635803,-88.798515,0.375,0.62085,0.018799,164.550766,-72.624207,-71.586609
1.9375,0.390381,-0.221924,192.245468,-31.089781,-133.407593,1.258301,0.040283,-0.326904,35.797119,113.449089,64.971924
1.44165,0.202393,-0.172852,164.230331,-19.142151,-127.647392,3.284668,1.019531,0.639648,203.254684,-7.225036,-179.321274
1.303223,-0.15625,-0.359863,7.499694,0.88501,66.085815,1.371094,-0.075195,-0.345215,33.195496,85.914604,73.066711
0.830566,0.214844,-0.103027,140.808105,-8.552551,-121.826164,0.843994,-0.138428,0.151611,183.616623,33.39386,-145.393372
0.671387,0.245117,-0.047363,130.531311,-5.722045,-123.451225,1.014893,-0.109131,0.150879,184.15831,55.862423,-145.179749
0.560547,0.238037,0.020264,121.093742,-5.752563,-130.332947,1.173096,-0.101318,0.171875,184.425339,74.020386,-145.889282
0.39917,0.221191,0.038574,111.175529,-10.177611,-133.415222,1.365479,-0.101318,0.213623,182.975754,83.595268,-146.92688
0.240723,0.19458,0.035889,100.83007,-17.997742,-130.615234,1.610352,-0.094238,0.279785,179.092392,83.976738,-146.881104
0.122314,0.162598,0.050293,92.124931,-26.69525,-124.031059,1.913086,-0.070068,0.335693,171.318039,77.545166,-144.554138
0.052002,0.13916,0.051514,85.044853,-33.615112,-115.516655,2.252441,-0.058105,0.364014,158.77533,63.71307,-136.146545
0.023438,0.131836,0.039551,78.88031,-37.30011,-106.62841,2.581543,-0.145508,0.354492,144.935608,34.156799,-123.313896
1.681152,0.276123,-0.20166,177.886948,-27.938841,-127.326958,2.864258,-0.366455,0.347412,140.022278,-13.359069,-108.406059
1.240479,-0.160156,-0.302734,12.092589,-5.020141,70.587158,3.061768,-0.519287,0.36377,142.845154,-67.993164,-88.279716
0.888428,0.302979,-0.569336,7.591247,-37.643433,28.778074,0.67749,-0.17041,0.158447,181.747421,13.809203,-145.7901
1.18335,-0.161621,-0.26123,17.89856,-11.856078,73.051453,3.17041,-0.47168,0.419678,148.345947,-117.416374,-60.699459
0.084961,-0.364014,0.150635,170.692429,-14.98413,-108.291618,3.325684,0.14502,0.607178,159.233093,-171.943649,-13.008117
0.146729,-0.351807,0.131836,173.362717,-2.082825,-118.568413,3.289063,0.668457,0.531006,154.777527,-142.860413,4.974365
0.201416,-0.321289,0.106689,174.57579,8.590698,-128.883362,2.883301,1.110107,0.402344,143.501282,-96.694939,11.756896
0.253418,-0.265625,0.082275,173.850998,13.183593,-137.947083,2.234375,1.233398,0.350098,132.820129,-75.538635,11.665343
0.323242,-0.232666,0.047119,172.82103,12.893676,-147.323608,1.313721,1.099121,0.276855,120.315544,-73.249817,-6.729125
0.417969,-0.204834,-0.00415,170.516953,10.31494,-155.273438,0.587158,0.886475,0.213135,102.737419,-71.670532,-30.96771
0.553711,-0.15918,-0.058838,167.205795,9.391785,-162.033066,0.289551,0.683594,0.140381,84.617607,-71.94519,-45.234676
0.722412,-0.097168,-0.114014,163.757309,13.618468,-168.716415,0.18042,0.556396,0.056396,68.634033,-72.311401,-47.424313
0.86499,-0.027344,-0.196533,159.507751,22.224424,-172.698959,0.147461,0.509033,-0.018066,53.268429,-68.840027,-42.121883
1.192871,0.074951,-0.401367,150.428772,37.239075,-176.71965,0.113037,0.505127,-0.075928,38.139343,-60.142513,-34.362793
0.044434,-0.365723,0.158447,167.053207,-26.924131,-99.716179,3.224609,-0.242676,0.524658,155.448914,-156.402588,-35.316467
1.374268,0.124756,-0.53125,145.217896,45.242306,-179.824814,0.53125,-0.193359,0.17041,178.764328,2.822876,-146.430969
1.684814,0.190186,-0.80957,136.108398,58.975216,-180.656418,1.305176,-0.032715,-0.324219,33.683777,102.485649,67.428589
1.816895,0.249023,-0.897461,130.622864,53.88641,-180.183395,0.30957,-0.216309,0.188965,171.668991,3.868103,-148.582458
1.95459,0.334473,-0.9646,125.259392,45.257565,-175.880417,1.372803,-0.109375,-0.357178,33.828735,64.38446,79.841614
2.127686,0.356201,-1.030518,121.040337,42.823788,-172.698959,1.31665,-0.140625,-0.32666,36.224365,46.69952,85.502617
2.323486,0.407715,-1.096436,119.087212,54.534908,-171.264633,1.317383,-0.180908,-0.27417,42.098995,35.453796,89.988701
2.519531,0.610596,-1.102783,115.997307,67.108154,-169.715866,1.306396,-0.199707,-0.175049,50.72784,30.082701,87.501518
2.616455,0.811523,-1.047363,107.589714,52.024837,-167.053207,1.324463,-0.187256,-0.04834,59.692379,29.243467,79.200745
2.645996,0.847412,-0.983643,97.831718,13.381957,-171.455368,1.33252,-0.136719,0.031982,68.145752,26.123045,70.899963
2.593994,0.714844,-0.93457,90.637199,-7.698059,-173.301682,0.407471,-0.208252,0.18335,175.102219,0.442505,-147.338867
1.0979,-0.152832,-0.273926,23.04077,-18.264771,75.210571,0.998291,0.035156,0.115234,80.307007,9.902954,44.136044
1.544922,0.171875,-0.674805,140.594482,54.649349,-181.167587,0.744873,0.072998,0.152588,86.479179,5.088806,18.035889
0.006592,-0.361328,0.15918,163.681015,-34.469604,-93.0252,0.547119,0.051514,0.176514,93.475334,4.882813,-14.007567
1.030029,0.037109,-0.288086,155.220032,30.303953,-174.629196,0.402588,-0.007568,0.189697,101.097099,7.453918,-47.218319
0.040771,-0.359131,0.148682,159.370422,-29.006956,-84.9533,1.219971,-0.051514,0.072998,74.760437,18.424988,61.042782
-0.001953,-0.359375,0.153564,161.392197,-35.02655,-88.653557,0.240234,-0.127197,0.183594,117.492668,11.45935,-103.179924
0.938232,-0.126953,-0.396973,29.21295,-23.513792,81.726067,0.303711,-0.070557,0.189453,109.237663,9.94873,-77.789307
0.899658,-0.085938,-0.485596,29.258726,-21.820066,85.540764,0.190186,-0.20752,0.193115,164.291367,17.936707,-152.038574
0.928467,-0.030273,-0.567139,28.07617,-16.677856,88.371269,0.166016,-0.191895,0.192627,160.484314,24.749754,-153.533936
1.014893,0.028076,-0.640869,27.160643,-7.247924,88.49334,0.149902,-0.179932,0.196289,157.157898,29.33502,-154.655457
1.145996,0.068115,-0.681641,27.008055,7.629394,84.114067,0.139893,-0.172119,0.204346,153.495789,30.525206,-154.525757
1.297607,0.077637,-0.684814,28.861998,25.741575,74.882507,0.236816,-0.21582,0.191162,168.167099,10.383605,-150.253296
1.386963,0.062744,-0.685059,32.791138,42.724606,64.109802,0.153564,-0.171143,0.215332,146.240234,24.29962,-148.31543
1.40332,0.044678,-0.675781,38.322449,53.390499,55.473324,0.189941,-0.185059,0.19751,140.655518,20.072937,-141.937256
1.40625,0.019531,-0.628418,46.241756,56.190487,47.279354,0.222168,-0.188232,0.184326,133.644104,16.395569,-133.43811
1.424561,0.019531,-0.592285,54.153439,49.629208,37.780762,0.223389,-0.167969,0.18335,125.66375,13.359069,-121.620171
1.452148,0.037109,-0.566406,61.080929,32.730103,27.397154,0.141602,-0.165283,0.218018,150.07019,28.358458,-152.442932
1.010254,-0.144043,-0.324707,26.94702,-22.315977,78.231812,1.965088,1.316895,0.440674,236.206039,-56.091305,-93.391411
0.104004,-0.362305,0.127686,156.806946,-19.111633,-80.108643,1.244873,1.178467,0.304688,235.32103,-59.059139,-89.416496
1.538818,-0.015137,-0.468018,75.195313,2.380371,5.935668,0.778076,1.028809,0.180176,236.236557,-71.052551,-85.083
1.556152,-0.136719,-0.383301,86.227409,8.934021,-3.227234,0.455078,0.908936,0.064941,239.196762,-92.788689,-79.681396
1.512939,-0.27002,-0.234375,101.333611,28.053282,-15.243529,0.175293,0.833496,-0.027344,240.577682,-123.535149,-75.553894
1.372314,-0.346436,-0.108643,117.729179,43.05267,-30.326841,-0.041016,0.806885,-0.088623,234.550461,-153.083801,-75.286865
1.106445,-0.36377,-0.039307,130.867004,44.967648,-43.41888,-0.139404,0.789307,-0.087402,222.137436,-169.654831,-79.528809
0.795166,-0.358643,-0.006348,140.686035,35.003662,-53.398129,-0.16626,0.786621,-0.049805,205.123886,-168.472275,-83.221428
0.539551,-0.354004,0.037598,147.537231,20.38574,-61.996456,-0.132813,0.812012,0.005615,180.145248,-153.251648,-81.352226
0.336914,-0.354492,0.079346,151.977539,6.256103,-69.046021,-0.080566,0.82373,0.043213,150.024414,-127.92968,-73.898315
0.190674,-0.357422,0.106689,154.602051,-6.92749,-74.745178,0.683594,0.684814,0.03125,-76.60675,19.233704,34.881592
1.498779,0.034912,-0.520508,67.611694,13.336181,16.059875,-0.056396,0.79126,-0.224121,97.076408,-67.855835,-48.660275
1.253418,0.303711,-0.314209,144.355774,-19.538879,-138.122559,-0.060791,0.785889,-0.369629,76.919556,-39.604187,-35.552979
1.448975,0.243652,-0.36377,155.845642,-38.703918,-151.283264,-0.081543,0.79126,-0.405029,57.655331,-15.708922,-25.093077
1.645996,0.178711,-0.411133,163.86412,-49.995419,-172.592148,-0.076416,0.799561,-0.388184,37.498474,1.228333,-16.395569
1.906006,0.133789,-0.481934,170.860275,-40.000916,-193.321213,-0.034668,0.781006,-0.342529,20.446775,11.695861,-7.232666
2.65625,0.043945,-0.781738,220.809921,55.114742,-176.254257,0.030518,0.740234,-0.273438,6.034851,15.457152,1.182556
2.41748,0.154785,-0.682617,191.482529,37.284851,-199.394211,0.123047,0.738525,-0.193359,-11.230468,16.860962,6.92749
2.630371,0.144531,-0.757324,204.360947,68.084717,-192.115768,0.239746,0.756348,-0.123291,-30.052183,19.058228,12.443542
2.724609,0.113281,-0.790527,214.363083,69.145203,-184.921249,0.37085,0.754395,-0.056396,-47.973629,20.469664,18.737793
0.995117,0.3479,-0.229492,129.753113,-4.165649,-132.148743,0.525146,0.745605,-0.000732,-64.620972,21.766661,26.084898
2.161133,0.135742,-0.584473,179.718002,-7.415771,-202.743515,2.694336,1.344971,0.567139,238.998398,-65.788269,-105.804436
0.710205,0.385498,-0.157471,114.295952,4.730225,-128.204346,-0.074219,0.811523,-0.041016,121.12426,-98.0606,-62.355038
-0.082031,0.507813,0.052734,17.234802,-1.014709,-102.935783,3.151367,1.182129,0.593506,242.599472,-90.888969,-130.706787
0.335693,0.42749,-0.09668,80.67321,9.58252,-123.89373,1.019043,-0.462891,0.045166,71.281433,109.611504,-172.56163
0.232178,0.433594,-0.081787,63.125607,9.277344,-123.596184,3.400391,0.718262,0.369141,228.973373,-102.127068,-186.645493
0.108643,0.444092,-0.053223,45.890804,6.179809,-119.903557,0.843994,0.607422,0.040283,-87.562553,11.45172,41.770931
-0.00708,0.479492,-0.002441,30.548094,1.853943,-112.754814,-0.587158,-0.819336,0.040039,5.447387,1.518249,61.546322
-0.12915,0.503906,0.057129,4.821777,-1.647949,-92.437737,-0.664551,-0.912598,0.025391,21.606443,8.94165,28.282164
-0.16626,0.492432,0.046875,-7.484436,1.808166,-81.489555,-0.723877,-1.084717,0.047119,39.367676,19.340515,4.295349
-0.171875,0.516602,0.047852,-18.440247,5.485534,-69.747925,-0.6875,-1.186768,0.066406,53.245541,30.548094,-14.083861
-0.164307,0.534424,0.045898,-29.396055,6.134033,-58.769222,-0.513672,-1.199219,0.063721,63.064571,42.66357,-33.943176
-0.147949,0.546387,0.031006,-39.749146,2.754211,-48.828121,-0.279785,-1.144287,0.035156,69.503784,57.670589,-48.240658
-0.112793,0.547363,0.001221,-49.873348,-4.364014,-39.611816,-0.048828,-1.022705,0.005127,71.884155,74.59259,-58.151241
0.482422,0.414307,-0.125244,97.694389,8.018494,-124.923698,0.151855,-0.894043,-0.030273,72.212219,91.697685,-68.656921
2.562256,-0.062012,-0.756592,224.426254,43.968197,-169.349655,0.332275,-0.776855,-0.063965,72.280884,107.490532,-83.084099
-0.047852,0.52832,-0.053711,-60.295101,-12.222289,-30.998228,0.494873,-0.677002,-0.075195,72.982788,119.140617,-102.21862
2.286621,-0.080078,-0.617676,222.190842,26.43585,-146.263123,0.65625,-0.586426,-0.061279,73.928833,123.939507,-124.725334
1.939697,-1.502197,0.242188,-18.15033,-42.449947,161.323532,0.835449,-0.508545,-0.011475,73.539734,120.841972,-148.445129
1.071045,-1.537354,0.123779,-7.43103,-40.100098,123.382561,1.204346,-0.444336,0.080566,69.000244,89.309685,-197.868332
0.312988,-1.532715,0.00708,-2.365112,-54.801937,103.523247,1.414063,-0.418701,0.094238,70.159912,62.927242,-223.739609
-0.144043,-1.491455,-0.096924,3.479004,-71.357727,93.284599,1.672852,-0.349121,0.086426,76.568604,35.469055,-244.956955
-0.325684,-1.451416,-0.134521,14.73236,-76.73645,82.786552,1.980957,-0.214111,0.091064,86.189262,11.009215,-249.992355
-0.345703,-1.399414,-0.149658,30.914305,-63.858028,68.595886,2.335449,-0.028809,0.0979,98.220818,-5.302429,-249.992355
-0.293701,-1.31543,-0.164795,50.743099,-40.122986,47.012325,2.738525,0.163818,0.092529,113.922112,-5.828857,-249.870285
-0.259277,-1.26001,-0.116455,73.722839,-17.26532,19.889832,3.121094,0.324951,0.068604,133.735657,10.688781,-249.832138
-0.253662,-1.203857,-0.040771,97.343437,-2.090454,-7.919311,3.313965,0.436279,0.054443,157.112122,22.598265,-249.992355
-0.23999,-1.109619,0.008789,118.431084,2.738952,-33.119202,3.359131,0.534424,0.094482,182.13652,1.548767,-245.941147
2.452637,-0.075195,-0.699707,224.975571,36.499023,-158.058167,3.383789,0.619385,0.213379,206.924423,-52.406307,-219.734177
-0.19165,-0.972412,0.021484,135.757446,1.564026,-53.749081,3.345947,0.911865,0.507568,241.332993,-112.861626,-158.088684
0.047119,-0.660645,-0.079102,161.903366,0.923157,-82.000725,1.049316,0.578369,0.02417,-102.287285,4.814148,47.874447
0.210938,-0.52002,-0.151367,171.691879,5.531311,-89.836113,0.870361,-0.549561,0.139893,142.669678,171.470627,-209.945663
0.411621,-0.43042,-0.216309,180.068954,14.015197,-96.130363,1.471191,0.450195,-0.081543,-115.493767,-14.98413,63.949581
0.619629,-0.384521,-0.262695,186.622604,24.414061,-101.882927,-0.265625,-1.003174,-0.046875,155.61676,116.882317,-48.194881
0.813232,-0.35498,-0.275879,192.237839,30.929564,-106.300346,-0.218506,-1.037842,-0.026367,163.345322,126.907341,-65.826416
1.005859,-0.3479,-0.2854,198.120102,31.486509,-111.122124,-0.129639,-1.02124,0.020996,167.434677,132.781982,-79.933167
1.214844,-0.318604,-0.317627,202.896103,27.900694,-115.936272,-0.023193,-0.973633,0.063477,168.197617,136.543274,-92.834465
1.454102,-0.26416,-0.384033,207.496628,21.827696,-121.704094,0.087402,-0.914307,0.097412,166.145309,140.426636,-106.399529
1.722412,-0.197998,-0.461914,212.104782,17.250061,-128.479004,0.203613,-0.846924,0.128906,162.826523,144.683838,-122.032158
2.004883,-0.130371,-0.535156,217.185959,17.616272,-136.268616,0.33374,-0.770996,0.144775,158.798218,149.810791,-139.160156
-0.092773,-0.816895,-0.01416,150.093079,-0.007629,-69.984436,0.471436,-0.69458,0.146729,154.571533,155.670166,-156.410217
2.556152,-1.414063,0.289551,-39.245605,-73.722839,211.990341,0.611816,-0.62793,0.136719,150.161743,162.208542,-173.179611
0.054688,0.494629,-0.118408,-70.533752,-17.326355,-23.895262,0.743896,-0.577637,0.129883,146.018982,168.624863,-190.20842
0.314453,0.409912,-0.221191,-88.890068,-16.036987,-10.978698,-0.260254,-0.922119,-0.052246,145.126343,102.401726,-26.779173
0.35498,-0.750488,-0.095703,111.320488,-4.959106,58.906551,1.264893,0.524658,-0.019043,-113.365166,-2.601623,55.946346
0.11499,-0.730225,-0.078125,118.415825,-14.694213,44.403072,1.213135,-0.467285,0.235352,135.437012,152.862549,-248.817429
-0.049072,-0.724854,-0.046631,125.740044,-26.725767,31.867979,1.450684,-0.36792,0.314453,132.369995,132.736206,-249.992355
-0.136719,-0.718506,0.008057,134.117126,-34.881592,20.042419,1.723145,-0.218262,0.384033,129.600525,109.291069,-249.992355
-0.165039,-0.700928,0.05957,143.714905,-35.186768,7.942199,2.00415,-0.032715,0.439941,128.097534,81.802361,-249.992355
-0.166748,-0.69043,0.101318,154.067993,-28.625486,-5.012512,2.272461,0.151855,0.473145,130.722046,50.636288,-249.992355
-0.155273,-0.686523,0.144531,165.145859,-17.585754,-18.814087,2.552246,0.315918,0.485352,138.374329,20.38574,-249.992355
-0.134277,-0.676514,0.174316,176.254257,-6.187438,-33.38623,2.86084,0.468506,0.479248,149.82605,-2.082825,-249.755844
-0.111328,-0.657227,0.18457,185.585007,0.541687,-48.202511,3.171631,0.617188,0.460693,163.299545,-8.583069,-249.992355
-0.085693,-0.620605,0.153809,192.573532,2.311707,-61.241146,3.378174,0.754883,0.44458,175.659164,0.808716,-249.992355
0.658203,-0.781738,-0.133057,102.897636,-1.235962,76.446533,3.426025,0.866455,0.472656,185.852036,10.31494,-241.065964
-0.034424,-0.567139,0.109863,198.226913,1.075745,-71.94519,1.017578,-0.523438,0.169922,138.923645,166.702255,-233.383163
0.135742,-0.350586,-0.014404,201.377853,-1.289368,-82.420341,-0.240723,-0.82251,-0.052002,131.324768,85.441582,-4.302979
0.279297,-0.207275,-0.104248,198.989853,2.6474,-83.503716,3.360596,0.925781,0.558838,196.678146,7.751464,-210.990891
0.437988,-0.084961,-0.183105,195.335373,6.942749,-87.631218,-0.209717,-0.652588,-0.009521,99.601738,59.692379,46.432491
0.541504,-0.060059,-0.276611,193.092331,6.973266,-90.888969,1.726318,0.473877,-0.178711,-112.472527,-22.949217,72.647095
