ax,ay,az,gx,gy,gz,ax,ay,az,gx,gy,gz
-1.138916,-0.050781,-0.464355,27.8244,48.97308,-29.785154,1.349121,-0.685059,-0.317627,-26.069639,-202.42308,-62.965389
-1.039063,0.078369,-0.410645,23.208616,54.054256,-20.500181,1.775146,-0.258057,-0.066162,70.854187,-150.672913,72.143555
-0.957275,0.124023,-0.320313,28.259275,61.073299,-8.712769,0.747803,0.379883,0.159912,3.822326,10.902404,-249.992355
-0.917725,0.112549,-0.268311,30.014036,54.801937,-0.12207,0.862305,0.30957,0.168945,-14.48059,0.572205,-249.992355
-0.986572,0.115479,-0.261963,31.173704,44.158932,1.831055,0.940674,0.236816,0.164063,-31.242369,-6.103515,-249.885544
-1.038086,0.166504,-0.252441,20.561216,29.014585,-7.385253,1.004639,0.164307,0.117676,-48.423763,-14.060973,-249.923691
-1.025146,0.141113,-0.219482,11.894225,18.1427,-15.480041,1.034424,0.095703,0.050293,-66.207886,-23.28491,-249.992355
-1.06958,0.10498,-0.168213,10.57434,15.731811,-17.26532,1.040527,0.003906,0.001709,-78.735352,-33.660889,-246.215805
-1.096924,0.100586,-0.129639,5.203247,6.645202,-13.900756,1.016846,-0.119873,0.013916,-82.06176,-47.515865,-227.745041
-0.639893,0.262695,-0.162354,105.720512,-17.326355,249.992355,0.991943,-0.251221,-0.005371,-77.255249,-67.596436,-205.787643
-1.26416,-0.22168,-0.454346,46.630856,61.332699,-9.178162,1.032715,-0.352295,-0.129639,-69.969177,-95.298759,-184.646591
-1.393799,-0.251709,-0.44873,-100.891106,20.881651,65.567017,1.094971,-0.4104,-0.227051,-65.315247,-124.977104,-164.276108
-1.101807,0.100586,-0.127686,0.053406,-2.563476,-8.888245,1.762939,-0.196533,-0.020508,76.49231,-103.805534,59.944149
-1.395264,-0.179199,-0.412842,-96.603386,-20.957945,90.293877,1.160645,-0.447754,-0.28418,-62.561031,-152.931213,-143.501282
-1.39502,-0.222412,-0.450195,-99.693291,-3.242492,78.430176,1.289307,-0.609131,-0.31543,-47.554012,-188.835129,-93.14727
-0.88208,0.269531,-0.099854,95.046989,-10.108947,249.992355,0.946533,0.042969,-0.145508,0.305176,0.869751,-1.152039
-0.929199,0.273682,-0.055664,89.225761,-7.659912,249.992355,1.452637,-0.725586,-0.347656,-3.662109,-225.753769,-36.872864
-0.976074,0.287842,-0.024414,81.161491,-5.264282,249.877914,1.586426,-0.748535,-0.345703,16.815186,-241.600021,-15.045165
-1.045654,0.296631,0.011963,71.479797,-4.310608,249.992355,1.72583,-0.707764,-0.329346,34.065247,-244.781479,1.51062
-1.108154,0.296143,0.06665,61.729427,-4.264832,249.992355,1.798584,-0.616455,-0.334229,41.969296,-244.522079,18.310547
-1.164551,0.285645,0.105225,54.687496,-2.243042,244.781479,1.814453,-0.55127,-0.332764,48.805233,-243.50737,34.706116
-1.213623,0.272705,0.118408,48.515316,-0.907898,234.992966,1.748047,-0.501953,-0.336914,57.640072,-236.366257,46.859737
-1.249268,0.275146,0.163086,39.779663,0.1297,228.782639,1.69043,-0.414551,-0.309326,58.723446,-223.991379,55.511471
-1.277344,0.300537,0.211182,27.214048,3.593445,225.1129,1.757324,-0.339355,-0.207764,62.408443,-198.257431,66.551208
-1.297363,0.332764,0.2146,10.864257,7.827758,221.504196,1.217529,-0.510254,-0.312988,-58.319088,-174.591049,-120.895378
-0.809082,0.269043,-0.140381,98.976128,-12.062072,249.992355,0.951904,0.047363,-0.142334,0.335693,1.266479,-1.281738
-1.335938,0.34375,0.210449,-6.149292,12.557982,217.163071,0.877686,0.070313,-0.133057,-1.472473,1.602173,-0.999451
-1.369141,0.317383,0.195801,-18.836975,16.609192,209.777817,0.949463,0.054199,-0.14502,0.259399,1.449585,-1.121521
-1.421875,0.266602,0.156006,-26.344297,18.714905,198.616013,0.968506,0.065186,-0.146484,-0.511169,5.203247,-3.15094
-1.466064,0.200928,0.098877,-32.63855,12.7182,187.56102,0.959473,0.05957,-0.144531,-0.717163,5.836486,-3.349304
-1.505371,0.144775,0.02832,-41.305538,-2.235413,178.855881,0.951172,0.05835,-0.14624,-1.274109,6.729125,-4.066467
-1.535156,0.0979,-0.049561,-52.024837,-20.980833,169.860825,0.952393,0.061523,-0.147705,-2.220154,7.705688,-4.577637
-1.549561,0.065674,-0.130371,-62.149044,-36.216736,158.721924,0.947266,0.058838,-0.153809,-2.761841,7.919311,-4.119873
-1.508057,0.036865,-0.192871,-71.861267,-44.319149,145.309448,0.94751,0.046143,-0.161133,-2.471924,7.843017,-3.52478
-1.446533,0.000488,-0.248779,-81.634514,-45.509335,130.027771,0.945313,0.043701,-0.161621,-2.487183,8.69751,-3.211975
-1.418701,-0.056396,-0.310303,-87.989799,-42.16766,114.936821,0.931885,0.048828,-0.156738,-3.15094,8.666992,-2.975464
-1.416504,-0.118652,-0.366455,-92.239372,-33.485413,102.020256,0.921631,0.037842,-0.164063,-3.387451,7.545471,-2.548218
-1.185547,0.340088,-0.169678,-249.992355,8.163452,-234.733566,0.907471,0.0,-0.181152,-0.198364,4.386902,-2.441406
-1.165039,0.374023,-0.255859,-249.420151,61.18774,-238.670334,0.974365,0.063721,-0.14624,0.152588,4.417419,-2.868652
-1.039307,0.41333,-0.398438,-224.784836,105.392448,-228.866562,0.911865,0.005615,-0.178467,0.640869,4.318237,-2.670288
-0.923828,0.377686,-0.454834,-167.640671,136.84845,-214.179977,0.930908,0.020264,-0.19458,0.457764,4.753113,-1.983642
-1.266846,0.213867,-0.341797,-104.49218,10.215758,-196.075424,0.933838,0.013672,-0.199707,0.762939,4.272461,-1.205444
-1.058105,0.146729,-0.425537,-71.159363,121.00219,-196.12883,0.941162,0.015625,-0.19751,1.281738,3.257751,-0.991821
-1.165527,0.059326,-0.487549,-63.4613,81.756584,-197.036728,0.947021,0.028809,-0.200928,1.029968,2.822876,-0.740051
-1.205566,0.079834,-0.447266,-84.869377,38.955688,-205.215439,0.951904,0.028076,-0.195557,0.976562,2.708435,-0.175476
-0.926758,0.276367,-0.394043,-110.702507,141.105652,-202.323898,0.946777,0.018555,-0.190674,1.991272,2.716064,0.061035
-1.106201,0.315186,-0.06665,-249.992355,-48.492428,-226.860031,0.949219,0.024658,-0.187012,2.571106,3.761291,-0.419617
-0.236572,-0.254395,-0.206299,-249.992355,-249.992355,-157.073975,0.952881,0.041992,-0.181152,2.288818,5.508422,-0.793457
-0.796875,0.246094,-0.098877,-249.992355,-162.757858,-204.597458,0.944336,0.046875,-0.188721,1.472473,6.561279,-1.029968
-0.641113,0.146729,-0.090576,-249.992355,-205.360397,-185.226425,0.941406,0.057129,-0.145508,0.198364,0.679016,-0.862122
-0.465088,-0.062256,-0.078613,-249.992355,-240.035995,-169.891342,0.925781,0.014404,-0.188232,0.679016,4.753113,-2.5177
1.602051,-0.9104,-1.025879,-198.684677,-249.908432,-104.553215,0.974121,0.052734,-0.148438,0.961304,3.326416,-2.227783
0.008789,-0.406006,-0.354492,-249.992355,-249.992355,-144.172668,0.908691,0.010986,-0.178955,-1.876831,5.722045,-2.105713
0.25415,-0.523926,-0.48291,-249.992355,-249.992355,-132.736206,0.96582,0.052246,-0.148193,0.801086,1.098633,-1.419067
0.514404,-0.629395,-0.541992,-249.641403,-249.992355,-124.038689,0.970459,0.048096,-0.148438,0.968933,2.220154,-1.670837
0.813232,-0.717773,-0.591309,-249.992355,-249.992355,-119.522087,0.931641,0.045898,-0.155518,0.473022,-1.88446,-0.671387
1.063965,-0.803467,-0.717773,-249.992355,-249.992355,-120.384209,0.935791,0.039307,-0.151855,1.38092,-2.510071,-0.549316
1.327637,-0.890381,-0.900635,-231.742844,-249.992355,-117.08831,0.945557,0.04541,-0.151367,1.800537,-2.113342,-0.656128
-1.335938,0.418213,-0.248779,-114.158623,7.141113,-173.759445,0.953857,0.05835,-0.146729,0.892639,-1.205444,-0.740051
-0.968018,0.261719,-0.02832,-249.992355,-108.749382,-219.520554,0.957031,0.05957,-0.147461,0.297546,-0.717163,-0.717163
-1.313721,0.6521,-0.210205,-112.098686,24.063108,-153.930664,0.951416,0.050049,-0.145996,0.534058,-0.480652,-0.778198
-0.842285,0.674561,-0.470215,16.830444,-43.701168,-13.145446,0.956787,0.057373,-0.141357,0.213623,0.389099,-0.999451
-1.145752,0.962646,-0.415039,-51.704403,91.705315,-114.799492,0.960205,0.05835,-0.140381,-0.404358,1.51062,-1.167297
1.67334,-0.858887,-1.085205,-165.832504,-249.763474,-87.150566,0.955566,0.047607,-0.141357,-0.389099,2.555847,-1.441955
-0.73291,0.539551,-0.513916,27.70233,7.232666,29.006956,0.953369,0.050781,-0.142334,-0.495911,3.318786,-2.113342
-0.771973,0.533447,-0.544678,26.336668,10.002136,26.382444,0.951904,0.060791,-0.14917,-1.464844,3.845215,-2.39563
-0.802246,0.555908,-0.593018,20.027161,3.593445,20.942686,0.93335,0.052246,-0.148438,0.221252,-0.686645,-0.938415
-0.757568,0.588623,-0.608398,11.482238,-1.899719,11.970519,0.958496,0.04834,-0.1521,1.014709,0.267029,-1.235962
-0.714111,0.607178,-0.622559,6.347656,0.694275,3.768921,0.942871,0.039063,-0.156982,-1.396179,3.166198,-1.579285
-0.683105,0.613037,-0.637451,5.332946,10.086059,0.953674,0.940186,0.040039,-0.158447,-0.808716,2.098083,-1.373291
-0.653564,0.580078,-0.596191,6.111145,20.507811,3.746032,0.931152,0.037598,-0.149902,-0.473022,1.014709,-1.106262
-0.678711,0.531738,-0.524414,6.629943,27.595518,7.850646,0.926025,0.031738,-0.147949,0.495911,0.259399,-0.938415
-0.762207,0.505859,-0.485596,4.615784,26.786802,9.765625,0.939697,0.033691,-0.146729,1.113892,0.343323,-1.014709
-1.240479,0.862305,-0.302002,-90.118401,57.418819,-134.681702,0.942627,0.045898,-0.148926,0.816345,0.419617,-0.915527
-0.833252,0.523438,-0.466797,1.922607,14.999389,5.622863,0.936523,0.045654,-0.153564,0.801086,0.083923,-0.686645
-0.87207,0.615234,-0.440918,8.560181,-26.56555,-9.918213,0.936279,0.033447,-0.155762,1.121521,-0.411987,-0.640869
-0.787598,0.703125,-0.514648,22.201536,-53.726192,-16.799927,0.946289,0.03833,-0.154297,1.243591,-0.274658,-0.87738
-0.706055,0.694824,-0.533936,19.096375,-56.068417,-20.683287,0.944336,0.053955,-0.1521,-2.090454,3.837585,-1.899719
-0.645264,0.670898,-0.544678,9.124756,-49.774166,-19.195557,-0.10083,-0.472412,-0.708496,68.016052,-40.863033,18.928528
-0.632813,0.639648,-0.55835,-0.961304,-30.84564,-16.51001,-0.071533,-0.473389,-0.716064,66.162109,-45.967098,16.517639
-0.640137,0.609131,-0.570557,-2.380371,-0.038147,-21.308897,-0.101563,-0.483643,-0.728027,64.888,-53.512569,12.741088
-0.638672,0.613037,-0.557617,12.687682,39.108276,-43.212887,-0.175781,-0.480225,-0.718994,65.788269,-56.495663,10.147094
-0.723389,0.695313,-0.499512,37.04834,76.705933,-78.269958,-0.21582,-0.583252,-0.878418,87.898247,-44.960018,16.418457
-0.85498,0.84082,-0.4375,37.68158,103.187553,-104.057304,-0.234863,-0.484619,-0.697754,74.913025,-47.065731,11.360168
-1.039551,0.936035,-0.485352,-11.054992,110.054008,-99.800102,-0.232178,-0.516113,-0.714355,80.734245,-42.938229,13.694762
-0.861816,0.564453,-0.443604,2.76947,-4.737854,-3.166198,-0.226563,-0.548828,-0.783936,85.258476,-42.831417,15.098571
1.709229,-0.759766,-1.119629,-142.280579,-249.992355,-66.894531,-0.126709,-0.476318,-0.720459,68.252563,-45.219418,19.042969
-0.71875,0.55957,-0.533691,24.856565,-9.19342,32.287598,-0.221436,-0.470703,-0.705078,69.213867,-53.153988,9.727478
1.796875,-0.675049,-1.039307,-93.01757,-226.264938,-37.788391,-0.158691,-0.490234,-0.71875,68.962097,-52.719112,16.242981
1.287354,-0.500732,-1.005859,-61.622616,10.543822,2.082825,-0.194092,-0.519287,-0.750488,101.997368,-100.013725,39.756775
1.406738,-0.850342,-1.120117,-11.337279,29.701231,-1.945495,-0.212891,-0.553711,-0.761719,76.881409,-70.541382,22.361753
1.425537,-1.088135,-1.248779,66.650391,34.416199,-5.500793,-0.200684,-0.570313,-0.775635,83.351128,-81.390373,23.506163
1.473877,-0.997314,-1.377686,120.635979,40.237423,-9.223938,-0.216553,-0.584717,-0.760254,90.00396,-89.073174,21.888731
1.34082,-0.720703,-1.425781,126.808159,60.447689,-8.850098,-0.22998,-0.58374,-0.765625,93.170158,-97.457878,32.218933
0.997559,-0.458252,-1.357422,108.169548,82.595818,-3.822326,-0.311523,-0.348633,-0.725586,101.989738,-83.030693,17.463684
0.55542,-0.301514,-1.239502,86.692802,103.10363,1.480102,-0.494141,-0.493896,-0.860596,107.994072,-87.60833,7.141113
0.366455,-0.210693,-0.990967,69.068909,100.814812,3.02124,-0.521729,-0.499756,-0.879883,118.995659,-108.360283,9.742737
0.355469,-0.139404,-0.968018,56.831356,92.712395,2.876281,-0.383545,-0.473633,-0.897217,126.91497,-126.213066,13.000487
0.347656,-0.144775,-0.95874,52.436825,86.47155,3.791809,-0.197754,-0.400635,-0.905762,126.449577,-133.956909,12.985229
1.028076,-0.303711,-0.866699,-68.710327,-15.182494,4.524231,-0.031982,-0.313721,-0.862793,125.083916,-132.400513,10.398864
0.299316,-0.183838,-0.957764,53.855892,76.927185,6.263732,-0.213623,-0.525146,-0.730469,72.418213,-60.340878,16.777039
0.193115,-0.222656,-0.902588,60.997005,47.966,7.415771,-0.202881,-0.621094,-0.949463,88.630669,-47.592159,18.814087
0.208496,-0.207764,-0.854004,62.522884,36.476135,6.790161,0.07959,-0.239258,-0.839844,125.625603,-123.619072,5.233764
0.235352,-0.200928,-0.797607,63.957211,30.85327,5.081176,-0.268066,-0.727783,-1.06543,87.791435,-52.360531,22.071836
0.26001,-0.206055,-0.754395,67.237854,28.884886,0.701904,-0.311768,-0.953125,-0.470947,13.71765,-47.546383,37.071228
0.258545,-0.213135,-0.713379,73.59314,29.441832,-3.852844,-0.269287,-0.856445,-0.432129,16.654968,-37.796021,32.180786
0.261719,-0.216553,-0.706787,82.321159,30.761717,-5.424499,-0.223389,-0.762939,-0.397461,11.810302,-30.364988,29.71649
0.328857,-0.168945,-0.732666,86.837761,29.685972,-7.354736,-0.200439,-0.717041,-0.377197,8.247375,-26.412962,28.839109
0.362305,-0.077393,-0.739258,80.764763,30.311583,-9.857178,-0.213867,-0.703857,-0.360107,9.536743,-27.084349,31.776426
0.365234,-0.039307,-0.717773,69.366455,27.870176,-10.940551,-0.235596,-0.701172,-0.331543,16.265869,-32.661438,36.743164
0.391113,-0.10083,-0.697266,63.995358,25.794981,-7.339477,-0.27417,-0.666504,-0.350342,17.089844,-42.762753,38.452148
0.226074,-0.213623,-0.942139,57.891842,63.110348,8.155823,-0.321289,-0.606934,-0.381836,6.515502,-56.106564,37.200928
0.763184,-0.247803,-0.76001,-54.38995,-33.149719,6.217956,-0.371826,-0.557129,-0.394775,-3.356933,-66.619873,38.818359
1.79126,-0.699951,-1.118164,-120.826714,-247.627243,-49.491879,-0.391602,-0.545166,-0.430176,-4.402161,-68.908691,40.931698
0.455811,-0.246582,-0.642822,-23.193357,-53.062435,12.344359,-0.220459,-0.664063,-0.999023,89.134209,-50.98724,21.347044
1.700195,-0.615723,-0.950439,-69.801331,-203.674301,-29.113768,-0.358398,-0.576416,-0.467529,0.205994,-55.755611,29.937742
1.582031,-0.524902,-0.910156,-58.593746,-177.711472,-18.585205,-0.192627,-0.886475,-0.736572,28.984068,-6.492614,-17.50946
1.488281,-0.452148,-0.881836,-55.229183,-152.96936,-4.608154,-0.263916,-0.961182,-0.849609,40.801998,2.220154,-20.019531
1.306396,-0.404053,-0.819092,-50.636288,-132.995605,6.66809,-0.269775,-1.060303,-0.954102,46.874996,8.956909,-16.365051
1.165283,-0.385498,-0.722168,-41.343685,-116.798393,10.44464,-0.250732,-1.206787,-1.026367,51.834103,15.426635,-14.503478
1.15332,-0.382324,-0.654297,-33.714294,-99.876396,11.535644,-0.269043,-1.335205,-1.092773,58.311459,25.833128,-8.94165
0.544922,-0.237061,-0.720947,-34.0271,-41.000362,11.161803,-0.408203,-1.418945,-1.176514,62.812801,31.814573,3.425598
1.004395,-0.408691,-0.499268,-21.827696,-56.90765,6.507873,-0.564209,-1.393555,-1.273438,65.818787,15.121459,17.700195
0.922852,-0.425049,-0.418457,-11.619567,-22.735594,-4.257202,-0.5271,-1.172607,-1.328857,70.289612,-22.438047,27.290342
0.895752,-0.44458,-0.350342,2.212524,19.737244,-8.399963,-0.406006,-0.9021,-1.210449,76.980591,-43.395992,22.590635
0.899658,-0.46582,-0.33374,15.602111,61.256405,-11.45172,-0.340088,-0.808594,-1.135742,85.311882,-48.362728,20.050049
1.111084,-0.395996,-0.606201,-28.915403,-80.390923,12.519835,-0.226318,-0.707275,-0.556152,13.031005,-24.436949,2.082825
0.86792,-0.444336,-0.400391,23.277281,128.005981,-30.532835,-0.404053,-1.00293,-0.501221,1.670837,-55.5191,41.992184
0.897217,-0.476318,-0.366211,22.087095,97.679131,-17.799377,0.143799,-0.186035,-0.858887,125.953667,-111.305229,1.060486
0.268311,-0.28125,-0.55127,-22.354124,-31.494139,-28.511045,0.243408,-0.087646,-0.859863,123.13842,-84.884636,3.440857
0.226074,-0.290283,-0.594482,-22.224424,-12.21466,-39.245605,0.375,0.100098,-0.698242,238.555893,22.506712,-140.312195
0.193848,-0.322266,-0.584961,-17.150879,11.497497,-45.402523,0.385742,0.162109,-0.700928,217.42247,34.614563,-151.756287
0.184082,-0.39209,-0.605469,-3.89862,40.939327,-56.190487,0.326416,0.135742,-0.683594,203.262314,35.575867,-163.658127
0.380859,-0.264404,-0.520264,-22.644041,-48.622128,-9.315491,0.258301,0.046631,-0.587646,206.321701,34.233093,-177.391037
0.343506,-0.423096,-0.542969,-10.467528,107.879631,-59.722897,0.286133,-0.022705,-0.500488,221.321091,39.718628,-193.069443
0.49292,-0.382568,-0.543213,-11.695861,135.673523,-62.858578,0.359863,-0.031006,-0.468018,234.001144,55.625912,-208.808884
0.644043,-0.351563,-0.525146,-1.686096,150.482178,-64.77356,0.416504,0.026123,-0.444824,235.275253,76.48468,-220.19194
0.778076,-0.378174,-0.459229,14.244079,147.521973,-51.773067,0.455078,0.120117,-0.412598,225.967392,93.803398,-227.195724
0.215088,-0.434814,-0.591309,-3.280639,76.179504,-60.348507,0.445313,0.201904,-0.369629,209.846481,104.400627,-236.625656
-0.819824,0.669922,-0.330811,-2.388,17.402649,-14.297484,0.37207,0.243896,-0.288818,191.314682,111.259453,-247.91716
-0.842285,0.653809,-0.382568,-5.218505,7.8125,-12.046813,0.29541,-0.00708,-0.696533,249.992355,2.983093,-128.913879
-0.836182,0.63501,-0.434326,-9.117126,2.128601,-4.592896,0.282227,0.244141,-0.197998,175.33873,114.761345,-249.992355
-0.823242,0.608154,-0.450195,-11.253356,4.165649,6.820678,0.227783,0.195068,-0.047852,161.048874,98.358147,-249.992355
-0.839111,0.581787,-0.461426,-8.68988,11.825561,19.851685,0.24292,0.192627,0.001953,161.178574,81.771843,-249.992355
-0.867676,0.578125,-0.481934,-0.808716,16.471863,28.182981,0.287842,0.224121,0.036865,160.591125,69.236755,-249.992355
-0.904053,0.606934,-0.509033,7.354736,9.094238,26.367186,0.363037,0.29834,0.060303,152.992249,64.39209,-249.992355
-1.01001,0.653564,-0.545654,7.904052,-10.856627,21.965025,0.474365,0.398193,0.096924,136.245728,62.728878,-249.992355
-1.145752,0.705566,-0.578125,-3.913879,-39.962769,26.069639,0.555908,0.485107,0.159424,113.891594,60.050961,-249.992355
-1.204834,0.745117,-0.541992,-22.247313,-72.502136,44.700619,0.542236,0.528564,0.177734,89.87426,57.395931,-249.992355
-0.229736,-0.153809,-1.157959,18.013,-157.150269,-6.317138,0.553467,0.529785,0.179688,65.757751,51.071163,-249.992355
-1.101318,0.807129,-0.470215,-23.849485,-114.761345,62.33215,0.614014,0.495361,0.19873,43.289181,38.612366,-249.992355
-1.108398,0.932373,-0.511963,-4.249573,-120.941154,28.549192,0.663574,0.443604,0.175049,23.223875,24.139402,-249.992355
-1.078369,1.106445,-0.615479,-21.888731,-136.901855,18.066406,0.235596,0.218018,-0.11084,165.25267,110.969536,-249.992355
-1.061768,1.265625,-0.583252,-71.243286,-160.057068,34.133911,0.171387,-0.120605,-0.720947,244.415268,-7.5531,-120.635979
-1.070068,1.258301,-0.554688,-116.83654,-179.183945,26.06201,0.197266,-0.135986,-0.864502,125.694267,-98.472588,1.480102
-1.121582,1.037842,-0.525635,-147.666931,-194.297775,19.386292,0.197998,-0.185791,-1.112305,221.656784,34.294128,-105.926506
-1.041504,0.703857,-0.599365,-150.375366,-204.711899,16.944885,0.258545,-0.054443,-0.834473,117.683403,-76.61438,5.043029
-0.791992,0.352051,-0.751709,-126.373283,-206.321701,6.278991,0.231445,-0.05957,-0.80249,112.159721,-82.252495,8.880615
-0.47168,0.037842,-0.936768,-82.06176,-193.466171,-14.549254,0.182861,-0.098877,-0.777832,108.940117,-103.950493,14.442443
-0.259766,-0.156982,-1.133545,-28.717039,-171.569809,-22.865294,0.180664,-0.124023,-0.745117,106.010429,-133.613586,21.499632
-0.807861,0.679688,-0.339355,-0.175476,25.581358,-13.732909,0.263916,-0.089111,-0.727051,100.791924,-154.556274,31.173704
-1.174561,0.767578,-0.480469,-34.339905,-98.136894,66.963196,0.416748,-0.016357,-0.709229,90.217583,-155.220032,43.380733
-0.791016,0.667236,-0.359863,1.289368,29.472349,-14.564513,0.07959,-0.185547,-0.835205,230.186447,3.768921,-113.502495
-0.778076,0.605713,-0.411621,-29.174803,14.450072,-54.611202,0.679688,-0.039551,-0.69873,65.963745,-99.815361,57.083126
-0.73999,0.672852,-0.3479,-2.067566,32.356262,-22.186277,0.757568,-0.181641,-0.727295,70.495605,-53.947445,47.767635
-0.300049,-0.000977,-1.05835,49.957272,-159.698486,19.737244,0.755127,-0.318115,-0.816162,82.008354,-4.585266,31.639097
-0.80835,-0.0271,-0.461426,-103.10363,68.031311,-105.300896,0.638672,-0.385742,-0.947021,92.346184,37.246704,20.774839
-0.789795,-0.063232,-0.477539,-85.739128,56.320187,-95.840446,0.564697,0.01709,-0.691406,75.325012,-134.689331,53.718563
-0.763184,-0.041992,-0.46582,-77.774048,44.197079,-87.280266,0.273193,-0.361084,-1.120361,98.617546,74.623108,10.665893
-0.699951,0.014893,-0.484619,-77.781677,34.484863,-83.724968,0.468994,-0.384033,-1.073975,97.633354,65.696716,15.342711
-0.635742,0.091553,-0.543701,-78.201294,31.417845,-79.399109,0.641113,-0.248047,-1.286133,239.021286,80.413811,-82.771294
-0.592773,0.172607,-0.572266,-75.653076,32.478333,-73.638916,0.686523,-0.328857,-1.156982,240.280136,50.369259,-65.910339
-0.601074,0.241699,-0.597412,-67.726135,33.164978,-67.558289,0.624268,-0.412354,-1.033203,220.741257,-6.553649,-49.751278
-0.657959,0.299316,-0.637939,-54.969784,30.364988,-62.026974,0.473145,-0.454834,-0.994141,185.203537,-57.03735,-39.474487
-0.716797,0.350586,-0.62793,-42.221066,24.429319,-60.852047,0.460938,-0.196289,-1.30542,227.241501,69.313049,-96.336357
-0.758301,0.655762,-0.345459,0.50354,31.517027,-18.165588,0.094482,-0.377197,-1.001465,118.713371,-59.753414,-30.09796
-0.766113,0.39209,-0.540039,-31.997679,17.456055,-59.272762,-0.000977,-0.314941,-1.019043,103.195183,-20.652769,-19.622803
-0.819336,0.537354,-0.459961,-23.956297,13.267516,-52.169796,0.021973,-0.301758,-1.044189,98.205559,23.490904,-7.5531
-0.74292,0.607422,-0.373535,-31.455992,13.053893,-59.822079,0.121582,-0.33374,-1.074219,98.175041,58.731075,3.219604
-0.75415,0.567139,-0.411133,-24.650572,13.282775,-63.858028,0.271973,-0.437256,-0.986572,147.598267,-76.23291,-34.896851
-0.795898,0.522705,-0.489746,-11.566161,14.549254,-63.606258,0.570313,0.269287,-0.804443,69.953918,-61.759945,21.27075
-0.822754,0.499023,-0.516357,1.64032,14.083861,-60.028072,0.474365,0.327637,-0.753174,60.272213,-46.554562,25.444029
-0.806396,0.517578,-0.525635,9.925842,13.450622,-55.381771,0.348877,0.360352,-0.661865,47.294613,-50.041195,29.182432
-0.766113,0.5625,-0.516846,11.924743,15.937804,-48.950191,0.257568,0.377197,-0.60376,32.165527,-72.349548,30.982969
-0.733887,0.626221,-0.498291,8.117676,20.820616,-40.283199,0.219971,0.381836,-0.595215,19.248962,-106.147758,33.554077
-0.721436,0.68457,-0.447021,1.213074,26.05438,-31.745909,0.247314,0.36499,-0.585205,13.381957,-139.419556,37.658691
-0.722168,0.696777,-0.382568,-2.845764,30.242918,-25.93231,0.331787,0.335938,-0.571045,16.494751,-162.10936,41.862484
-0.806152,0.453125,-0.48584,-24.826048,12.367248,-54.878231,0.418945,0.314453,-0.578369,24.993895,-169.029221,45.883175
-0.375732,0.214355,-1.068604,67.108154,-171.607956,40.771481,0.491455,0.317627,-0.602295,31.951902,-163.230881,48.988338
-0.734131,0.473145,-0.634766,86.570732,52.925106,107.688896,0.546875,0.346436,-0.600586,32.028198,-152.732849,48.507687
-0.491455,0.406006,-0.67334,73.951721,-188.720688,67.077637,0.571777,0.382813,-0.615234,44.631954,-9.620667,-31.036375
-0.271973,0.437012,-0.681396,80.741875,-6.256103,130.271912,0.544434,0.432617,-0.616943,14.61029,-140.228271,40.550228
-0.216797,0.416992,-0.598633,77.9953,15.220641,120.017998,0.545166,0.44165,-0.629639,7.04956,-135.353088,36.468506
-0.231689,0.415527,-0.612549,75.187683,37.788391,115.661613,0.571045,0.409424,-0.62915,7.080078,-124.969475,31.524656
-0.294434,0.428223,-0.696289,76.202393,57.212826,116.71447,0.62085,0.355469,-0.652588,16.891479,-108.001701,24.757383
-0.355713,0.456299,-0.761719,82.824699,69.046021,119.186394,0.679443,0.311523,-0.663574,30.944822,-87.654106,17.64679
-0.422852,0.487305,-0.785645,85.868828,74.661255,120.597832,0.730469,0.287598,-0.576416,41.564938,-67.192078,9.941101
-0.506836,0.5,-0.781738,87.364189,72.608948,120.048515,0.743164,0.295898,-0.499268,45.280453,-48.271175,-0.022888
-0.618408,0.495361,-0.777832,87.341301,66.078186,115.806572,0.677734,0.332275,-0.509521,43.830868,-33.027649,-11.268615
-0.704834,0.48584,-0.729492,86.730949,60.066219,110.397331,0.599365,0.361328,-0.544678,41.732784,-22.758482,-20.622252
-0.782715,0.472168,-0.547852,86.776726,40.756222,106.498711,0.579102,0.374512,-0.591064,42.381283,-16.242981,-27.175901
-0.867676,0.507568,-0.503906,85.235588,21.057127,104.61425,0.558105,0.181152,-0.819824,74.676514,-85.876457,19.53125
-0.926514,0.578125,-0.488037,81.245415,-5.607605,99.906914,0.55957,0.394287,-0.608643,24.787901,-144.638062,44.776913
-0.95752,0.662598,-0.513428,73.043823,-34.042358,90.5075,0.457031,0.093506,-0.850098,72.631836,-104.698174,18.638611
-0.962158,0.727783,-0.535156,61.965939,-59.074398,79.650879,0.0896,0.217773,-0.798096,4.02832,114.013664,-21.675108
-0.930664,0.731201,-0.557861,52.360531,-77.186584,72.151184,0.286865,0.032715,-0.842529,56.472775,-103.500359,16.624451
-0.901855,0.675781,-0.556885,45.280453,-88.333122,69.969177,0.571289,0.398438,-0.629639,46.241756,-2.89154,-33.531189
-0.875,0.603027,-0.525391,40.466305,-94.085686,70.976257,0.474609,0.274902,-0.778564,-19.126892,-53.848263,-35.240173
-0.83252,0.554688,-0.481445,35.65979,-92.872612,70.495605,0.500732,0.272461,-0.841797,-23.03314,-31.944273,-23.849485
-0.770264,0.540527,-0.47168,29.869078,-82.412712,64.979553,0.57666,0.238037,-0.902832,-25.077818,-2.090454,-10.932921
-0.719971,0.554443,-0.496582,24.780272,-62.034603,53.199764,0.593994,0.182373,-0.923828,-21.926878,31.280516,-8.728027
-0.710205,0.56665,-0.536133,22.65167,-35.476685,40.954586,0.595947,0.179688,-0.94751,-17.402649,65.544128,-11.489867
-0.3396,0.461182,-0.757568,80.80291,-23.681639,141.975403,0.559082,0.196777,-0.994629,-13.099669,97.343437,-15.975951
-0.343994,0.485107,-0.755615,75.805664,-32.417297,147.872925,0.498535,0.220947,-1.026855,-11.627196,120.132439,-19.172668
-0.454346,0.368896,-0.960205,72.525024,-182.487473,56.243893,0.419922,0.243408,-1.015625,-14.259337,129.516602,-17.349243
-0.313721,0.53418,-0.738525,62.20245,-27.328489,140.045166,0.303711,0.239258,-0.942383,-18.4021,130.462646,-11.993407
-0.31665,0.513428,-0.731934,66.78009,-32.028198,146.461487,0.357422,0.043701,-0.857178,65.200806,-110.244743,17.303467
-0.373291,0.386475,-0.393066,67.871094,-183.02153,77.140808,0.200439,0.199219,-0.810791,-17.13562,131.622314,-8.705139
-0.280762,0.369629,-0.406494,65.933228,-175.773605,74.607849,0.192139,0.190186,-0.755127,1.121521,132.293701,-19.554138
-0.180176,0.360352,-0.495605,63.117977,-164.909348,76.10321,-0.070313,0.217285,-0.855957,2.13623,70.526123,-17.539978
-0.069824,0.373291,-0.599121,57.739254,-146.118164,81.665031,-0.156738,0.168457,-0.868164,2.76947,9.19342,-12.794494
0.002441,0.377686,-0.654541,52.612301,-121.276848,88.432304,-0.11499,0.094482,-0.837891,11.047362,-48.927303,-10.383605
0.005127,0.364258,-0.631592,53.50494,-97.801201,92.979424,0.032959,0.048584,-0.801025,25.497435,-87.577812,-6.584167
-0.014893,0.352539,-0.641357,58.845516,-78.033447,94.779961,0.218994,0.068115,-0.752686,41.046139,-102.119438,-0.289917
-0.034668,0.337402,-0.685791,66.101074,-63.163754,97.846977,0.338623,0.129883,-0.720215,51.162716,-96.237175,5.477905
-0.067627,0.324951,-0.713867,72.013855,-53.947445,103.782646,0.314941,0.148438,-0.775391,52.146908,-83.854668,9.742737
-0.085938,0.334229,-0.706787,72.32666,-51.544186,110.679619,0.248779,0.104736,-0.786133,49.514767,-80.780022,13.09204
-0.447998,0.404053,-0.480957,71.670532,-188.491806,74.813843,0.240479,0.055176,-0.807129,50.376888,-90.12603,15.457152
-0.109863,0.342773,-0.680908,65.345764,-50.132748,116.4627,0.193359,0.173828,-0.734375,-8.140564,134.437561,-12.519835
-0.136963,0.347168,-0.702637,65.040588,-42.556759,117.103569,0.447754,0.270264,-0.739502,-17.799377,-67.062378,-34.103394
-0.150635,0.335938,-0.735107,66.123962,-33.7677,116.394035,0.59375,0.425537,-0.629639,46.989437,-0.099182,-37.986755
-0.169922,0.30835,-0.76123,70.777893,-28.541563,115.867607,0.655518,0.516846,-0.443359,44.273373,-11.093139,-61.622616
-0.201416,0.293701,-0.773438,79.406738,-26.802061,119.216911,-0.438232,-0.989746,-0.867676,-249.992355,249.992355,-1.953125
-0.226318,0.312256,-0.779053,88.584892,-27.488707,126.41906,-0.638184,-1.102295,-0.865479,-249.992355,249.816879,-17.13562
-0.237793,0.366455,-0.794678,92.376701,-28.060911,132.537842,-0.806152,-1.157959,-0.89209,-241.714462,249.877914,-27.435301
-0.256836,0.436035,-0.833252,87.745659,-27.503965,134.223938,-0.973145,-1.131348,-0.865723,-221.786484,249.992355,-30.647276
-0.286377,0.499756,-0.828857,77.903748,-25.970457,133.163452,-1.09375,-1.095459,-0.814941,-201.194748,243.797287,-31.288145
-0.307129,0.535645,-0.778076,67.337036,-25.093077,134.414673,-1.087158,-1.056152,-0.785156,-174.499496,217.208847,-34.919739
-0.087891,0.342285,-0.68335,68.382263,-52.528378,115.119926,-0.979004,-1.024414,-0.752441,-147.476196,197.700485,-33.233643
0.164795,0.869873,-0.803223,29.197691,89.691154,-32.905579,-0.997314,-1.060059,-0.725342,-119.239799,188.140854,-27.870176
0.248047,0.651367,-0.953369,23.941038,-18.669128,8.110046,-1.149414,-1.127197,-0.815918,-89.355461,178.329453,-14.747619
0.092773,0.55957,-1.059326,21.52252,-34.812927,2.906799,-1.041748,-1.109375,-1.012207,-45.608517,162.643417,-1.060486
0.046875,0.425293,-1.154297,14.831542,-29.830931,2.456665,-0.26416,-0.873047,-0.882568,-249.786362,249.992355,18.692017
0.162109,0.671387,-0.867432,-80.245972,-155.731201,-11.466979,-0.85376,-0.950195,-0.970947,-44.548031,149.795532,-3.547668
0.476807,0.371826,-1.190918,-21.278379,-11.802672,6.690979,-0.982178,-0.820313,-0.841309,-54.939266,99.334709,14.595031
0.579102,0.472656,-1.047852,-46.600338,-32.25708,3.700256,-0.992676,-0.898682,-0.829346,-49.858089,73.608398,24.726866
0.458984,0.581543,-0.934082,-67.970276,-77.384949,-0.663757,-0.890137,-0.924316,-0.788086,-44.425961,53.848263,24.276731
0.255615,0.654541,-0.863281,-80.162048,-127.311699,-6.629943,-0.725342,-0.922852,-0.696533,-41.320797,34.873962,19.187927
0.22876,0.350098,-1.214355,0.328064,-17.089844,5.798339,-0.633545,-0.917236,-0.627197,-40.054321,16.639709,16.441345
0.356201,0.640137,-0.97168,30.807493,12.046813,20.874022,-0.628906,-0.921875,-0.604736,-37.895203,-1.617432,20.187376
0.394043,0.495605,-0.630127,33.065796,82.31353,-65.162659,-0.643555,-0.938721,-0.598389,-33.8974,-22.422789,28.144835
0.383301,0.5271,-0.806396,44.616695,62.484737,26.130674,-0.620361,-0.968994,-0.563477,-26.344297,-43.037411,36.880493
0.353027,0.51416,-0.746338,45.806881,69.992065,-2.754211,-0.530762,-0.999512,-0.521729,-13.572692,-55.511471,42.404171
0.348145,0.514404,-0.688477,38.490295,75.531006,-40.634151,0.632324,0.467285,-0.54834,46.69952,-5.752563,-47.531124
0.385742,0.44751,-0.663818,40.344234,97.442619,-70.083618,-0.878662,-0.809814,-0.881104,-51.918026,127.655022,0.762939
0.299316,0.414307,-0.726318,55.366512,101.272575,-58.242794,-0.123291,-0.770996,-0.838623,-249.992355,249.992355,41.305538
0.135498,0.44165,-0.830566,64.071655,93.818657,-42.900082,-1.208252,-1.166016,-0.94751,-61.401363,169.197067,-2.037048
0.037598,0.522949,-0.943115,63.995358,90.972893,-37.92572,0.162598,-0.669434,-0.426025,-249.992355,230.857834,73.509216
0.109619,0.625488,-0.967529,56.083675,92.64373,-42.198177,0.647217,0.565674,-0.463867,36.689758,-7.858276,-68.710327
0.200928,0.738281,-0.876221,43.281551,92.658989,-43.518063,0.045898,-0.719971,-0.712646,-249.992355,248.67247,60.43243
0.288818,0.679199,-0.974609,-70.732117,-150.100708,-10.94818,0.606934,0.5625,-0.493408,24.368284,2.105713,-53.657528
0.388672,0.577393,-0.908203,37.712097,42.716976,32.020569,0.622559,0.479004,-0.457764,17.654419,11.932372,-29.609678
0.616699,0.764404,-1.036865,-57.151791,-118.09539,-3.967285,0.749268,0.388184,-0.422607,26.756285,19.462585,-39.093018
-0.486816,0.462402,-0.918945,29.769896,-77.49176,-98.075859,0.823486,0.422119,-0.397949,42.701717,33.508301,-92.926018
0.724365,0.884766,-0.849121,-33.180237,-89.599602,-7.476806,0.713135,0.675537,-0.416748,39.611816,58.486935,-123.291008
-0.217041,0.202148,-1.005371,44.372555,-13.488769,-32.646179,0.892334,1.20459,-0.481934,-85.395805,49.102779,101.799004
0.129883,1.003906,-0.785156,13.313293,73.46344,-11.528014,1.319092,1.004639,-0.303223,-170.654282,49.293514,122.428886
-0.273682,0.188965,-0.998535,46.554562,29.533384,-36.361694,1.383057,0.734863,-0.052002,-226.562485,81.985466,26.81732
-0.394287,0.259521,-0.972168,53.962704,48.316952,-43.403622,1.156006,0.58252,0.077393,-247.734055,114.898674,-50.361629
-0.632324,0.331055,-0.908936,64.193726,51.910397,-25.962828,0.594238,1.056641,-0.493164,-4.53949,68.450928,-39.665222
-0.770996,0.422852,-0.824463,77.781677,19.012451,-26.237486,0.894531,0.51123,0.172119,-199.645981,166.954025,-124.893181
-0.73999,0.497803,-0.796143,76.080322,-44.609066,-39.596558,0.253906,-0.519775,-0.13501,-249.992355,210.319504,80.154419
-0.683594,0.499756,-0.734619,62.32452,-109.191887,-48.271175,0.998535,0.544434,0.1521,-236.389145,142.829895,-96.130363
-0.82666,0.441406,-0.770508,54.939266,-151.885986,-50.109859,1.288086,0.480713,-0.000732,-249.992355,249.992355,-9.681702
-0.919678,0.453125,-0.805908,45.402523,-170.684799,-54.26025,1.348389,0.522949,-0.203613,-245.597824,249.992355,-35.583496
0.885742,0.864502,-0.998291,-40.367123,-88.699333,-0.236511,1.294189,0.296387,-0.04248,-197.63945,249.351486,26.046751
-0.844482,0.496582,-0.731689,40.65704,-167.52623,-64.628601,0.557617,-0.067871,0.107422,-249.992355,218.040451,66.162109
-0.523193,0.464844,-0.848389,38.093567,-114.555351,-84.884636,0.846191,0.200439,0.068848,-195.762619,202.484116,15.571593
-0.453125,0.575928,-0.829346,14.526366,-43.67828,-112.411491,0.71875,0.362793,-0.020508,-183.700546,167.442307,-59.547421
-0.505371,0.70459,-0.669189,-0.869751,-18.226624,-116.912834,0.773682,0.456055,0.052002,-174.049362,171.379074,-116.5924
-0.553467,0.725098,-0.619629,-5.081176,-6.04248,-104.202263,1.167725,0.150635,0.067383,-179.298386,244.880661,53.413387
-0.327393,0.730957,-0.710449,-5.134582,-14.61029,-91.38488,0.755859,0.202393,-0.423828,67.840576,-208.068832,-23.864744
0.034424,0.785645,-0.858154,-17.13562,-49.72076,-97.091667,0.508545,0.090576,-0.646729,119.85778,-125.061028,13.145446
0.121094,0.782227,-0.914795,-40.992733,-97.663872,-111.41967,0.577393,0.128662,-0.645752,120.262138,-104.972832,6.553649
-0.048096,0.713867,-0.913574,-58.0368,-129.096985,-107.254021,0.599609,0.195801,-0.650879,113.639824,-88.699333,-1.037598
-0.101563,0.703369,-0.837158,-52.803036,-132.469177,-72.143555,0.599365,0.256592,-0.62085,102.317802,-81.573479,-5.805969
0.208008,0.803223,-0.746338,-38.742065,-111.061089,-29.602049,0.562744,0.291748,-0.569336,90.263359,-87.10479,-3.067016
-0.655273,0.506348,-0.737793,41.038509,-146.308899,-74.684143,0.49292,0.305176,-0.55249,79.589844,-103.080742,6.111145
-0.312256,0.155029,-0.985352,40.06958,11.650084,-16.586304,0.467529,0.290527,-0.539307,71.105957,-128.78418,12.931823
0.125732,1.066162,-0.79248,-10.116576,36.79657,8.079529,0.532471,0.257813,-0.510986,64.559937,-162.620529,7.507324
0.067871,1.056396,-0.836182,-93.139641,-37.864685,-0.549316,0.639893,0.220947,-0.471191,61.782833,-194.435104,-9.94873
-0.899658,0.626709,-0.096436,-66.90979,249.992355,-14.152526,0.888672,0.229736,-0.439453,83.686821,-194.587692,-21.156309
-1.226074,0.692139,-0.200439,-71.586609,235.511765,-27.931211,0.800293,0.508545,-0.392578,36.079407,-7.621765,17.623901
-1.350342,0.707031,-0.344238,-101.242058,117.424004,-58.326717,0.967041,0.317871,-0.449951,115.913383,-131.866455,1.701355
-1.440674,0.562256,-0.438965,-141.914368,-34.690857,-67.054749,1.061768,0.421387,-0.458496,117.111198,-82.656853,12.245177
-1.675293,0.408203,-0.487061,-169.28862,-173.561081,-38.383484,1.013672,0.517334,-0.456055,104.072563,-44.380184,24.955748
-1.925537,0.207764,-0.289795,-130.073547,-244.987473,21.118162,0.984131,0.56958,-0.438965,84.190361,-17.333984,39.115906
-2.173828,-0.095703,-0.140625,-51.811214,-249.992355,75.874329,0.946045,0.580078,-0.417725,62.858578,1.091003,50.743099
-1.427246,-0.120117,-0.40918,-4.516602,-219.482407,17.63916,0.902344,0.550293,-0.381104,45.837399,10.383605,50.689693
-0.351563,0.31665,-0.890137,-14.48059,-54.061886,-115.043633,0.856689,0.515625,-0.346924,38.276672,12.115478,42.007442
0.038818,0.632813,-0.690918,-60.333248,99.57885,-204.360947,0.830078,0.493896,-0.352539,36.659241,8.117676,32.531738
-0.628418,0.625,-0.211914,-69.152832,249.015793,-31.654356,0.807861,0.489258,-0.36792,37.025452,0.808716,24.688719
-0.156738,0.560547,-0.230469,-97.640984,177.871689,-221.031174,0.35791,0.068848,-0.599121,113.098137,-144.935608,17.288208
-0.750977,0.2771,-0.286377,-118.34716,222.572311,-188.94957,0.941406,0.265381,-0.459229,102.287285,-168.53331,-10.116576
-0.877197,0.155029,-0.321777,-110.687248,232.803329,-175.7202,0.153076,0.056885,-0.54248,100.448601,-157.249451,18.539429
-0.918213,0.066895,-0.307861,-98.045341,230.064377,-164.634689,-0.166504,-0.337646,-0.797363,75.675964,-192.451462,14.755248
-0.960205,0.044189,-0.30542,-89.065544,212.097153,-156.494141,-0.204346,0.130615,-0.538818,63.07983,-119.789116,0.244141
-1.017822,0.088135,-0.320068,-89.866631,185.447678,-149.032593,0.794434,0.529053,-0.401123,31.120298,-13.946532,12.748717
-1.035645,0.171875,-0.348145,-101.196281,157.028198,-141.899109,-0.11377,-0.400635,-0.828857,89.698784,-184.509262,12.321471
-0.989746,0.248291,-0.381348,-120.285027,129.875183,-139.701843,-0.043945,-0.388916,-0.866699,103.23333,-167.236313,12.603759
-0.924805,0.26416,-0.416016,-137.619019,107.231133,-138.710022,0.017334,-0.30249,-0.894043,109.260551,-145.41626,11.734008
-0.906738,0.19458,-0.44458,-138.038635,90.850822,-127.243034,0.047852,-0.189941,-0.9021,104.644768,-122.161858,6.027221
0.081787,1.08667,-0.840332,-47.760006,-6.690979,11.718749,0.059326,-0.104248,-0.896973,93.185417,-101.196281,-2.601623
-0.446289,0.409668,-0.174316,-115.966789,205.841049,-205.596909,0.03418,-0.082275,-0.87915,85.159294,-86.654655,-9.95636
-0.622314,0.686279,-0.360596,-63.667294,249.481186,-61.218258,-0.039795,-0.114746,-0.903564,88.645927,-84.114067,-13.412475
-0.866943,0.076416,-0.453613,-122.38311,78.330994,-112.747185,-0.145996,-0.141602,-0.917969,101.768486,-98.94561,-13.801574
-0.612061,0.973877,-0.317139,-35.072327,249.992355,-63.705441,-0.247803,-0.094238,-0.92041,112.525932,-133.476257,-11.604308
-0.630371,0.825439,-0.354248,-53.153988,249.992355,-72.45636,-0.271484,0.019531,-0.901855,109.855644,-189.865097,-4.714966
0.350342,0.481689,-0.672119,-111.778252,-9.292603,-21.751402,-0.191162,0.134521,-0.849365,92.697136,-241.950974,5.111694
0.433105,0.257324,-0.680664,-81.832878,23.834227,-15.846251,-0.026123,0.147949,-0.75708,70.220947,-249.336227,15.464782
0.324463,0.312744,-0.886719,-60.607906,49.461361,-6.881713,0.185059,0.017334,-0.657715,59.982296,-249.992355,30.677794
0.154053,0.449219,-1.168701,-50.773617,72.669983,2.76947,0.47998,-0.12207,-0.656494,66.055298,-249.992355,49.171444
0.078125,0.514648,-1.293213,-45.524593,102.920525,15.144347,0.79248,-0.225586,-0.683594,85.815422,-226.158127,61.836239
0.123291,0.512695,-1.283203,-48.202511,141.098022,23.757933,1.029297,-0.296143,-0.721436,122.795097,-127.387993,62.07275
0.225586,0.51416,-1.232666,-60.241695,175.689682,21.89636,1.064941,-0.209473,-0.776123,156.242371,-15.449523,44.761654
0.351074,0.549561,-1.154541,-68.008423,191.780075,11.756896,0.877441,0.046387,-0.825195,157.699585,70.625305,13.900756
0.353027,0.571533,-1.059326,-60.18066,189.971909,3.77655,0.487793,0.268311,-0.752686,126.403801,108.032219,-13.275146
0.211914,0.536133,-0.98584,-39.733887,174.83519,0.793457,0.092773,0.353271,-0.642578,86.891167,85.678093,-26.710508
0.171143,0.841553,-0.763184,-121.589653,-38.314819,-16.807556,-0.134766,0.32959,-0.614014,58.898922,15.586852,-29.411314
-0.193604,0.469238,-0.904541,3.479004,119.331352,4.478455,-0.236572,0.232178,-0.600342,48.858639,-59.486385,-18.684387
-0.262695,0.504395,-0.868164,17.990112,103.141777,12.832641,-0.052246,0.07251,-0.540039,83.679192,-152.374268,14.450072
-0.238037,0.627686,-0.856201,21.743773,105.743401,19.78302,0.798584,0.533936,-0.403076,26.733397,-16.212463,11.062621
-0.145752,0.729492,-0.848389,17.959595,127.014153,13.015746,0.778809,0.495361,-0.287354,10.055541,-22.6593,-11.32965
0.01001,0.740723,-0.821777,18.951416,158.935547,-13.771056,0.84375,0.510254,-0.399658,23.216246,-13.275146,3.227234
0.064209,0.652832,-0.736328,33.279419,190.971359,-36.514282,1.064697,0.468018,-0.662598,-53.138729,119.522087,42.938229
-0.108887,0.547852,-0.653809,54.779049,222.404465,-26.214598,1.016113,0.453613,-0.75708,-63.621517,144.699097,30.46417
-0.3479,0.556396,-0.582764,60.699459,245.880112,-1.281738,0.936768,0.410889,-0.821533,-72.547913,162.925705,13.900756
-0.482422,0.700439,-0.510986,39.894104,249.992355,-1.731872,0.816406,0.373047,-0.818359,-77.987671,169.219955,-2.212524
-0.488281,0.89209,-0.448242,8.079529,249.992355,-27.313231,0.741455,0.369629,-0.741455,-80.856316,154.563904,-13.96942
-0.519043,1.008057,-0.332275,-13.626098,249.984726,-51.551815,0.625,0.36499,-0.655518,-87.112419,116.813652,-7.873535
0.001465,0.489014,-0.933594,-16.014099,148.162842,0.579834,0.648438,0.421631,-0.632568,-93.673698,61.355587,1.686096
-0.143066,0.392334,-0.735107,-16.098022,-68.984985,81.947319,0.664063,0.49585,-0.455078,-91.491692,45.997616,-15.144347
-0.174561,0.368408,-0.679688,-1.739502,-73.600769,82.290642,0.637451,0.381348,-0.473633,-85.823051,23.551939,-27.481077
-0.170898,0.310791,-0.628906,12.725829,-73.448181,78.178406,0.757813,0.283447,-0.440674,-53.138729,40.893551,-24.368284
-0.186035,0.601807,-0.578857,-20.805357,-141.174316,88.211052,1.042236,0.501465,-0.571045,-44.448849,92.277519,50.704952
-0.078125,0.269531,-0.601074,10.82611,-71.289063,68.916321,0.8479,0.350098,-0.422363,-41.328426,107.208244,-15.457152
-0.044189,0.356445,-0.603027,-7.232666,-77.919006,72.273254,0.516846,0.387939,-0.43457,-52.665707,176.315292,-16.090393
-0.042725,0.480957,-0.596191,-26.924131,-94.474785,80.352776,0.451904,0.386963,-0.502197,-57.632442,155.738831,-14.465331
-0.078857,0.577881,-0.597412,-33.744812,-117.942802,88.592522,0.367432,0.376709,-0.572266,-58.158871,125.877373,-11.856078
-0.133545,0.259766,-0.602051,18.371582,-71.456909,71.990967,0.296387,0.356689,-0.621826,-55.664059,91.995232,-9.620667
-0.10083,0.367676,-0.776855,-20.828245,-58.4259,79.948425,0.253418,0.293457,-0.664307,-48.797604,53.520199,-10.337829
-0.202393,0.333252,-0.766602,23.513792,-30.868528,112.236015,0.263672,0.209717,-0.690674,-38.383484,10.810851,-12.21466
-0.10498,0.2146,-0.815918,8.369446,-30.067442,87.882988,0.276123,0.187988,-0.712646,-30.364988,-27.900694,-12.794494
-0.164307,0.179932,-0.837646,27.854918,-22.590635,98.396294,0.290771,0.227051,-0.720459,-26.420591,-55.038448,-11.047362
-0.215576,0.213623,-0.861328,38.032532,-23.269651,108.360283,0.324219,0.254395,-0.723145,-24.360655,-69.694519,-12.741088
-0.228027,0.279053,-0.846191,35.675049,-28.144835,113.555901,0.38623,0.252686,-0.715576,-20.690916,-73.783875,-23.094175
-0.146484,0.359375,-0.692383,8.285522,-26.626585,106.422417,0.705322,0.405762,-0.386719,-45.265194,165.863022,-16.082764
-0.095459,0.35083,-0.682861,-3.028869,-14.930724,101.745598,0.98999,0.524658,-0.487549,-36.621094,68.450928,47.966
-0.077881,0.309082,-0.731934,-5.41687,0.793457,102.272026,0.655029,0.290283,-0.473877,-72.807312,10.833739,-31.311033
-0.107178,0.25,-0.800537,1.655578,15.678405,107.543938,0.93042,0.538086,-0.383545,-33.203125,31.47888,28.671263
-0.178955,0.206543,-0.843994,13.984679,25.131224,114.639275,0.956787,0.521729,-0.419678,-32.310486,48.21777,37.376404
-0.300781,0.551758,-0.572998,-4.989624,-165.725693,78.277588,0.830566,0.510254,-0.399902,22.750853,-20.03479,-9.757996
-0.267578,0.193115,-0.869629,24.67346,27.381895,120.834343,0.806396,0.537598,-0.396484,17.562866,-20.88928,-13.931273
-0.080078,0.29541,-0.800049,-11.405944,-43.861385,81.04705,0.786377,0.545898,-0.340332,12.512206,-22.163389,-15.945434
-0.403076,0.474609,-0.625977,6.187438,-188.19426,68.908691,0.783203,0.547852,-0.301514,9.048462,-23.048399,-15.548705
-1.01709,0.571777,-0.561768,-22.003172,-119.529716,55.984493,0.795898,0.550537,-0.289063,7.011413,-23.094175,-14.244079
-0.469971,0.425781,-0.690918,11.283874,-215.759262,49.110409,0.802246,0.534912,-0.279297,7.080078,-22.14813,-12.397765
-0.318115,0.202881,-0.869873,28.724669,26.374815,123.77166,0.799316,0.516357,-0.287598,8.491516,-21.942137,-11.817931
-0.056641,0.571533,-0.644775,20.668028,103.60717,43.014523,0.826416,0.527344,-0.408447,23.628233,-14.373778,8.102417
-0.203125,0.633545,-0.681152,29.33502,130.04303,61.653133,0.760498,0.478516,-0.292236,11.650084,-22.6593,-10.101317
-0.369141,0.695313,-0.787354,27.770994,140.274048,71.014404,0.753174,0.48291,-0.316406,11.810302,-21.255491,-8.720398
-0.505615,0.758301,-0.882324,15.624999,137.878418,71.70105,0.841797,0.49585,-0.388184,24.055479,-16.571045,-3.288269
-0.581299,0.834229,-0.85376,1.091003,129.112244,59.890743,0.755371,0.548828,-0.372803,3.334045,-16.235352,-4.78363
-0.675293,0.827637,-0.763184,-2.227783,120.391838,32.798767,0.751221,0.51001,-0.340088,9.246826,-19.042969,-6.996154
-0.837158,0.729492,-0.685303,8.872986,101.058952,12.443542,0.885986,0.634277,-0.445068,-33.073425,13.816833,18.882751
-1.101074,0.677734,-0.778809,16.555786,65.803528,0.015259,0.848633,0.643555,-0.476563,-25.909422,14.045714,17.01355
-1.496826,0.658203,-1.003906,-1.037598,16.433716,-0.526428,0.841309,0.606445,-0.480713,-18.669128,13.549804,15.136718
-0.459473,0.429199,-0.69458,12.413024,-205.429062,57.853695,0.844238,0.56665,-0.471436,-15.701293,8.560181,13.046264
-1.741455,0.668945,-0.989258,-49.575802,-41.778561,28.404234,0.919189,0.576172,-0.391113,-34.843445,19.851685,22.171019
-1.30249,0.606445,-0.756836,-64.491272,-111.236565,59.768673,0.810303,0.562256,-0.430908,-14.839171,-5.004883,7.293701
-0.837646,0.611084,-0.537842,30.151365,-120.948784,44.502254,0.77832,0.57666,-0.406006,-10.917663,-10.162353,3.883362
-0.779785,0.732666,-0.875488,43.579098,-119.087212,53.535458,0.759277,0.572266,-0.391602,-4.386902,-13.618468,-0.740051
-0.483887,0.657471,-0.589355,20.416258,-144.340515,47.431942,0.839355,0.553467,-0.456055,-15.731811,1.785278,10.208129
-0.458008,0.625488,-0.436768,7.537841,-143.218994,49.102779,1.265381,0.546387,-0.260742,-74.09668,24.353025,47.981258
-0.465332,0.626709,-0.400391,-2.494812,-151.596069,45.913692,0.76416,0.414795,-0.494141,-7.263183,12.550353,-11.573791
-0.497803,0.60376,-0.39624,-10.284423,-166.587814,45.349117,0.769531,0.412598,-0.46875,-9.45282,8.827209,-7.202148
-0.501221,0.551758,-0.429932,-13.168334,-185.157761,47.45483,0.791016,0.425781,-0.427979,-11.772155,-1.602173,-4.333496
-0.492432,0.489258,-0.527344,-8.781433,-204.277023,50.575253,0.83252,0.457275,-0.38208,-15.11383,-15.197753,-1.274109
-0.478027,0.446777,-0.630859,0.88501,-216.896042,50.201412,0.894531,0.500488,-0.337891,-21.995543,-25.520323,5.79071
-1.56543,0.641602,-0.795898,-75.10376,-88.86718,47.752377,0.974121,0.544922,-0.335938,-32.913208,-26.885984,17.242432
-0.016602,0.541992,-0.608154,3.677368,64.857483,20.996092,0.742432,0.42627,-0.474854,-5.493164,10.040282,-16.197205
-0.306885,0.224121,-0.824219,24.757383,27.351377,123.298637,1.06665,0.571045,-0.347412,-46.234127,-17.845154,29.266356
-0.22168,0.27124,-0.714355,6.332397,43.701168,118.446342,1.166992,0.566406,-0.322754,-59.616085,-0.12207,39.382935
-0.639893,0.333496,-0.788086,-2.822876,-45.265194,57.235714,1.334717,0.515381,-0.191895,-94.207756,55.534359,55.427547
-0.480469,0.329346,-0.758789,-1.037598,-42.495724,42.121883,1.148682,0.303467,-0.231934,-201.91954,146.659851,88.943474
-0.405762,0.253174,-0.768066,7.415771,-29.891966,38.9328,1.336182,0.425293,-0.210449,-145.759583,115.287773,71.266174
-0.422119,0.148438,-0.783203,21.194456,-12.252807,38.902283,1.280518,0.349609,-0.19458,-167.640671,132.110596,80.245972
-0.484375,0.098877,-0.759277,35.179138,-1.159668,30.700682,1.233154,0.301025,-0.231445,-185.745224,141.571045,85.96801
-0.551025,0.099121,-0.753662,48.278805,-2.609253,15.815734,1.066162,0.334229,-0.132568,-221.015915,151.412964,88.203423
-0.590576,0.101074,-0.752441,60.302731,-14.22882,0.740051,1.077637,0.366455,-0.041748,-243.911728,161.682114,81.893913
-0.627197,0.105225,-0.759521,62.240597,-31.379698,-9.94873,1.128174,0.377197,0.058838,-249.992355,186.813339,76.210022
-0.682617,0.122559,-0.744141,57.365414,-45.448299,-15.632628,0.991943,0.289551,0.1604,-249.992355,228.042587,76.698303
-0.604492,0.260254,-0.730713,44.830318,-46.089169,-8.834839,0.750732,0.105469,0.312256,-249.992355,249.587997,79.109192
-0.383301,0.315918,-0.739746,46.424862,-24.116514,-13.069152,0.592773,-0.102051,0.280518,-249.992355,249.992355,82.855217
-0.23999,0.296875,-0.763916,56.671139,7.499694,-20.149229,0.735107,0.434326,-0.454346,-2.296448,2.6474,-20.980833
-0.264893,0.210693,-0.787598,68.717957,30.311583,-29.159544,1.361084,0.478516,-0.1875,-119.949333,88.813774,62.438961
-0.372314,0.145508,-0.843506,71.792603,26.412962,-37.490845,0.774414,0.413574,-0.463379,2.235413,-6.393432,-26.107786
-0.480957,0.172852,-0.84375,63.354488,2.212524,-29.762266,0.516602,0.454834,-0.640137,65.254211,30.128477,-56.610104
-0.619629,0.251465,-0.778076,47.264095,-19.187927,-2.250671,0.725342,0.33252,-0.525879,5.851745,-11.192321,-32.150269
-0.636475,0.314697,-0.797363,38.642883,-33.8974,16.204834,0.50415,-0.306396,0.035889,-249.992355,249.992355,84.365837
-0.329346,0.391602,-0.814697,50.117489,-52.963253,-4.882813,0.490234,0.448242,-0.611328,61.653133,18.379211,-54.504391
-0.103027,0.397949,-0.893799,60.18066,-55.755611,-32.905579,0.491943,0.460205,-0.58374,57.579037,3.982544,-54.38232
-0.069824,0.296387,-0.995117,57.929989,-40.924068,-47.264095,0.550293,0.489014,-0.563721,53.337093,-6.759643,-55.038448
-0.264648,0.245117,-0.75415,15.73944,33.073425,120.880119,0.623291,0.524414,-0.558105,48.347469,-11.024474,-54.229733
-0.778076,0.290771,-0.806885,-0.183105,-43.136593,79.25415,0.643799,0.544678,-0.547607,41.389462,-7.575988,-51.055904
-0.835205,0.236328,-0.804688,4.356384,-40.855404,92.468254,0.601807,0.54834,-0.537109,32.913208,2.380371,-46.646114
-0.696777,0.182617,-0.723389,53.176876,-51.826473,-16.418457,0.581299,0.531494,-0.560547,24.787901,14.373778,-42.053219
-0.730469,0.191406,-0.828857,10.887145,-34.484863,92.056267,0.621338,0.502441,-0.602783,19.53125,22.216795,-37.071228
-0.80835,0.195313,-0.799561,8.644104,-37.841797,93.429558,0.669678,0.466064,-0.623291,17.311096,21.858213,-32.38678
-0.246826,0.325195,-0.785889,2.052307,76.927185,117.286674,0.673584,0.436035,-0.63208,16.204834,12.695312,-30.639647
-0.302734,0.325195,-0.831299,8.972168,93.444817,118.09539,0.648193,0.420898,-0.619385,13.824462,-2.281189,-32.066345
-0.366699,0.309814,-0.859131,19.073486,105.155937,119.667046,0.649902,0.428467,-0.572998,9.880066,-18.478394,-33.576965
-0.443359,0.298584,-0.853027,27.359007,109.352104,121.803276,0.688965,0.446289,-0.527344,6.019592,-31.10504,-31.867979
-0.52002,0.302002,-0.819824,28.877256,104.476921,123.443596,0.696533,0.460205,-0.512939,4.318237,-36.491394,-27.107237
-0.593018,0.321777,-0.760254,25.192259,87.928764,124.748222,0.63623,0.456543,-0.487549,5.081176,-33.210754,-22.628782
-0.676025,0.362061,-0.720215,18.562317,60.928341,125.297539,0.615234,0.424316,-0.470459,7.354736,-24.734495,-21.232603
-0.771729,0.420654,-0.74292,12.123107,28.236387,123.535149,0.653809,0.399902,-0.513672,8.308411,-15.373229,-22.27783
-0.829346,0.485596,-0.795898,7.331848,-3.486633,118.446342,0.685059,0.391113,-0.538086,6.034851,-6.385803,-24.398802
-0.811523,0.518066,-0.831787,5.91278,-29.479979,112.342827,0.709473,0.377441,-0.560547,2.662658,-0.442505,-25.459288
-0.212891,0.301025,-0.728027,1.045227,58.92944,117.279045,0.714111,0.354004,-0.586914,0.167847,1.060486,-25.413511
-0.672363,0.221924,-0.922119,9.246826,-36.4151,96.031181,0.699219,0.333252,-0.608887,0.099182,-1.296997,-26.649473
-0.748291,0.434082,-0.897705,13.664245,-51.635738,103.904716,0.693848,0.323242,-0.581543,2.693176,-6.278991,-29.983519
-0.688721,0.377686,-0.911621,16.181946,-53.649899,101.577751,0.778809,0.366455,-0.481445,5.844116,-11.886596,-30.586241
-0.637695,0.363037,-0.877686,15.3656,-55.824276,101.882927,0.406494,-0.466309,-0.239258,-249.992355,249.992355,80.406181
-0.621338,0.393555,-0.848389,13.09204,-58.959957,103.752129,0.288818,-0.588135,-0.529053,-249.748215,249.992355,71.044922
-0.619385,0.466064,-0.853516,8.277893,-60.043331,102.844231,0.151367,-0.715332,-0.74585,-249.832138,249.992355,51.750179
-0.588867,0.527588,-0.902344,-0.709534,-59.509274,99.014275,-0.700928,-0.531006,-0.424072,14.305114,-74.325562,24.978636
-0.553711,0.510742,-0.953857,-8.216858,-56.823727,96.252434,-0.789795,-0.512451,-0.463379,10.543822,-76.896667,34.469604
-0.560303,0.421631,-0.97876,-5.989074,-52.74963,97.05352,-0.853516,-0.509521,-0.507324,6.393432,-82.954399,27.473448
-0.624268,0.303467,-0.993164,2.76947,-44.258114,98.724358,-0.860352,-0.525635,-0.60376,9.620667,-90.988152,4.425049
-0.776367,0.494141,-0.858643,8.766174,-45.555111,107.421867,-0.868164,-0.557373,-0.733154,11.848449,-88.523857,-21.278379
0.083496,0.0,-0.787354,75.149536,167.869553,6.820678,-0.859375,-0.595703,-0.914551,9.963989,-79.093933,-42.488094
0.147217,-0.055908,-0.776611,75.874329,179.336533,6.41632,-0.900146,-0.722412,-1.091797,11.474608,-73.669434,-41.381832
0.252441,-0.092285,-0.790527,69.854736,183.959946,7.209777,-1.022705,-0.956543,-1.197021,23.704527,-73.486328,-20.950315
0.375244,-0.111084,-0.802979,63.499447,182.701096,8.918762,-1.097168,-1.213379,-1.231689,44.372555,-80.14679,-8.31604
0.609131,-0.254395,-0.632813,57.929989,147.911072,37.628174,-0.983398,-1.345947,-1.207764,66.192627,-90.553276,-4.722595
0.503662,-0.146729,-0.748047,63.735958,170.349106,22.315977,-0.623047,-0.57373,-0.381104,14.167785,-78.765869,14.770507
0.518555,-0.190674,-0.702637,66.253662,163.513168,31.738279,-0.73291,-1.289551,-1.152588,86.624138,-97.976677,-0.587463
0.556641,-0.235596,-0.662842,64.575195,156.684875,36.903381,-0.337158,-0.861572,-1.013672,111.152641,-100.769035,12.527465
0.053711,0.087891,-0.795898,67.214966,152.885437,7.850646,-0.292725,-0.602783,-0.970703,98.777763,-100.891106,17.715454
0.468994,-0.120117,-0.786133,61.477657,177.330002,13.305663,-0.321045,-0.439941,-0.835449,76.408386,-106.246941,22.3999
0.024902,0.182617,-0.798584,58.631893,137.130737,5.577087,-0.358887,-0.371582,-0.763916,66.627502,-119.49157,27.595518
-0.006104,0.006836,-0.685059,52.520748,120.727531,-15.754699,-0.395752,-0.349365,-0.799316,69.122314,-134.95636,29.70886
-0.068359,0.25293,-0.825439,38.696289,111.54174,0.205994,-0.403809,-0.35498,-0.771973,76.316833,-148.643494,26.954649
-0.068848,0.19458,-0.79541,33.035278,107.162468,-3.837585,-0.358643,-0.343262,-0.739258,84.815971,-160.949692,22.65167
-0.030518,0.096191,-0.739258,35.804749,107.780449,-8.872986,-0.298096,-0.28418,-0.741455,87.951653,-169.891342,19.599915
-0.00708,0.019531,-0.685059,44.731136,112.136833,-13.053893,-0.245605,-0.21167,-0.741211,81.710808,-177.093491,18.241882
0.01416,0.044434,-0.713623,51.856991,131.80542,-17.456055,-0.225586,-0.189453,-0.749512,71.777344,-184.623703,18.440247
0.019531,0.09668,-0.754395,42.709347,144.439697,-17.349243,-0.486572,-1.108887,-1.081787,103.561394,-100.95977,6.248474
-0.029541,0.116455,-0.777832,36.735535,154.045105,-14.72473,-0.584717,-0.61084,-0.325928,10.604857,-88.386528,12.603759
-0.116943,0.103271,-0.753662,41.137691,156.692505,-11.878966,-0.210693,-0.245605,-0.776367,68.374634,-190.887436,17.967224
-0.183838,0.081055,-0.685059,50.148006,150.817871,-11.116027,-0.663574,-0.638672,-0.255371,-6.225585,-106.658928,14.648437
-0.227783,0.074463,-0.641846,55.999752,140.975952,-10.810851,-0.049561,-0.848633,-0.787842,-249.992355,249.992355,25.474546
-0.023682,0.243896,-0.816162,48.84338,122.375481,2.876281,-0.329102,-0.965576,-0.713135,-241.538986,249.992355,-0.724792
0.638428,-0.242432,-0.612793,49.674984,134.559631,37.445068,-0.615479,-1.029785,-0.619873,-204.650864,249.992355,-19.577026
0.703125,-0.413086,-0.671631,33.088684,-6.782531,20.423887,-0.847168,-1.01123,-0.543213,-179.771408,249.992355,-28.289793
0.585693,-0.197998,-0.604736,40.840145,96.382133,39.413452,-1.055176,-0.997314,-0.468506,-156.62384,249.992355,-39.009094
-0.247803,0.087402,-0.663574,57.189938,132.247925,-9.017944,-1.314453,-1.035889,-0.486816,-133.110046,249.992355,-53.565975
0.842285,-0.364014,-0.755371,34.934998,-2.883911,27.145384,-0.598145,-0.631348,-0.277344,0.762939,-98.69384,15.3656
0.977783,-0.320068,-0.850342,29.365538,4.096985,31.173704,-2.01416,-1.01123,-0.635254,-85.189812,249.992355,-37.200928
1.112549,-0.319336,-0.9104,22.972105,12.557982,31.211851,-2.322754,-0.898438,-0.690674,-75.782776,249.992355,-15.480041
1.200195,-0.389648,-0.932129,28.335569,24.139402,30.769346,-2.358887,-0.759521,-0.643066,-77.728271,236.57988,-21.179197
1.229004,-0.518555,-0.945557,47.569271,38.497925,31.196592,-2.069336,-0.653809,-0.5625,-86.700432,192.794785,-44.006344
1.199951,-0.635498,-0.926758,75.462341,51.971432,27.992247,-1.60376,-1.058105,-0.530029,-106.689445,249.641403,-57.02972
1.129639,-0.669678,-0.891846,98.701469,57.777401,17.478943,-1.674805,-0.688477,-0.393799,-87.936394,82.725517,-37.788391
1.005371,-0.615234,-0.910156,107.76519,58.967587,5.905151,-1.678223,-0.765869,-0.344727,-73.806763,35.888672,-21.812437
0.906006,-0.501953,-0.916992,98.861687,63.049313,-2.853393,-1.549072,-0.784912,-0.322998,-59.249874,4.272461,-15.693664
0.632324,-0.21167,-0.609863,42.182919,115.936272,39.123535,-1.307617,-0.755859,-0.258545,-50.354,-19.493103,-14.793395
0.867188,-0.388184,-0.861816,87.547295,70.793152,-7.133483,-1.15625,-0.724121,-0.194824,-42.655941,-41.221615,-11.421203
0.645752,-0.241211,-0.718018,72.814941,60.905453,9.590149,-1.059326,-0.702148,-0.181396,-34.500122,-62.492367,-6.690979
0.518555,-0.194824,-0.634277,64.13269,54.351803,18.89801,-0.940918,-0.683838,-0.157715,-27.252195,-83.297722,-3.044128
0.528809,-0.147949,-0.584717,55.404659,60.752865,23.200987,-0.850342,-0.671143,-0.155029,-20.332335,-100.181572,-1.564026
0.60376,-0.125244,-0.582275,48.156734,77.476501,25.382994,-0.791992,-0.657227,-0.181396,-13.47351,-109.573357,-0.12207
0.648193,-0.146973,-0.595947,45.547482,95.535271,26.321409,-0.735107,-0.643311,-0.223877,-8.110046,-111.015312,6.408691
0.632568,-0.205078,-0.606445,49.736019,106.010429,26.542662,-1.748535,-0.625732,-0.466064,-92.605583,140.045166,-51.383968
0.564941,-0.252197,-0.605225,56.434628,102.691643,28.236387,0.748779,0.319824,-0.30957,-25.520323,-28.312681,-26.596067
0.485352,-0.259766,-0.611328,58.067318,90.698235,31.646727,0.75,0.318359,-0.317871,-29.846189,-24.581907,-30.570982
0.456543,-0.241943,-0.618896,53.550716,81.924431,34.889221,0.755615,0.317627,-0.339844,-31.120298,-25.627134,-33.576965
0.51123,-0.216064,-0.61377,46.302792,83.457939,37.338257,0.761475,0.322021,-0.36792,-29.182432,-31.211851,-35.148621
0.789551,-0.300537,-0.792236,80.871574,71.586609,-2.5177,0.746582,0.431152,-0.431152,-20.278929,-74.34845,-17.951965
-0.257813,0.120361,-0.69873,55.068966,127.525322,-7.614135,0.752686,0.340088,-0.392822,-21.171568,-47.95837,-31.486509
0.57959,-0.434326,-0.600586,26.832579,-6.652832,11.772155,0.703613,0.36792,-0.413574,-19.493103,-54.069515,-28.32794
-0.303223,0.182129,-0.746094,53.024288,120.460503,-18.89801,0.69751,0.402344,-0.422852,-20.622252,-63.171383,-25.138853
-0.74292,0.690918,-0.627441,58.807369,7.949829,-18.882751,0.771484,0.332275,-0.38208,-24.589537,-40.138245,-34.843445
-0.747803,0.725342,-0.620117,58.128353,23.849485,-19.340515,0.753662,0.333008,-0.301514,-18.1427,-34.965515,-20.103453
-0.730957,0.743652,-0.593506,51.879879,31.875608,-24.490355,0.593018,0.889404,-0.679199,83.732597,79.650879,57.304379
-0.702393,0.720215,-0.524658,49.354549,29.83856,-29.434202,0.812012,0.368164,-0.32373,-1.647949,-31.440733,5.676269
-0.741455,0.681152,-0.506836,51.399227,23.391722,-27.534483,0.834717,0.383301,-0.36084,4.714966,-23.422239,23.193357
-0.848145,0.677246,-0.531006,49.97253,14.877318,-21.049498,0.834717,0.361084,-0.408447,8.987427,-14.892577,43.922421
-0.911621,0.707275,-0.563965,43.17474,2.128601,-19.02771,0.817383,0.321289,-0.489746,13.694762,-9.101868,64.651489
-0.895508,0.744873,-0.619629,32.958984,-9.643555,-19.294739,0.791992,0.298096,-0.61377,18.333435,-9.178162,78.018188
-0.825928,0.748047,-0.619385,24.269102,-13.076781,-19.172668,0.817139,0.270508,-0.724121,27.70233,-1.945495,82.366936
-0.762695,0.694336,-0.572266,20.996092,-12.84027,-20.523069,0.932373,0.217529,-0.781738,46.745296,43.17474,79.750061
-0.765625,0.672119,-0.641357,52.742001,-11.116027,-23.559568,0.998779,0.209961,-0.774658,76.095581,116.249077,69.374084
-0.758545,0.641846,-0.541504,21.369932,-15.243529,-19.40918,0.915283,0.329834,-0.714844,109.298698,160.40802,54.412838
-0.753662,0.666504,-0.533936,16.540527,-34.317017,-15.441894,0.747559,0.601563,-0.677246,117.881767,139.968872,50.788876
-0.72583,0.715332,-0.544922,4.356384,-48.011776,-20.507811,0.795166,0.461426,-0.446289,-15.624999,-88.195793,-9.475708
-0.672363,0.742188,-0.520508,-8.300781,-59.089657,-28.228758,0.774902,0.351318,-0.306152,-9.44519,-36.972046,-9.284973
-0.607178,0.729492,-0.489502,-17.776489,-65.834045,-36.331177,0.843506,0.489746,-0.459717,-7.225036,-101.638786,-2.914428
-0.562256,0.701904,-0.495361,-23.597715,-68.145752,-41.213985,0.85498,0.504639,-0.506836,36.491394,-59.288021,-14.877318
-0.511719,0.672607,-0.506348,-27.221678,-66.719055,-42.961117,0.807861,0.485352,-0.460449,10.032654,-103.187553,5.241394
-0.433105,0.641602,-0.526367,-28.95355,-59.364315,-39.665222,0.668213,0.969971,-0.632568,41.938778,39.627075,71.403503
-0.322021,0.623291,-0.563232,-29.632566,-42.869564,-28.289793,0.559326,0.384766,-0.740234,44.578548,-90.25573,-35.064697
-0.18457,0.5979,-0.587158,-26.458738,-15.937804,-15.579223,0.578613,0.385742,-0.720215,44.509884,-68.161011,-38.238525
-0.06958,0.561768,-0.590332,-15.029906,22.14813,0.007629,0.568848,0.401123,-0.704834,42.205807,-57.800289,-38.30719
-0.766113,0.630615,-0.523926,21.492002,-22.521971,-15.785216,0.560791,0.408203,-0.667969,39.726257,-56.556698,-38.81073
-0.803711,0.69043,-0.61377,42.991634,-25.627134,-30.303953,0.588623,0.44458,-0.608887,36.453247,-61.149593,-43.037411
-0.2771,0.157959,-0.723389,52.37579,124.710075,-10.749816,0.641602,0.503662,-0.535156,30.113218,-66.764832,-50.163265
-0.833496,0.770752,-0.562988,40.512081,-29.670713,-37.712097,0.690674,0.528076,-0.480225,26.06201,-70.037842,-58.387753
-0.334717,0.177734,-0.773926,59.906002,113.18206,-25.543211,0.759766,0.540527,-0.445068,27.06146,-66.085815,-66.146851
-0.367432,0.159912,-0.806152,70.823669,101.96685,-24.818419,0.826172,0.540527,-0.44751,32.600403,-54.435726,-62.438961
-0.378418,0.158203,-0.817383,79.460144,90.599052,-18.806458,0.851318,0.497314,-0.469238,3.27301,-106.742851,2.426147
-0.366943,0.199219,-0.818359,81.115715,85.693352,-15.205382,0.827393,0.528564,-0.489502,36.407471,-46.279903,-46.722408
-0.35498,0.276611,-0.787842,77.110291,91.491692,-18.821716,0.821533,0.471924,-0.506836,40.588375,-55.244442,-20.301817
-0.353027,0.351074,-0.735352,71.502686,107.170097,-24.162291,0.888184,0.565674,-0.490723,22.209166,-60.05859,-7.057189
-0.821777,0.739014,-0.58667,38.116455,-32.051086,-34.919739,0.923828,0.581299,-0.474609,3.417969,-60.646053,3.860473
-0.394043,0.372559,-0.716309,70.663452,145.942688,-22.521971,0.951172,0.570313,-0.457764,-13.549804,-61.775204,7.781982
-0.455566,0.338623,-0.714844,78.407288,160.675034,-19.264221,0.958252,0.570313,-0.456299,-24.177549,-63.735958,0.717163
-0.542725,0.329102,-0.695313,87.158195,166.069016,-19.584656,0.977783,0.571777,-0.44751,-27.412413,-65.803528,-12.634276
-0.634033,0.360352,-0.658691,92.033379,159.248352,-25.222776,0.958008,0.595947,-0.434814,-28.160093,-69.633484,-25.199888
-0.356934,0.387451,-0.709961,68.313599,126.762383,-25.230406,0.850342,0.570313,-0.424072,-23.933409,-78.193665,-27.366636
-0.850098,0.504883,-0.648438,84.281914,111.305229,-34.683228,0.757813,0.48291,-0.399658,-8.94928,-89.515678,-15.579223
-0.743652,0.428711,-0.644043,91.720573,141.166687,-31.951902,0.744629,0.443115,-0.421143,6.713867,-97.091667,0.205994
-0.873291,0.682373,-0.507813,41.999813,-11.146544,-22.079466,0.791016,0.491699,-0.507568,38.459778,-48.912045,-30.502317
-0.857666,0.622559,-0.517822,45.082088,0.419617,-8.026123,0.960205,0.832764,-0.535156,6.309509,26.000975,80.223083
-0.816895,0.575928,-0.514648,50.97961,7.987976,-2.052307,1.366699,0.4729,-0.358154,-66.078186,-17.707825,47.096249
-0.794678,0.543945,-0.528564,53.955074,7.827758,-6.973266,1.237793,0.607666,-0.425049,-37.559509,10.086059,68.138123
-0.859863,0.743408,-0.529785,42.03796,-21.926878,-33.653259,0.191406,0.062012,-0.768311,-6.462097,-15.472411,8.712769
-0.828613,0.534424,-0.617676,51.132198,4.379272,-26.161192,0.255859,0.060303,-0.796387,4.486084,-24.497984,3.326416
-0.875977,0.55127,-0.662842,49.751278,13.236999,-26.458738,0.294922,0.087402,-0.827148,15.167235,-24.162291,-1.831055
-0.929443,0.56665,-0.677734,55.633541,38.002014,-28.45001,0.289063,0.13623,-0.849121,18.325806,-21.583555,-6.065368
-0.915771,0.553223,-0.656006,70.426941,73.112488,-32.249451,0.255615,0.186279,-0.859131,12.191772,-23.277281,-8.842468
-0.810547,0.530762,-0.577881,52.764889,5.996704,-18.928528,0.214844,0.200439,-0.85376,3.997802,-35.644531,-9.658813
-0.780273,0.328857,-0.575928,-2.5177,-9.567261,-27.19116,0.19043,0.160645,-0.853271,3.540039,-60.256954,-10.06317
-0.79541,0.371094,-0.555664,-5.958557,-20.362852,-26.794432,0.199463,0.092041,-0.878174,12.016295,-89.988701,-12.977599
-0.829346,0.454346,-0.536865,-11.474608,-35.705566,-33.77533,0.243164,0.024902,-0.900146,24.406431,-115.348808,-18.470764
-0.846924,0.541748,-0.54541,-15.426635,-45.150753,-45.677181,0.416504,0.007813,-0.881836,53.070065,-122.360222,-28.266905
-0.746338,0.577148,-0.596191,-13.191222,-39.94751,-57.876583,0.150391,0.088135,-0.72583,-13.84735,3.616333,13.244628
-0.588623,0.531006,-0.689209,-2.403259,-26.596067,-62.57629,0.51416,0.052246,-0.881592,64.361572,-101.493828,-29.037474
-0.520752,0.459717,-0.759277,11.482238,-10.108947,-60.882565,0.555176,0.155762,-0.901367,65.605164,-52.238461,-29.815672
-0.570557,0.440674,-0.696289,19.706726,5.882263,-56.02264,0.478516,0.173828,-0.846436,63.728329,-42.724606,-36.994934
-0.672363,0.460938,-0.554932,16.952515,19.165039,-51.849361,0.419922,0.18042,-0.765381,66.978455,-47.477718,-44.670101
-0.774658,0.507568,-0.496338,6.446838,23.849485,-50.132748,0.425049,0.195313,-0.679932,75.22583,-57.609554,-48.126217
-1.252686,0.622803,-0.138184,-203.727707,-24.139402,-124.26757,0.471191,0.236816,-0.629395,84.617607,-59.013363,-48.072811
-0.913086,0.658447,-0.439453,-12.863158,24.54376,-76.568604,0.528564,0.303467,-0.58667,88.928215,-44.967648,-48.858639
-0.914795,0.703613,-0.433594,-21.430967,34.072876,-100.08239,0.57959,0.373047,-0.594238,86.09008,-20.591734,-52.764889
-0.887451,0.721924,-0.456787,-32.211304,49.331661,-116.470329,0.599609,0.433594,-0.648438,79.429626,4.676819,-57.678219
-0.859375,0.732422,-0.450195,-47.065731,68.695068,-124.77874,0.596191,0.463867,-0.674072,73.234558,23.651121,-60.012814
-0.851318,0.72168,-0.437012,-66.772461,82.221977,-125.061028,0.561523,0.466553,-0.670166,68.756104,32.676697,-59.196468
-0.929932,0.694092,-0.412354,-92.102043,86.151115,-117.59185,0.576172,0.111084,-0.903809,68.107605,-74.645996,-27.832029
-1.071777,0.660156,-0.363281,-116.027824,83.671562,-110.122673,0.154053,0.138672,-0.693115,-19.241333,27.305601,16.227722
-1.173584,0.632568,-0.214111,-135.101318,75.523376,-110.618584,0.319092,-0.005127,-0.894531,38.475037,-127.822868,-24.360655
-1.234131,0.611328,-0.063965,-151.863098,55.915829,-115.676872,0.258545,0.246094,-0.660889,-28.633116,64.002991,16.624451
-1.241211,0.630615,-0.094238,-176.391586,21.179197,-122.550957,0.193604,0.195313,-0.668945,-24.414061,48.934933,17.250061
-0.757813,0.34082,-0.585449,-4.096985,-6.141662,-30.876158,1.186279,0.394287,-0.137451,-78.330994,-5.332946,-5.378723
-0.864746,0.576172,-0.481934,-3.890991,22.743223,-56.251522,0.974365,0.483398,-0.318604,-82.199089,21.881102,-24.215696
-0.706299,0.397217,-0.55542,-11.878966,-10.810851,-33.988953,0.846436,0.492432,-0.398438,-75.98114,27.481077,-30.899046
-1.158936,0.758789,-0.395264,35.03418,-62.278744,43.876644,0.783691,0.507324,-0.444336,-68.664551,38.276672,-32.600403
-0.667725,0.531982,-0.414795,-28.717039,-47.424313,-17.776489,0.75415,0.540283,-0.472412,-68.252563,56.190487,-25.955198
-1.256104,0.583008,-0.092285,-234.199509,-75.080872,-115.95153,0.785645,0.565918,-0.476074,-79.139709,77.415466,-10.917663
-0.776367,0.425781,-0.53833,68.458557,97.953789,32.066345,0.7854,0.519775,-0.442383,-84.884636,94.482414,0.663757
-0.867188,0.418701,-0.565918,74.684143,75.592041,37.536621,0.690918,0.429443,-0.391846,-70.770264,107.002251,-0.518799
-0.911133,0.441895,-0.592529,77.568054,46.615597,44.036861,0.625488,0.40918,-0.347168,-51.918026,121.780388,-1.312256
-0.947998,0.469971,-0.586182,72.929382,22.857664,45.883175,0.631836,0.386719,-0.351807,-41.603085,132.9422,4.966736
-0.98999,0.484375,-0.572754,64.491272,2.716064,45.639034,1.313965,0.405518,-0.33667,-73.471069,-44.090267,17.974854
-0.999268,0.484863,-0.553955,56.861874,-11.96289,46.493526,0.568359,0.342773,-0.393066,-26.390074,117.774956,-0.907898
-0.956055,0.466797,-0.523193,52.474972,-17.791748,47.172543,0.609375,0.344482,-0.376953,-34.713745,130.41687,6.240844
-0.921143,0.424072,-0.481689,54.473873,-16.616821,47.538754,0.417236,0.259277,-0.605225,-29.922483,72.7005,16.921997
-0.940918,0.383545,-0.447998,61.95068,-13.694762,47.721859,0.477539,0.244629,-0.586426,-30.151365,69.419861,20.462034
-0.648926,0.475586,-0.482178,-21.949766,-23.773191,-31.188963,0.485596,0.234863,-0.570801,-34.187317,70.533752,24.581907
-0.993408,0.381104,-0.428223,68.710327,-15.518188,49.186703,0.445068,0.261963,-0.542969,-41.999813,80.42144,27.130125
-1.116455,0.591064,-0.418945,55.099483,-41.572567,50.23193,0.340576,0.265381,-0.636963,-30.250547,71.891785,15.884398
-1.143311,0.850586,-0.362061,15.86151,-83.305351,34.14917,0.528076,0.500977,-0.491211,-39.581299,105.201714,15.075683
-1.079346,0.798828,-0.356934,6.889343,-102.325432,26.329039,0.515137,0.477295,-0.470947,-24.002073,104.957573,-2.662658
-1.020752,0.645264,-0.385742,10.917663,-116.851799,23.109434,0.511963,0.393066,-0.425537,-19.691467,106.62841,-8.43811
-1.007813,0.506592,-0.404541,19.798279,-128.036499,24.345396,0.469482,0.372314,-0.507813,-47.790524,94.932549,26.458738
-1.010254,0.45166,-0.380859,21.972654,-135.879517,26.924131,-0.642578,-0.389648,-0.607178,8.895874,-60.798641,0.854492
-0.999756,0.464844,-0.36499,12.031554,-136.932373,28.526304,-0.685059,-0.385742,-0.454346,23.53668,-24.894712,-1.304626
-0.938232,0.508057,-0.389648,-4.562378,-129.753113,28.434752,-0.661865,-0.378418,-0.45752,20.927427,-32.035828,0.205994
-0.834717,0.55127,-0.404541,-20.706175,-111.129753,21.072386,-0.635498,-0.356201,-0.451904,18.814087,-40.084839,4.142761
-0.748047,0.556152,-0.405762,-29.014585,-79.353333,3.105163,-0.594482,-0.327637,-0.428711,14.320373,-48.286434,9.056091
-1.053955,0.447266,-0.423096,67.520142,-24.711607,50.956722,-0.556152,-0.322998,-0.404541,8.293152,-56.77795,14.045714
-0.688232,0.438721,-0.53833,68.16864,109.237663,28.419493,-0.540771,-0.337158,-0.400146,5.271911,-63.110348,14.831542
-1.188721,0.544189,0.018799,-249.755844,-125.488274,-103.851311,-0.717041,-0.381836,-0.441162,27.938841,-19.058228,-0.183105
-0.921387,0.422607,-0.027344,-249.992355,-190.986618,-79.38385,-0.566406,-0.366455,-0.442871,6.347656,-65.246582,12.733459
1.412598,-0.773682,-0.439697,-8.026123,-25.856016,-3.189087,-0.603271,-0.391113,-0.518311,8.178711,-63.84277,8.857727
1.227295,-0.713867,-0.435059,-2.372742,-5.41687,13.153075,-0.719482,-0.406006,-0.710449,10.368346,-54.931637,-6.484985
1.168701,-0.668213,-0.41333,1.464844,14.72473,27.679441,-1.109619,-0.708008,-1.177246,41.519161,4.196167,14.495849
1.158936,-0.645752,-0.405762,7.362365,32.447815,36.628723,-0.866699,-0.529785,-0.937012,21.759031,-27.908323,-6.645202
1.169189,-0.630615,-0.408691,14.907836,48.782345,41.854855,-0.921875,-0.599854,-1.039795,32.928467,-7.369995,-2.227783
1.150879,-0.616699,-0.40625,21.987913,64.445496,43.594357,-1.015137,-0.653076,-1.12915,38.063049,6.17218,1.403808
1.111084,-0.598633,-0.406494,26.115416,79.879761,37.29248,-1.144531,-0.721924,-1.175293,44.235226,-12.077331,34.858704
1.045898,-0.575928,-0.399902,28.091429,91.728203,24.200438,-1.042725,-0.677246,-1.149658,43.388363,-30.136106,43.647762
0.944824,-0.545654,-0.37793,28.671263,96.17614,9.048462,-0.858643,-0.580811,-1.052979,38.948059,-40.954586,34.957886
0.5979,-0.528076,-0.2771,32.50885,84.098808,12.7182,-0.722656,-0.490479,-0.887451,44.509884,-45.181271,22.132872
0.467529,-0.513428,-0.258545,36.247253,73.84491,17.776489,-0.677734,-0.418701,-0.824951,62.927242,-50.506588,11.894225
0.42749,-0.506836,-0.287109,35.758972,64.041138,15.754699,-0.64624,-0.360596,-0.830811,78.582764,-56.137081,3.181457
0.428711,-0.495605,-0.327393,32.356262,55.625912,10.986327,-0.76001,-0.373291,-0.446045,35.28595,-14.572143,2.861023
0.426025,-0.476563,-0.348145,27.259825,49.392696,4.150391,-0.804443,-0.450439,-0.826416,13.511657,-44.464108,-9.19342
0.407471,-0.462891,-0.362061,22.834776,42.854305,-1.571655,-0.832764,-0.390381,-0.479248,47.065731,-10.841369,9.544373
0.370361,-0.455322,-0.375977,20.439146,33.103943,-1.571655,-0.534668,-0.253662,-0.817383,87.463371,-65.826416,-4.089355
0.330078,-0.452393,-0.395752,19.470215,22.186277,1.13678,-1.038818,-0.57251,-0.578369,54.565426,5.66101,27.244566
0.340088,-0.444092,-0.410156,19.836426,12.680053,2.197266,-0.59375,-0.30249,-0.824951,87.486259,-61.561581,-2.838135
0.399658,-0.438477,-0.467285,19.805908,3.822326,2.433777,-0.640137,-0.52124,-0.787842,-186.904892,187.164291,71.258545
0.479492,-0.438477,-0.539063,21.682737,-3.135681,5.180358,-0.714111,-0.580322,-0.749268,-175.827011,179.534897,47.859188
-1.058594,0.506836,0.033447,-249.992355,-166.168198,-91.575615,-0.880127,-0.612305,-0.7146,-156.150818,171.325668,29.632566
1.573242,-0.833496,-0.457275,-18.4021,-50.537106,-17.997742,-0.997314,-0.59375,-0.664795,-135.314941,165.336594,18.081665
1.466064,-0.868408,-0.453613,-29.998777,-87.6007,-27.999876,-1.018799,-0.543701,-0.662842,-114.280693,161.453232,9.45282
0.79126,-0.533691,-0.332764,28.343199,92.674248,4.264832,-1.061035,-0.512939,-0.705811,-95.603935,153.594971,5.264282
1.101563,-0.772949,-0.39209,-64.758301,-167.671188,-36.888123,-1.122559,-0.494385,-0.750732,-85.281364,139.709473,10.2005
-0.761963,0.251953,-0.114258,-249.992355,-205.184921,-72.044373,-1.151611,-0.451172,-0.774658,-85.617058,123.374931,13.97705
1.268066,-0.837158,-0.411865,-47.935482,-132.293701,-30.906675,-1.077881,-0.463379,-0.75,-87.776176,110.679619,13.916015
-0.613525,0.06665,-0.216064,-249.992355,-217.750534,-72.883606,-0.98877,-0.469482,-0.651123,-88.043205,102.943413,11.314391
-0.522461,-0.143799,-0.292969,-249.992355,-237.724289,-80.032349,-0.957031,-0.477783,-0.595947,-86.654655,92.803947,5.439758
-0.487793,-0.316895,-0.327148,-249.992355,-249.67955,-82.031242,-0.930664,-0.468018,-0.559814,-83.290092,71.640015,-5.66101
-0.443848,-0.323486,-0.349121,-249.992355,-249.992355,-70.426941,-0.940186,-0.450684,-0.532471,-74.119568,43.472286,-21.537779
-0.314453,-0.246582,-0.325195,-249.992355,-249.992355,-47.531124,-1.00708,-0.464844,-0.536377,-59.608456,17.63916,-31.471251
0.18457,-0.368652,-0.295654,-249.992355,-249.992355,-25.672911,-1.052979,-0.503174,-0.549072,-46.119686,0.564575,-32.112122
0.446289,-0.581543,-0.389648,-249.992355,-249.992355,-32.577515,-1.077637,-0.567627,-0.544189,-32.12738,-7.827758,-28.625486
0.655762,-0.729736,-0.574707,-240.23436,-249.992355,-37.078857,-1.060791,-0.632813,-0.55957,-16.769409,-9.82666,-23.28491
0.77417,-0.760986,-0.661621,-212.181076,-249.992355,-32.432556,-1.032471,-0.673096,-0.572021,-2.586365,-4.127502,-17.662048
-0.089844,-0.227051,-0.275635,-249.732956,-249.992355,-28.95355,-1.032959,-0.708496,-0.592041,13.404845,4.295349,-9.719849
0.93335,-0.728271,-0.364258,-76.332092,-191.2155,-51.887508,-1.036621,-0.724854,-0.614014,30.303953,12.756347,2.372742
0.970215,-0.806641,-0.489746,-186.576828,-249.992355,-35.575867,-1.070801,-0.700439,-0.629883,43.17474,17.799377,16.532898
1.115234,-0.917236,-0.466797,-172.142014,-249.992355,-43.891903,-1.104004,-0.647217,-0.618164,50.60577,14.198302,26.100157
1.309082,-1.005859,-0.524414,-146.934509,-249.603256,-49.240108,-0.91748,-0.481201,-0.524414,55.068966,-3.791809,20.317076
1.573975,-1.011719,-0.606201,-121.116631,-249.992355,-50.933834,-0.696289,-0.44873,-0.831787,-190.650925,197.463974,93.1549
1.695313,-0.949951,-0.652344,-102.645866,-249.992355,-50.041195,-0.567627,-0.272949,-0.79541,77.49939,-120.758049,-10.757445
1.519043,-0.871338,-0.644287,-91.163628,-233.261093,-50.117489,-0.496094,-0.27002,-0.746582,71.563721,-75.256348,3.189087
1.282471,-0.796875,-0.554688,-86.296074,-204.002365,-51.681515,-0.074463,0.090576,-0.751953,85.159294,-112.258904,-31.768797
1.081299,-0.751709,-0.451172,-82.550041,-192.619308,-52.62756,-0.047852,0.075684,-0.730957,86.021416,-124.382011,-33.325195
0.848877,-0.761719,-0.585205,-195.198044,-249.992355,-28.175352,-0.027588,0.094482,-0.732178,86.72332,-132.804871,-36.03363
0.956787,-0.730469,-0.359863,-71.784973,-185.783371,-46.546932,-0.024414,0.126953,-0.744385,85.365288,-136.573792,-32.402039
-0.958252,0.488037,-0.469971,18.127441,-15.373229,-5.981445,-0.019043,0.137207,-0.765137,82.4356,-138.549805,-27.420042
-0.982422,0.473633,-0.379883,14.686584,7.17163,-4.15802,0.01123,0.147217,-0.779541,78.598022,-137.741089,-25.161741
-0.983398,0.523438,-0.336914,6.134033,33.988953,-3.677368,0.061768,0.16748,-0.777344,75.218201,-134.117126,-23.750303
-0.945801,0.608887,-0.380615,0.0,58.082577,-8.163452,0.127686,0.160156,-0.756348,72.341919,-128.646851,-23.28491
-0.67334,0.532715,-0.417969,19.515991,60.348507,-20.538328,0.189697,0.148438,-0.751709,70.571899,-120.429985,-25.817869
-0.789795,0.633545,-0.454346,11.772155,78.689575,-20.751951,-0.495117,-0.250244,-0.804688,79.086304,-70.358276,-1.670837
-0.730713,0.572754,-0.428223,20.454405,74.806213,-21.194456,-0.079102,0.090332,-0.76709,88.417046,-99.662773,-33.004761
-0.688965,0.534424,-0.404297,22.506712,67.626953,-20.63751,0.24292,0.190186,-0.773193,67.550659,-98.197929,-38.612366
-0.881592,0.538818,-0.493896,13.648986,-28.266905,-7.164001,0.312256,0.263428,-0.734619,66.902161,-94.100945,-49.362179
-0.871826,0.65625,-0.438232,2.105713,74.127197,-15.670775,0.347412,0.313477,-0.71582,70.320129,-98.0606,-55.732723
-0.773682,0.579834,-0.451416,4.760742,-32.211304,-7.110595,0.354492,0.342773,-0.697266,74.378967,-105.987541,-58.189388
-1.274902,0.897949,-0.727295,-15.304564,-10.597228,11.047362,0.369385,0.339844,-0.687988,77.453613,-119.99511,-57.403561
-0.615967,0.58667,-0.4646,-8.346558,-17.425537,-7.354736,0.398926,0.325928,-0.698486,80.299377,-137.649536,-52.12402
-0.596436,0.556885,-0.508301,-7.759094,-2.288818,-7.514953,0.414551,0.3396,-0.7146,81.871025,-149.82605,-43.655392
-0.595947,0.520996,-0.546631,-3.059387,15.754699,-7.041931,0.425293,0.387451,-0.744385,77.957153,-152.938843,-36.430359
-0.61792,0.477783,-0.559326,6.378173,33.447266,-5.943298,0.460938,0.427002,-0.779541,67.443848,-150.138855,-32.25708
-0.686523,0.450684,-0.583252,19.264221,46.859737,-7.263183,0.48877,0.436768,-0.786621,54.870602,-139.549255,-30.059813
-0.792969,0.481934,-0.628906,31.326292,53.192135,-9.597778,0.520264,0.412109,-0.766846,46.394344,-117.767326,-30.868528
-0.917969,0.593262,-0.696045,37.92572,50.842281,-8.789063,0.272217,0.217529,-0.755859,66.40625,-93.757622,-43.289181
-1.057373,0.751709,-0.76001,31.654356,43.289181,-6.904602,-0.074463,0.069092,-0.752197,92.39959,-88.592522,-32.012939
-1.184326,0.87793,-0.744385,8.460999,22.331236,1.167297,0.228271,0.161377,-0.772461,69.320679,-108.726494,-31.661985
-0.713867,0.549805,-0.478271,17.784119,54.962154,-18.577576,-0.042969,0.046631,-0.753418,91.987602,-82.763664,-31.547544
-0.685547,0.595459,-0.443604,-4.043579,-27.740477,-7.019042,-0.070068,0.061279,-0.729248,93.032829,-80.917351,-30.84564
-0.758789,0.554688,-0.546387,20.378111,51.467892,-13.572692,-0.495117,-0.30127,-0.702881,71.18988,-81.314079,7.141113
-0.440186,0.049072,-0.72876,70.381165,59.402462,-8.010864,-0.496826,-0.31543,-0.718994,74.409485,-88.317863,6.858825
-0.737549,0.531738,-0.644043,25.459288,56.236263,-4.608154,-0.504639,-0.306885,-0.741211,77.819824,-94.726555,2.426147
-1.307861,0.823242,-0.672607,-26.573179,-48.667904,17.616272,-0.498779,-0.289063,-0.758057,80.26886,-99.563591,-3.990173
-0.401611,0.123779,-0.729492,66.749573,51.467892,-13.313293,-0.477051,-0.271484,-0.746582,80.184937,-102.836601,-10.0708
-0.368408,0.220459,-0.746826,56.488033,51.071163,-18.318176,-0.47876,-0.259277,-0.729492,76.385498,-104.49218,-13.916015
-0.375977,0.288574,-0.74707,43.510433,55.870052,-13.938903,-0.515137,-0.256836,-0.715332,69.984436,-110.28289,-16.441345
-0.407715,0.289551,-0.727783,36.437988,59.204098,-5.645751,-0.539551,-0.259277,-0.742188,69.847107,-115.791313,-16.746521
-0.431396,0.23999,-0.713867,39.497375,56.823727,-5.340576,-0.564209,-0.266602,-0.768311,72.738647,-119.827263,-14.770507
-0.458252,0.178711,-0.711914,48.46191,53.359982,-6.065368,-0.495361,-0.254395,-0.713867,72.059631,-106.239311,-15.3656
-0.472412,0.161377,-0.718018,59.883114,51.658627,-11.306762,-0.02417,-0.029785,-0.891113,96.542351,-108.764641,-34.088135
-0.455811,0.212891,-0.759521,68.702698,47.370907,-27.557371,-0.470459,-0.216309,-0.912109,79.864502,-121.231071,-8.972168
-0.495605,0.31665,-0.782715,65.750122,48.118587,-37.307739,-0.401367,-0.196045,-0.919434,81.916801,-123.161308,-13.511657
-0.539063,0.450195,-0.775635,52.467342,50.331112,-39.451599,-0.339111,-0.17627,-0.922363,85.403435,-126.945488,-19.515991
-0.558105,0.561523,-0.773682,36.499023,53.047176,-38.841248,-0.276855,-0.158936,-0.922852,88.623039,-132.064819,-25.352476
-0.55249,0.586182,-0.765137,21.911619,56.938168,-35.15625,-0.219482,-0.144531,-0.929199,92.857353,-134.635925,-27.976988
-0.556885,0.51001,-0.736816,17.959595,57.853695,-29.785154,-0.168701,-0.130127,-0.929443,96.580498,-129.310608,-28.114317
-0.57666,0.407715,-0.728027,25.924681,55.030819,-26.161192,-0.126953,-0.102295,-0.94043,99.136345,-120.140068,-29.685972
-0.593262,0.349121,-0.725586,33.958435,51.284786,-24.185179,-0.07666,-0.057617,-0.954346,100.128166,-117.713921,-33.737183
-0.599609,0.347168,-0.709717,37.261963,51.445004,-24.04022,-0.533936,-0.248047,-0.864502,79.795837,-120.452873,-7.614135
-0.598389,0.373291,-0.669922,36.865234,54.603573,-23.124693,-0.016113,0.015137,-0.819336,92.64373,-93.093864,-32.714844
-0.616211,0.420654,-0.632568,33.546448,58.2962,-19.78302,0.441162,-0.111816,-0.705566,90.545647,-13.71765,-10.337829
-0.6521,0.471436,-0.633301,30.227659,60.066219,-14.999389,0.422607,-0.026611,-0.646973,67.085266,-23.620604,-18.745422
-0.676758,0.505615,-0.62915,26.80969,59.066769,-10.231017,0.420654,0.119629,-0.650635,40.161129,-27.236937,-44.31152
-0.696777,0.513916,-0.612549,24.642942,58.021542,-6.553649,0.435059,0.271729,-0.653076,27.465818,-26.023863,-56.877132
-0.719238,0.516602,-0.630859,24.986265,57.800289,-3.967285,0.736328,0.040527,-0.819824,84.747307,37.872314,-59.455868
-0.761719,0.546875,-0.605225,24.032591,53.421017,-8.705139,0.501953,0.39209,-0.771484,46.020504,1.091003,-53.535458
-1.291016,0.735352,-0.616455,-32.310486,-90.904228,20.919798,0.571289,0.344971,-0.855225,63.499447,22.445677,-55.702206
-0.626709,0.426514,-0.551758,74.012756,109.90905,27.763365,0.662842,0.202393,-0.878174,79.521179,37.315369,-60.173031
-1.182129,0.616699,-0.457764,-33.477783,-163.49028,8.987427,0.483154,-0.141602,-0.774902,99.998466,-6.248474,-38.68103
-0.563721,0.316406,-0.882568,60.791012,39.840698,92.689507,0.455566,0.371826,-0.702637,31.684874,-17.173767,-56.243893
-0.686523,0.364014,-0.899902,59.463497,29.014585,100.280754,0.443115,-0.081543,-0.829346,105.323784,-7.67517,-77.766418
-0.784912,0.425781,-0.908691,54.64172,6.050109,109.298698,0.925781,0.389893,-0.538086,-10.635375,-34.172058,32.745361
-0.81958,0.481445,-0.908691,45.074459,-21.621702,111.846916,0.326416,0.300293,-0.813965,111.328117,-34.233093,-79.841614
-0.82666,0.51001,-0.891113,35.957336,-41.328426,104.354851,0.397705,0.410156,-0.775635,92.094414,-53.329464,-62.118526
-0.747314,0.485107,-0.88501,36.064148,-39.588928,84.983818,0.499268,0.365479,-0.681152,68.778992,-65.811157,-46.409603
-0.513916,0.421143,-0.864258,48.72131,-16.082764,63.278194,0.547852,0.278564,-0.548096,47.248837,-64.613342,-27.755735
-0.311523,0.357178,-0.752686,63.301083,12.077331,52.37579,0.55957,0.197998,-0.464355,35.133362,-54.115292,-8.377075
-0.356934,0.320801,-0.695557,74.775696,29.45709,50.72784,0.565918,0.219971,-0.473145,35.690308,-49.629208,15.281676
-0.517334,0.344482,-0.744629,78.567505,34.347534,50.140377,0.647705,0.296631,-0.543945,34.141541,-53.443905,33.958435
-0.463867,0.293701,-0.835938,58.952328,38.719177,90.118401,0.76123,0.363037,-0.588623,20.13397,-54.244991,38.597107
-0.604248,0.419678,-0.798828,72.319031,26.779173,45.989986,0.856201,0.394531,-0.580566,2.754211,-47.58453,36.323547
-0.612305,0.587891,-0.87085,38.444519,18.302917,42.114254,0.782471,-0.033203,-0.762695,76.698303,25.177,-54.000851
-0.579102,0.557617,-0.81958,31.35681,28.053282,50.239559,0.357178,0.083008,-0.825684,113.540642,-17.929077,-91.468803
-0.572021,0.458008,-0.752686,38.360596,44.952389,56.938168,0.768066,-0.001953,-0.776611,60.096737,7.987976,-50.636288
-0.55249,0.364014,-0.659912,52.780148,62.362667,57.693478,0.949463,0.351563,-0.49585,-14.389037,-15.167235,30.143736
-0.536133,0.309814,-0.551025,65.078735,73.471069,50.956722,0.641602,0.229492,-0.837158,28.472898,1.312256,-55.90057
-0.523193,0.294189,-0.489258,72.662354,77.75116,40.519711,0.439697,0.083984,-0.559814,-6.835937,-61.141964,35.331726
-0.503906,0.306641,-0.510986,78.720093,81.420891,32.051086,0.405762,0.071533,-0.551758,5.203247,-52.711483,23.475645
-0.492188,0.332031,-0.564453,83.580009,87.47863,28.976439,0.379395,0.053467,-0.562012,19.432068,-50.23193,9.857178
-0.508789,0.359375,-0.577881,85.029594,95.153801,28.785704,0.347168,0.04541,-0.57373,37.590027,-50.155636,0.343323
-0.566406,0.392334,-0.563721,81.359856,103.72924,28.518675,0.300537,0.047119,-0.596924,56.747433,-45.913692,-5.630493
-0.640137,0.520508,-0.862549,55.961605,18.722534,40.641781,0.273926,0.047119,-0.627686,71.228027,-37.010193,-10.925292
-0.400879,0.293701,-0.790527,52.37579,30.281065,91.38488,0.293213,0.054688,-0.665771,75.134277,-28.480528,-16.983032
-1.255859,0.664795,-0.56543,-37.841797,-132.789612,21.789549,0.32666,0.050293,-0.699951,70.625305,-21.965025,-23.818968
-0.372559,0.325684,-0.718262,36.514282,7.331848,94.894402,0.353027,0.045166,-0.724609,65.719604,-16.708374,-31.127928
-0.376465,0.310791,-0.754395,43.258663,18.64624,93.368523,0.394775,0.051514,-0.739014,61.294552,-15.533446,-38.749695
-1.117188,0.606445,-0.481445,-35.446167,-175.094589,-2.616882,0.716553,0.101563,-0.812256,41.297909,-2.105713,-53.321835
-0.932861,0.642578,-0.509766,-45.478817,-174.003586,-6.523132,0.443604,0.056641,-0.749756,56.297298,-21.01898,-45.951839
-0.777344,0.66626,-0.539063,-54.527279,-158.660889,-11.116027,0.466553,0.064941,-0.787109,51.704403,-32.234192,-53.199764
-0.692383,0.629395,-0.615234,-63.034054,-144.203186,-11.444091,0.510254,0.07373,-0.791992,53.047176,-32.295227,-53.25317
-0.654053,0.520996,-0.681641,-61.935421,-136.772156,-6.881713,0.579834,0.099854,-0.760986,55.686947,-24.192808,-53.703304
-0.607666,0.369629,-0.713623,-46.455379,-134.185791,-6.095886,0.654785,0.133301,-0.716553,58.92181,-4.760742,-58.609005
-0.312988,0.178467,-0.698975,7.034301,-130.096436,-29.769896,0.737061,0.149902,-0.71875,60.600277,21.171568,-65.101624
-0.143799,0.204834,-0.751221,22.003172,-123.89373,-25.688169,0.776611,0.121582,-0.738037,60.478207,45.677181,-64.26239
0.009766,0.267822,-0.709229,26.519773,-106.25457,0.495911,0.728271,0.128418,-0.759033,54.916378,60.005184,-53.825375
0.056641,0.299072,-0.669189,32.859802,-67.41333,17.692566,0.633057,0.209229,-0.776367,42.41943,55.427547,-45.06683
-0.468018,0.238037,-0.699219,-19.577026,-133.811951,-16.868591,0.569824,0.281006,-0.795654,30.815123,37.231445,-46.226498
0.044189,0.31665,-0.640381,47.027584,13.786315,41.28265,0.570801,0.299805,-0.831787,25.505064,16.304016,-52.513119
-0.005371,0.33667,-0.647949,52.452084,43.464657,49.568172,0.460693,0.061768,-0.768799,52.551266,-28.190611,-50.86517
-0.088135,0.349121,-0.66333,55.061337,56.732174,58.67767,0.927979,0.29248,-0.477539,-7.835388,5.622863,30.09033
-0.364014,0.3396,-0.670898,34.690857,-1.441955,95.466606,0.497314,0.163574,-0.629395,-19.40918,-71.510315,44.723507
-0.19873,0.349365,-0.713867,54.458614,51.818844,70.335388,0.887451,0.234619,-0.498291,17.944336,33.470154,31.692503
-0.278076,0.344727,-0.719971,52.413937,33.241272,82.496635,0.816406,0.519775,-0.496826,-21.011351,145.965576,1.13678
-0.300293,0.348389,-0.703125,50.399776,11.825561,91.751091,0.81958,0.492188,-0.398438,-23.216246,186.218246,6.301879
-0.30957,0.354248,-0.689941,47.523495,-1.441955,94.383232,0.769287,0.473389,-0.321289,-19.851685,222.167953,8.239746
-0.337402,0.354248,-0.653564,42.892452,-5.737304,93.254082,0.715332,0.495117,-0.334717,-16.143799,241.348251,8.590698
-0.351074,0.348145,-0.640137,37.582397,-5.79071,93.90258,0.645996,0.530518,-0.412842,-20.988462,239.303574,14.968871
0.061035,0.303223,-0.635742,40.122986,-25.833128,31.211851,0.551514,0.494873,-0.496826,-32.226563,234.527573,29.998777
1.081787,-0.540283,-0.692383,-18.188477,5.874633,13.458251,0.47998,0.37085,-0.575928,-35.087585,245.14769,49.774166
1.195557,-0.581055,-0.696777,-26.93939,-15.480041,-3.005981,0.43042,0.357422,-0.633057,-40.061951,249.992355,73.051453
1.302979,-0.583008,-0.716309,-39.871216,-48.484798,-14.801024,0.408203,0.482178,-0.646973,-72.036743,249.992355,99.052422
1.223145,-0.491455,-0.785889,-75.408936,-234.947189,-30.334471,0.442627,0.452637,-0.647217,-113.052361,249.992355,117.34771
1.257568,-0.493164,-0.667969,-73.577881,-160.194397,-20.416258,0.781982,0.51709,-0.517822,-17.303467,108.879082,-1.976013
1.154785,-0.464844,-0.666504,-84.259026,-208.168015,-33.889771,0.352539,0.405029,-0.69751,-143.600464,249.992355,129.241943
1.105957,-0.456299,-0.691162,-82.832329,-233.215317,-42.457577,0.005127,0.233398,-0.801025,-167.320236,249.992355,145.683289
0.97583,-0.497803,-0.699707,-11.215209,20.03479,22.476194,-0.12207,0.147705,-0.845215,-174.026474,249.992355,152.359009
1.322754,-0.549805,-0.700928,-56.457516,-99.029533,-15.975951,-0.121094,0.100098,-0.848633,-185.173019,249.992355,155.395508
0.911377,-0.4729,-0.679199,-2.868652,30.921934,21.957396,-0.049805,0.109863,-0.874023,-208.496078,249.992355,150.405884
0.440674,-0.386963,-0.602295,52.536007,81.451408,-16.464233,0.001221,0.02002,-0.9021,-234.420761,249.992355,147.43042
0.813232,-0.450439,-0.648682,14.923095,57.762142,6.385803,-0.04248,-0.155762,-0.865723,-242.088303,249.832138,142.555237
0.770508,-0.411377,-0.647949,27.816771,68.283081,7.972717,-0.244629,-0.273682,-0.843018,-231.300339,249.786362,133.682251
0.759521,-0.361084,-0.666748,32.463074,75.874329,10.559081,-0.511963,-0.305664,-0.862549,-219.337448,249.992355,124.15313
0.721924,-0.327881,-0.662354,32.585144,80.322258,11.947631,-0.693115,-0.335205,-0.856201,-207.72551,244.857773,116.5924
0.685791,-0.303467,-0.6521,28.549192,84.007256,-3.059387,-0.75293,-0.384766,-0.844238,-195.777878,216.529831,108.27636
0.693115,-0.311523,-0.64917,20.042419,85.578911,-24.017332,0.189453,0.335449,-0.76001,-160.102844,249.992355,138.542175
0.646484,-0.359619,-0.614014,23.986814,88.630669,-23.460386,0.787842,0.482178,-0.482666,-16.876221,79.826355,-0.274658
0.516846,-0.420898,-0.582764,42.785641,96.443169,-10.902404,0.9021,0.234131,-0.477783,6.385803,22.033689,31.47888
0.459229,-0.420166,-0.572266,52.597042,93.688957,-14.564513,0.874756,0.446289,-0.411865,-20.774839,49.46899,8.888245
1.541748,-0.532959,-0.909424,-80.42907,-235.3134,-24.024961,0.853027,0.307617,-0.520264,17.951965,40.794369,29.08325
0.880615,-0.45874,-0.673096,3.944397,44.082638,11.390685,0.781738,0.376709,-0.497314,9.361267,43.029781,24.452208
1.704102,-0.550781,-0.940674,-98.06823,-248.527512,-25.665281,0.731934,0.4104,-0.487061,0.869751,39.138794,22.460936
-0.917236,-0.234131,-0.515381,-169.479355,-188.163742,-80.665581,0.710205,0.403809,-0.503662,-3.40271,31.509398,26.908873
1.382813,-0.503662,-0.744629,-138.046265,-249.816879,-17.14325,0.69751,0.354736,-0.512207,-2.151489,23.208616,33.683777
0.435303,-0.343994,-0.62207,49.247738,68.42041,-13.961791,0.671143,0.289307,-0.535645,4.676819,17.997742,36.506653
-0.82251,0.397461,-0.557617,-13.336181,-17.189026,-79.696655,0.836182,0.455811,-0.444092,-19.966125,62.065121,4.768372
-0.852539,0.495117,-0.504395,-35.308838,4.40979,-102.584831,0.59668,0.290283,-0.597412,15.068053,6.652832,30.502317
-0.833984,0.555176,-0.493164,-61.218258,32.691956,-124.618523,0.587158,0.343506,-0.614014,8.407593,-9.887695,27.542112
-0.835693,0.554199,-0.534668,-88.760368,66.619873,-136.795044,0.575684,0.372314,-0.634766,-1.052856,-32.180786,26.321409
-0.859863,0.408936,-0.471436,-104.87365,93.27697,-141.876221,0.558105,0.351074,-0.637939,-5.363464,-51.124569,23.086546
-0.926514,0.236816,-0.345215,-112.365715,99.128716,-140.022278,0.626709,0.263428,-0.574219,12.863158,14.564513,34.690857
-1.029053,0.115723,-0.228027,-122.88665,76.812744,-136.062622,0.656006,0.290771,-0.69165,5.592346,-53.588863,13.008117
-1.135254,0.061035,-0.209229,-136.734009,32.455444,-134.628296,0.584473,0.309326,-0.653564,-1.625061,-58.914181,17.51709
-1.25415,0.008301,-0.33667,-148.429871,-22.193907,-129.470825,0.875977,0.399902,-0.432129,-9.399414,4.653931,10.848998
1.583984,-0.536133,-0.881592,-120.765678,-249.992355,-19.752502,0.813232,0.381348,-0.469238,-5.500793,-21.659849,11.07788
-1.338623,-0.079834,-0.47168,-157.028198,-72.906494,-127.487175,0.736816,0.378662,-0.501953,-3.738403,-36.04126,12.351989
-1.146484,-0.239502,-0.454834,-148.353577,-145.431519,-111.915581,0.69458,0.391113,-0.525635,-2.731323,-34.225464,14.572143
-0.888428,-0.227051,-0.413574,-205.909714,-237.121567,-51.750179,0.896729,0.429443,-0.416016,-15.785216,31.295774,10.360717
-0.952637,-0.220703,-0.327881,-230.65947,-249.992355,-28.030394,0.772461,0.372559,-0.573242,1.441955,-11.039733,18.974304
-0.740234,-0.043945,-0.356934,-244.049057,-249.992355,-21.65222,0.824463,0.349365,-0.599121,4.104614,-12.550353,18.1427
-0.214844,0.109375,-0.490234,-243.232712,-249.992355,-22.827147,0.823242,0.33667,-0.67334,7.80487,-24.154661,14.915465
0.225342,0.039551,-0.650635,-229.446396,-249.992355,-28.884886,0.754395,0.309814,-0.720947,9.651184,-39.932251,12.123107
0.433838,-0.17041,-0.755127,-203.475937,-249.992355,-42.350765,0.711914,0.393311,-0.552979,-0.984192,-21.667479,17.066956
0.471191,-0.363281,-0.750732,-177.452072,-249.992355,-54.946896,0.1604,-0.02417,-0.926514,78.178406,-58.79211,5.485534
0.700928,-0.450195,-0.637207,-162.712082,-249.992355,-42.518612,0.155518,-0.003418,-0.894775,74.684143,-58.502193,7.354736
1.088623,-0.467773,-0.611816,-151.596069,-249.93895,-25.131224,0.158936,0.019043,-0.855713,70.213318,-59.494015,8.041382
-1.32666,-0.185547,-0.461914,-154.35791,-111.587517,-129.394531,0.160156,0.030273,-0.808594,66.375732,-59.852596,8.201599
-0.769043,0.455322,-0.728271,-3.974914,-40.367123,-56.510921,0.1604,0.038086,-0.79541,63.270565,-59.333797,7.774353
0.39624,-0.315186,-0.650391,49.110409,57.15942,-14.198302,0.152588,0.047607,-0.800781,59.68475,-57.044979,5.53894
0.274902,-0.303467,-0.604492,51.773067,24.353025,-6.324768,0.145508,0.04541,-0.801758,55.953976,-54.939266,2.632141
0.022705,-0.200439,-0.966797,52.848812,108.64257,-10.292052,0.143311,0.040527,-0.805664,51.139828,-56.27441,1.12915
-0.025879,-0.200195,-0.939941,55.946346,102.97393,-5.241394,0.15625,0.042725,-0.816406,44.692989,-61.31744,0.823975
-0.00415,-0.174805,-0.904785,54.824825,103.301994,-4.91333,0.179199,0.036133,-0.810303,39.772034,-66.307068,2.471924
0.039063,-0.152588,-0.894043,55.259701,112.075798,-6.454467,0.5,0.193359,-0.789551,9.44519,-48.439022,-5.958557
0.05249,-0.144775,-0.9021,58.952328,125.526421,-6.790161,0.229492,0.02417,-0.796387,30.517576,-69.084167,11.840819
-0.002441,-0.131348,-0.905762,66.413879,135.848999,-5.493164,0.259033,0.043457,-0.797119,22.270201,-69.717407,13.877868
-0.113037,-0.081543,-0.913574,73.699951,137.336731,-3.669739,0.291992,0.068359,-0.759521,13.557433,-70.350647,14.160155
-0.236084,0.010498,-0.926514,72.105408,130.027771,-2.39563,0.305664,0.088623,-0.72168,7.202148,-70.472717,13.450622
-0.306641,0.122803,-0.932861,58.372494,120.445244,-2.76947,0.318848,0.081299,-0.721924,5.149841,-71.69342,13.175963
-0.229492,0.176758,-0.938721,30.052183,116.21093,-5.233764,0.351318,0.087646,-0.76416,5.149841,-75.553894,12.451171
0.12915,-0.161377,-0.989258,41.481014,114.913933,-17.417908,0.384521,0.106934,-0.789307,3.921509,-79.429626,12.20703
-0.196045,0.090576,-0.943115,34.629822,121.665947,-3.555298,0.424072,0.120361,-0.792725,3.921509,-79.269409,11.558532
-0.25293,-0.019043,-0.92041,62.217709,128.967285,-3.181457,0.466797,0.144043,-0.798096,4.402161,-72.479248,7.820129
-0.309082,0.019043,-0.867432,67.993164,126.304619,-4.53186,0.498047,0.182373,-0.795898,5.249023,-60.783382,1.625061
-0.370361,0.087402,-0.843018,64.834595,119.018547,-4.638672,0.157715,-0.035889,-0.958252,80.245972,-62.438961,3.501892
-0.407715,0.147705,-0.827881,56.304928,110.252373,-5.226135,0.203613,0.023682,-0.790039,35.636902,-68.092346,6.950378
-0.402344,0.168945,-0.795166,47.393795,103.012077,-7.186889,0.167969,-0.044189,-0.948486,79.826355,-69.702148,3.105163
-0.387207,0.145996,-0.779297,41.923519,98.213188,-8.346558,-0.135254,-0.257813,-0.890381,114.051811,-76.049805,-1.663208
-0.393799,0.091553,-0.773193,43.632504,93.414299,-7.369995,0.16626,-0.021484,-0.896729,75.927734,-89.210503,6.187438
-0.414307,0.035645,-0.756836,53.306576,84.022514,-6.195068,0.491211,0.185547,-0.79834,17.204285,-40.596004,-12.08496
-0.44043,0.014404,-0.734375,65.1474,71.495056,-6.179809,-0.380371,-0.754639,-1.206299,131.912231,-50.544735,31.47888
0.356445,-0.31665,-0.669922,47.225948,43.754574,-18.981934,-0.253418,-0.570557,-1.109131,124.191277,-79.971313,46.95892
-0.21167,0.005615,-0.949463,48.927303,127.021782,-2.388,-0.187012,-0.432861,-1.051514,113.655083,-97.427361,50.704952
0.197998,-0.10791,-1.013916,27.183531,114.959709,-15.61737,-0.177734,-0.371094,-1.010742,103.454582,-106.071465,43.739315
-0.290527,0.194092,-0.94043,40.229794,115.180962,-4.776001,-0.194824,-0.36377,-0.954102,99.563591,-106.513969,32.272339
0.018066,-0.066406,-1.028076,25.230406,119.049065,-5.584716,-0.186523,-0.363525,-0.955811,100.975029,-103.691093,21.575926
0.115234,-0.257568,-0.557373,72.479248,11.001586,31.60095,-0.133789,-0.364502,-0.979004,101.104729,-100.20446,16.624451
0.149658,-0.068848,-1.047363,20.957945,114.128105,-10.803222,-0.100098,-0.388184,-0.924072,101.882927,-96.092216,15.045165
0.288086,-0.220703,-0.538086,79.971313,-20.538328,41.519161,-0.084229,-0.406006,-0.888184,107.673637,-91.75872,12.001037
0.481201,-0.221191,-0.540039,70.869446,-56.159969,22.766111,0.177734,-0.038818,-0.922119,77.926636,-79.483032,4.333496
0.491943,-0.268555,-0.554932,74.996948,-77.362061,10.101317,-0.085693,-0.407715,-0.919434,112.80822,-85.021965,6.248474
0.584229,-0.287598,-0.649414,75.202942,-108.573906,-12.512206,-0.126221,-0.322754,-0.914795,117.012016,-74.836731,0.343323
0.784912,-0.186279,-0.743652,66.062927,-138.214111,-19.546509,-0.135498,-0.214355,-0.893799,108.703606,-79.864502,-2.723694
1.551514,0.28125,-1.256348,-30.700682,-94.711296,24.902342,-0.118652,-0.186768,-0.905518,101.646416,-85.71624,-1.968384
1.273682,0.0896,-1.287354,-19.958496,13.076781,85.472099,-0.092041,-0.167969,-0.921143,95.703117,-91.667168,0.045776
1.569092,-0.200439,-0.990479,-13.870238,90.476982,76.278687,-0.060303,-0.145508,-0.941406,91.026299,-97.175591,2.861023
1.759521,-0.443115,-0.835449,13.404845,162.132248,34.873962,-0.018555,-0.118408,-0.931641,89.424126,-100.402824,5.615234
1.204834,0.087402,-0.861328,29.945372,-134.567261,-5.897521,0.022217,-0.09668,-0.920898,88.592522,-101.509087,7.774353
0.982178,-0.546631,-0.692383,84.465019,188.453659,-8.262634,0.059326,-0.063477,-0.907959,85.441582,-101.081841,9.384155
-0.04248,-0.10376,-0.963623,31.539915,130.088806,2.220154,0.097656,-0.027344,-0.89502,80.528252,-99.250786,9.361267
1.587158,-0.57373,-0.712158,54.611202,195.907578,2.090454,0.135498,-0.012207,-0.88916,76.797485,-95.626823,8.354187
0.105469,-0.116699,-0.869873,21.057127,169.532761,4.66156,-0.10498,-0.37915,-0.932861,116.554253,-78.292847,2.670288
0.190186,-0.032959,-0.869385,7.453918,184.318527,0.076294,0.487305,0.197021,-0.815918,23.567198,-38.627625,-15.853881
0.244385,0.070801,-0.862549,0.946045,185.974106,0.305176,-0.520508,-0.94873,-1.295166,138.320923,-9.70459,12.702941
0.001953,-0.136719,-0.916748,31.280516,148.384094,7.522583,0.505371,0.235107,-0.794434,24.085997,-42.610165,-17.692566
0.262207,0.057617,-0.873779,28.274534,163.703903,1.014709,0.707031,0.317871,-0.689453,-14.083861,-51.475521,23.307798
0.248535,-0.149902,-0.869629,61.836239,160.118103,-4.692078,0.72583,0.300293,-0.677979,-10.82611,-43.144222,19.897461
0.443115,-0.386963,-0.795898,86.616508,170.715317,-8.956909,0.75708,0.27002,-0.661377,-3.440857,-27.404783,14.427184
0.275391,0.126221,-0.858643,6.484985,175.926193,2.777099,0.766602,0.248535,-0.636963,3.585815,-5.783081,5.92041
-0.39502,0.179443,-1.042236,65.925598,34.095764,30.693052,0.772705,0.230713,-0.619385,8.94928,17.677307,-3.723144
-0.1604,0.090576,-0.925781,58.845516,75.210571,14.694213,0.772705,0.220947,-0.645996,14.488219,41.435238,-10.147094
-0.268799,0.163818,-0.963135,68.244934,72.898865,13.488769,0.744873,0.222656,-0.70459,17.547607,62.896725,-11.222838
-0.299561,0.263428,-0.976807,61.408993,63.980099,16.944885,0.758545,0.251465,-0.762207,13.107299,77.438354,-10.208129
-0.306396,0.365723,-0.973389,41.442867,52.810665,23.262022,0.827148,0.294678,-0.800293,2.578735,85.327141,-7.522583
-0.303955,0.426025,-0.936523,18.661499,43.991085,30.326841,0.87207,0.317627,-0.81958,-8.369446,91.705315,-3.219604
-0.291992,0.411621,-0.871338,6.126403,41.481014,31.646727,0.705811,0.31543,-0.675293,-14.030456,-56.045528,24.017332
-0.260742,0.332275,-0.823242,11.146544,45.211788,24.269102,0.883057,0.309814,-0.812744,-21.003721,94.306938,3.074646
-0.256348,0.229492,-0.873047,28.617857,48.263546,17.822266,0.875977,0.251709,-0.77832,-43.312069,74.432373,16.677856
-0.336914,0.170166,-1.001465,50.308224,47.180172,17.791748,0.826172,0.264404,-0.760986,-51.292416,57.357784,19.287109
-0.431152,0.254883,-0.959717,67.092896,19.866943,53.161617,0.787109,0.286133,-0.737793,-60.173031,40.107727,18.844604
-0.344482,0.358154,-0.687012,30.303953,65.605164,64.064026,0.739502,0.303711,-0.711426,-68.702698,22.315977,18.684387
-0.480957,0.428467,-0.792969,44.479366,19.676208,60.325619,0.666748,0.286865,-0.664795,-69.541931,3.875732,18.371582
-0.408203,0.474609,-0.730225,35.827637,24.16992,52.490231,0.595215,0.249756,-0.63623,-59.272762,-14.976501,17.120361
-0.305176,0.491943,-0.75415,30.609129,29.876707,42.762753,0.555908,0.229248,-0.653564,-46.112057,-32.546997,18.013
-0.253418,0.486572,-0.806885,28.633116,34.706116,38.520813,0.471924,0.179688,-0.687988,-39.123535,-50.010677,35.003662
-0.285645,0.448242,-0.845459,29.090879,37.506104,40.893551,0.387207,0.120117,-0.724121,-34.988403,-69.213867,63.796993
-0.342041,0.389404,-0.850586,30.960081,40.496822,46.020504,0.423096,0.170654,-0.689453,-29.396055,-76.499939,63.896175
-0.366455,0.348877,-0.775391,35.270691,42.808529,51.284786,0.903564,0.270508,-0.793945,-33.706665,88.027946,10.490417
-0.341309,0.313232,-0.718018,38.085938,50.529476,55.01556,0.724365,0.307861,-0.647705,-14.999389,-58.914181,20.957945
-0.322266,0.316162,-0.68042,35.713196,59.722897,59.341427,0.490723,0.213135,-0.810791,25.482176,-40.328976,-18.218994
-0.03418,0.070801,-0.874756,38.05542,69.259644,20.317076,0.718506,0.29248,-0.602539,-13.832091,-52.078243,20.111082
-0.479248,0.352051,-0.875488,57.273861,17.974854,61.225887,0.525146,0.254883,-0.764893,21.77429,-43.449398,-15.388488
0.027344,0.124756,-0.843018,13.359069,53.596493,25.726316,0.545654,0.263184,-0.716309,18.203735,-42.327877,-13.053893
-0.877441,0.496826,-0.833008,-5.66101,-17.433167,-15.151977,0.573975,0.259277,-0.671387,15.495299,-40.000916,-11.436461
-0.093262,0.293457,-0.84375,-14.678954,-5.249023,22.491453,0.593018,0.248047,-0.655762,16.281128,-35.484314,-9.33075
-0.379395,0.416016,-0.746338,25.451658,67.276001,64.89563,0.608887,0.232178,-0.654541,20.240782,-29.235838,-7.034301
-0.914551,0.472656,-0.779053,-7.164001,-31.249998,-21.484373,0.631592,0.221436,-0.679199,24.345396,-25.093077,-5.119323
-0.91626,0.448242,-0.775635,-4.28009,-42.930599,-21.072386,0.723877,0.305664,-0.622559,-15.73944,-57.418819,19.233704
-0.901367,0.462646,-0.855713,-4.699707,-50.346371,-13.21411,0.670654,0.239258,-0.680176,28.251646,-24.04785,-8.621216
-0.881836,0.5,-0.913818,-13.931273,-55.862423,0.724792,0.696289,0.251221,-0.666992,28.411863,-24.658201,-12.031554
-0.79248,0.524658,-0.817627,-20.39337,-63.865658,0.053406,0.701416,0.263428,-0.645996,26.741026,-25.604246,-13.648986
-0.687012,0.545654,-0.681396,-16.578674,-69.358826,-25.733946,0.689209,0.276123,-0.592041,23.864744,-25.05493,-13.84735
-0.677979,0.52124,-0.726807,-31.082151,-70.838928,-26.489256,0.650146,0.22583,-0.689697,26.93939,-24.192808,-5.371093
-0.583496,0.513916,-0.680664,-39.749146,-69.206238,-26.794432,0.706299,0.330566,-0.527588,19.020081,-22.201536,-11.932372
-0.570557,0.481201,-0.724121,-33.073425,-66.772461,-23.063658,0.718506,0.352051,-0.523193,16.120911,-21.423338,-9.170532
-0.599854,0.442627,-0.792969,-24.742125,-66.192627,-12.100219,0.730469,0.354736,-0.536621,13.603209,-20.935057,-6.515502
-0.582031,0.414551,-0.796631,-19.630432,-68.740845,-6.507873,0.710938,0.327637,-0.556885,12.268065,-22.583006,-2.159119
-0.520264,0.394531,-0.749268,-20.675657,-70.983887,-6.828308,0.704346,0.292236,-0.585205,9.33075,-25.978086,0.999451
-0.40625,0.367188,-0.717529,-25.505064,-70.304871,-9.57489,0.70874,0.26001,-0.60791,4.03595,-30.319212,2.357483
-0.293701,0.328125,-0.718262,-28.800962,-63.552853,-12.481688,0.715576,0.249268,-0.599609,-2.525329,-34.599304,4.646301
-0.226318,0.266357,-0.734375,-27.267454,-49.72839,-9.338379,0.715576,0.254395,-0.572266,-9.414673,-39.344788,8.605957
-0.185303,0.19873,-0.762451,-19.332886,-32.539368,-3.829956,0.722656,0.259521,-0.564941,-13.374328,-44.288631,12.298583
-0.155273,0.147461,-0.800049,-4.78363,-21.118162,-2.89917,0.7229,0.274902,-0.585693,-13.458251,-48.057552,16.670227
-0.158936,0.128418,-0.844727,14.114379,-24.375914,-5.371093,0.688965,0.30249,-0.546143,21.331785,-23.15521,-13.435363
-0.197021,0.160889,-0.882813,30.563353,-38.093567,-8.010864,0.571533,0.763428,-0.481445,18.539429,121.948235,-40.000916
-0.247803,0.238037,-0.930176,33.546448,-50.933834,-7.30133,0.718018,0.564941,-0.304199,16.105652,77.323914,-28.083799
-0.261963,0.302246,-0.95166,19.165039,-52.337643,0.923157,0.799805,0.419678,-0.250488,-14.060973,2.700805,-12.763976
-0.200195,0.315918,-0.898193,-2.471924,-36.178589,13.09204,0.755371,0.395264,-0.289551,-44.151302,-72.044373,-2.418518
-0.003662,0.219482,-0.833496,-7.865905,28.144835,26.763914,0.617188,0.448486,-0.524414,-27.313231,-147.979736,22.773741
-0.407715,0.458252,-0.822998,23.521421,67.863464,60.913082,0.603271,0.464355,-0.349854,-66.719055,-151.71051,8.781433
-0.914063,0.714111,-0.919922,-5.767822,-78.453064,-4.219055,0.557861,0.508057,-0.39917,-58.151241,-156.036377,15.068053
-0.44873,0.421387,-0.831787,21.087645,70.274353,54.252621,0.589111,0.495361,-0.462402,-41.213985,-153.358459,19.050598
-0.933594,0.248535,-0.462158,18.39447,-39.520264,30.799864,0.662354,0.415283,-0.297363,-60.897823,-121.734612,2.830505
-0.977783,0.306885,-0.446289,14.122008,-58.2962,33.164978,0.515625,0.984619,-0.662842,-28.762815,144.233704,-32.981873
-1.018555,0.429199,-0.480225,7.17163,-85.952751,27.114866,0.412354,0.239502,-0.775879,-196.327194,184.257492,-63.026424
-0.98584,0.545654,-0.543945,-3.14331,-111.442558,15.907287,0.640381,0.948486,-0.753174,-181.411728,196.037277,-14.823913
-0.900635,0.551025,-0.610352,-9.490967,-123.672478,5.432128,0.81958,0.798584,-0.704346,-208.427414,233.665451,-82.496635
-0.79248,0.421143,-0.664307,-6.141662,-120.277397,-0.411987,0.790039,0.640869,-0.604004,-199.172958,249.465927,-169.815048
-0.663818,0.251221,-0.693115,0.297546,-104.156487,-3.013611,0.525391,0.445068,-0.511963,-170.997604,249.992355,-224.380478
-0.516846,0.143311,-0.663818,1.296997,-82.092278,-3.974914,0.340088,0.331543,-0.380127,-143.066406,249.992355,-237.846359
-0.437744,0.107666,-0.622314,-2.319336,-60.6842,-4.53949,0.232422,0.244141,-0.265381,-119.056694,249.992355,-216.224655
-0.437012,0.160645,-0.627441,-9.117126,-41.938778,-7.003784,0.23877,0.223877,-0.257324,-108.810417,249.755844,-178.062424
-0.94458,0.242432,-0.577148,22.048948,-34.301758,25.970457,0.39209,0.241211,-0.375977,-118.09539,249.443039,-147.247314
-0.485107,0.256836,-0.66333,-19.607544,-29.922483,-11.779784,0.456787,0.217041,-0.531494,-134.483337,249.992355,-114.562981
-0.554443,0.312744,-0.811279,-33.485413,-18.447876,-26.374815,0.413086,0.168213,-0.62085,-150.894165,243.514999,-81.512444
-0.498047,0.246582,-0.867432,-24.444578,-10.520934,-37.025452,0.639404,0.40332,-0.588623,-19.584656,-139.564514,28.259275
-0.476807,0.137695,-0.87085,-5.40924,0.534058,-41.336056,0.531006,1.094727,-0.762695,-112.983696,164.169296,-8.430481
-0.529053,0.064941,-0.820557,13.435363,9.292603,-32.63092,0.671631,0.381836,-0.603271,-16.532898,-132.6828,32.020569
-0.600586,0.114502,-0.789551,21.308897,10.925292,-18.65387,0.679199,0.398438,-0.785889,-24.063108,-32.806396,62.744137
-0.687744,0.263916,-0.800781,19.874573,0.587463,-7.324218,0.696289,0.445801,-0.682861,-16.242981,-125.434868,36.4151
-0.791748,0.441406,-0.847412,13.21411,-23.605345,-1.914978,0.445557,0.096924,-0.838135,-244.827255,111.007683,-39.146423
-0.876709,0.607422,-0.896484,3.051758,-55.404659,-1.609802,0.5354,0.131104,-0.791748,48.988338,9.094238,30.014036
-0.420898,0.458252,-0.862061,22.743223,68.916321,55.961605,0.567139,0.163086,-0.805176,38.444519,-11.596679,37.246704
-0.87085,0.703125,-0.896484,-9.002686,-81.245415,-12.161254,0.599854,0.225098,-0.7854,26.100157,-33.561707,42.877193
-0.549561,0.315186,-0.734131,-30.525206,-23.475645,-18.081665,0.635742,0.29541,-0.733154,14.60266,-41.90826,46.409603
-0.945557,0.286133,-0.747314,23.117064,-36.148071,24.581907,0.66626,0.341064,-0.705566,2.479553,-36.613464,44.853207
-0.789063,0.601318,-0.844238,-5.462646,-65.032959,-30.776976,0.689697,0.333984,-0.731689,-7.995605,-24.772642,37.254333
-0.865479,0.452393,-0.862061,11.405944,-31.837461,30.197142,0.700195,0.287598,-0.728516,-8.514404,-9.033203,27.748106
-0.50415,0.36499,-0.761475,18.257141,73.097229,56.243893,0.686279,0.220459,-0.720947,3.082275,8.69751,23.773191
-0.547119,0.321777,-0.718506,13.954162,80.322258,60.203548,0.634277,0.189209,-0.726074,20.39337,18.966675,31.661985
-0.560547,0.287842,-0.682617,10.44464,88.676445,64.559937,0.698242,0.4021,-0.633789,-17.707825,-129.798889,33.638
-0.594971,0.265869,-0.650879,8.705139,93.696587,67.733765,0.584961,0.227295,-0.758301,29.190062,14.953612,46.379086
-0.647461,0.262207,-0.640137,8.529663,92.605583,69.015503,0.618408,0.379883,-0.796875,-5.599975,-20.225523,62.782284
-0.69751,0.27417,-0.633057,9.933472,86.822502,66.230774,0.7146,0.376953,-0.770996,-23.590086,-28.533934,57.03735
-0.904541,0.376953,-0.849365,17.814636,-36.300659,25.115965,0.643066,0.380127,-0.744873,-6.599426,-10.627746,53.146358
-0.749268,0.303955,-0.563232,15.998839,70.4422,48.828121,0.533447,0.385986,-0.749756,13.710021,6.401062,55.046078
-0.721191,0.305176,-0.499512,16.921997,61.164852,41.549679,0.499756,0.373291,-0.760254,25.833128,9.674072,57.510372
-0.691406,0.311035,-0.506104,14.297484,52.444454,41.679379,0.531738,0.332764,-0.765137,29.899595,-5.851745,60.638424
-0.699707,0.324219,-0.557129,9.307861,44.883724,45.3186,0.543701,0.328613,-0.76709,28.762815,-36.582947,65.742493
-0.738281,0.289063,-0.614502,12.931823,78.933716,59.05151,0.577637,0.374512,-0.762939,20.790098,-71.800232,65.597534
-0.78833,0.362305,-0.674316,2.220154,24.490355,48.332211,0.647705,0.428467,-0.757813,8.033752,-98.716728,56.900021
-0.830078,0.355713,-0.726318,2.082825,9.803772,48.362728,0.684326,0.456543,-0.736328,-6.629943,-115.470879,44.830318
-0.861084,0.330566,-0.752441,4.310608,-5.859375,47.248837,0.587646,0.302246,-0.788086,18.440247,-0.984192,56.930538
-0.876953,0.29541,-0.753418,9.07135,-19.721985,43.495174,0.529541,0.110352,-0.762939,53.939816,17.883301,18.066406
-0.839355,0.262451,-0.737549,14.85443,-28.274534,38.30719,0.596436,-0.415527,-0.774414,-249.702438,74.172974,18.882751
-0.750977,0.240723,-0.73584,19.134521,-28.32794,37.147522,1.109375,-0.750488,-0.772461,-249.992355,204.56694,55.702206
-0.7146,0.249756,-0.743408,20.675657,-20.866392,43.609615,-0.594482,-0.705322,-0.615234,20.187376,-36.384583,34.393311
-0.75293,0.278076,-0.73584,20.973204,-14.839171,50.109859,-0.687744,-0.649658,-0.595703,17.623901,-56.510921,33.424377
-0.806152,0.349365,-0.774414,17.738342,-16.517639,48.912045,-0.747314,-0.576416,-0.583008,11.009215,-78.285217,30.761717
-0.843994,0.44043,-0.837158,11.886596,-23.651121,40.306087,-0.641113,-0.61377,-0.563232,3.242492,-83.282463,23.925779
-0.741699,0.343506,-0.613037,4.943848,36.071777,47.538754,-0.483154,-0.719482,-0.568359,1.174927,-77.056885,14.236449
-0.070068,0.560059,-0.850098,-24.398802,68.80188,13.549804,-0.450195,-0.730713,-0.533203,1.464844,-68.771362,9.33075
-0.067139,0.626465,-0.833496,-12.817382,69.641113,20.721434,-0.46582,-0.717529,-0.493408,1.937866,-62.408443,12.7182
-0.070068,0.526367,-0.795654,14.457702,67.962646,25.459288,-0.491211,-0.695801,-0.471191,2.220154,-67.092896,22.28546
-0.082275,0.353027,-0.71582,37.384033,68.42041,28.587339,-0.536621,-0.661133,-0.469971,1.51062,-89.225761,26.046751
-0.036133,0.337646,-0.669189,26.298521,83.251945,37.986755,-0.523682,-0.541504,-0.48999,-18.569946,-137.077332,2.418518
-0.07959,0.168701,-0.655029,37.155151,81.344597,32.188416,-0.546875,-0.755859,-0.642578,20.240782,-25.405882,34.088135
-0.065674,0.201172,-0.647949,25.894163,87.265007,35.461426,-0.301758,-0.681885,-0.501221,-16.914368,-124.183647,-3.814697
-0.052002,0.276123,-0.651123,20.561216,88.333122,38.322449,-0.240723,-0.855225,-0.55127,27.389524,-52.459713,-3.929138
-0.088379,0.21582,-0.664795,44.425961,73.516846,30.395506,-0.206055,-0.927979,-0.584473,61.050411,-11.932372,10.421752
-0.099854,0.361084,-0.881592,-17.555237,63.949581,10.536193,-0.261719,-0.855225,-0.643555,83.679192,15.144347,25.80261
-0.254395,0.283203,-0.807617,-7.30133,70.556641,3.257751,-0.215576,-0.78833,-0.76709,85.601799,16.296387,38.825989
-0.192871,0.071533,-0.898193,18.234253,42.823788,18.280029,-0.161377,-0.622559,-0.780029,70.343018,18.051147,-3.974914
-0.201172,0.086426,-0.903564,29.617308,27.06909,23.506163,-0.566406,-0.638184,-0.76001,64.025879,63.20953,-62.530514
-0.187744,0.187744,-0.921387,30.158995,13.702392,27.015684,-0.508545,-1.162354,-1.053223,88.539116,66.215515,-50.575253
-0.172852,0.37207,-0.948486,15.884398,8.987427,27.542112,-0.596436,-1.218506,-1.193359,121.086113,54.206844,-23.902891
-0.145264,0.56665,-0.95166,-8.590698,15.121459,22.453306,-0.606934,-1.119385,-1.295166,139.205933,29.922483,-4.676819
-0.102539,0.647705,-0.933838,-32.226563,31.005857,16.616821,0.868164,-0.791016,-0.737305,-249.732956,117.805473,63.278194
-0.076172,0.553711,-0.899658,-37.078857,52.787777,8.682251,-0.156738,-0.781006,-0.519775,-0.015259,-90.568535,-11.314391
-0.111328,0.345703,-0.877686,-20.652769,71.228027,2.243042,-0.544189,-0.77124,-0.676025,15.907287,-18.493652,33.248901
-0.157959,0.186279,-0.851318,-0.686645,79.864502,0.801086,-0.554688,-0.581787,-0.479736,-5.828857,-119.99511,14.701842
-0.202393,0.172852,-0.830811,5.058288,78.437805,2.365112,-0.581787,-0.660156,-0.763672,11.726378,0.389099,47.386166
-0.041992,0.340576,-0.702148,41.198727,75.149536,34.790039,1.213867,-0.847168,-0.595947,-240.493759,249.992355,-22.102354
-0.151367,0.161621,-0.903564,0.343323,55.732723,12.741088,-0.554688,-0.698975,-0.719238,11.047362,-10.353087,36.720276
-0.064209,0.288818,-0.727783,59.387203,71.083069,32.028198,0.120605,-0.845947,-0.534912,-194.580063,237.983688,-93.292229
0.618164,0.139404,-0.967773,59.143063,125.114433,27.610777,-0.72168,-0.63501,-0.624512,-184.524521,209.747299,-81.80999
-0.065186,0.163086,-0.73877,76.713562,85.449211,28.762815,-0.701172,-0.781738,-0.668701,-180.656418,201.370224,-57.601925
-0.315674,0.439697,-0.760742,-29.411314,61.416622,1.426697,-0.546387,-0.882813,-0.782471,-161.506638,206.886276,-64.247131
0.968262,-0.350098,-1.531006,68.023682,52.818295,39.321899,-0.392822,-0.904053,-0.854004,-131.149292,217.918381,-100.8377
1.047363,-0.277344,-1.583984,80.79528,47.401424,46.257015,-0.973877,-0.799316,-1.029541,-83.251945,208.541855,-97.534172
1.008057,-0.189453,-1.465088,88.897697,48.538204,40.184017,-1.203857,-0.782715,-1.114746,-72.692871,186.0504,-54.595943
0.843262,-0.094971,-1.247559,89.74456,52.085873,26.69525,-1.210693,-0.721191,-1.129883,-72.311401,158.973694,-21.362303
0.672852,-0.023438,-1.044434,88.127129,59.593197,10.238647,-0.887451,-0.596924,-1.058594,-79.437256,142.448425,-27.6947
0.560791,0.003418,-0.895996,86.379997,64.941406,-3.318786,-0.66333,-0.849854,-0.915527,-102.386467,221.229538,-119.781487
0.480469,0.013672,-0.799805,86.425774,66.383362,-7.629394,-0.455566,-0.469238,-0.93042,-123.680107,155.914307,-103.286736
0.435303,0.027588,-0.77124,90.370171,68.977356,-1.541138,-0.60791,-0.693115,-0.768311,8.651733,13.244628,52.467342
0.450928,0.068115,-0.780273,93.261711,75.691223,10.078429,-0.556152,-0.441895,-1.001709,-100.555412,147.041321,-69.625854
-0.080566,0.21875,-0.74292,73.028564,75.500488,30.860899,-0.61084,-0.76416,-0.747803,-16.639709,23.521421,40.855404
0.535645,0.146973,-0.815918,88.508598,89.096062,17.883301,-0.631104,-0.766113,-0.751953,-29.792784,31.219481,23.719786
0.683594,0.223633,-0.926514,62.156673,120.002739,23.559568,-0.638916,-0.760498,-0.777344,-44.494625,41.145321,1.770019
0.467529,0.024902,-0.958984,71.670532,127.784721,32.554626,-0.601807,-0.735352,-0.737793,-2.235413,20.225523,48.21777
0.316406,-0.042969,-0.9104,90.118401,125.78582,38.818359,-0.886963,-0.834717,-0.802734,-84.548943,81.30645,-33.607483
0.195801,-0.057373,-0.875244,101.028435,118.789665,47.195431,-0.857422,-0.765625,-0.826904,-109.100334,111.54937,-66.246033
0.129883,-0.02832,-0.85376,101.46331,112.190239,51.11694,-0.676514,-0.655762,-0.880615,-125.839226,141.235352,-95.16143
0.107422,0.042725,-0.818115,91.674797,109.695427,47.523495,-0.72876,-0.786865,-0.817139,-62.614437,57.586666,-13.511657
0.091553,0.122803,-0.816895,78.842163,107.63549,39.260864,0.763916,0.254883,-0.645264,2.380371,16.517639,-22.079466
0.050049,0.161621,-0.76709,70.365906,107.002251,31.85272,0.58374,0.293213,-0.613037,-3.334045,25.901793,-15.327453
0.005127,0.150635,-0.710449,70.251465,103.347771,26.496885,0.570313,0.33667,-0.662109,0.404358,21.316526,-23.025511
-0.031738,0.142334,-0.717041,73.692322,95.443718,26.237486,0.560303,0.366943,-0.710449,-2.716064,12.626647,-19.302368
0.637695,0.222168,-0.880615,76.042175,107.818596,20.446775,0.575928,0.354004,-0.739746,-9.643555,5.348205,-6.324768
-0.351074,0.539063,-0.737793,-47.271725,50.72784,-1.518249,0.623047,0.327881,-0.743164,-16.281128,3.829956,9.292603
-0.365723,0.499023,-0.759521,-50.880428,39.001465,-1.243591,0.704102,0.287354,-0.724121,-18.112183,7.17926,17.707825
-0.358154,0.357666,-0.782471,-41.450497,27.091978,2.662658,0.762207,0.284424,-0.708984,-17.234802,11.878966,15.2359
-0.697021,0.429443,-0.74292,-31.074522,21.583555,-4.165649,0.762207,0.257813,-0.69043,-13.21411,14.114379,3.700256
-0.720703,0.342529,-0.719238,-26.969908,18.424988,-4.653931,0.752197,0.235596,-0.667236,-4.920959,13.832091,-10.887145
-0.756836,0.287842,-0.724365,-10.261535,10.795592,-3.105163,0.786377,0.316406,-0.622314,3.158569,23.979185,-25.688169
-0.791748,0.299561,-0.748779,6.896972,-0.396728,0.106812,0.70874,0.30957,-0.698486,-14.328002,0.991821,11.360168
-0.776123,0.357422,-0.780518,16.944885,-12.420653,0.366211,0.777344,0.376465,-0.590088,-5.66101,43.785091,-18.981934
-0.710693,0.417725,-0.853027,15.1062,-20.042419,-1.983642,0.736328,0.369873,-0.591309,-9.811401,50.796505,-13.534545
-0.614258,0.432617,-0.892334,8.270264,-20.355223,-4.516602,0.697266,0.371582,-0.612549,-13.107299,50.85754,-10.0708
-0.525391,0.39502,-0.844238,6.813049,-12.611388,-5.432128,0.662109,0.378662,-0.633057,-16.159058,43.457027,-6.874084
