ax,ay,az,gx,gy,gz,ax,ay,az,gx,gy,gz
-0.011475,0.47168,-0.867432,0.198364,-33.950806,-42.648312,-0.746338,-0.670898,-0.950928,36.132813,143.493652,14.213561
0.358398,0.703613,-0.948486,26.06201,-17.753601,-91.873161,-0.315186,0.648438,-0.712891,0.740051,179.130539,-168.365463
0.172607,0.571777,-1.126465,27.870176,-53.649899,-86.265556,-0.211914,0.303223,-1.366943,-199.684128,33.462524,81.146233
0.028809,0.439941,-1.205811,38.963318,-93.284599,-79.38385,-0.233643,0.592529,-0.696289,-31.684874,195.976242,-153.434753
0.008057,0.365723,-1.230469,58.242794,-128.364563,-79.429626,0.004883,0.098633,-0.872559,-19.615173,-194.625839,1.426697
0.147949,0.377686,-1.223145,73.928833,-148.170471,-77.453613,0.072754,0.134033,-0.882568,-20.51544,-188.652023,-0.823975
0.400146,0.404541,-1.073975,79.528809,-150.085449,-57.075497,0.13623,0.167969,-0.911377,-22.682188,-174.33165,-2.777099
0.638428,0.418213,-0.836182,86.585991,-142.570496,-19.515991,0.187012,0.168213,-0.912354,-23.185728,-153.991699,-4.180908
0.747803,0.46167,-0.724365,92.956535,-120.826714,18.341064,0.221191,0.146973,-0.918945,-21.278379,-132.133484,-6.141662
-0.868652,0.230225,-0.418457,-34.40094,-149.894714,-152.96936,0.229736,0.126709,-0.921875,-17.753601,-118.85833,-8.453369
0.830078,0.546875,-0.598145,97.373955,-84.541313,29.46472,0.223877,0.127686,-0.918945,-14.678954,-118.270866,-10.108947
0.288818,0.601074,-0.85376,20.51544,-9.69696,-80.841057,0.220459,0.158203,-0.911133,-14.167785,-124.465935,-10.353087
0.278564,0.330322,-0.823242,54.939266,245.841965,21.575926,0.232422,0.187988,-0.946777,-17.532349,-127.464287,-10.0708
-0.68335,0.612061,-0.867676,-29.907225,-222.183212,33.859253,0.331299,0.129883,-1.003174,-22.140501,-103.698723,-11.810302
0.668457,0.361816,-0.753906,37.712097,249.961838,17.822266,-0.043213,0.080322,-0.902832,-22.6593,-189.308151,2.39563
-0.585693,0.424316,-0.6521,-44.265743,-142.280579,-154.823303,0.435059,0.077637,-1.041016,-20.332335,-81.93206,-15.754699
0.451172,0.336426,-0.798096,41.770931,249.992355,14.678954,0.545898,0.017578,-1.033691,-11.863708,-33.363342,-30.380247
-0.43457,0.611572,-0.744385,-44.242855,-175.910934,-134.613037,0.532471,0.027832,-1.002441,-8.583069,-13.740539,-36.178589
-0.293945,0.625488,-0.772705,-43.327328,-190.254196,-130.584717,0.481689,0.062012,-0.969971,-8.110046,1.495361,-40.122986
-0.093994,0.651367,-0.783936,-48.439022,-198.234543,-133.499146,0.421631,0.116211,-0.945068,-10.833739,14.320373,-40.962215
0.118896,0.645264,-0.713135,-52.055355,-206.047043,-133.323669,0.384766,0.154297,-0.921875,-14.198302,25.283812,-36.453247
0.3479,0.606934,-0.636719,-45.669552,-218.154892,-122.451775,0.363525,0.150146,-0.858154,-15.907287,33.905029,-29.792784
0.517334,0.585205,-0.711426,-33.027649,-226.890549,-104.583733,0.359131,0.124268,-0.815186,-15.35797,38.948059,-26.916502
0.628174,0.598389,-0.873779,-20.675657,-224.990829,-85.380547,0.339111,0.11377,-0.846191,-13.084411,39.276123,-29.449461
0.723877,0.603271,-0.948975,-9.513855,-217.201218,-76.48468,0.287842,0.128174,-0.896973,-10.093688,34.500122,-32.791138
0.818848,0.594971,-0.927246,-4.547119,-199.043259,-76.74408,0.251221,0.157471,-0.933594,-10.467528,28.19824,-33.332825
0.909424,0.537842,-0.827148,-4.501343,-173.652634,-73.028564,0.513184,0.037598,-1.054932,-16.38031,-57.441708,-22.666929
-0.520752,0.56958,-0.740723,-46.119686,-156.761169,-144.798279,-0.085938,0.062744,-0.904053,-25.863646,-176.72728,1.609802
1.096436,0.3479,-0.682373,2.784729,-118.110649,-69.274902,0.259766,0.175049,-0.980713,-21.263121,-120.422356,-10.139464
1.213135,0.283203,-0.631836,8.857727,-95.91674,-73.600769,-0.164307,0.036133,-0.889404,-26.512144,-161.483749,-3.280639
1.279053,0.254639,-0.687744,14.595031,-75.500488,-71.929932,-0.269531,0.643311,-0.669189,-20.919798,196.723923,-164.108261
1.292969,0.252441,-0.707031,21.499632,-41.320797,-63.537594,-0.269043,0.513428,-0.891846,-46.409603,145.309448,-120.429985
1.360596,0.300049,-0.698242,26.275633,15.670775,-50.765987,-0.352295,0.533691,-0.980957,-55.450436,115.539543,-120.002739
1.467529,0.380615,-0.699707,26.542662,94.444267,-35.018921,-0.321533,0.547852,-1.10791,-65.315247,83.023064,-134.590149
1.454834,0.432373,-0.721436,27.503965,182.77739,-17.547607,-0.255859,0.536133,-1.195557,-75.004578,50.971981,-147.163391
1.273193,0.432373,-0.711426,31.997679,242.401108,-0.068665,-0.227783,0.461182,-1.20459,-78.971863,25.413511,-148.239136
0.960205,0.399902,-0.707764,37.963867,249.877914,14.900207,-0.237061,0.349121,-1.145996,-74.790955,7.820129,-141.860962
0.944336,0.429443,-0.768311,-2.311707,-144.989014,-66.78772,-0.337891,0.302734,-1.075928,-65.101624,-3.761291,-127.243034
-0.821045,0.864014,-0.322998,13.916015,5.722045,17.364502,-0.498779,0.325928,-1.009033,-54.901119,-17.341614,-107.704155
-0.585693,0.739746,-0.537109,58.502193,51.841732,40.473934,-0.672119,0.365479,-0.872803,-49.713131,-33.287048,-90.019218
-0.598633,0.822998,-0.546631,47.95837,44.929501,36.567688,-0.681885,0.36377,-0.79834,-50.933834,-45.845028,-79.437256
-0.63501,0.912354,-0.569336,43.846127,41.702267,34.660339,-0.212402,0.526367,-0.793701,-38.505554,174.888596,-136.108398
-0.50293,0.70166,-0.633789,78.010559,99.304192,35.469055,-0.388428,0.333496,-0.894287,-58.242794,-49.301144,-75.294495
-0.685059,0.912354,-0.608643,61.500546,60.607906,35.095215,-0.533203,0.342529,-0.883789,-55.335995,-52.413937,-76.133728
-0.6521,0.828613,-0.618408,73.699951,78.048706,36.262512,-0.250488,0.090576,-0.807129,-41.763302,-137.718201,-24.406431
-0.587646,0.73999,-0.631836,79.856873,92.712395,36.643982,-0.244629,0.142334,-0.794434,-48.789974,-130.592346,-33.599854
-0.435547,0.728516,-0.638428,71.380615,96.611015,34.912109,-0.279541,0.155273,-0.79126,-52.841183,-120.941154,-39.138794
-0.672363,0.94873,-0.599365,49.484249,46.775814,34.461975,-0.333984,0.169922,-0.79834,-58.776852,-105.278008,-39.627075
-0.581543,0.729492,-0.530518,67.878723,57.273861,47.157284,-0.232178,0.038818,-0.8479,-31.646727,-147.567749,-13.46588
-0.625732,0.849854,-0.387207,42.396542,56.678768,49.400326,-0.388672,0.281738,-0.887695,-68.450928,-62.309261,-52.505489
-0.643066,0.881104,-0.51709,65.109253,49.148556,58.990475,-0.375244,0.321777,-0.872803,-62.438961,-47.225948,-62.70599
-0.650635,0.935303,-0.484375,54.76379,45.494076,58.41827,-0.341064,0.328125,-0.868408,-58.975216,-44.143673,-70.800781
-0.643311,0.918701,-0.427734,45.326229,48.599239,54.00848,-0.369141,0.212891,-0.838867,-66.802979,-83.70208,-43.090816
-0.637939,0.778564,-0.397217,45.845028,63.537594,46.417233,0.230469,0.405762,-0.818359,-33.782959,18.058777,9.864807
-0.693604,0.727051,-0.434082,50.239559,63.766476,44.418331,0.354248,0.450928,-0.787354,-62.477108,114.311211,15.541076
-0.778564,0.72168,-0.454834,51.025387,55.13763,42.381283,0.314697,0.463135,-0.793457,-58.174129,107.284538,11.497497
-0.869629,0.763916,-0.44458,45.837399,40.138245,38.856506,0.259033,0.428467,-0.82959,-53.817745,102.958672,12.306212
-0.907959,0.816162,-0.408203,36.422729,24.589537,32.958984,0.240234,0.348145,-0.953369,-52.978512,95.16906,15.548705
-0.876465,0.857178,-0.355957,24.765013,12.687682,25.413511,0.19458,0.343994,-0.92749,-44.692989,80.398552,17.38739
-0.422363,0.778809,-0.660889,67.855835,89.462273,37.605286,0.204346,0.383057,-0.908203,-33.325195,64.147949,18.90564
-0.613281,0.795654,-0.540771,70.503235,55.358883,54.77142,0.405029,0.449707,-0.761475,-65.284729,120.422356,17.929077
-0.449951,0.786133,-0.680176,72.601318,85.998528,43.16711,0.243652,0.424805,-0.899414,-27.305601,49.674984,17.929077
0.29541,0.248535,-0.761475,64.651489,80.413811,33.226013,0.270996,0.444336,-0.868164,-29.502867,35.682678,13.145446
-0.463379,0.646484,-0.71167,92.422478,108.795158,50.498959,0.18457,0.361816,-0.743896,-37.284851,5.981445,5.714416
-0.776367,0.836182,-0.311768,7.4234,2.388,10.154723,0.165527,0.126221,-0.791016,-17.059326,85.662834,-18.669128
0.301758,0.223145,-0.761963,63.621517,81.871025,34.645081,0.231934,0.145264,-0.572754,-10.101317,10.894774,-8.842468
0.306396,0.190674,-0.752686,64.147949,83.236687,35.522461,0.437744,0.300293,-0.471436,1.770019,64.994812,-6.011962
0.310547,0.158203,-0.73584,66.40625,85.281364,35.858154,0.261475,0.174072,-0.712158,-21.049498,99.304192,-16.578674
0.308838,0.133789,-0.719727,70.701599,87.524406,36.087036,0.07666,0.122803,-0.87207,-13.267516,57.41119,-18.432617
0.288574,0.130371,-0.70874,76.332092,90.171806,37.513733,0.02124,0.138672,-0.912109,-12.290954,15.693664,-16.571045
0.256836,0.162354,-0.698242,81.138603,94.200127,40.267941,0.046387,0.1604,-0.884521,-8.773804,-28.038023,-17.845154
0.230957,0.216797,-0.68042,84.526054,99.731438,43.334957,0.14624,0.182861,-0.859375,-2.593994,-55.694576,-27.839659
0.206543,0.270996,-0.664063,86.128227,106.170647,45.082088,0.21582,0.216797,-0.85498,1.159668,-51.376339,-42.488094
0.19165,0.298828,-0.6521,87.905876,112.67852,43.914791,0.195801,0.212891,-0.914551,2.960205,-32.524109,-53.665157
-0.475342,0.736084,-0.702637,82.214348,92.407219,48.301693,0.464355,0.457764,-0.728516,-67.6651,122.039787,19.378662
0.179443,0.299316,-0.638184,90.75164,117.019646,39.604187,0.114746,0.310059,-0.674805,-37.895203,5.470275,-7.606506
0.104736,0.282959,-0.581055,102.447502,113.533012,33.01239,0.504395,0.468994,-0.678223,-70.297241,119.628899,19.424438
0.060303,0.310547,-0.551025,108.90197,112.579338,30.677794,0.790039,0.61084,-0.116943,-12.100219,36.499023,-18.325806
0.037354,0.370117,-0.524902,112.823479,119.522087,29.121397,0.548828,0.513672,-0.595215,-73.875427,114.524834,14.801024
0.020264,0.446533,-0.539795,110.771172,136.734009,29.502867,0.118896,0.16626,-0.978516,0.457764,-25.253294,-51.795956
-0.009033,0.478027,-0.56665,103.614799,157.112122,32.432556,0.82373,0.621826,-0.132813,-9.986877,48.095699,-21.331785
-0.051514,0.458984,-0.614014,97.015373,170.761093,36.521912,0.800537,0.646484,-0.156006,-11.650084,56.236263,-23.101805
-0.135254,0.425049,-0.656006,97.602837,172.889694,40.260311,0.737793,0.668701,-0.174072,-15.563964,59.089657,-21.224974
-0.243896,0.420654,-0.68042,101.150505,164.833054,43.884274,0.709229,0.655273,-0.19043,-17.25769,57.678219,-16.25061
-0.344482,0.466553,-0.697754,102.119438,150.07782,47.142025,0.751953,0.647949,-0.218262,-16.571045,55.114742,-12.817382
-0.419922,0.548584,-0.713867,99.296562,130.302429,49.46899,0.813232,0.657227,-0.243408,-16.815186,58.494564,-14.747619
0.148438,0.283691,-0.612061,95.726006,116.577141,35.926819,0.799072,0.682129,-0.241455,-17.478943,61.805721,-14.038085
-0.759766,0.801514,-0.312012,5.439758,0.88501,4.53186,0.786377,0.691895,-0.249756,-19.241333,64.01062,-10.665893
-0.358154,0.65332,-0.664307,-125.457756,-92.414848,-43.67828,0.775391,0.69165,-0.281738,-21.873472,67.78717,-5.577087
-0.772217,0.768799,-0.313965,4.066467,-4.150391,-3.471374,0.801025,0.730225,-0.318604,-25.581358,73.165894,-2.883911
-0.781982,0.850342,-0.563477,-78.964233,-50.193783,-47.180172,0.817627,0.773193,-0.348877,-32.028198,79.071045,-5.172729
-0.770508,0.880859,-0.560547,-91.690056,-67.253113,-52.108761,0.78418,0.755127,-0.392578,-40.222164,82.359306,-6.843566
-0.683838,0.902344,-0.55542,-108.177177,-82.06176,-57.655331,0.702881,0.693115,-0.458984,-49.186703,83.801262,-5.088806
-0.592041,0.879395,-0.526855,-120.674126,-91.918938,-62.339779,0.655029,0.648682,-0.507813,-56.846615,86.044304,-3.65448
-0.541504,0.8125,-0.474121,-123.39782,-97.31292,-65.437317,0.642334,0.634277,-0.51416,-62.812801,88.714592,-3.135681
-0.495117,0.754883,-0.449219,-120.048515,-97.419731,-64.125061,0.643555,0.61377,-0.50708,-66.78009,91.102592,-1.724243
-0.452148,0.729248,-0.4729,-116.294853,-93.231194,-58.776852,0.639893,0.568604,-0.495361,-67.123413,92.384331,1.602173
-0.414307,0.733887,-0.535889,-114.997856,-89.981071,-52.642818,0.661133,0.553711,-0.481934,-64.704895,93.032829,4.79126
-0.388916,0.741943,-0.590576,-118.469231,-88.081352,-49.690243,0.664795,0.558105,-0.483398,-63.888546,94.627373,7.17163
-0.381104,0.719727,-0.63501,-124.542229,-88.439934,-48.934933,0.654053,0.566895,-0.498535,-66.413879,98.869316,7.5531
-0.753418,0.825195,-0.546387,-70.739746,-33.172607,-46.546932,0.641113,0.552979,-0.513428,-69.061279,104.553215,7.965087
-0.304443,0.564697,-0.723389,-120.216362,-97.953789,-35.820007,0.601318,0.538818,-0.551758,-71.014404,109.90905,10.520934
-0.121338,0.385498,-0.842285,-97.549431,-91.148369,-38.208008,0.526123,0.48877,-0.638184,-73.204041,117.431633,18.096924
-0.064941,0.325195,-0.848389,-79.925537,-74.539185,-36.941528,0.092529,0.14502,-0.979004,-11.764525,-36.743164,-44.166561
-0.074951,0.310059,-0.895996,-66.375732,-59.066769,-30.731199,0.064697,0.162109,-0.895264,-28.488157,-58.952328,-30.71594
-0.089355,0.322754,-0.949463,-54.367062,-55.52673,-25.794981,0.05249,0.239746,-0.773438,-39.520264,-82.099907,-12.252807
-0.057861,0.337158,-0.994629,-47.20306,-58.944698,-19.218445,0.812744,0.067871,-0.522461,-52.261349,38.024902,-6.79779
-0.037598,0.32959,-1.031982,-43.785091,-59.082027,-5.805969,0.851807,0.078125,-0.510498,-45.906063,45.860287,-1.502991
-0.052002,0.269287,-1.028076,-33.004761,-54.115292,8.056641,0.86499,0.188721,-0.493896,-46.241756,50.292965,-1.770019
-0.062256,0.166748,-0.935791,-6.370544,-46.943661,19.592285,0.929199,0.376709,-0.48999,-63.507076,49.369808,-8.453369
-0.12085,0.105957,-0.838135,28.366087,-34.40094,30.128477,1.014893,0.51709,-0.44043,-97.236626,50.468441,-19.729614
-0.249756,0.189453,-0.9104,49.011227,-31.669615,45.166012,1.049072,0.43042,-0.277832,-122.558586,72.19696,-34.057617
-0.225098,0.470215,-0.802002,-110.671989,-99.235527,-34.255981,1.033203,0.112305,-0.115967,-111.862175,121.826164,-36.422729
-0.753418,0.820801,-0.482178,-68.313599,-22.28546,-50.300594,0.925781,-0.210205,-0.126465,-65.307617,182.472214,1.121521
-0.764648,0.774414,-0.317139,5.40924,-0.961304,0.305176,0.82959,-0.226563,-0.34375,-25.917051,220.985397,77.201843
-0.862549,0.9104,-0.399658,-76.522827,-16.548157,-59.150692,0.859863,0.23291,-0.673096,-45.906063,199.272141,108.459465
-0.745361,0.77124,-0.286621,1.106262,-6.370544,-6.462097,0.784912,0.127686,-0.532715,-58.334347,26.93939,-12.7182
-0.710449,0.771729,-0.264648,-2.090454,-7.034301,-8.18634,0.880859,0.818115,-0.964355,-141.311646,134.292603,9.552002
-0.699707,0.770508,-0.27002,-6.202697,-7.972717,-8.918762,0.625244,-0.325684,-0.733643,-206.222519,178.878769,-133.110046
-0.687256,0.765381,-0.280273,-10.0708,-9.017944,-10.131835,0.500977,-0.314697,-0.759766,-134.773254,230.392441,-54.283138
-0.671387,0.744873,-0.30249,-12.138366,-8.605957,-12.702941,0.407959,0.027832,-0.858887,-124.938957,246.192917,-50.315853
-0.655518,0.714355,-0.30542,-10.658263,-5.973815,-14.343261,0.265625,-0.016846,-0.883789,-118.438713,247.764572,-55.763241
-0.81665,0.849365,-0.427002,-72.113037,-18.974304,-55.892941,0.120605,-0.079834,-0.965576,-104.385368,239.074692,-62.316891
-0.629639,0.689941,-0.313965,1.701355,5.653381,-14.717101,-0.113037,-0.158691,-1.066895,-83.160393,226.417526,-58.990475
-0.633545,0.720215,-0.310791,7.400512,12.405395,-17.547607,-0.311035,-0.205811,-1.19043,-57.617184,218.749985,-36.003113
-0.678467,0.775146,-0.290039,9.483337,16.609192,-20.065308,-0.278809,-0.18457,-1.265625,-38.963318,227.081284,-11.665343
-0.703125,0.850098,-0.272949,4.165649,15.823363,-22.720335,-0.192871,-0.144531,-1.243164,-35.324097,244.667038,1.792908
-0.643311,0.689941,-0.302979,-5.149841,-0.915527,-13.809203,-0.611084,0.199219,-1.20166,-57.357784,192.237839,-14.73236
-0.593262,0.912354,-0.27832,-12.130736,19.760132,-26.44348,0.81665,0.565674,-0.957764,-230.689987,122.352592,-126.495354
-0.540039,0.860107,-0.263916,-10.742187,34.866333,-28.610228,0.820068,0.198242,-0.57666,-59.562679,15.426635,-15.647887
-0.546143,0.808838,-0.261475,-4.03595,52.955624,-30.609129,-1.194336,0.668701,-1.309326,-153.289795,-3.234863,-92.422478
-0.617432,0.81665,-0.289307,-2.510071,63.522335,-32.623291,0.803467,0.292236,-0.666016,-50.292965,-0.579834,-9.513855
-0.701904,0.873047,-0.33667,-9.735107,61.370846,-36.819458,0.106201,0.307617,-0.680664,-44.960018,-102.813713,-12.397765
-0.781494,0.924072,-0.338135,-17.211914,52.665707,-40.550228,0.202393,0.30127,-0.615234,-49.789425,-125.366203,-37.597656
-0.835693,0.97998,-0.336914,-28.778074,41.648861,-46.012875,0.246338,0.260986,-0.542725,-41.061398,-138.946533,-53.489681
-0.867432,1.012451,-0.338867,-43.54858,27.359007,-50.270077,0.23999,0.244629,-0.517334,-12.039184,-137.481689,-50.743099
-0.886475,1.019287,-0.345215,-60.111996,9.536743,-53.924557,0.188721,0.219727,-0.609375,14.091491,-133.102417,-37.132263
-0.879639,0.981201,-0.361328,-73.127747,-7.164001,-57.723995,0.135986,0.177002,-0.721924,21.453856,-137.504578,-21.499632
-0.65625,0.908691,-0.281738,-5.53894,14.152526,-25.207518,0.836914,0.244873,-0.638184,-54.710384,6.408691,-13.549804
1.093506,-0.58667,-0.660889,-58.944698,-24.230955,6.713867,0.332764,0.087158,-0.787842,3.52478,-166.038498,-22.979734
1.151611,-0.58667,-0.639404,-63.186642,-45.463558,5.981445,0.55835,0.085693,-0.779297,4.379272,-157.531738,-32.203674
1.207764,-0.558105,-0.631104,-76.812744,-72.731018,0.320435,0.695313,0.190918,-0.759277,8.132935,-128.334045,-38.467407
1.183594,-0.466797,-0.650635,-96.05407,-103.73687,-2.960205,0.67749,0.348389,-0.769775,3.097534,-93.391411,-40.542599
0.465088,-0.134521,-0.739746,-108.032219,-249.992355,-19.096375,0.175293,0.13208,-0.77832,13.107299,-153.762817,-15.899657
0.96582,-0.155029,-0.723633,-116.577141,-173.461899,-1.930237,0.508545,0.456299,-0.811523,-11.817931,-59.112545,-26.351927
0.777832,-0.080078,-0.75708,-111.129753,-208.831772,-4.486084,0.506592,0.415771,-0.800781,-7.080078,-62.171932,-18.737793
0.61084,-0.089844,-0.745361,-105.827324,-240.394577,-11.032104,0.548828,0.372314,-0.760986,-0.579834,-74.356079,-15.571593
1.093262,-0.303467,-0.685303,-111.968987,-137.176514,-2.27356,0.616211,0.370361,-0.699219,-1.068115,-88.836662,-16.120911
1.030762,-0.584717,-0.69458,-63.179012,-12.802123,3.013611,0.690674,0.408691,-0.645752,-9.185791,-96.42791,-16.899109
0.661133,-0.608643,-0.520996,-11.001586,-46.546932,-18.2724,0.780518,0.448242,-0.588379,-19.699097,-91.674797,-16.159058
0.794922,-0.649902,-0.633545,-57.403561,-34.950256,-2.494812,0.869141,0.473633,-0.587158,-31.234739,-74.401855,-14.442443
0.705078,-0.620605,-0.6604,-45.669552,-54.000851,-5.393981,0.871338,0.469238,-0.647461,-43.083187,-49.491879,-11.604308
0.666992,-0.560303,-0.646729,-37.513733,-60.997005,-13.565063,0.82666,0.419189,-0.676025,-49.797054,-26.222227,-8.392334
0.654053,-0.507813,-0.617188,-33.27179,-62.683102,-21.728514,0.800049,0.351318,-0.679199,-50.178524,-10.437011,-7.446289
0.584961,-0.484619,-0.572266,-31.898497,-65.765381,-26.260374,0.57666,0.448242,-0.809326,-7.469177,-68.138123,-35.346985
0.512207,-0.497314,-0.537598,-31.524656,-72.036743,-28.930662,0.057373,-0.06958,-0.839844,88.645927,-88.813774,4.135132
0.507813,-0.512939,-0.525391,-31.410215,-74.798584,-30.960081,0.039795,-0.06665,-0.865723,88.905327,-91.491692,4.737854
0.538574,-0.530273,-0.53418,-31.265257,-69.541931,-32.752991,0.026123,-0.081543,-0.897949,90.332024,-91.155998,4.142761
0.579102,-0.568359,-0.531982,-26.771544,-59.852596,-33.607483,0.005859,-0.106201,-0.926025,94.268791,-89.485161,3.463745
0.61499,-0.605225,-0.532715,-17.730713,-51.956173,-28.182981,-0.119385,-0.253418,-0.899414,103.958122,-96.481316,18.966675
0.360107,-0.150146,-0.732178,-113.754265,-249.992355,-26.512144,-0.060547,-0.178467,-0.919434,103.652946,-91.545097,8.125305
0.923584,-0.611084,-0.664063,-65.460205,-16.578674,-0.480652,-0.087158,-0.217285,-0.914551,105.934135,-94.192497,11.802672
0.229736,-0.210205,-0.678955,-119.903557,-249.755844,-31.616209,-0.104492,-0.241455,-0.900635,105.895988,-96.275322,15.624999
-0.503906,0.150879,-0.973145,-16.029358,-41.709896,-31.791685,-0.025391,-0.136719,-0.930664,99.288933,-89.416496,4.821777
0.067627,-0.164307,-0.725098,-140.174866,-249.992355,-48.301693,0.074219,-0.074951,-0.835449,89.042656,-83.747856,2.334595
0.734375,-0.59375,-0.466553,-9.681702,-37.574768,-11.528014,0.203125,0.159912,-0.726318,114.715569,-91.934196,-17.570496
0.226318,0.208496,-0.914307,-44.502254,73.554993,28.121946,0.070557,-0.087646,-0.857666,93.727104,-76.179504,-3.036499
0.223877,0.146484,-0.929199,-55.999752,84.747307,27.183531,0.051758,-0.087891,-0.880371,94.749443,-75.958252,-4.03595
0.224609,-0.022217,-0.955078,-45.379635,87.738029,18.341064,0.029785,-0.082275,-0.879883,94.192497,-77.468872,-3.829956
0.131348,-0.13623,-1.006836,-16.807556,86.372368,10.82611,0.010254,-0.079834,-0.859131,93.589775,-79.475403,-2.441406
-0.016846,-0.11792,-1.060791,8.872986,82.717888,6.904602,0.004883,-0.074219,-0.832031,93.994133,-81.237785,-0.320435
-0.172607,-0.05249,-1.058105,22.758482,73.661804,4.638672,0.019531,-0.056885,-0.807373,95.474236,-83.747856,1.060486
-0.280273,0.046875,-1.043945,23.696898,61.94305,4.425049,0.057617,-0.022461,-0.778076,98.258965,-87.493889,1.800537
-0.330322,0.126221,-1.033203,16.357422,49.461361,2.487183,0.109863,0.014893,-0.762207,102.844231,-91.049187,0.717163
-0.351318,0.163818,-1.050293,8.041382,37.246704,-0.724792,0.164063,0.054443,-0.751221,108.253471,-92.14782,-3.173828
0.14502,-0.210205,-0.70459,-133.43811,-249.992355,-39.69574,0.194092,0.10498,-0.744629,112.632744,-91.934196,-9.490967
-0.354736,0.168945,-1.067627,1.708984,23.780821,-4.142761,-0.142578,-0.27002,-0.915527,102.966301,-95.436089,22.224424
-0.469727,0.12207,-1.020508,-3.494262,-15.815734,-22.499083,0.081543,-0.080566,-0.837891,91.117851,-78.781128,-0.534058
-0.520508,0.169434,-0.913574,-34.538269,-71.746826,-37.559509,-0.176025,-0.301758,-0.924561,103.683464,-94.924919,24.192808
-0.47998,0.193604,-0.838623,-59.799191,-105.911247,-38.772583,-0.548584,-0.72583,-1.252441,15.838622,-23.15521,2.197266
-0.442871,0.193115,-0.774658,-85.3424,-138.519287,-35.926819,-0.221924,-0.358398,-0.957275,100.46386,-98.869316,20.217894
-0.444824,0.147461,-0.742432,-104.133598,-169.876083,-34.454346,0.199951,0.19458,-0.712646,114.326469,-93.1549,-27.282713
-0.445557,0.065918,-0.727051,-116.546623,-208.541855,-36.857605,-0.582764,-0.567139,-0.667969,38.261414,-88.935844,11.810302
-0.378418,-0.005859,-0.742432,-127.738945,-243.537888,-44.776913,-0.522217,-0.539307,-0.640381,30.677794,-89.981071,14.976501
-0.256348,-0.07251,-0.744385,-132.263184,-249.992355,-52.261349,-0.485352,-0.515137,-0.60376,25.68054,-90.064995,17.303467
-0.182129,-0.11377,-0.732422,-134.635925,-249.992355,-53.306576,-0.457764,-0.510742,-0.573975,25.0473,-89.332573,19.874573
-0.057373,-0.130859,-0.721191,-138.931274,-249.992355,-52.444454,-0.435791,-0.51001,-0.567627,27.053831,-86.318962,21.049498
-0.406494,0.13623,-1.058105,0.534058,6.240844,-11.253356,-0.421387,-0.504883,-0.563232,30.029295,-81.657402,18.356323
0.281006,0.125488,-0.901611,-24.67346,56.449886,25.398252,-0.407715,-0.508545,-0.577393,34.118652,-76.454163,12.275695
0.820801,-0.584717,-0.410645,-9.628296,-22.102354,-8.987427,-0.402832,-0.521973,-0.621826,37.132263,-69.862366,5.851745
0.915527,-0.69043,-0.32251,1.907349,25.154112,3.059387,-0.408203,-0.539551,-0.709717,35.331726,-58.967587,3.944397
1.055908,-0.388916,-0.988281,95.382683,-1.609802,-3.135681,-0.200684,-0.334229,-0.940674,103.523247,-95.855705,22.895811
0.977295,-0.233643,-0.887207,107.955925,4.173279,12.916564,-0.434082,-0.551025,-0.843994,30.540464,-46.737667,5.043029
0.911621,-0.068359,-0.837158,114.158623,20.431517,29.243467,-0.509277,-0.641357,-1.171875,15.769958,-26.458738,2.540588
0.940918,0.016846,-0.809814,113.891594,48.599239,40.153503,-0.592041,-0.792725,-1.243896,24.116514,-31.295774,3.417969
0.975342,0.025391,-0.789307,112.80822,82.633965,50.2243,-0.572021,-0.825684,-1.210693,35.27832,-47.988888,5.889892
0.914795,0.01709,-0.780762,109.642021,110.473625,60.592648,-0.445068,-0.783936,-1.180908,47.546383,-68.901062,6.256103
0.750732,0.008789,-0.767822,103.889458,124.290459,65.132141,-0.275146,-0.65332,-1.13916,59.036251,-86.372368,3.356933
0.611328,0.012207,-0.74292,99.166862,125.40435,67.604065,-0.176514,-0.504883,-1.107422,66.940308,-97.885124,1.525879
0.521484,0.041748,-0.729004,94.360344,120.36895,71.44928,-0.171875,-0.404541,-1.071289,72.58606,-104.774467,3.471374
0.468506,0.079102,-0.721924,79.627991,114.578239,65.90271,-0.200684,-0.363525,-1.03418,79.521179,-107.77282,7.591247
1.094727,-0.524658,-1.068359,87.959282,4.379272,-2.494812,-0.237305,-0.359619,-1.002686,87.631218,-107.284538,12.512206
0.484131,0.05249,-0.737549,78.804016,117.393486,54.977413,-0.24707,-0.367188,-0.978516,95.031731,-103.507988,17.333984
0.375,0.073242,-0.778076,81.420891,114.166252,39.497375,-0.471191,-0.575439,-1.016113,23.727415,-36.514282,3.738403
0.263672,0.119629,-0.787842,79.330444,105.453484,38.978577,0.192139,0.186035,-0.702148,113.471977,-96.252434,-36.735535
0.198975,0.156006,-0.7771,76.339722,94.551079,38.978577,0.207275,0.164795,-0.692139,111.381523,-106.0028,-47.58453
0.187988,0.187256,-0.758301,74.09668,84.724419,37.841797,0.189941,0.176758,-0.698486,111.900322,-101.379387,-44.174191
0.196045,0.208252,-0.750244,71.922302,77.224731,35.430908,0.750244,0.673828,-0.30542,72.097778,-59.333797,7.385253
0.214111,0.213379,-0.739746,70.724487,73.478699,33.050537,0.692383,0.686035,-0.304443,71.327209,-60.386654,6.980896
0.239258,0.219482,-0.722412,70.632935,72.998047,31.394957,0.647949,0.693115,-0.302246,69.999695,-64.308167,9.368896
0.266357,0.236084,-0.718994,69.923401,74.645996,31.143187,0.638916,0.709229,-0.286865,66.986084,-66.436768,12.96234
0.285156,0.253174,-0.738037,67.329407,77.659607,31.829832,0.673828,0.723633,-0.26123,61.378475,-63.262936,13.702392
0.885254,-0.622559,-0.353271,-6.820678,-0.205994,-4.684448,0.710205,0.712891,-0.234619,53.390499,-57.014462,11.95526
0.456055,0.039795,-0.763184,81.077568,118.186943,44.349667,0.723389,0.690918,-0.216797,43.853756,-50.453182,9.460449
1.135498,-0.620605,-1.097656,78.338623,15.579223,21.713255,0.729004,0.679932,-0.202881,35.079956,-44.05975,6.690979
0.467529,0.076904,-0.72583,86.006157,115.165703,71.723938,0.736084,0.68457,-0.172119,28.587339,-38.154602,3.387451
1.062744,-0.511963,-0.865967,21.598814,7.102966,39.245605,0.699463,0.686035,-0.135742,19.294739,-30.372618,0.50354
1.127197,-0.615234,-1.0,52.635189,15.998839,40.64941,0.768799,0.661377,-0.329834,73.028564,-62.614437,11.405944
0.978027,-0.75293,-0.349365,28.648375,80.54351,25.466917,0.690918,0.675049,-0.123047,14.045714,-27.976988,-0.259399
0.962158,-0.733154,-0.38501,37.246704,105.75103,38.94043,0.680176,0.642578,-0.109863,5.783081,-19.218445,-2.113342
0.982178,-0.724365,-0.42627,44.090267,125.595085,46.638485,0.676514,0.640869,-0.104736,2.830505,-14.366149,-3.311157
0.931641,-0.770264,-0.437012,54.000851,142.738342,50.041195,0.678955,0.640381,-0.11084,-0.244141,-10.131835,-5.371093
0.856934,-0.824951,-0.476074,66.337585,153.388977,52.291866,0.682373,0.648682,-0.115723,-2.426147,-5.737304,-8.285522
0.764648,-0.857666,-0.527344,81.153862,156.333923,55.854794,0.686523,0.660889,-0.119385,-5.622863,-1.289368,-11.482238
0.643066,-0.850098,-0.590576,99.159233,150.07019,49.583431,0.692139,0.675049,-0.123779,-10.520934,3.128052,-13.999938
0.576904,-0.764893,-0.661377,113.250725,134.132385,38.116455,0.702148,0.674561,-0.119385,-14.343261,7.057189,-15.678405
0.511475,-0.643799,-0.675781,119.186394,111.434929,31.135557,0.722412,0.666016,-0.10498,-16.63208,10.94818,-16.967773
0.391602,-0.525635,-0.612549,119.903557,82.038872,29.769896,0.737549,0.646973,-0.090088,-18.203735,17.501831,-17.883301
0.955811,-0.740234,-0.326904,15.060424,52.795406,12.550353,0.749512,0.61084,-0.09668,-16.418457,26.199339,-17.593384
0.247559,-0.337158,-0.446533,114.44854,12.481688,29.914854,0.688477,0.653076,-0.113037,9.361267,-24.04022,-1.464844
0.279785,-0.427002,-0.514404,117.958061,47.08099,29.914854,0.775879,0.647461,-0.375244,75.187683,-69.05365,17.112732
0.862305,-0.222412,-0.584717,-2.349854,-32.417297,24.276731,0.723877,0.689209,-0.151611,23.727415,-33.317566,0.991821
0.756348,-0.162842,-0.500244,2.426147,-49.797054,16.151428,0.732666,0.634521,-0.419922,76.599121,-78.50647,20.973204
0.652832,-0.119385,-0.487305,11.695861,-62.316891,14.343261,0.764404,0.629639,-0.416748,76.644897,-74.691772,21.675108
0.545654,-0.075195,-0.455322,28.480528,-68.649292,21.362303,0.245361,0.131104,-0.702881,115.684502,-109.741203,-24.108885
0.969482,-0.349854,-0.75708,0.930786,-10.612487,31.22711,0.261719,0.133789,-0.699463,119.064323,-110.183708,-3.02124
0.391602,-0.07959,-0.429688,72.32666,-55.885311,30.960081,0.292725,0.196045,-0.706055,121.551506,-112.022392,8.758545
0.340088,-0.149414,-0.429688,92.185966,-40.023804,32.722473,0.327393,0.262695,-0.716553,121.963493,-113.853447,8.026123
0.280762,-0.243896,-0.424072,106.704704,-17.410278,32.112122,0.350098,0.301758,-0.716553,121.276848,-112.396233,5.455017
0.454346,-0.057617,-0.426514,49.858089,-65.910339,27.70233,0.39624,0.331055,-0.7229,121.917717,-108.200066,4.562378
-0.693359,0.67749,-0.260498,-138.076782,-113.990776,-69.793701,0.454346,0.362061,-0.723633,121.734612,-103.157036,4.318237
-1.180908,0.904785,-0.073242,-32.646179,19.165039,-30.532835,0.518066,0.410889,-0.703613,120.803825,-98.480217,2.63977
-1.180176,0.932373,-0.053467,-34.889221,6.912231,-39.31427,0.584961,0.462891,-0.68335,118.888847,-93.002312,-1.251221
-1.143066,0.978271,-0.08374,-41.862484,-6.04248,-51.658627,0.634033,0.519775,-0.667725,113.395683,-85.861198,-6.385803
-1.139404,1.020508,-0.118164,-57.708736,-22.6593,-62.95013,0.234863,0.155029,-0.697266,112.663261,-108.734123,-41.473385
-1.184326,1.021484,-0.12207,-81.466667,-46.722408,-66.612244,0.635254,0.590576,-0.639404,91.438286,-76.080322,-12.229918
-1.179688,0.98584,-0.131592,-104.576103,-76.133728,-68.496704,0.650879,0.570068,-0.662109,102.264397,-79.627991,-10.650634
-1.16333,0.878174,-0.111328,-32.00531,31.684874,-21.995543,0.718994,0.683105,-0.415039,70.228577,-72.875977,8.163452
-1.036621,0.903809,-0.155762,-122.51281,-101.577751,-78.659058,0.750244,0.701416,-0.449951,67.977905,-68.191528,6.500244
-0.851563,0.783691,-0.210693,-132.377625,-113.891594,-81.222527,0.774658,0.688721,-0.486328,70.663452,-67.199707,4.447937
-0.56665,0.587646,-0.287842,-138.305664,-108.299248,-63.659664,0.766357,0.648193,-0.516113,75.973511,-69.023132,2.838135
-0.450439,0.563721,-0.539551,-125.297539,-46.379086,-12.756347,0.716064,0.660889,-0.420166,73.257446,-77.209473,15.060424
-0.407715,0.506104,-0.408691,-125.862114,-84.213249,-48.477169,0.672119,0.568604,-0.565186,81.794731,-73.646545,-5.020141
-0.397461,0.513184,-0.471191,-121.414177,-68.145752,-32.676697,0.634033,0.561035,-0.5896,82.351677,-75.080872,-10.551452
-0.424561,0.540039,-0.518555,-121.269218,-55.160519,-20.431517,0.624268,0.575195,-0.609619,85.037224,-75.469971,-12.550353
-0.462402,0.560547,-0.525146,-126.998894,-43.037411,-7.4234,0.728027,0.60376,-0.544922,80.329887,-71.464539,0.434875
-0.488281,0.540283,-0.526855,-123.870842,-42.930599,-5.424499,-0.027588,0.028564,-0.929932,-29.136656,19.15741,17.372131
-0.526367,0.526611,-0.533691,-117.156975,-42.121883,-5.66101,0.018311,0.103027,-0.915771,-50.277706,46.31805,6.004333
-0.537354,0.525635,-0.550781,-110.847466,-38.864136,-6.744384,0.025146,0.09375,-0.930664,-50.743099,45.494076,9.788513
-0.556641,0.536133,-0.574219,-105.087273,-35.705566,-8.369446,0.03833,0.082764,-0.933594,-50.85754,43.586727,14.648437
-0.607422,0.557373,-0.599854,-101.127617,-36.445618,-10.81848,0.038818,0.067139,-0.934326,-48.21777,39.726257,18.440247
-1.137695,0.861816,-0.144531,-32.142639,45.181271,-13.084411,0.036865,0.047119,-0.918213,-43.914791,34.919739,18.730164
-0.466064,0.524902,-0.344238,-132.202148,-99.273674,-60.150143,0.032227,0.024414,-0.900635,-38.459778,31.089781,16.51001
-1.086182,0.854248,-0.191162,-29.777525,60.043331,-0.541687,0.01123,0.118164,-0.904053,-51.36108,47.851559,5.149841
-0.648438,0.572266,-0.616943,-99.670403,-42.213436,-14.343261,0.020264,0.008545,-0.895264,-32.722473,27.275084,14.48059
-0.868164,0.818359,-0.235352,-8.743286,86.654655,14.47296,-0.008057,0.013672,-0.905273,-28.96118,22.933958,14.625548
-0.745361,0.705811,-0.270508,13.633727,-0.457764,12.435912,-0.012207,0.031006,-0.952637,-31.166075,17.295837,20.713804
-0.752441,0.682129,-0.255127,15.411376,0.732422,11.230468,0.090088,0.025146,-1.0271,5.561828,21.087645,9.971619
-0.772949,0.680908,-0.245117,17.715454,-0.099182,10.726928,0.067871,-0.044678,-0.969971,-21.980284,20.698545,21.026609
-0.772705,0.709961,-0.241211,16.670227,-1.00708,10.437011,0.09375,-0.0625,-0.98877,-10.375976,24.200438,20.103453
-0.744629,0.746826,-0.231689,12.260436,0.152588,8.621216,0.115479,-0.029053,-1.010498,0.053406,24.177549,15.785216
-0.720703,0.767822,-0.226563,8.43811,2.792358,6.011962,0.046143,0.085693,-1.023682,5.844116,20.317076,5.622863
-0.708496,0.774902,-0.219727,6.431579,6.637573,3.135681,0.039551,0.145508,-1.02417,4.058838,23.460386,2.494812
-0.701172,0.775879,-0.211914,5.28717,12.023925,-0.63324,0.05835,0.177734,-1.039307,0.076294,29.380796,0.160217
-0.723877,0.774658,-0.218994,4.28009,17.25769,-5.073547,0.074463,0.184814,-1.068604,-5.294799,38.917542,-0.976562
-0.7771,0.778809,-0.234619,1.487732,18.623352,-10.177611,0.084961,0.175049,-1.101807,-11.650084,48.095699,-2.799988
-0.980225,0.849365,-0.223633,-21.720884,75.820923,11.001586,0.065918,0.182617,-1.097656,-20.622252,53.970333,-6.103515
-0.842529,0.770508,-0.240967,-2.494812,15.022277,-15.205382,0.01709,0.143066,-0.917236,-52.413937,52.360531,5.744934
-0.892578,0.753174,-0.23291,-10.002136,-1.64032,-20.347593,0.030518,0.005371,-0.958008,-29.525755,17.501831,21.759031
-0.82251,0.753662,-0.22168,-14.076232,-6.41632,-19.439697,0.04126,0.167725,-0.929932,-53.291317,59.364315,6.698608
-0.721924,0.757568,-0.217529,-19.081116,-6.690979,-17.524719,-0.056641,0.187012,-1.004639,-43.388363,59.318539,-6.713867
-0.585449,0.73584,-0.209229,-19.714355,-0.419617,-16.952515,0.12207,0.206055,-0.901855,-56.510921,72.570801,9.300232
-0.470703,0.709473,-0.199707,-16.036987,16.891479,-15.411376,-0.004639,0.200684,-1.060303,-31.326292,57.243343,-7.476806
-0.444336,0.691895,-0.218262,-10.734557,36.964417,-14.945983,0.412842,0.369873,-0.694336,-56.65588,71.868896,-1.953125
-0.503174,0.685791,-0.229492,-4.882813,52.421566,-14.778136,0.408691,0.371094,-0.715088,-57.319637,72.105408,-0.068665
-0.599365,0.690674,-0.229736,1.586914,65.422058,-8.651733,0.399658,0.376709,-0.735352,-58.311459,71.94519,0.259399
-0.669434,0.7146,-0.238525,5.378723,78.903198,0.75531,0.383057,0.362305,-0.741211,-58.372494,71.57135,0.12207
-0.753906,0.764893,-0.242676,1.815796,88.027946,8.468628,0.366455,0.328857,-0.750732,-56.419369,70.4422,0.030518
-0.89502,0.759277,-0.242432,-6.469726,6.828308,-18.463135,0.360352,0.307373,-0.763916,-53.443905,69.953918,0.488281
-0.767334,0.73584,-0.281494,12.786864,-2.128601,13.664245,0.356689,0.305176,-0.787354,-51.918026,70.472717,0.915527
-0.655029,0.558105,-0.606201,-97.526543,-49.354549,-19.454956,0.345215,0.299805,-0.816406,-51.986691,72.105408,1.243591
-0.549316,0.475586,-0.55835,-76.126099,-50.6134,-28.945921,0.32666,0.282471,-0.835205,-51.643368,73.0896,1.907349
-0.198242,0.403564,-0.873535,-68.450928,-61.56921,-7.781982,0.307861,0.271484,-0.851563,-50.941463,72.631836,2.944946
-0.179199,0.407715,-0.89624,-76.683044,-59.921261,-7.67517,0.291016,0.279297,-0.863037,-51.139828,72.158813,4.089355
-0.162598,0.354492,-0.9104,-81.008904,-60.089108,-6.912231,0.287109,0.288086,-0.85498,-52.581783,72.639465,4.806519
-0.1521,0.273926,-0.920166,-80.223083,-62.370296,-5.752563,0.29126,0.29126,-0.853027,-54.618832,73.883057,4.585266
-0.157715,0.203857,-0.909424,-75.500488,-66.810608,-3.425598,0.294678,0.290771,-0.860596,-56.320187,76.004028,3.90625
-0.175293,0.179199,-0.872559,-69.953918,-73.135376,-0.778198,0.293945,0.276611,-0.857666,-55.938717,77.156067,3.700256
-0.176025,0.208984,-0.861084,-69.152832,-78.536987,-0.75531,0.281006,0.259521,-0.876465,-53.0014,76.965332,4.272461
-0.148193,0.256104,-0.872559,-75.09613,-80.688469,-2.731323,0.245117,0.244141,-0.909912,-51.23138,75.958252,5.607605
-0.104248,0.261475,-0.896484,-85.052483,-79.917908,-3.578186,0.207275,0.228271,-0.912354,-50.73547,73.776245,7.598876
-0.062744,0.189209,-0.921143,-91.926567,-77.682495,-3.814697,0.178467,0.213135,-0.892578,-50.781246,72.280884,9.567261
-0.214844,0.361084,-0.875732,-61.164852,-63.598629,-6.942749,0.162842,0.207275,-0.879883,-52.192684,72.685242,10.925292
-0.03125,0.054932,-0.936035,-88.531487,-75.576782,-7.064819,0.155029,0.212891,-0.880127,-54.351803,74.180603,11.268615
0.01001,-0.091064,-0.92334,-59.242245,-73.036194,-14.282226,0.144287,0.214355,-0.891846,-56.419369,75.065613,10.742187
0.016602,-0.028809,-0.914063,-50.132748,-72.967529,-11.756896,0.082275,0.188965,-0.924316,-54.862972,66.848755,7.881164
0.022705,0.086182,-0.89917,-51.414486,-73.806763,-6.942749,0.414307,0.387695,-0.672852,-56.076046,70.930481,-4.829407
0.05542,0.176758,-0.88208,-61.126705,-73.631287,-1.304626,-0.02124,-0.05835,-0.978516,-157.585144,96.839897,-11.466979
0.13208,0.187988,-0.888916,-72.494507,-68.412781,4.165649,-0.129639,0.131836,-0.916992,-67.237854,58.944698,3.723144
0.237305,0.097168,-0.88623,-76.728821,-55.610653,6.988525,-0.563721,-0.458252,-0.782715,-39.031982,72.067261,-11.444091
0.335449,-0.05127,-0.878662,-66.619873,-34.713745,8.354187,-0.575684,-0.408691,-0.74292,-41.587826,65.116882,-10.261535
0.386963,-0.168701,-0.883545,-43.80035,-9.689331,12.222289,-0.576904,-0.348877,-0.705078,-44.960018,57.258602,-11.047362
0.392578,-0.158447,-0.891602,-21.65222,14.663695,18.005371,-0.574707,-0.322998,-0.698486,-45.967098,51.254269,-14.808654
0.355225,-0.033447,-0.887451,-13.85498,36.514282,22.186277,-0.580811,-0.324951,-0.723145,-45.280453,47.386166,-17.601013
-0.007568,-0.062988,-0.93335,-74.783325,-73.936462,-12.184142,-0.609619,-0.352783,-0.704102,-42.8009,40.115356,-15.930175
-0.22998,0.304443,-0.894043,-58.387753,-64.468384,-6.278991,-0.655029,-0.406982,-0.669678,-36.987305,27.458189,-11.993407
-0.61499,0.513428,-0.572266,-89.981071,-53.398129,-25.711058,-0.682861,-0.449951,-0.636719,-29.991148,13.679503,-8.110046
-0.216309,0.282227,-0.890137,-67.993164,-60.379025,-7.980346,-0.703125,-0.474365,-0.613037,-22.964476,1.678467,-3.746032
-0.497803,0.470703,-0.585449,-60.127254,-43.487545,-26.985167,-0.099121,0.160889,-0.949951,-54.817196,59.30328,-2.27356
-0.495605,0.499268,-0.621826,-46.638485,-38.68866,-23.384092,-0.540771,-0.48291,-0.81958,-37.704468,78.033447,-11.695861
-0.522217,0.556885,-0.666016,-42.991634,-40.603634,-21.209715,-0.728027,-0.513428,-0.586914,-12.290954,-12.344359,5.096435
-0.552246,0.610596,-0.687012,-49.942013,-48.706051,-20.553587,-0.746582,-0.532227,-0.571533,-1.266479,-21.430967,10.864257
-0.566406,0.62085,-0.68335,-60.203548,-58.975216,-19.889832,-0.765137,-0.574219,-0.580811,7.026672,-25.68054,14.930724
-0.557861,0.584717,-0.675537,-66.513062,-68.069458,-18.203735,-0.779053,-0.618652,-0.61377,15.647887,-31.288145,21.003721
-0.228271,0.266357,-0.892822,-61.172482,-63.20953,-6.462097,-0.794678,-0.631836,-0.638184,23.15521,-37.322998,23.41461
-0.481689,0.478027,-0.663818,-65.757751,-76.438904,-21.530149,-0.809814,-0.629883,-0.665283,28.900145,-43.945309,21.682737
-0.459229,0.448975,-0.655029,-60.600277,-77.545166,-23.300169,-0.788086,-0.63501,-0.708252,33.561707,-51.673885,16.166687
-0.437256,0.45459,-0.664307,-58.54034,-77.74353,-22.743223,-0.751953,-0.647949,-0.749268,39.031982,-59.028622,8.773804
-0.402344,0.469482,-0.687256,-59.43298,-77.9953,-23.54431,-0.735107,-0.655762,-0.769775,43.495174,-67.367554,4.516602
-0.521484,0.531494,-0.669434,-67.909241,-74.104309,-18.386841,-0.703369,-0.638916,-0.759033,45.867916,-76.728821,4.91333
-0.351563,0.455566,-0.728271,-63.232418,-76.789856,-20.996092,-0.647217,-0.602295,-0.722656,44.319149,-84.419243,8.033752
-0.33252,0.420654,-0.746094,-60.394283,-77.049255,-17.578125,-0.734863,-0.524658,-0.573486,-7.537841,-17.227173,8.590698
-0.316895,0.395508,-0.776123,-56.365963,-75.820923,-15.144347,-0.527832,-0.512939,-0.842285,-37.330627,82.290642,-7.942199
-0.294189,0.395264,-0.789307,-53.070065,-72.33429,-14.060973,-0.718994,-0.493164,-0.599365,-17.028809,-6.629943,0.923157
-0.272217,0.416016,-0.787842,-52.886959,-68.977356,-10.795592,-0.644775,-0.688477,-0.925293,-50.392147,84.609978,0.053406
-0.249756,0.446045,-0.79248,-57.380672,-67.207336,-9.712219,-0.565918,-0.608887,-0.882324,-41.213985,83.69445,-1.289368
-0.231934,0.465576,-0.807861,-63.987728,-65.078735,-11.322021,-0.124268,0.103027,-0.908936,-80.841057,63.850399,6.309509
-0.207764,0.464355,-0.81958,-70.709229,-61.080929,-12.794494,-0.131836,0.067627,-0.919922,-93.002312,71.296692,6.942749
-0.194824,0.425049,-0.83667,-75.286865,-57.884212,-12.123107,-0.143799,0.034912,-0.929932,-100.639336,74.546814,9.605408
-0.20459,0.350586,-0.869141,-74.516296,-57.586666,-10.238647,-0.159912,0.041992,-0.923828,-104.972832,73.738098,14.86206
-0.375488,0.471924,-0.70874,-62.004086,-77.24762,-23.262022,-0.147949,0.113037,-0.92749,-109.809868,75.668335,15.602111
0.146729,0.003418,-0.655029,130.317688,193.389877,69.908142,-0.153076,0.119141,-0.952148,-121.421806,78.62854,12.046813
0.225586,-0.105225,-0.65332,134.69696,214.721664,70.93811,-0.143066,0.067627,-0.967773,-144.996643,84.136955,3.166198
0.31543,-0.181396,-0.639893,127.716057,230.003342,69.747925,-0.094238,0.014404,-0.963379,-151.641846,90.576164,-1.930237
0.412354,-0.199219,-0.630127,111.54174,236.846909,64.071655,-0.044678,-0.022949,-0.970459,-156.677246,95.764153,-7.377624
0.768555,-0.181396,-0.673828,98.892204,171.508774,63.270565,-0.15332,0.091553,-0.96167,-134.109497,81.55822,7.102966
0.644775,-0.144531,-0.651123,80.612175,223.426804,54.916378,-0.698975,-0.662109,-1.004395,-66.390991,91.278069,-9.727478
0.71582,-0.11792,-0.660645,80.215454,207.359299,59.104916,-0.055664,-0.12793,-1.009521,-153.121948,99.983208,-8.049011
0.754395,-0.138672,-0.665771,89.447014,188.682541,63.049313,-0.136963,-0.209229,-1.000244,-149.002075,105.812065,-4.638672
0.53125,-0.182373,-0.634521,92.7658,234.252914,56.068417,-0.213379,-0.338135,-0.985352,-139.091492,112.152092,-1.304626
0.072266,0.109375,-0.664063,117.706291,173.850998,68.382263,-0.252197,-0.467285,-0.966797,-123.908989,116.127007,-1.00708
-0.035156,0.345215,-0.622559,75.401306,122.993462,30.494688,-0.308838,-0.569336,-0.950195,-105.659477,112.159721,-3.089905
0.072998,0.219727,-0.730713,89.927666,155.281067,67.344666,-0.389893,-0.625244,-0.953613,-90.606682,107.13195,-5.241394
0.084961,0.203125,-0.702881,85.71624,150.016785,69.358826,-0.493652,-0.630371,-0.985352,-80.383293,103.393547,-8.392334
0.053711,0.168457,-0.634766,91.178886,143.447876,71.624756,-0.619629,-0.634033,-1.003662,-73.486328,98.510735,-10.307311
-0.003418,0.164551,-0.565674,99.761955,135.704041,70.465088,-0.01416,-0.087402,-0.997803,-155.387878,97.320549,-10.673522
-0.053711,0.201416,-0.51709,103.576653,125.038139,65.299988,-0.705322,-0.691406,-0.985352,-59.852596,86.784355,-5.439758
-0.0896,0.267334,-0.490723,99.891655,116.325371,56.503292,0.766846,0.645996,-0.080322,9.498596,-38.581848,11.672973
-0.109619,0.343506,-0.496582,90.553276,110.366814,47.981258,0.763428,0.641113,-0.074219,11.444091,-40.847775,10.528563
-0.102783,0.402832,-0.532715,79.673767,107.376091,42.060848,0.764404,0.643555,-0.063721,12.733459,-42.495724,8.460999
-0.069824,0.415527,-0.58374,72.883606,109.390251,37.719727,0.766602,0.645508,-0.060791,14.373778,-43.991085,6.912231
-0.041992,0.386719,-0.626953,71.975708,115.524284,33.561707,0.791748,0.6521,-0.151611,28.190611,-56.884762,10.498046
0.741455,-0.215088,-0.697021,100.646965,158.836365,63.606258,0.76416,0.642822,-0.081299,17.456055,-47.981258,7.003784
0.048584,0.186768,-0.703369,101.97448,161.674484,67.451477,0.765137,0.64502,-0.111328,18.951416,-49.430843,7.774353
0.741699,-0.239502,-0.722412,94.001762,149.963379,66.680908,0.780518,0.644287,-0.137939,22.689817,-52.391048,8.789063
0.997559,-0.040527,-0.966553,74.943542,-14.236449,117.210381,0.770996,0.645996,-0.077881,6.011962,-35.209656,11.489867
0.783936,-0.220459,-0.837646,84.045403,129.15802,70.137024,0.766846,0.640869,-0.063477,16.334534,-45.974728,6.278991
-0.058105,0.314209,-0.586914,80.627434,129.745483,29.685972,0.766602,0.637695,-0.063477,3.982544,-32.218933,10.505675
0.883057,-0.765625,-0.455811,43.647762,40.40527,36.53717,0.757568,0.678223,-0.015137,-5.096435,4.493713,1.754761
0.870361,-0.775146,-0.494385,50.033566,40.817257,31.288145,0.729248,0.626465,-0.018555,3.761291,-29.510496,8.399963
0.7854,-0.759277,-0.468506,63.903805,41.847225,26.44348,0.722168,0.629395,-0.012451,4.150391,-28.907774,8.171082
0.664063,-0.700439,-0.382813,80.818169,39.43634,24.581907,0.713867,0.639648,-0.008301,3.639221,-27.832029,8.766174
0.591064,-0.598877,-0.33374,89.591972,27.252195,24.55139,0.721436,0.642578,-0.001709,2.403259,-25.466917,9.727478
0.518799,-0.470215,-0.313232,88.371269,13.008117,23.254393,0.747559,0.642578,0.004883,1.678467,-21.89636,10.06317
0.454102,-0.352783,-0.307129,81.329338,6.446838,26.832579,0.765137,0.648682,0.012451,1.075745,-17.150879,9.780884
0.534912,-0.299805,-0.320557,74.989319,4.714966,39.001465,0.773682,0.661377,0.018311,0.137329,-11.734008,8.537292
0.712891,-0.34082,-0.353516,76.698303,6.843566,51.605221,0.777588,0.66626,0.012451,-1.579285,-6.202697,6.454467
0.759766,-0.238525,-0.772705,85.723869,142.349243,69.389343,0.769531,0.675781,-0.001953,-2.983093,-0.762939,3.639221
0.756104,-0.432373,-0.367676,97.106926,16.746521,60.981747,0.792969,0.664063,-0.149902,36.254883,-61.538692,12.763976
0.751709,-0.218506,-0.515137,120.529167,22.689817,117.462151,0.744629,0.631348,-0.039795,3.555298,-30.34973,9.353638
1.367676,-0.200928,-0.858643,53.443905,-76.339722,84.144585,0.779297,0.670166,-0.148926,44.097897,-65.246582,14.404296
1.403809,-0.315674,-0.691162,56.365963,-55.14526,61.561581,0.743896,0.678467,-0.015869,-7.881164,9.552002,0.183105
1.413818,-0.378174,-0.661377,57.998653,-16.693115,33.546448,0.76001,0.693359,-0.172363,56.312557,-67.634583,18.959045
1.372314,-0.434326,-0.640137,68.649292,23.300169,11.871337,0.669189,0.4375,-0.510254,86.128227,-101.516716,4.508972
1.288086,-0.459473,-0.632813,81.779472,56.213375,9.910583,0.70874,0.457031,-0.510742,83.267204,-89.187614,4.592896
1.134766,-0.414307,-0.67334,86.364738,78.529358,22.575377,0.727295,0.491211,-0.5,79.521179,-76.759338,5.691528
0.967041,-0.331543,-0.743652,85.853569,94.230644,38.368225,0.74292,0.505371,-0.488525,75.294495,-68.832397,7.041931
0.878906,-0.263916,-0.804443,87.455742,104.431145,54.527279,0.760254,0.524414,-0.474609,71.739197,-65.368652,8.94165
0.828613,-0.228027,-0.853027,87.570183,114.387505,66.490173,0.78833,0.543945,-0.452637,66.810608,-61.95068,9.284973
0.709229,-0.422607,-0.427246,124.694817,22.895811,85.517876,0.817627,0.568359,-0.421875,60.890194,-55.885311,7.8125
-0.09668,0.319336,-0.558594,85.105888,134.315491,29.693602,0.824707,0.626709,-0.379639,55.77087,-52.146908,9.994507
-0.13501,0.373291,-0.555908,86.59362,135.787964,29.663084,0.841553,0.683838,-0.336426,50.933834,-54.38232,13.984679
-0.151611,0.45166,-0.564697,83.831779,135.749817,29.571531,0.867676,0.691162,-0.309326,48.927303,-61.416622,16.319275
-0.722168,0.785645,-0.496826,58.79974,62.286373,38.589478,0.773926,0.6875,-0.152832,51.033016,-67.321777,15.624999
-0.746338,0.820801,-0.473389,56.121822,56.701656,40.977474,0.890137,0.674072,-0.319824,50.003048,-68.313599,15.419005
-0.732178,0.848145,-0.437256,50.788876,52.513119,40.122986,0.864502,0.622559,-0.326172,58.280941,-71.990967,12.809752
-0.706543,0.841553,-0.406982,47.492977,53.718563,37.994385,0.833984,0.61499,-0.316406,64.582825,-72.517395,14.442443
-0.670654,0.808105,-0.390869,48.034664,59.921261,37.559509,0.81665,0.623291,-0.287109,71.601868,-73.310852,18.882751
-0.661865,0.765137,-0.381348,50.72784,66.429138,39.44397,0.828125,0.628906,-0.264404,75.836182,-72.624207,23.994444
-0.715576,0.728027,-0.376953,52.726742,68.725586,40.451046,0.849609,0.634033,-0.244629,74.562073,-69.358826,25.42877
-0.783447,0.707764,-0.381348,52.207943,65.490723,39.871216,0.848633,0.625488,-0.220947,72.647095,-66.436768,24.80316
-0.858398,0.708496,-0.392822,50.117489,58.708187,39.512634,0.810059,0.615479,-0.219238,69.633484,-63.941952,24.406431
-0.91748,0.722168,-0.391113,46.57745,50.155636,36.804199,0.768311,0.624023,-0.212891,66.467285,-62.408443,24.612425
-0.685059,0.784912,-0.519287,55.473324,64.76593,34.416199,0.739502,0.645264,-0.203857,63.301083,-63.049313,24.185179
-0.9104,0.738037,-0.351807,42.961117,41.91589,31.707762,0.742188,0.674561,-0.193359,60.081478,-65.765381,22.468565
-0.858887,0.765381,-0.330811,37.231445,28.808592,22.880552,0.883301,0.648926,-0.327881,52.963253,-71.052551,13.359069
-0.831055,0.754639,-0.323242,36.109924,25.001524,20.561216,0.73584,0.677246,-0.015381,-12.130736,14.22119,-1.602173
-0.812256,0.729248,-0.320801,37.704468,22.056578,20.004272,0.602539,0.38501,-0.489746,89.317314,-111.457817,5.691528
-0.810303,0.715088,-0.319092,39.924622,19.622803,20.606993,0.715088,0.642578,0.014648,-14.762877,22.02606,-2.204895
-0.802979,0.712891,-0.30249,41.78619,17.51709,20.614622,0.496826,0.498535,-0.471924,-49.09515,90.995781,10.32257
-0.798584,0.726563,-0.277344,42.839046,16.067505,19.821167,0.526123,0.481201,-0.479492,-49.079891,86.639397,11.543273
-0.800537,0.756104,-0.280518,41.114803,14.747619,19.020081,0.560547,0.499023,-0.488281,-51.322933,83.976738,10.0708
-0.807861,0.789307,-0.281006,35.682678,12.046813,18.280029,0.569824,0.529053,-0.492188,-55.160519,81.840508,6.690979
-0.832031,0.814697,-0.297363,27.244566,6.782531,17.745972,0.574707,0.547119,-0.490234,-58.860775,77.49176,2.197266
-0.84668,0.812744,-0.307617,18.2724,0.984192,16.670227,0.591064,0.554443,-0.488281,-61.027523,71.914673,-1.014709
-0.881592,0.75708,-0.333008,40.000916,34.332275,26.55792,0.59375,0.557861,-0.477295,-60.050961,65.155029,-2.365112
-0.672119,0.825684,-0.546875,50.048824,61.599728,31.005857,0.587891,0.559082,-0.470947,-58.090206,57.640072,-3.387451
-0.81543,0.777344,-0.29541,13.34381,-2.159119,14.961242,0.581787,0.560059,-0.489258,-58.593746,53.039547,-5.706787
-0.718994,0.892822,-0.580322,55.335995,43.945309,26.527403,0.587158,0.559082,-0.522949,-62.19482,52.993771,-9.460449
-0.147705,0.48999,-0.581299,81.886284,137.695313,28.022764,0.484619,0.530518,-0.457031,-49.682613,96.939079,7.865905
-0.140137,0.45166,-0.578369,87.501518,144.271851,24.124144,0.603516,0.548584,-0.536133,-64.964294,55.335995,-13.496398
-0.158447,0.385986,-0.553955,99.754326,152.320862,20.309446,0.571289,0.497314,-0.563232,-59.440609,60.981747,-15.098571
-0.207275,0.352051,-0.546631,110.275261,155.822754,21.408079,0.524658,0.4729,-0.587402,-54.611202,62.797543,-11.337279
-0.290283,0.377441,-0.552734,113.525383,149.688721,26.94702,0.497314,0.464355,-0.608398,-51.48315,65.246582,-7.293701
-0.404297,0.458496,-0.567627,108.367912,131.820679,30.372618,0.498535,0.466064,-0.618164,-50.018307,67.893982,-4.417419
-0.69458,0.880859,-0.576172,49.262997,53.833004,29.090879,0.499268,0.465576,-0.620605,-50.170895,70.037842,-3.158569
-0.509277,0.635254,-0.615234,92.90313,70.388794,20.240782,0.488037,0.463623,-0.62207,-52.352901,71.166992,-4.379272
-0.444336,0.642578,-0.652344,90.263359,46.57745,20.629881,0.481201,0.444336,-0.616455,-54.458614,71.548462,-6.324768
-0.390625,0.591797,-0.61792,84.609978,50.178524,27.19879,0.453857,0.427979,-0.613281,-55.870052,70.976257,-7.637023
-0.42334,0.529541,-0.605713,79.940796,71.037292,36.16333,0.440674,0.413818,-0.618896,-56.015011,70.137024,-8.239746
-0.49585,0.559082,-0.583252,99.357597,103.286736,26.588438,0.424316,0.405762,-0.647217,-55.595394,70.152283,-7.286071
-0.556641,0.541504,-0.572754,80.42144,88.73748,43.037411,0.605225,0.523682,-0.543457,-63.781734,58.525082,-15.914916
-0.605225,0.619629,-0.570557,81.153862,82.138054,40.473934,0.496826,0.542725,-0.425781,-50.125118,103.256218,5.020141
-0.634521,0.728271,-0.562256,77.49176,72.502136,37.17041,0.726807,0.666748,-0.005371,-15.419005,18.424988,-2.075195
-0.650146,0.801514,-0.556152,68.832397,62.477108,31.677244,0.530029,0.562988,-0.360352,-53.38287,114.738457,-1.296997
-0.65625,0.807129,-0.563721,60.630795,53.25317,28.083799,0.698242,0.636719,0.023926,-10.437011,25.703428,-2.449036
-0.663086,0.768311,-0.568604,57.098385,44.387814,26.779173,0.708252,0.632568,0.007568,-6.233215,31.913755,-4.432678
-0.685791,0.733154,-0.542725,60.379025,36.651611,26.634214,0.694824,0.617676,-0.001709,-0.617981,38.635254,-7.522583
-0.709961,0.739014,-0.531494,66.940308,30.96771,25.505064,0.655762,0.637451,-0.029297,1.754761,42.396542,-10.459899
-0.716064,0.792969,-0.545898,68.557739,29.418943,22.415159,0.632324,0.65332,-0.071289,-0.190735,43.647762,-10.44464
-0.718994,0.856689,-0.546387,62.309261,34.339905,23.345945,0.661621,0.618408,-0.08374,3.219604,43.060299,-13.47351
-0.487793,0.507324,-0.593506,78.933716,85.990898,43.022152,0.515625,0.556396,-0.39209,-51.940914,109.474174,1.335144
-0.06958,0.481934,-0.875732,-5.081176,51.879879,24.208067,0.754883,0.604004,-0.089844,11.405944,42.945858,-10.726928
-0.015137,0.544678,-0.85791,-9.147644,38.162231,15.892028,0.813232,0.611328,-0.097412,13.870238,46.592709,-4.768372
-0.045166,0.584229,-0.807373,-23.468016,21.232603,15.792846,0.858398,0.666992,-0.091309,11.230468,52.040096,-0.999451
-0.116943,0.56543,-0.759766,-32.737732,7.698059,21.430967,0.903076,0.72998,-0.064209,3.952026,59.013363,-1.998901
-0.037598,0.364014,-0.79248,0.083923,13.946532,29.96063,0.691406,0.638672,-0.096924,7.408142,42.076107,-15.472411
-0.123291,0.433105,-0.724854,-15.220641,3.974914,32.440186,0.955078,0.791504,0.003906,-9.19342,77.850342,-3.860473
-0.111328,0.372314,-0.789307,-0.953674,10.665893,33.355713,0.933838,0.77002,-0.022705,-3.14331,67.893982,-4.325867
-0.07959,0.343018,-0.8125,5.41687,15.403747,31.845091,0.585205,0.579834,-0.261719,-50.445553,123.51989,-4.997253
-0.145752,0.503662,-0.715332,-28.564451,1.625061,28.320311,0.635254,0.618652,-0.216309,-47.561642,126.953117,-6.271362
-0.18457,0.430908,-0.866699,-13.481139,53.50494,33.760071,0.690674,0.646484,-0.185059,-46.630856,129.600525,-8.232117
-0.161133,0.481689,-0.899902,-49.102779,-34.667969,-1.068115,0.767822,0.643066,-0.161865,-46.279903,127.822868,-12.496947
-0.388428,0.439941,-0.827393,-20.538328,13.946532,24.200438,0.558105,0.559814,-0.316406,-52.74963,119.560234,-3.036499
-0.44458,0.48999,-0.835449,-18.531799,-9.918213,14.801024,0.864502,0.706055,-0.113525,-37.528992,113.43383,-5.752563
-0.4375,0.51001,-0.873535,-25.619505,-27.137754,11.337279,0.942871,0.747559,-0.081787,-30.006407,104.972832,-2.243042
-0.366699,0.472412,-0.907471,-37.918091,-37.940979,11.123656,0.977783,0.788818,-0.03125,-21.476744,96.984856,-0.457764
-0.296143,0.39209,-0.933105,-46.119686,-41.999813,11.337279,0.961914,0.801758,0.008789,-14.556884,88.073723,-1.182556
-0.281494,0.314209,-0.943604,-49.064632,-40.718075,13.031005,0.812256,0.667969,-0.137695,-43.67828,121.772758,-11.20758
-0.305908,0.284424,-0.909424,-48.362728,-38.658142,15.35797,-0.646484,-0.575439,-0.479004,-32.524109,30.487059,19.050598
-0.337646,0.317139,-0.875977,-47.309872,-38.070679,14.015197,-0.630859,-0.559326,-0.521484,-17.303467,22.895811,24.29962
-0.33667,0.402344,-0.89624,-48.751827,-38.711548,7.461547,-0.639648,-0.578613,-0.581055,-5.584716,14.892577,27.420042
-0.258545,0.481201,-0.907471,-50.956722,-37.750244,-0.160217,-0.639648,-0.601074,-0.637695,5.432128,5.783081,28.015135
-0.009277,0.419678,-0.768555,-11.405944,5.493164,28.884886,-0.642334,-0.601563,-0.683594,12.695312,-2.738952,25.947569
-0.29834,0.411133,-0.847656,-21.621702,39.68811,33.416748,-0.652832,-0.603516,-0.712402,16.822815,-10.31494,23.246763
-0.010498,0.484375,-0.740723,-20.423887,-8.460999,28.770445,-0.660156,-0.594727,-0.740479,18.547058,-15.670775,21.476744
-0.140869,0.325684,-0.94165,-3.334045,-27.084349,6.591796,-0.675293,-0.574463,-0.762207,17.333984,-18.966675,20.408628
-0.057373,0.505859,-0.725342,-16.929626,-39.543152,26.93939,-0.692627,-0.560547,-0.770264,15.342711,-22.964476,17.471313
-0.119629,0.424805,-0.928467,-40.016174,-32.478333,3.028869,-0.700684,-0.596436,-0.787842,16.998291,-27.534483,13.282775
-0.134521,0.61499,-0.680176,-89.401237,-88.439934,-42.198177,-0.34082,-0.462646,-0.933594,43.258663,-12.184142,1.586914
-0.080811,0.559814,-0.656006,-90.576164,-81.55822,-38.162231,-0.665039,-0.692871,-0.844971,28.839109,-48.057552,6.752014
-0.083252,0.491943,-0.675293,-87.776176,-73.84491,-36.643982,-0.594238,-0.689453,-0.829834,36.354065,-62.118526,1.068115
-0.130371,0.421631,-0.710449,-86.128227,-67.672729,-33.706665,-0.54541,-0.660889,-0.777588,41.366573,-70.976257,-2.845764
-0.165771,0.369873,-0.731445,-86.143486,-63.262936,-26.664732,-0.528564,-0.626465,-0.721191,42.190548,-77.140808,-4.356384
-0.167236,0.328857,-0.754639,-86.242668,-59.661861,-19.462585,-0.499756,-0.598145,-0.672119,42.320248,-87.921135,-2.14386
-0.133057,0.287354,-0.826904,-84.243767,-53.733822,-17.990112,-0.456299,-0.553223,-0.625732,42.106625,-95.687859,1.800537
-0.044922,0.234131,-0.87085,-72.029114,-42.373653,-21.308897,-0.412354,-0.497803,-0.615479,40.885921,-95.962517,2.349854
0.05127,0.194824,-0.9104,-53.741451,-26.077269,-21.339415,-0.352539,-0.455322,-0.647217,40.252682,-92.048637,2.227783
-0.026123,0.518799,-0.729736,-22.117613,-24.826048,28.320311,-0.283447,-0.45459,-0.714355,41.236874,-76.583862,4.981995
0.096191,0.197754,-0.974365,-35.362244,-13.633727,-18.859863,-0.253174,-0.454102,-0.816162,42.007442,-43.144222,6.17218
-0.062988,0.278076,-0.994873,-9.44519,-15.350341,-3.601074,-0.661377,-0.587646,-0.50415,-51.475521,39.909363,9.971619
-0.170898,0.374512,-0.894531,-1.472473,-40.695187,14.556884,-0.69458,-0.656006,-0.827637,22.445677,-35.270691,10.032654
-0.165283,0.426025,-0.855225,-4.890442,-49.942013,19.340515,-0.653809,-0.561768,-0.579834,-67.321777,49.804684,-1.38092
-0.124023,0.46582,-0.790039,-9.178162,-52.032467,20.874022,-0.378418,-0.347168,-1.009766,-194.007858,128.53241,-30.868528
-0.101318,0.459229,-0.740723,-9.422302,-48.583981,21.224974,-0.661865,-0.491211,-0.663574,-84.892265,67.169189,-15.243529
-0.100342,0.41333,-0.724365,-4.058838,-45.326229,21.171568,-0.500244,-0.594238,-1.003418,61.729427,-13.97705,7.484436
-0.108887,0.36792,-0.716064,2.250671,-45.639034,20.584105,0.128174,0.265137,-0.825928,-134.788513,140.411377,27.389524
-0.116211,0.354004,-0.703857,3.807068,-49.34692,20.713804,0.14209,0.255859,-0.861816,-144.866943,139.907837,30.769346
-0.113037,0.384766,-0.700195,-0.335693,-52.391048,22.468565,0.197266,0.212646,-0.949219,-157.714844,144.996643,35.118103
-0.092285,0.445313,-0.712402,-8.255005,-49.568172,24.879454,0.246338,0.233643,-1.060791,-178.405746,155.62439,37.29248
0.045898,0.230713,-1.009033,-20.278929,-9.902954,-12.84027,0.200439,0.266846,-1.081055,-201.560959,163.505539,33.203125
-0.119141,0.366455,-0.946289,-28.816221,-30.868528,3.234863,0.152344,0.231201,-1.032471,-212.051376,168.212875,24.757383
-0.203369,0.632568,-0.625488,-84.388725,-98.159782,-50.201412,0.089355,0.127197,-1.01123,-215.568527,170.745834,17.036438
-0.0625,0.390625,-0.825684,-22.987364,-15.197753,3.456115,0.034668,0.007568,-1.026367,-215.766891,171.478256,12.931823
0.914551,-0.851807,-0.741455,-85.418694,-234.237656,-39.352417,-0.041992,-0.092529,-1.065674,-214.40123,164.215073,13.656615
1.056885,-0.860596,-0.7771,-68.93158,-214.187607,-35.896301,-0.644775,-0.517822,-0.638184,-77.415466,57.998653,-10.32257
1.19751,-0.850342,-0.726074,-57.846066,-193.557724,-35.675049,-0.100586,-0.177979,-1.076172,-208.778366,153.35083,13.771056
1.254639,-0.852783,-0.573975,-46.852108,-169.624313,-36.392212,-0.279541,-0.265381,-1.038574,-201.286301,132.804871,-16.578674
1.212402,-0.832275,-0.424316,-39.207458,-144.775391,-35.621643,-0.436768,-0.443359,-1.029053,-180.801376,121.986382,-42.350765
1.068115,-0.757324,-0.38916,-43.762203,-126.075737,-32.836914,-0.419922,-0.532227,-1.086426,-168.205246,115.20385,-55.297848
0.878662,-0.690918,-0.357422,-50.453182,-112.457268,-28.190611,-0.455322,-0.539063,-1.151123,-156.75354,109.474174,-59.692379
0.786865,-0.670898,-0.347168,-53.88641,-98.556511,-25.917051,-0.502197,-0.581299,-1.228027,-147.81189,109.146111,-63.674923
0.833252,-0.689209,-0.338135,-52.787777,-83.061211,-27.130125,-0.576904,-0.61499,-1.193115,-140.205383,113.052361,-63.613888
0.900879,-0.715088,-0.269043,-44.395443,-65.361023,-28.381346,-0.69751,-0.618896,-1.017334,-133.392334,118.438713,-55.328365
0.833252,-0.797363,-0.734619,-104.667656,-249.992355,-39.123535,-0.802246,-0.625732,-0.802734,-121.520988,113.868706,-42.060848
0.938477,-0.688232,-0.223633,-35.621643,-48.828121,-23.818968,-0.801758,-0.604492,-0.704102,-104.789726,96.534721,-28.099058
0.796875,-0.602783,-0.206055,-32.302856,-24.475096,-4.257202,-0.716064,-0.526611,-0.685059,-92.529289,79.200745,-19.874573
0.739502,-0.640381,-0.252441,-29.45709,-19.27948,3.410339,-0.208252,-0.198975,-1.0625,-204.338058,141.586304,3.684997
0.731689,-0.692627,-0.311279,-24.765013,-18.058777,10.482787,-0.368652,-0.701416,-0.946777,92.483513,-2.624511,13.481139
0.742188,-0.759521,-0.343018,-15.594481,-16.830444,17.158508,-0.498779,-0.769531,-1.143066,89.187614,48.934933,12.5885
0.782471,-0.824951,-0.352295,-1.731872,-13.046264,22.689817,0.554932,0.276611,-0.485596,88.562004,-118.064873,3.601074
0.834717,-0.866455,-0.359131,15.281676,-5.744934,27.984617,0.234375,0.088379,-0.821045,94.047539,-125.427238,-20.866392
0.862793,-0.871094,-0.361084,32.821655,5.760192,36.201477,0.321289,0.140625,-0.826172,91.461174,-111.106865,-23.048399
0.875488,-0.828613,-0.380371,43.708797,19.203186,45.700069,0.304443,0.206543,-0.814941,85.739128,-100.8377,-22.239683
0.88916,-0.768799,-0.410645,43.746944,30.830381,48.065182,0.232178,0.254639,-0.782471,77.911377,-95.489494,-20.011902
0.885498,-0.74707,-0.4375,41.526791,38.116455,42.900082,0.164063,0.278809,-0.735596,69.610596,-95.222466,-18.264771
0.899658,-0.620361,-0.203369,-33.348083,-35.118103,-14.129638,0.141846,0.288818,-0.678467,62.736507,-99.678032,-17.616272
0.816406,-0.744873,-0.732178,-117.538445,-249.992355,-32.211304,0.163574,0.308594,-0.670654,56.503292,-109.168999,-18.211365
-0.101318,0.358398,-0.904785,-22.521971,-26.771544,0.801086,0.189453,0.331055,-0.657715,48.400875,-122.268669,-20.156858
0.642578,-0.605957,-0.659668,-162.742599,-249.977097,-32.249451,0.2146,0.34082,-0.636719,42.594906,-136.459351,-22.140501
-0.02832,0.435059,-0.810791,-28.472898,9.918213,7.324218,0.277344,0.309814,-0.562012,49.774166,-156.845093,-13.908385
-0.011475,0.46582,-0.865967,-36.323547,49.293514,4.371643,0.09082,0.072754,-0.7771,95.008842,-139.175415,-14.541625
-0.028076,0.454102,-0.873779,-41.557308,92.460625,-4.020691,0.296631,0.300293,-0.546631,54.924007,-158.370972,-6.530761
-0.132813,0.424316,-0.850586,-40.832516,124.572746,-8.865356,0.238037,0.318115,-0.538574,53.230282,-152.09198,5.500793
-0.335205,0.443359,-0.856445,-45.013424,135.009766,-7.644653,0.236084,0.303711,-0.558105,52.818295,-158.64563,11.520385
-0.553955,0.492432,-0.833496,-60.768124,119.308464,-9.841919,0.282227,0.300049,-0.558105,58.341976,-171.17308,18.859863
0.753906,-0.703857,-0.692871,-132.476807,-249.748215,-26.451109,0.376709,0.318359,-0.574951,68.077087,-182.212814,22.605894
-0.849365,0.644531,-0.706055,-120.063774,36.087036,-37.666321,0.489746,0.351074,-0.584717,78.361511,-182.01445,14.114379
-0.83667,0.662109,-0.649902,-153.015137,-9.536743,-53.497311,0.580322,0.387451,-0.58252,75.233459,-165.878281,-10.269164
-0.737305,0.578125,-0.568359,-181.182846,-54.328915,-60.462948,0.593262,0.331299,-0.568359,61.859127,-142.669678,-31.593321
-0.648682,0.4104,-0.506348,-196.189865,-100.318901,-54.054256,0.581055,0.18042,-0.543457,64.300537,-128.204346,-27.19879
-0.740723,0.564941,-0.759277,-86.685173,81.886284,-20.64514,0.563965,0.181641,-0.50415,78.598022,-122.436516,-8.712769
-0.655273,0.15918,-0.569092,-208.129868,-194.198593,-41.671749,-0.395508,-0.622803,-1.060791,78.88031,45.738216,3.77655
-0.6875,0.120361,-0.677734,-218.147263,-236.160263,-34.866333,0.276367,0.312256,-0.530762,55.625912,-154.129028,0.053406
-0.570313,0.092529,-0.735352,-238.784775,-249.992355,-29.945372,-0.005615,0.062256,-0.714111,96.511833,-146.453857,-10.154723
-0.341309,0.02124,-0.731689,-249.80925,-249.992355,-32.646179,0.239502,0.330811,-0.598633,43.472286,-148.765564,-20.179747
-0.149658,-0.111816,-0.729492,-249.992355,-249.992355,-35.697937,-0.005127,0.041504,-0.705566,90.62957,-149.253845,-31.585691
-0.068359,-0.233887,-0.737305,-244.682297,-249.992355,-36.712646,-0.025146,0.051758,-0.68335,95.252983,-149.085999,-16.235352
-0.013428,-0.287842,-0.733398,-234.230026,-249.992355,-33.668518,-0.593506,-0.685303,-1.205078,112.869255,4.058838,40.184017
0.127686,-0.282715,-0.710938,-227.188095,-249.992355,-31.890867,-0.481201,-0.514648,-1.224121,125.251762,-29.769896,40.557858
0.329102,-0.328857,-0.686279,-221.824631,-249.992355,-34.835815,-0.373779,-0.346924,-1.223145,132.019043,-49.911495,35.392761
0.506104,-0.45874,-0.683838,-202.323898,-249.992355,-34.950256,-0.294922,-0.233154,-1.182617,130.889893,-57.296749,27.565001
-0.615723,0.260986,-0.507324,-204.582199,-146.41571,-44.525143,-0.238281,-0.187012,-1.109375,128.616333,-57.41119,16.00647
-0.750488,0.671387,-0.500488,106.498711,64.163208,50.720211,-0.223877,-0.172607,-1.054688,126.266472,-58.204647,5.607605
-0.761475,0.641846,-0.528564,96.206657,65.948486,45.867916,-0.273438,-0.184326,-1.051514,123.130791,-64.193726,0.663757
-0.736572,0.703857,-0.553711,77.613831,64.788818,34.843445,-0.344482,-0.223877,-1.064697,123.153679,-75.820923,-0.228882
-0.730957,0.815674,-0.572998,62.850948,60.073849,21.697996,-0.390869,-0.249512,-1.092529,127.29644,-90.705864,0.75531
-0.66626,0.572998,-0.595459,84.350578,82.084648,37.620544,-0.388916,-0.247559,-1.09375,130.233765,-103.301994,1.953125
-0.787109,0.915283,-0.598633,64.834595,56.076046,16.479492,-0.605469,-0.778809,-1.160156,101.356499,35.835266,28.892515
-0.781006,0.838379,-0.604248,74.150085,61.210629,23.559568,-0.251465,-0.214355,-1.008301,128.410339,-109.054558,-5.805969
-0.73291,0.69873,-0.606201,83.831779,70.701599,32.264709,-0.34375,-0.232422,-1.051025,130.348206,-108.695976,-0.076294
-0.759277,0.898682,-0.594482,59.974667,55.618282,15.640258,-0.004639,0.040283,-0.804443,91.026299,-129.585266,-31.059263
-0.719238,0.753662,-0.467773,106.719963,64.704895,54.458614,-0.030029,-0.010498,-0.832031,93.551628,-126.350395,-26.931761
-0.973389,0.807373,-0.211426,62.301632,37.727356,41.740414,-0.094238,-0.054199,-0.84375,99.624626,-123.130791,-23.689268
-0.707764,0.852051,-0.387695,100.616447,72.555542,57.739254,-0.156006,-0.081299,-0.871094,107.078545,-119.1101,-23.567198
-0.707764,0.825684,-0.368164,97.625725,80.162048,57.968136,0.004883,0.062744,-0.771729,89.561455,-140.174866,-35.881042
-0.720947,0.764648,-0.348145,100.07476,88.302605,59.013363,-0.174316,-0.114014,-0.955078,118.965141,-112.091057,-26.824949
-0.760498,0.728516,-0.340576,105.705254,92.590324,60.6842,-0.152588,-0.146729,-0.97876,121.459953,-108.718864,-22.361753
-0.813232,0.733154,-0.311768,108.6502,91.468803,60.462948,-0.165771,-0.186768,-0.994873,124.732964,-108.222954,-14.343261
-0.833008,0.761475,-0.254395,106.246941,86.654655,59.585567,-0.186279,-0.095947,-0.915039,114.158623,-115.730278,-26.115416
-0.840576,0.799316,-0.226074,99.800102,79.933167,58.006283,0.657227,0.463623,-0.45166,-90.400688,100.83007,-9.918213
-0.871094,0.827637,-0.22876,90.270988,71.594238,55.290218,0.695801,0.608398,-0.266357,-79.475403,106.216423,3.158569
-0.908936,0.840088,-0.24707,79.811096,61.584469,51.048275,0.692383,0.595703,-0.303955,-82.153313,104.469292,-0.450134
-0.947998,0.832275,-0.246094,69.892883,50.170895,46.06628,0.696045,0.614258,-0.348389,-86.479179,103.096001,-1.022339
-0.607666,0.518066,-0.583008,75.576782,94.070427,37.704468,0.70459,0.63208,-0.375,-90.736382,101.638786,-1.075745
-0.698486,0.825928,-0.422607,103.591911,67.596436,55.946346,0.691406,0.643799,-0.395264,-94.650261,100.135796,-0.541687
-0.552246,0.527344,-0.606201,66.558838,104.61425,36.964417,0.688965,0.623779,-0.407715,-96.580498,98.678581,-3.463745
0.003418,0.333252,-0.581055,94.711296,134.216309,31.028746,0.682129,0.641113,-0.240723,-76.133728,107.688896,9.315491
-0.430176,0.508789,-0.669922,66.871643,119.73571,48.744198,0.681885,0.575195,-0.418213,-97.099297,97.610466,-6.79779
-0.971436,0.785156,-0.185547,57.28912,25.962828,37.55188,0.666992,0.525391,-0.422119,-95.108025,99.121086,-9.078979
0.017822,0.277588,-0.842285,70.091248,63.018795,28.892515,0.628662,0.44043,-0.502686,-85.807793,101.173393,-10.887145
0.034424,0.283936,-0.831543,70.968628,61.378475,25.978086,0.290527,0.396484,-0.5979,-74.905396,92.758171,-0.831604
0.052979,0.295898,-0.821533,71.670532,63.224789,21.011351,0.54248,0.456299,-0.576172,-83.724968,109.558098,-10.810851
0.060059,0.31543,-0.797363,71.762085,65.90271,15.449523,0.424561,0.455811,-0.561523,-83.297722,107.124321,-9.58252
0.048584,0.329834,-0.777832,72.105408,66.53595,13.71765,0.347412,0.428955,-0.561035,-79.216003,100.906364,-5.676269
0.023438,0.330566,-0.750977,71.914673,64.506531,17.219543,0.267578,0.360596,-0.644531,-71.060181,83.961479,3.959656
0.002441,0.328613,-0.730957,71.029663,62.934872,22.941587,0.284424,0.339111,-0.695313,-67.108154,75.073242,6.088256
0.011475,0.333984,-0.70459,69.206238,66.444397,27.580259,0.280762,0.330811,-0.738281,-65.437317,67.878723,7.026672
0.045166,0.339355,-0.672607,68.328857,77.613831,29.266356,0.268066,0.305908,-0.774414,-63.949581,57.655331,9.95636
-0.497314,0.535889,-0.645752,63.850399,113.288872,40.740963,0.27417,0.289795,-0.767334,-58.2962,42.198177,14.274596
0.079346,0.331787,-0.65625,70.587158,95.840446,28.739927,0.274414,0.282471,-0.744873,-48.858639,24.955748,19.233704
0.055176,0.298584,-0.599609,85.571281,130.462646,30.929564,0.665527,0.668213,-0.220459,-71.762085,109.344475,15.022277
-0.066162,0.415771,-0.592041,99.380486,129.585266,26.679991,0.596436,0.424561,-0.549316,-83.457939,105.75103,-10.31494
-0.150879,0.507568,-0.626953,95.809929,118.255608,22.27783,0.663818,0.682861,-0.197266,-66.589355,113.410942,18.287659
-0.191895,0.561768,-0.674805,77.430725,103.469841,25.199888,0.303223,0.286621,-0.735352,-36.300659,7.713317,23.521421
-0.164307,0.535889,-0.721924,50.910946,92.460625,34.492493,0.763428,0.714844,-0.120361,-54.115292,120.956413,13.938903
-0.099121,0.437012,-0.67334,44.113155,92.041008,38.909912,0.752197,0.594482,0.092773,-18.028259,9.048462,-1.12915
-0.112061,0.352295,-0.64502,56.373592,103.996269,43.258663,0.72583,0.586914,0.083984,-17.906189,15.068053,-3.410339
-0.173584,0.343262,-0.669434,66.581726,116.58477,50.85754,0.696289,0.573486,0.074219,-16.952515,14.717101,-6.263732
-0.265869,0.382324,-0.677979,71.746826,124.290459,56.579586,0.669189,0.569824,0.056396,-14.091491,13.801574,-9.689331
-0.355469,0.44873,-0.678467,70.854187,124.542229,55.992123,0.657227,0.581055,0.04834,-13.038634,12.008666,-14.526366
0.084961,0.309326,-0.632813,76.545715,116.058342,29.075621,0.670654,0.586426,0.038574,-11.314391,10.253905,-18.539429
-0.928955,0.769775,-0.161133,53.581234,17.745972,35.224915,0.688965,0.591553,0.038574,-8.605957,8.903503,-22.338865
0.013916,0.270996,-0.854492,69.488525,68.969727,30.456541,0.710693,0.60791,0.045654,-4.882813,9.689331,-22.872923
-0.84668,0.778564,-0.175049,41.702267,10.391234,33.157349,0.750488,0.628906,0.055664,-3.707886,12.748717,-20.149229
-1.013672,1.001709,-0.08374,-66.192627,25.672911,-60.295101,0.798096,0.662354,0.067139,-4.516602,21.209715,-15.319823
-1.067139,0.979492,-0.144287,-66.719055,13.320922,-60.012814,0.706055,0.708008,-0.170166,-60.478207,118.751518,16.464233
-1.107666,0.976318,-0.198975,-71.731567,-4.455566,-58.471676,0.827637,0.692627,0.089355,-7.247924,35.842896,-8.773804
-1.100098,0.964111,-0.227295,-81.741325,-27.748106,-58.456417,0.937744,0.711426,0.158691,-9.460449,71.884155,2.410889
-1.080322,0.941162,-0.246338,-93.833916,-53.947445,-56.175228,0.962646,0.726318,0.138916,-10.368346,91.377251,14.961242
-1.040039,0.931885,-0.227539,-107.26165,-78.620911,-55.313107,0.978271,0.724609,0.090332,-16.738892,103.790276,22.140501
-0.967041,0.893066,-0.224365,-118.72863,-95.085136,-55.854794,0.95166,0.732422,0.047607,-24.772642,109.168999,27.725218
-0.860107,0.811523,-0.247314,-123.382561,-101.745598,-57.647701,0.931885,0.739258,-0.014648,-32.806396,113.677971,31.318663
-0.744385,0.720215,-0.29541,-117.576591,-100.677483,-54.954525,0.885986,0.731934,-0.059082,-40.756222,112.785332,31.143187
-0.672363,0.67334,-0.365479,-109.146111,-95.436089,-45.837399,0.845215,0.711182,-0.077881,-44.235226,109.619133,29.08325
-0.947754,1.060791,-0.047852,-65.444946,31.211851,-57.41119,0.840088,0.702393,-0.084473,-46.897884,108.207695,24.574278
-0.647705,0.677246,-0.422607,-106.25457,-89.820854,-38.955688,0.844727,0.700195,-0.090332,-50.895687,111.022942,17.616272
-0.629639,0.721924,-0.410156,-114.57061,-81.916801,-47.782894,0.8125,0.712402,-0.0979,-53.665157,116.744987,13.832091
-0.616211,0.753174,-0.407959,-122.627251,-82.336418,-55.14526,0.89209,0.694336,0.129883,-10.002136,52.558895,-5.081176
-0.636963,0.763916,-0.44043,-129.78363,-87.234489,-57.456966,0.395752,0.310791,-0.740479,-24.353025,-4.257202,22.712706
-0.672607,0.738281,-0.478516,-131.958008,-95.840446,-55.763241,0.755859,0.602051,0.102783,-16.326904,0.228882,1.182556
-0.677979,0.678955,-0.508057,-128.204346,-106.971733,-56.40411,0.515869,0.335938,-0.764893,-8.834839,3.105163,0.022888
-0.645264,0.62085,-0.556641,-121.917717,-115.722649,-60.356136,0.509766,0.484131,-0.782715,-30.258177,6.965637,0.648498
-0.572754,0.596924,-0.594482,-112.663261,-118.736259,-61.233517,0.477539,0.540283,-0.743896,-36.170959,10.963439,-6.217956
-0.465332,0.605713,-0.572266,-103.782646,-117.149345,-58.174129,0.430176,0.543701,-0.693604,-33.729553,16.639709,-7.438659
-0.358398,0.606201,-0.577148,-96.534721,-113.273613,-56.144711,0.446289,0.496826,-0.6875,-24.696348,23.16284,-3.746032
-0.272949,0.615723,-0.606934,-89.653008,-107.475273,-55.549618,0.484619,0.438232,-0.759521,-17.166138,32.180786,1.525879
-0.64624,0.693604,-0.422852,-108.673088,-84.785454,-40.191647,0.518066,0.386475,-0.812988,-13.336181,41.610714,6.904602
-0.890869,1.116455,-0.081787,-56.15234,29.541014,-53.909298,0.533203,0.347656,-0.821045,-10.261535,45.028683,13.626098
-0.869385,0.766846,-0.154785,48.828121,13.542174,34.790039,0.51001,0.343994,-0.828125,-9.33075,41.267391,22.186277
-0.879395,0.938477,-0.146484,-7.446289,15.99121,-38.635254,0.439453,0.369385,-0.834961,-13.458251,37.117004,31.562803
-0.856445,0.793457,-0.180176,33.866882,7.667541,31.34918,0.367188,0.400879,-0.779541,-17.425537,36.483765,39.848328
-0.849854,0.803467,-0.181396,26.466368,6.835937,29.747007,0.483643,0.408936,-0.80835,-21.438597,7.484436,10.421752
-0.825684,0.800537,-0.189453,19.996643,8.590698,26.855467,0.358154,0.455322,-0.73999,-20.820616,41.503902,43.41888
-0.801758,0.782471,-0.192139,16.700745,12.161254,24.085997,0.456055,0.516602,-0.744629,-39.276123,72.242737,36.216736
-0.793945,0.758545,-0.190674,16.235352,14.595031,21.720884,0.474365,0.485596,-0.743164,-48.866268,92.079155,32.348633
-0.799561,0.740723,-0.177246,17.082214,14.495849,17.868042,0.453857,0.431885,-0.72876,-53.993221,108.184807,30.334471
-0.867188,1.078125,-0.124023,-33.317566,22.605894,-48.011776,0.399658,0.368164,-0.724609,-54.38995,116.920464,27.709959
-0.806885,0.762451,-0.125,13.916015,15.090941,3.211975,0.369873,0.325439,-0.740723,-55.763241,119.10247,24.009703
-0.81958,0.779053,-0.120605,7.133483,14.076232,-5.493164,0.366943,0.299805,-0.745117,-63.003536,120.666496,20.248411
-0.847168,0.782715,-0.111328,-0.213623,10.032654,-13.47351,0.37915,0.282227,-0.748779,-78.00293,122.520439,13.442992
-0.870117,0.776855,-0.102783,-7.164001,3.89862,-20.256041,0.326416,0.28125,-0.75708,-95.16143,126.190178,10.490417
-0.804932,0.741455,-0.14624,17.677307,14.320373,11.795043,0.209473,0.273438,-0.782471,-110.870354,133.041382,15.213012
-0.838135,0.749512,-0.112549,-19.645691,-10.330199,-28.20587,0.118164,0.266357,-0.802734,-123.756401,138.015747,22.613523
-0.802734,0.743652,-0.14624,-28.45001,-15.670775,-29.037474,0.406494,0.508057,-0.745605,-28.869627,54.38995,41.168209
-0.74707,0.712891,-0.173584,-36.079407,-20.004272,-30.654905,0.41333,0.347168,-0.835938,-14.152526,12.939452,19.226074
-0.677979,0.655518,-0.182617,-37.54425,-21.621702,-32.806396,0.491455,0.332764,-0.756592,-15.754699,-5.851745,11.772155
-0.611328,0.590576,-0.19165,-31.417845,-17.01355,-34.339905,0.321289,0.307617,-0.82666,-8.728027,33.195496,19.348145
-0.588623,0.557373,-0.223633,-21.14868,-7.041931,-35.163879,0.507568,0.305176,-0.77002,-2.296448,21.14868,-7.156372
-0.595703,0.556641,-0.22998,-10.772704,3.486633,-35.171509,0.502441,0.256104,-0.797119,0.640869,41.145321,-11.062621
-0.675293,0.578369,-0.210693,0.564575,9.887695,-34.286499,0.468018,0.241699,-0.84082,-0.816345,49.888607,-15.342711
-0.80249,0.642822,-0.194824,9.216309,11.848449,-32.798767,0.385986,0.270752,-0.837646,-5.142211,40.679928,-20.278929
-0.875488,0.769287,-0.17749,8.049011,12.46643,-32.424927,0.291016,0.286133,-0.737549,-6.652832,23.674009,-19.40155
-0.865967,0.76123,-0.094482,-13.328551,-3.234863,-25.238035,0.22583,0.287598,-0.693604,-5.004883,4.03595,-14.236449
-0.233398,0.079346,-0.895508,-57.876583,-229.52269,-19.271851,0.342285,0.315674,-0.845947,-9.552002,22.460936,23.147581
-0.172363,-0.019287,-0.952881,-63.96484,-212.463364,-23.880003,0.291992,0.295654,-0.712646,-10.44464,-43.998714,-3.265381
-0.109131,0.07373,-0.947021,-80.299377,-208.496078,-25.352476,0.399414,0.295654,-0.700195,-10.032654,-57.060238,3.250122
-0.157471,0.254639,-0.879883,-97.30529,-213.951096,-16.891479,0.464844,0.293945,-0.643555,-9.063721,-50.048824,6.942749
-0.656494,0.157715,-0.955322,-39.207458,-58.235165,-12.84027,0.454102,0.319824,-0.613037,-10.864257,-31.417845,6.660461
-0.520996,0.306152,-0.773926,-113.349907,-200.294479,12.397765,0.223389,0.290039,-0.705811,-8.239746,-20.492552,-10.101317
-0.665771,0.208008,-0.763916,-105.003349,-162.99437,15.220641,0.365479,0.392578,-0.632324,-18.852234,-14.678954,-10.543822
-0.719238,0.158936,-0.849121,-81.878654,-108.01696,9.437561,0.402832,0.358398,-0.612793,-14.793395,-17.13562,0.808716
-0.311035,0.351807,-0.819336,-108.482353,-215.126022,-1.63269,0.401367,0.30127,-0.787598,-11.421203,38.345337,3.303528
-0.18042,0.281006,-0.880127,-68.077087,-247.749313,-27.534483,0.426758,0.293213,-0.795898,-9.590149,32.653809,-0.312805
1.133301,-0.767822,-0.51416,-29.762266,-76.36261,-18.211365,0.443115,0.291748,-0.776855,-4.135132,21.163939,2.235413
0.340088,0.401367,-0.892578,-112.106316,-234.283432,-63.804623,0.470459,0.265137,-0.739014,0.679016,4.707336,8.659363
0.540771,0.170898,-0.970215,-121.421806,-203.025803,-69.602966,0.356689,0.302979,-0.798828,-10.078429,39.108276,11.215209
0.620361,-0.125977,-0.956055,-109.710686,-174.346909,-69.389343,0.381104,0.259033,-0.706299,-6.42395,-18.753052,-2.365112
0.648193,-0.369629,-0.909912,-86.891167,-159.202576,-60.462948,0.328125,0.30835,-0.684082,-12.054442,-22.293089,-15.815734
0.677979,-0.475342,-0.826904,-65.284729,-154.533386,-44.929501,0.322998,0.362305,-0.668457,-17.700195,-22.918699,-24.253843
0.74585,-0.466797,-0.795166,-59.906002,-153.076172,-32.730103,0.340576,0.398438,-0.659912,-20.339964,-19.630432,-21.461485
0.848389,-0.444092,-0.798584,-67.115784,-148.06366,-29.052732,0.447998,0.242188,-0.717529,-0.854492,-10.215758,8.43811
0.97583,-0.474609,-0.732666,-73.699951,-137.573242,-31.539915,0.026123,-0.14624,-0.908203,73.204041,-96.702568,12.756347
1.086182,-0.577881,-0.621338,-70.510864,-119.636528,-32.402039,0.052979,-0.112061,-0.901611,72.158813,-102.72216,7.019042
1.127197,-0.706543,-0.532227,-52.322384,-97.06115,-27.793882,0.061279,-0.079346,-0.890381,72.090149,-107.940666,4.15802
-0.4375,0.124512,-0.874268,-13.72528,-28.656004,-27.679441,0.054199,-0.070068,-0.872559,73.745728,-109.802238,4.623413
0.056152,0.444824,-0.85791,-93.0252,-249.992355,-49.163815,0.057373,-0.075684,-0.859863,75.035095,-107.467644,6.401062
-0.33252,0.145508,-0.920898,-18.753052,-2.052307,-17.601013,0.080322,-0.073242,-0.850342,75.080872,-101.585381,8.056641
0.220215,0.106934,-0.923828,-58.090206,-32.516479,-6.004333,0.10376,-0.050781,-0.844238,74.790955,-95.336906,9.460449
-0.255859,0.135498,-0.921387,-5.706787,25.039671,-8.934021,0.118408,-0.041504,-0.832031,76.545715,-91.865532,10.650634
1.118652,-0.72998,-0.539063,-13.832091,-59.898373,-8.232117,0.128418,-0.04248,-0.8396,81.321709,-92.041008,12.886046
-0.12085,0.294434,-0.90918,-53.680416,-31.127928,13.504027,0.152344,-0.041504,-0.85498,86.944572,-92.64373,15.571593
-0.123047,0.343994,-0.923584,-60.211178,-33.699036,11.238097,0.353027,0.220459,-0.664063,99.212639,-114.006035,6.599426
-0.122559,0.349365,-0.914307,-67.253113,-36.994934,11.482238,0.223145,0.007568,-0.874512,90.530388,-84.037773,18.585205
-0.115723,0.30127,-0.897461,-71.578979,-41.618343,12.268065,0.248047,0.027588,-0.863281,89.073174,-76.522827,20.072937
-0.101318,0.223145,-0.875488,-71.914673,-45.631405,11.276244,0.262695,0.041748,-0.824463,87.539665,-70.053101,22.422789
-0.087402,0.154541,-0.858398,-69.30542,-48.324581,8.979797,0.262451,0.064453,-0.790283,86.540215,-66.795349,24.429319
-0.074463,0.12085,-0.838623,-66.230774,-52.337643,6.973266,0.272217,0.096436,-0.766846,87.570183,-69.465637,23.674009
-0.071289,0.126221,-0.830078,-63.247677,-58.067318,5.577087,0.304443,0.135986,-0.767578,89.897148,-78.224182,19.14978
-0.060791,0.169434,-0.84668,-62.858578,-63.629147,3.807068,0.333008,0.166748,-0.759521,92.674248,-88.699333,13.450622
-0.277588,0.171875,-0.922607,-14.884948,12.916564,-13.710021,0.346436,0.18457,-0.741943,95.260612,-97.099297,10.643004
-0.021973,0.227783,-0.863037,-64.582825,-65.872192,2.853393,0.354736,0.198242,-0.712646,98.213188,-102.371208,10.246276
0.132813,0.203369,-0.889893,-65.475464,-50.552364,-2.761841,0.354736,0.208008,-0.687256,99.220268,-107.368462,9.521484
0.261963,0.025146,-0.967041,-45.81451,-12.260436,-4.02832,-0.00708,-0.162842,-0.923096,73.127747,-91.316216,17.471313
0.233643,-0.004395,-0.982666,-32.104492,2.868652,-0.63324,0.188965,-0.023682,-0.865967,90.400688,-89.920036,17.410278
0.182129,0.022217,-0.992188,-23.29254,14.86206,3.814697,-0.038818,-0.159424,-0.915039,71.281433,-86.791985,19.454956
0.14624,0.069824,-1.01001,-18.753052,27.542112,7.469177,-0.303955,-0.538574,-1.288818,52.719112,-35.28595,10.833739
0.136719,0.080322,-1.018066,-14.160155,40.321346,8.430481,-0.013672,-0.172119,-0.880127,63.3316,-81.092827,15.464782
0.129639,0.058105,-1.019043,-8.888245,51.734921,6.17218,0.345703,0.226807,-0.662354,99.182121,-122.085564,1.708984
0.065186,0.03418,-1.01001,-3.196716,58.0368,2.388,-0.250488,-0.293701,-0.687256,23.895262,-77.522278,8.560181
-0.069336,0.042725,-0.979736,0.053406,55.351254,0.205994,-0.23999,-0.292969,-0.702148,21.64459,-86.914055,2.914428
-0.204834,0.080811,-0.943848,-0.450134,42.259212,-2.235413,-0.234375,-0.318848,-0.725586,18.920898,-90.454094,-1.121521
0.047852,0.251465,-0.880371,-66.589355,-61.965939,1.525879,-0.240234,-0.355225,-0.771973,18.707275,-87.753288,-1.914978
-0.101807,0.238525,-0.896729,-52.085873,-27.6947,15.205382,-0.248535,-0.390137,-0.858154,20.057678,-78.514099,-1.754761
1.07373,-0.637451,-0.583008,-8.865356,-47.103878,-3.578186,-0.247803,-0.418945,-0.979248,19.958496,-61.126705,0.213623
1.12207,-0.54126,-0.556641,-7.835388,-21.133421,-4.425049,-0.223389,-0.436279,-1.119385,18.714905,-37.04834,-0.671387
0.50293,-0.190918,-0.967285,100.372307,88.142387,19.683838,-0.204834,-0.486816,-1.24585,19.348145,-16.075134,-1.815796
0.383789,-0.018066,-0.94873,100.494377,79.467773,22.300718,-0.189209,-0.572998,-1.349609,25.756834,-2.799988,-0.808716
0.337158,0.123535,-1.023193,86.364738,72.792053,27.893064,-0.043945,-0.167236,-0.881348,67.382813,-83.213799,18.554688
0.404053,0.120361,-0.998047,71.395874,65.155029,30.72357,-0.210205,-0.66333,-1.419189,38.612366,-1.869202,3.028869
0.446777,0.061768,-0.917725,72.868347,63.690182,27.389524,-0.317871,-0.653076,-1.381348,56.327816,-19.599915,11.96289
0.456055,0.001221,-0.857666,81.359856,64.666748,25.05493,-0.229248,-0.425781,-1.161621,48.316952,-56.167599,8.384705
0.416748,-0.012207,-0.818115,89.126579,67.253113,25.619505,-0.126709,-0.309082,-1.078613,48.980709,-77.529907,6.492614
0.376465,0.041016,-0.811279,87.654106,71.006775,28.816221,-0.11499,-0.230225,-1.057373,53.688046,-92.224113,1.037598
0.377686,0.119629,-0.82373,78.102112,74.966431,32.646179,-0.125244,-0.282959,-1.008789,61.012264,-87.486259,13.191222
0.385742,0.121338,-0.80127,71.365356,83.862297,29.08325,-0.139893,-0.267822,-1.032959,68.435669,-79.01001,24.101255
0.716064,-0.33374,-0.946533,100.563042,92.056267,14.739989,-0.112305,-0.258301,-1.041992,74.005127,-75.935364,24.92523
0.387207,0.083252,-0.76709,75.424194,89.202873,24.894712,-0.068359,-0.237061,-1.030518,73.822021,-73.883057,21.911619
0.318359,0.088379,-0.741699,76.034546,101.570122,24.841307,-0.018066,-0.20874,-0.983398,68.244934,-75.210571,16.952515
0.310791,0.113037,-0.744629,76.057434,108.108513,25.474546,0.004883,-0.182373,-0.914063,63.354488,-78.453064,14.266967
0.306396,0.130127,-0.771729,78.186035,113.868706,27.023314,-0.2771,-0.699463,-1.428467,51.208492,-9.811401,9.231567
0.266602,0.147949,-0.814941,78.521729,117.141716,30.586241,0.343018,0.224365,-0.675049,100.067131,-128.135681,-1.464844
0.192627,0.168701,-0.819336,75.195313,114.746086,35.072327,-0.272705,-0.317383,-0.701172,27.023314,-66.375732,12.435912
0.126953,0.196533,-0.820801,71.792603,108.749382,36.186218,0.332764,0.189697,-0.671631,116.218559,-139.442444,0.846863
0.07959,0.217529,-0.823486,69.847107,99.655144,34.576416,0.820313,0.645752,-0.085449,67.298889,-90.286247,6.179809
0.05249,0.238525,-0.827881,69.129944,88.86718,32.806396,0.807861,0.636719,-0.078857,61.408993,-85.411064,5.088806
0.027588,0.259277,-0.842041,69.229126,78.24707,31.471251,0.78833,0.631104,-0.052246,56.297298,-81.802361,6.263732
1.082031,-0.572754,-0.598389,-10.131835,-36.460876,-5.432128,0.793457,0.639648,-0.04126,51.322933,-79.704285,8.522034
0.35791,0.069336,-0.747559,77.125549,95.115654,24.230955,0.801514,0.651367,-0.040283,46.684261,-76.499939,10.673522
0.901123,-0.398438,-1.018799,85.517876,96.603386,21.713255,0.814453,0.655029,-0.025146,42.03796,-72.814941,11.466979
0.387207,0.149414,-0.824951,70.69397,78.903198,33.447266,0.820068,0.647705,-0.007568,36.056519,-68.054199,10.772704
1.046387,-0.26416,-1.220947,51.445004,103.019707,52.711483,0.816406,0.640381,0.01123,28.434752,-62.377926,10.078429
1.009277,-0.361328,-1.133789,67.604065,101.181023,38.192749,0.796875,0.635498,0.029541,20.088194,-57.365414,9.513855
1.155518,-0.510498,-0.527832,1.861572,5.561828,6.011962,0.772461,0.625244,0.047119,13.641356,-53.710934,9.841919
1.091553,-0.503906,-0.512695,11.108397,16.716003,12.20703,0.82959,0.6604,-0.075928,70.259094,-93.90258,6.813049
0.977051,-0.494873,-0.545898,23.277281,34.049988,18.585205,0.766602,0.614746,0.071289,12.245177,-51.818844,11.001586
0.883301,-0.485107,-0.619385,34.461975,50.056454,28.366087,0.793213,0.636475,0.081299,10.917663,-46.279903,13.488769
0.793213,-0.475586,-0.660889,41.549679,59.654232,36.682129,0.805908,0.647705,0.079102,8.796692,-42.091366,14.389037
0.696533,-0.448242,-0.669922,49.209591,62.545773,37.841797,0.812256,0.652344,0.07251,6.576538,-37.124634,14.816283
0.61084,-0.393555,-0.643311,54.367062,61.531063,34.393311,0.797607,0.64209,0.070313,5.615234,-33.256531,15.151977
0.523438,-0.331055,-0.613281,53.520199,57.708736,28.045652,0.76709,0.632324,0.080566,5.233764,-30.998228,15.2359
0.43335,-0.268799,-0.577881,49.674984,50.811764,21.362303,0.741943,0.633545,0.092529,3.14331,-28.388975,14.503478
0.369629,-0.2229,-0.535156,45.700069,39.962769,15.907287,0.74292,0.630615,0.10376,-0.106812,-25.42877,13.786315
1.150391,-0.519775,-0.528076,-3.608703,-5.271911,0.564575,0.752686,0.609619,0.111572,-3.074646,-21.003721,11.146544
0.302734,-0.16333,-0.534912,38.757324,12.855529,7.583618,0.753174,0.60791,0.116699,-7.034301,-15.586852,7.911682
0.32666,-0.190918,-0.515381,42.739864,26.199339,11.260985,0.754639,0.610596,0.118652,-11.222838,-8.056641,4.966736
1.102539,-0.106201,-1.104004,34.332275,83.381645,39.581299,0.782959,0.622803,0.083496,12.306212,-49.629208,12.092589
1.078857,-0.151367,-0.937988,34.461975,58.647152,22.994993,0.84082,0.674561,-0.064941,71.601868,-95.03936,4.806519
0.976563,-0.181885,-0.785889,31.044004,31.433104,11.337279,0.335449,0.209961,-0.684082,106.25457,-133.842468,-1.708984
0.791504,-0.187256,-0.684082,26.840208,6.561279,7.659912,0.876221,0.665527,-0.081543,68.130493,-99.761955,0.762939
1.08252,-0.146973,-1.207764,38.467407,98.1903,52.047726,0.869385,0.675293,-0.062744,71.807861,-95.939629,2.601623
0.418701,-0.158447,-0.576172,24.330137,-9.384155,7.194519,0.35498,0.168701,-0.624512,125.473015,-134.155273,10.131835
0.333008,-0.141846,-0.569824,26.31378,-5.126953,6.04248,0.374023,0.165771,-0.575684,131.43158,-118.09539,27.938841
0.302979,-0.142578,-0.56543,32.318115,2.220154,5.729675,0.333252,0.217285,-0.555908,135.07843,-111.41967,41.069027
0.584473,-0.175537,-0.614502,24.581907,-7.339477,7.5531,0.35083,0.292236,-0.545166,139.23645,-118.392937,40.122986
-0.958496,0.907227,-0.033447,-26.176451,37.628174,-31.784056,0.402588,0.34668,-0.533936,140.983582,-122.901909,34.675598
-0.901367,0.668701,0.019287,-39.596558,-7.202148,-30.677794,0.459961,0.375977,-0.537598,141.136169,-123.733513,28.083799
-0.871826,0.674316,0.022461,-43.189999,-11.58142,-34.805298,0.577637,0.457764,-0.569092,133.499146,-118.911736,14.160155
-0.801025,0.670654,0.024414,-43.220516,-12.96234,-30.799864,0.608643,0.497803,-0.55249,124.992363,-112.68615,9.399414
-0.795898,0.738037,-0.053955,-48.21014,-13.938903,-28.770445,0.634277,0.526123,-0.523193,114.479057,-105.934135,5.256652
-0.687012,0.732422,-0.019043,-52.803036,-12.046813,-31.112669,0.669434,0.538086,-0.486816,103.874199,-101.791374,0.946045
-0.559814,0.648193,0.038818,-40.023804,0.450134,-33.378601,0.520996,0.410889,-0.556641,139.015198,-122.100822,20.599363
-0.889648,0.665527,0.022217,-36.483765,-2.380371,-24.856565,0.772217,0.620605,-0.406738,86.34948,-97.099297,-6.790161
-0.592285,0.690186,0.057861,-22.514341,20.843504,-33.279419,0.863281,0.663086,-0.368408,78.88031,-89.134209,-10.307311
-0.794678,0.813477,-0.003418,-16.845703,37.483215,-33.187866,0.931885,0.678223,-0.333496,72.83783,-75.874329,-13.061522
-1.058594,0.958252,-0.036377,-38.871765,32.00531,-29.182432,0.849609,0.672363,-0.109863,64.14032,-101.142876,-3.387451
-1.087158,0.693115,-0.108154,-29.998777,-11.924743,-28.228758,0.939941,0.692139,-0.294922,68.244934,-65.139771,-17.608643
-1.150635,0.928711,-0.064941,-57.876583,14.671325,-30.899046,0.919434,0.714355,-0.253662,62.774654,-61.828609,-22.14813
-1.173096,0.845703,-0.07373,-57.449337,5.264282,-29.632566,0.876465,0.729248,-0.219238,57.022091,-66.886902,-22.850035
-1.146729,0.734863,-0.077148,-45.173641,-3.02124,-28.533934,0.819824,0.723633,-0.181152,54.901119,-77.209473,-17.822266
-1.038818,0.73999,-0.172363,-26.618956,-23.674009,-27.519224,0.79248,0.703857,-0.155029,57.594296,-88.378899,-12.138366
-1.016846,0.806396,-0.184814,-34.103394,-36.987305,-28.984068,0.813965,0.685791,-0.138672,60.600277,-96.939079,-8.750916
-0.951904,0.845459,-0.163574,-42.869564,-47.012325,-31.890867,0.716797,0.570313,-0.448486,94.711296,-99.906914,-3.135681
-0.893066,0.855957,-0.117188,-47.607418,-53.245541,-35.232544,0.310547,0.137451,-0.913818,-39.596558,70.777893,19.989014
-0.867432,0.857178,-0.093018,-51.162716,-58.227535,-37.216187,0.356445,0.140625,-0.883789,-41.725155,69.442749,16.777039
-0.85791,0.891357,-0.10498,-59.341427,-63.58337,-36.384583,0.383545,0.142578,-0.854004,-46.432491,68.405151,13.450622
-0.880127,0.690186,0.008789,-34.248352,2.372742,-19.256592,0.362549,0.249756,-0.779053,-61.042782,69.702148,-5.622863
-1.111816,0.95459,-0.049805,-49.804684,24.147032,-29.357908,0.369385,0.171631,-0.821777,-56.396481,65.376282,6.286621
-0.838623,0.720459,-0.016846,-18.569946,8.911133,-6.41632,0.34668,0.198242,-0.805908,-59.722897,64.575195,2.380371
-0.835693,0.916016,-0.109863,-71.983337,-68.359375,-38.497925,0.339355,0.21875,-0.790039,-60.882565,65.834045,-1.777649
-0.752441,0.689697,-0.02124,-5.851745,8.514404,1.38092,0.273193,0.127441,-0.935547,-40.695187,73.394775,22.422789
-0.938477,0.728516,-0.113525,75.340271,45.494076,38.551331,0.385498,0.148193,-0.834961,-51.551815,66.802979,10.116576
-0.914307,0.753418,-0.102295,70.236206,42.304989,37.712097,0.262451,0.116211,-0.935059,-43.937679,77.232361,22.872923
-0.885986,0.783203,-0.099365,59.799191,38.742065,34.965515,0.209229,0.068359,-0.909668,-31.494139,49.507137,18.013
-0.879395,0.799805,-0.083496,48.187252,34.324646,29.891966,0.297363,0.093994,-0.886719,-44.654842,83.084099,18.4021
-0.878174,0.795166,-0.060547,39.154053,30.776976,24.490355,0.283203,0.090088,-0.872314,-41.603085,83.580009,17.570496
-0.867188,0.782227,-0.050537,32.119751,28.213499,19.90509,0.248047,0.094482,-0.859619,-37.361145,82.328789,18.745422
-0.886475,0.793701,-0.047119,22.949217,25.077818,16.967773,0.202148,0.104004,-0.849121,-33.805847,78.666687,19.981384
-0.939941,0.782471,-0.057129,11.489867,18.2724,12.573241,0.157715,0.108398,-0.839355,-32.432556,72.784424,20.64514
-0.956787,0.626709,-0.021973,15.296935,11.535644,6.187438,0.122314,0.097168,-0.826172,-32.844543,63.949581,20.76721
-0.898682,0.56543,0.047363,36.834717,15.960692,13.229369,0.133789,0.071289,-0.828857,-33.248901,54.321285,18.478394
-0.787354,0.69165,-0.017334,-10.734557,9.681702,-1.266479,0.156006,0.059082,-0.856201,-33.287048,46.813961,15.518188
-0.846924,0.722168,0.006836,43.579098,22.758482,16.555786,0.189941,0.055176,-0.890381,-33.302307,43.93005,14.068603
-0.845703,0.741699,-0.032227,40.153503,30.364988,13.305663,0.213135,0.062744,-0.905762,-32.714844,45.967098,15.319823
-0.853027,0.746582,-0.044189,36.66687,30.838011,12.329101,0.403809,0.281494,-0.769287,-60.775753,75.004578,-7.728576
-0.861328,0.740479,-0.037109,32.669067,29.769896,10.620116,0.281982,0.106934,-0.910645,-45.722958,80.92498,20.858763
-0.862061,0.72876,-0.025635,29.243467,27.976988,8.766174,0.448486,0.306641,-0.76123,-61.06567,79.940796,-8.712769
-0.857422,0.7229,-0.010742,24.276731,24.406431,6.744384,0.618408,0.35791,-0.692383,-32.50885,75.683594,7.949829
-0.854492,0.711914,-0.012695,19.485474,19.332886,4.875183,0.495605,0.335449,-0.737061,-60.56213,82.122795,-9.338379
-0.849121,0.701416,-0.026123,15.724181,13.328551,3.074646,0.616455,0.28418,-0.395996,-43.373104,123.855583,-21.820066
-0.831787,0.703369,-0.031494,10.055541,8.621216,2.319336,0.17627,0.057373,-0.884277,-29.472349,48.179623,20.286558
-0.79541,0.70166,-0.03125,3.463745,6.340026,2.555847,0.588623,0.308838,-0.422363,-35.78949,129.768372,-14.648437
-0.755859,0.693359,-0.027344,-1.495361,6.599426,2.288818,0.540283,0.306396,-0.424072,-31.593321,125.839226,-7.919311
-0.844727,0.75293,-0.023926,42.137142,27.343748,14.35852,0.505615,0.305908,-0.420898,-27.961729,116.920464,-1.426697
-0.800049,0.89917,-0.124268,-82.756035,-71.975708,-43.42651,0.497314,0.311035,-0.428467,-26.130674,106.437675,3.845215
-0.866943,0.720703,-0.005859,-27.748106,6.553649,-12.580871,0.515625,0.309082,-0.459473,-25.543211,97.755424,7.385253
-0.777832,0.810303,-0.234863,-89.965813,-80.093384,-47.58453,0.557861,0.282227,-0.502197,-24.147032,92.987053,10.2005
-0.387695,0.549072,-0.791748,-68.962097,-33.576965,-7.278442,0.588379,0.272949,-0.549805,-20.698545,90.194695,14.953612
-0.390625,0.561523,-0.820313,-68.336487,-24.147032,-10.94818,0.611328,0.274658,-0.598633,-18.77594,87.471001,16.609192
-0.434082,0.554932,-0.861572,-68.138123,-20.622252,-11.062621,0.612549,0.286377,-0.639893,-19.111633,83.595268,16.365051
-0.511475,0.524902,-0.873535,-68.946838,-28.411863,-9.361267,0.60083,0.29248,-0.669678,-21.39282,79.269409,14.938354
-0.574463,0.480469,-0.842285,-68.496704,-44.960018,-9.262085,0.597168,0.30835,-0.683594,-25.238035,76.10321,12.931823
-0.593506,0.43457,-0.792725,-66.139221,-63.987728,-11.299132,0.606201,0.326904,-0.689209,-28.739927,74.676514,10.589599
-0.562744,0.414551,-0.756348,-63.537594,-80.596916,-15.647887,0.637695,0.382813,-0.693848,-36.056519,80.055237,4.043579
-0.489502,0.432617,-0.750244,-63.674923,-91.13311,-21.484373,0.645752,0.388428,-0.705078,-38.398743,86.128227,0.62561
-0.395752,0.479736,-0.768066,-67.741394,-93.765251,-25.741575,0.621582,0.379883,-0.719482,-38.43689,89.225761,-0.267029
-0.330566,0.49585,-0.797363,-72.624207,-91.00341,-26.206968,0.575195,0.371826,-0.745361,-36.6745,87.272636,0.549316
-0.406738,0.521729,-0.780273,-69.923401,-41.046139,-2.403259,0.530762,0.370117,-0.769775,-36.659241,82.931511,1.823425
-0.302734,0.459961,-0.825439,-74.760437,-86.959831,-23.29254,0.505615,0.365967,-0.772949,-41.442867,80.062866,1.052856
-0.228271,0.337891,-0.827637,-67.565918,-83.869926,-19.340515,0.497314,0.364746,-0.753418,-48.309322,79.040527,-1.602173
-0.172363,0.32959,-0.802246,-63.392635,-83.137505,-18.531799,0.494629,0.357178,-0.737549,-54.016109,79.795837,-5.279541
-0.118408,0.358887,-0.785645,-61.721798,-83.297722,-17.158508,0.496094,0.347656,-0.733887,-58.464046,81.161491,-8.346558
-0.062012,0.406494,-0.812256,-63.850399,-80.55114,-16.25061,0.483154,0.322998,-0.749268,-61.019894,82.344048,-9.338379
0.005859,0.455811,-0.863037,-70.045471,-70.304871,-14.587401,0.615723,0.30249,-0.411133,-39.482117,127.517693,-19.569397
0.047363,0.464844,-0.906006,-76.377869,-54.977413,-10.627746,0.131348,0.030029,-0.879639,-24.978636,41.519161,22.628782
0.051514,0.415771,-0.937012,-78.262329,-40.000916,-3.913879,0.085693,0.022949,-0.933838,-16.204834,24.185179,24.230955
0.025879,0.330322,-0.943115,-73.822021,-29.197691,3.669739,-0.344727,-0.288818,-1.083008,-131.477356,150.588989,-70.899963
-0.01709,0.252441,-0.929932,-64.903259,-23.956297,9.719849,-0.503662,-0.363037,-1.039307,-127.403252,135.681152,-64.979553
-0.065918,0.216797,-0.909912,-56.228634,-24.253843,13.710021,-0.62793,-0.45459,-1.003662,-118.713371,117.080681,-56.701656
-0.273682,0.392578,-0.834473,-72.58606,-84.724419,-20.233152,-0.693604,-0.530273,-0.93042,-108.482353,104.553215,-48.637386
-0.402588,0.492676,-0.77002,-73.791504,-42.938229,0.37384,-0.715576,-0.557373,-0.853516,-98.510735,95.893852,-41.481014
-0.758057,0.858154,-0.175049,-88.35601,-74.897766,-46.211239,-0.744629,-0.556641,-0.782471,-88.928215,83.862297,-33.035278
-0.37085,0.496338,-0.752441,-81.031792,-40.809628,0.175476,-0.802734,-0.577637,-0.782227,-79.429626,65.26947,-22.987364
-0.843018,0.777588,-0.273926,-90.530388,-87.760918,-51.216122,-0.842041,-0.609375,-0.791992,-67.5354,42.762753,-14.251708
-0.834473,0.75708,-0.292725,-90.164177,-95.260612,-55.52673,-0.815918,-0.627686,-0.808594,-53.581234,22.27783,-7.545471
-0.745605,0.748535,-0.324951,-89.660637,-100.486748,-58.654781,-0.725586,-0.685791,-0.768799,-22.315977,1.953125,9.803772
-0.653809,0.749512,-0.349609,-90.621941,-102.897636,-60.737606,-0.174072,-0.243896,-1.117676,-131.477356,157.669067,-73.768616
-0.560547,0.741211,-0.369873,-92.117302,-102.508537,-61.683651,-0.609375,-0.606201,-0.735107,-10.398864,-0.732422,2.578735
-0.480225,0.718994,-0.382568,-92.26989,-99.967949,-61.141964,-0.635742,-0.588379,-0.775635,0.595093,-13.191222,10.108947
-0.384277,0.649414,-0.43457,-85.807793,-91.583244,-54.496761,-0.589355,-0.575439,-0.827637,8.338928,-23.948668,23.422239
-0.358887,0.628906,-0.439941,-82.756035,-88.539116,-49.674984,-0.519775,-0.543701,-0.855225,17.753601,-32.974243,33.027649
-0.328857,0.656494,-0.454102,-84.991447,-84.762566,-46.928402,-0.468994,-0.506348,-0.845459,28.640745,-42.640682,37.574768
-0.302734,0.718506,-0.477783,-95.321648,-77.720642,-45.890804,-0.452393,-0.46875,-0.823975,36.766052,-51.353451,35.240173
-0.304932,0.745361,-0.479004,-109.52758,-68.55011,-44.876095,-0.419678,-0.429688,-0.807129,40.191647,-56.457516,29.754637
-0.422363,0.684082,-0.408691,-89.759819,-95.756523,-58.860775,-0.375488,-0.394531,-0.780762,39.871216,-58.349606,23.757933
-0.310791,0.611328,-0.479736,-122.00164,-53.298946,-38.81073,-0.335205,-0.376709,-0.743896,37.010193,-58.509823,18.77594
-0.317139,0.703613,-0.469727,-119.773857,-59.814449,-42.633053,-0.297852,-0.358643,-0.720459,32.371521,-59.822079,15.052794
-0.290527,0.578369,-0.722168,-94.078056,-39.352417,-7.881164,0.098633,0.021729,-0.899902,-19.744873,32.012939,24.612425
-0.267334,0.611816,-0.687256,-96.473686,-43.380733,-13.084411,-0.61084,-0.57666,-0.737549,-5.050659,-3.990173,-0.389099
-0.264404,0.598145,-0.640625,-96.061699,-50.155636,-19.805908,0.007324,-0.195313,-1.094727,-133.392334,159.52301,-65.238953
-0.313477,0.535156,-0.573975,-95.6726,-56.457516,-25.779722,-0.819336,-0.686035,-0.810791,-39.024353,8.628845,3.65448
-0.32959,0.532959,-0.734619,-88.676445,-38.368225,-2.975464,0.162354,0.010986,-1.036377,-139.23645,137.542725,-29.71649
-0.403076,0.440674,-0.517334,-102.294914,-55.221554,-27.397154,0.11377,-0.099121,-1.052734,-138.313293,153.236389,-44.876095
-0.367676,0.453125,-0.509521,-109.191887,-51.307674,-29.518126,0.119629,0.039551,-0.98999,-10.82611,24.002073,22.575377
-0.322754,0.513916,-0.498047,-116.859428,-50.2243,-34.179688,0.117432,0.033203,-0.985107,-8.544922,24.185179,20.622252
-0.383057,0.466064,-0.525879,-97.358696,-58.143612,-27.618406,0.088623,0.036377,-0.953369,-3.990173,19.493103,19.226074
0.874512,-0.159912,-1.230469,75.35553,36.819458,-7.5531,0.061523,0.036865,-0.925293,1.63269,13.526916,19.218445
0.189697,-0.101807,-0.731445,71.06781,-124.176018,-27.229307,0.058594,0.052002,-0.945313,4.142761,10.475158,18.188477
0.271973,-0.065918,-0.799072,66.627502,-117.584221,-38.619995,0.095947,0.088379,-0.969482,3.921509,9.811401,13.877868
0.378418,-0.019287,-0.814941,56.541439,-111.343376,-52.238461,0.116455,0.129639,-0.986084,-0.50354,12.519835,7.751464
0.408691,0.050049,-1.023193,42.358395,-96.496574,-45.112606,0.112061,0.149658,-0.978516,-5.569458,18.310547,4.776001
0.399414,0.101074,-1.150879,34.660339,-71.182251,-27.557371,0.091553,0.179688,-0.972168,-11.550902,20.13397,4.890442
0.504395,0.157227,-1.168701,28.45001,-61.94305,-15.449523,0.032471,0.119873,-0.981445,-22.003172,17.349243,11.505126
0.550537,0.199951,-1.443848,22.254942,-34.309387,4.249573,0.104492,0.037598,-0.969238,-13.542174,22.216795,23.338316
0.796631,0.044678,-1.340332,30.799864,-5.493164,9.635925,0.200195,0.130371,-1.020264,-37.818909,27.679441,49.46899
0.91333,-0.103027,-1.254883,55.496212,17.478943,-2.868652,0.042236,0.012451,-0.991455,-29.556273,21.156309,38.780212
0.660645,-0.14917,-1.155762,86.09008,47.355648,-4.478455,0.348145,0.163574,-1.039063,-130.203247,102.72216,-27.534483
0.410889,0.030273,-1.038574,93.009941,57.312008,2.502441,0.317139,0.216797,-1.034912,-124.031059,88.23394,-23.948668
0.426025,0.141602,-0.988525,92.834465,61.988827,4.981995,0.267822,0.239258,-1.007813,-114.463799,82.702629,-17.951965
0.511963,0.245605,-0.974121,90.942375,70.297241,10.81848,0.280762,0.267822,-0.972412,-103.309624,78.865051,-15.640258
0.573486,0.313232,-1.015137,88.10424,82.481377,18.974304,0.276855,0.104248,-1.028076,-136.352539,120.99456,-27.481077
0.532471,0.323975,-1.04834,85.487358,94.200127,28.091429,0.383057,0.342285,-1.012207,-76.86615,59.516903,8.087158
0.412598,0.294189,-1.016602,85.754387,101.661674,37.963867,0.386719,0.293945,-1.037109,-60.195919,45.669552,26.161192
0.30127,0.263184,-0.972168,87.387077,105.827324,45.0592,0.325684,0.200684,-1.043945,-48.33984,35.514832,42.28973
0.235107,0.251221,-0.928711,87.188713,108.840935,46.493526,0.349609,0.316895,-0.974365,-93.101494,72.174072,-8.06427
0.211914,0.268066,-0.910156,85.136406,111.953728,42.686459,0.854736,0.576416,0.109131,32.394409,-76.446533,14.312743
0.214844,0.299805,-0.919189,83.526604,114.540092,36.590576,0.929688,0.602051,-0.009766,40.40527,-114.662163,1.51062
0.201172,0.312988,-0.940918,84.526054,114.227287,32.524109,0.959229,0.585205,0.023926,40.580746,-106.071465,3.341675
0.075439,-0.136963,-0.660889,71.19751,-118.713371,-26.44348,0.998535,0.57373,0.026855,42.709347,-94.619743,4.28772
0.47876,-0.077637,-1.088135,90.713493,53.359982,0.12207,1.013672,0.587891,0.01709,42.320248,-82.046501,4.455566
-0.041504,-0.156982,-0.665527,70.06073,-93.719475,-27.473448,0.97998,0.61499,0.012207,40.458675,-72.021484,5.958557
0.99585,-0.464111,-0.810791,75.088501,154.792786,56.762691,0.918457,0.629395,0.027344,39.0625,-71.060181,11.58142
-0.05127,-0.171143,-0.607422,65.795898,-4.173279,-7.5531,0.937744,0.599609,-0.04248,41.633602,-118.568413,-0.88501
1.102783,-0.657959,-1.0625,-71.70105,-249.992355,-70.213318,0.885986,0.614258,0.035889,38.398743,-74.195862,16.029358
1.121582,-0.663818,-0.980713,-66.390991,-224.327072,-63.705441,0.863525,0.590088,0.05835,35.491943,-76.324463,16.136169
1.253418,-0.657715,-0.966553,-56.495663,-179.351791,-45.074459,0.86377,0.581299,0.14209,28.900145,-73.028564,11.688231
1.464844,-0.617188,-0.991699,-42.816158,-128.730774,-29.426573,0.784912,0.558105,0.187744,11.894225,-57.121273,13.534545
1.591553,-0.556396,-1.013428,-34.698486,-82.138054,-24.726866,0.811279,0.590576,0.166748,19.630432,-64.811707,9.902954
1.382568,-0.520752,-0.938232,-37.712097,-67.871094,-31.532286,0.77417,0.575195,0.173828,17.14325,-62.561031,11.695861
1.191162,-0.55127,-0.793457,-28.549192,-79.338074,-43.342587,0.773682,0.569092,0.185547,14.86206,-60.920712,13.206481
1.148193,-0.604492,-0.677246,1.411438,-65.063477,-36.422729,0.791748,0.554688,0.19165,7.621765,-52.398678,12.96234
1.094727,-0.620117,-0.638184,32.447815,-13.488769,-3.02124,0.799072,0.556152,0.210693,3.829956,-48.477169,12.565612
1.00708,-0.605713,-0.690674,52.108761,48.652645,36.262512,0.806152,0.54834,0.23999,2.304077,-45.303341,11.940001
-0.074219,-0.164795,-0.64209,69.488525,-53.955074,-20.698545,0.809082,0.551025,0.262451,0.473022,-40.77911,9.689331
0.978271,-0.573486,-0.75,66.093445,95.458977,56.663509,0.81543,0.558838,0.273193,-4.226685,-35.919189,5.706787
0.137451,0.295654,-0.946289,88.729851,110.336296,31.631468,0.808105,0.561035,0.258057,-7.43103,-31.593321,3.517151
0.834961,-0.405762,-0.80542,70.381165,169.960007,58.395382,0.958496,0.610107,-0.072998,41.763302,-116.538994,-4.837036
0.596436,-0.371094,-0.75708,65.223694,173.347458,61.111446,0.853516,0.593262,0.15625,23.910521,-68.359375,9.544373
0.449707,-0.351074,-0.697021,63.4613,165.595993,60.142513,0.989014,0.594238,-0.090576,45.455929,-113.479607,-5.241394
0.37915,-0.317139,-0.692871,62.339779,153.518677,54.145809,0.80249,0.560547,0.244873,-10.116576,-28.007505,2.075195
0.319092,-0.266602,-0.710938,58.341976,141.540527,43.342587,0.933838,0.571777,-0.098145,50.498959,-115.989677,-1.25885
0.227295,-0.215576,-0.717529,52.558895,129.40979,32.875061,0.351563,0.146729,-0.676025,89.477531,-123.367302,8.079529
0.101318,-0.192871,-0.707275,50.247189,112.380974,26.153563,0.333984,0.166748,-0.665039,93.086235,-136.46698,7.125854
0.005371,-0.189209,-0.653076,53.977962,85.09063,20.072937,0.31543,0.175537,-0.648193,96.275322,-150.123596,7.972717
-0.027344,-0.180664,-0.593994,60.028072,45.204159,8.384705,0.313477,0.166016,-0.615723,100.128166,-160.881027,11.146544
1.011963,-0.525146,-0.800537,74.684143,129.486084,58.624264,0.342041,0.155029,-0.589111,104.812614,-168.174728,14.961242
0.057129,0.274902,-0.928955,92.498772,105.37719,32.104492,0.401611,0.164795,-0.56665,109.191887,-169.486984,17.173767
0.001709,0.26416,-0.892578,93.803398,100.46386,32.188416,0.475586,0.200684,-0.543457,112.060539,-165.153488,15.220641
-0.03833,0.265137,-0.851563,93.521111,94.558708,31.997679,0.527832,0.228271,-0.510254,111.67144,-159.744263,9.69696
-0.748535,0.821289,-0.293457,76.499939,58.258053,50.178524,0.509766,0.226807,-0.47998,109.176628,-156.219482,11.337279
-0.746338,0.943115,-0.330322,49.446102,46.203609,38.627625,0.499268,0.208008,-0.458008,114.959709,-158.912659,28.060911
-0.732178,0.906494,-0.361816,29.273985,43.899532,32.295227,0.981445,0.56958,-0.088867,48.347469,-113.548271,-2.861023
-0.728516,0.753174,-0.382568,26.718138,46.333309,30.616758,0.543213,0.263428,-0.439941,123.733513,-167.976364,40.008545
-0.741943,0.610107,-0.397949,37.528992,48.812862,31.959532,0.654053,0.291992,-0.381836,124.176018,-169.029221,40.924068
-0.767334,0.555908,-0.408691,50.697323,49.369808,32.798767,0.73584,0.325195,-0.32959,121.223442,-160.430908,37.345886
-0.812012,0.605469,-0.398438,57.716366,46.836849,30.09033,0.801514,0.372559,-0.293213,115.264885,-147.674561,31.433104
-0.833252,0.721436,-0.390137,54.748531,43.502804,24.368284,0.834473,0.432129,-0.257568,105.468742,-133.415222,25.215147
-0.770752,0.825195,-0.429688,46.859737,46.775814,21.102903,0.838867,0.494873,-0.229736,93.536369,-120.880119,20.469664
-0.777344,0.755615,-0.440186,56.53381,52.337643,27.984617,0.823242,0.538086,-0.202393,82.771294,-113.090508,17.01355
-0.687012,0.62915,-0.297119,94.985954,79.345703,60.279842,0.797852,0.566895,-0.17334,74.981689,-112.380974,13.336181
-0.815186,0.677979,-0.45459,73.83728,57.41119,35.774231,0.793945,0.580566,-0.162354,68.939209,-115.669243,8.468628
-0.828369,0.761963,-0.368896,98.457329,58.79974,39.550781,0.814941,0.585938,-0.146729,62.599178,-117.736809,3.517151
-0.804199,0.903564,-0.32959,91.201775,63.522335,42.907711,0.867432,0.583984,-0.119629,55.343624,-117.629997,0.244141
-0.755859,0.993408,-0.301025,77.293396,69.923401,42.076107,0.584229,0.281494,-0.417236,125.762932,-171.844467,42.442318
-0.760986,0.97583,-0.275635,66.673279,76.774597,39.482117,0.801758,0.565186,0.237549,-12.84027,-25.238035,1.625061
-0.803467,0.896484,-0.272217,63.774105,82.069389,38.276672,1.01001,0.605469,0.213379,14.968871,66.520691,-13.633727
-0.851318,0.803955,-0.272461,65.689087,82.099907,37.895203,0.820801,0.54541,0.250244,-13.46588,-20.744322,2.128601
-0.905273,0.737061,-0.268311,70.579529,76.217651,39.764404,1.033936,0.64917,0.140869,-9.536743,91.148369,-0.648498
-0.953857,0.714355,-0.237061,74.310303,66.894531,42.076107,0.985352,0.620605,0.109863,-17.692566,95.306389,-1.594543
-0.955322,0.709717,-0.169189,75.149536,57.525631,41.397091,0.915527,0.583008,0.063477,-23.101805,94.177238,-2.830505
-0.949463,0.712158,-0.12793,75.950623,50.216671,39.833069,0.891602,0.554932,0.020508,-26.69525,92.536919,-5.493164
-0.839355,0.667725,-0.400146,92.750542,58.380123,39.039612,0.908691,0.542725,-0.014893,-30.036924,96.061699,-7.186889
-0.57373,0.501953,-0.351563,97.160332,101.036064,66.337585,0.929199,0.542969,-0.003418,-34.408569,102.890007,-5.897521
-0.799316,0.818604,-0.407959,47.546383,42.907711,19.805908,0.933594,0.525391,0.040039,-37.223816,107.658379,-3.89862
-0.410645,0.539063,-0.47998,88.188164,129.859924,65.956116,0.92041,0.501953,0.052246,-38.063049,110.046379,-4.150391
-0.069824,0.278076,-0.799072,92.323296,86.929314,31.280516,0.915039,0.483887,0.036865,-38.345337,113.067619,-5.676269
-0.473389,0.489746,-0.432617,91.072075,118.125908,68.519592,0.906982,0.450195,-0.046875,-36.29303,121.994011,-7.606506
-0.074463,0.336182,-0.751709,88.256828,73.020935,28.228758,1.044678,0.655273,0.164307,0.747681,82.710258,-1.312256
-0.049316,0.36499,-0.753662,85.266106,70.640564,27.267454,0.885254,0.460205,-0.105957,-37.445068,122.451775,-5.348205
-0.024414,0.383789,-0.757568,81.80999,72.20459,27.748106,0.908203,0.478516,-0.207764,-52.352901,125.53405,-12.680053
-0.020264,0.376465,-0.743652,79.498291,76.11084,28.869627,0.896484,0.437012,-0.230713,-58.837887,128.112793,-19.378662
-0.024902,0.349121,-0.715332,80.650322,81.214897,30.548094,0.859619,0.406982,-0.25293,-61.164852,129.051208,-25.062559
-0.020752,0.326172,-0.683105,84.991447,86.326591,32.806396,0.817871,0.390625,-0.277344,-61.988827,128.318787,-27.793882
-0.019287,0.333252,-0.661377,87.768547,91.026299,33.561707,0.780762,0.364014,-0.305176,-61.775204,127.098076,-28.228758
-0.024658,0.392578,-0.640625,85.09063,96.137993,31.555174,0.750244,0.337891,-0.330566,-60.485836,126.342766,-28.533934
-0.015869,0.472168,-0.63501,78.430176,103.752129,28.106688,0.703613,0.30835,-0.355957,-58.212276,125.228874,-27.885435
-0.081787,0.304932,-0.766846,90.538017,78.948975,29.975889,0.654541,0.290771,-0.382324,-55.641171,123.908989,-26.199339
0.010986,0.477783,-0.637939,74.813843,127.983086,27.458189,0.631836,0.279053,-0.393311,-52.703854,122.680656,-24.971006
0.001221,0.508057,-0.631592,73.84491,115.013115,26.19171,0.623291,0.272705,-0.39502,-48.316952,122.177116,-23.54431
-0.358887,0.577881,-0.520508,96.099846,131.904602,56.015011,0.894287,0.476318,-0.168457,-43.823238,122.88665,-7.04956
-0.303711,0.49292,-0.533691,110.046379,136.680603,46.058651,1.033447,0.63623,0.196289,9.651184,73.753357,-5.424499
-0.276367,0.414307,-0.540283,106.834404,144.920349,48.294064,0.922852,0.462402,0.000977,-37.658691,118.247978,-7.545471
-0.209473,0.368408,-0.575928,102.943413,151.397705,44.151302,0.983154,0.558594,0.204102,17.38739,58.578487,-26.031492
-0.317871,0.564941,-0.547852,107.589714,132.026672,44.334408,0.814941,0.551514,0.235596,-14.045714,-22.949217,1.213074
-0.087402,0.345459,-0.618408,94.306938,153.121948,31.837461,0.813477,0.528564,0.264404,-9.017944,-17.158508,2.067566
-0.046143,0.37085,-0.63501,87.646477,148.620605,30.426023,0.799561,0.528809,0.240967,-7.247924,-15.136718,1.365662
-0.005371,0.418457,-0.643799,80.482475,139.823914,29.487608,0.779297,0.529785,0.22168,-7.362365,-12.741088,0.198364
-0.138916,0.344238,-0.603271,99.372856,154.022217,36.766052,0.745117,0.54248,0.227051,-7.499694,-10.765075,-1.213074
0.274414,-0.053467,-1.036621,-49.957272,-5.081176,0.144958,0.729004,0.552246,0.238037,-6.729125,-9.727478,-1.937866
-0.047119,0.158203,-1.034912,-64.605713,-60.523983,26.916502,0.718018,0.561035,0.246826,-4.837036,-10.047912,-2.441406
-0.217041,0.093018,-0.973145,-55.236813,-83.045952,23.147581,0.72168,0.556152,0.236328,-2.227783,-8.628845,-4.348755
-0.328369,0.051758,-0.867188,-44.532772,-116.287224,17.417908,0.73584,0.567139,0.227539,-1.594543,-5.897521,-5.332946
-0.336914,0.013672,-0.774658,-37.528992,-149.94812,15.228271,0.761963,0.563721,0.220215,-1.64032,-3.692627,-6.591796
-0.312744,-0.054199,-0.717041,-29.510496,-163.536057,13.557433,0.771729,0.561279,0.216309,-3.700256,0.62561,-9.262085
-0.274658,-0.115967,-0.730469,-17.601013,-143.600464,3.501892,0.82251,0.538574,0.262451,-11.764525,-18.928528,2.815246
0.080566,0.201904,-1.078857,-65.345764,-53.024288,23.780821,0.76709,0.555176,0.242676,-9.178162,11.024474,-15.472411
-0.135742,-0.109863,-0.77417,-14.831542,-100.601189,-8.125305,0.765625,0.555664,0.232666,-6.607055,5.851745,-11.825561
0.088867,-0.065674,-0.865967,-32.318115,-51.673885,-8.148193,0.909424,0.495117,0.195801,14.305114,40.229794,-48.431393
0.369385,-0.040039,-1.045166,-48.011776,48.187252,4.981995,0.841309,0.481445,0.19873,12.992858,32.035828,-49.301144
0.016357,0.095947,-0.857178,-52.696224,76.73645,7.92694,0.767334,0.461914,0.237305,13.252257,24.185179,-43.189999
0.520752,0.014648,-0.852783,-40.06958,141.410828,1.045227,0.70874,0.460693,0.257324,8.415222,21.697996,-34.27124
0.432617,0.044189,-0.880615,-51.383968,133.781433,2.449036,0.94751,0.532471,0.202637,17.295837,48.202511,-38.803101
0.188477,0.086182,-0.863037,-57.044979,106.38427,1.808166,0.703857,0.539307,0.236328,-8.590698,25.436399,-26.664732
-0.057617,0.061279,-0.904297,-41.419979,51.48315,28.45764,0.74585,0.533691,0.249756,-10.124206,22.895811,-25.398252
-0.017822,0.000488,-0.997803,-30.746458,24.414061,61.279293,0.765869,0.542725,0.256104,-10.292052,16.487122,-20.568846
0.030518,-0.068604,-1.116211,-16.784668,2.670288,93.124382,0.719238,0.483643,0.259277,-1.159668,23.330687,-28.511045
0.122314,-0.096436,-1.084229,2.967834,3.204345,102.050774,-0.702148,-0.439209,-0.989014,-133.865356,125.549309,-56.724545
0.363525,-0.079834,-0.967529,25.421141,35.148621,91.781609,0.282471,0.322998,-0.794678,-249.992355,219.558701,10.940551
0.17627,0.217529,-1.101807,-61.096188,-61.607357,12.184142,0.165527,-0.148682,-0.777344,-249.992355,225.395187,0.480652
0.716797,0.06958,-0.930908,36.727905,116.790764,82.145683,0.181396,-0.561279,-0.841064,-235.054001,243.782028,25.344847
0.450195,-0.004639,-0.894043,-38.406372,105.514519,2.13623,0.123779,-0.613525,-0.960449,-194.686874,249.992355,41.099545
0.256348,0.214844,-1.080322,-58.387753,-81.581108,-5.752563,-0.148438,-0.492676,-1.123047,-167.495712,243.789658,32.852173
-1.040771,0.229492,-0.723633,57.15942,-1.106262,-70.129395,-0.492188,-0.419189,-1.126953,-145.759583,224.838242,34.385681
0.156494,0.213135,-1.094971,-60.096737,-118.972771,-39.672852,0.479248,0.548828,-0.85791,-244.194016,228.485092,57.769772
0.93457,0.312012,-1.086182,27.793882,223.907455,84.381096,-0.77002,-0.211426,-1.130615,-148.239136,192.031845,11.741637
-1.191162,0.262451,-0.699707,77.125549,-38.375854,-62.011715,-0.80127,-0.291748,-1.050049,-150.726318,156.3797,-25.993345
-1.046143,0.176514,-0.709473,97.045891,-86.868279,-63.911434,-0.684082,-0.510986,-0.996338,-111.0382,104.515068,-82.916252
-0.670898,0.217773,-0.829102,105.178825,-101.577751,-90.843193,-0.713135,-0.325684,-0.815674,-21.27075,57.266232,-25.0473
-0.705566,0.517578,-0.968018,89.195244,-62.004086,-122.108452,-0.824463,-0.606445,-1.055176,-100.059502,92.872612,-84.800713
-0.441895,0.70459,-0.910889,37.147522,-56.343075,-73.760986,-0.984619,-0.731201,-0.922607,-78.88031,76.217651,-44.601437
-0.489746,0.590332,-0.926025,0.579834,-81.344597,-13.236999,-0.923584,-0.682861,-0.794434,-27.587889,56.442257,-8.018494
-0.597656,0.500244,-0.931396,-23.056028,-100.547783,1.647949,-0.749756,-0.303955,-0.843018,-53.12347,62.049862,-63.491817
-0.721924,0.502197,-0.864014,-44.921871,-126.350395,7.728576,-0.822266,-0.526367,-0.789063,-59.394833,54.222103,-64.468384
-0.790527,0.445801,-0.774902,-51.155087,-153.030396,7.965087,-0.776367,-0.669922,-0.726074,-22.964476,35.705566,-26.985167
0.284424,0.210938,-1.053467,-58.883663,-103.500359,-24.780272,-0.699951,-0.618408,-0.710693,19.081116,19.981384,13.160705
-0.801025,0.472656,-0.701416,-52.482601,-180.099472,9.20105,-0.704346,-0.560791,-0.72168,47.012325,5.493164,40.252682
-0.646973,0.61499,-0.609131,-77.407837,-229.042038,6.050109,-0.747559,-0.547363,-0.734863,66.40625,-13.298034,56.900021
-0.445801,0.631592,-0.541748,-95.298759,-226.62352,-8.361816,0.602539,0.405273,-0.858398,-221.038803,235.687241,98.838799
-0.191895,0.564941,-0.52124,-110.130302,-207.107529,-24.444578,-0.735596,-0.559326,-1.039063,-98.808281,96.130363,-97.076408
-0.041992,0.437988,-0.532959,-112.68615,-179.435715,-42.869564,0.645996,0.402832,-0.852539,-204.658493,233.67308,101.333611
-0.056152,0.277832,-0.63916,-104.37011,-152.000427,-38.383484,0.765625,0.500488,-0.501709,-37.605286,78.025818,-25.672911
-0.069336,0.145264,-0.750488,-83.549492,-134.750366,-28.282164,0.832764,0.468018,-0.784912,-147.529602,234.672531,103.507988
-0.148682,0.061768,-0.854004,-60.150143,-130.0354,-27.030943,-0.736572,-0.539307,-0.743896,81.901543,-35.461426,63.301083
-0.247314,0.053223,-0.935059,-44.570919,-129.722595,-43.266293,0.664551,0.425293,-0.487061,-41.198727,73.204041,-10.803222
-0.263184,0.10083,-1.000977,-44.029232,-131.93512,-49.919125,0.582031,0.327393,-0.457764,-40.985104,43.724056,-10.543822
-0.091309,0.180664,-1.081055,-54.527279,-129.463196,-47.492977,0.537354,0.255371,-0.403809,-41.809078,0.045776,-21.446226
-0.75708,0.55127,-0.677979,-62.545773,-210.250839,12.382506,0.522705,0.225098,-0.433594,-44.55566,-38.139343,-26.794432
0.871338,0.436768,-1.263672,13.290404,249.992355,91.423027,0.521729,0.190186,-0.513916,-43.769833,-57.815548,-7.17926
-0.659424,0.290283,-0.475586,-245.857224,-249.992355,-109.718315,0.570801,0.128418,-0.570068,-32.516479,-53.161617,31.394957
0.154785,0.346924,-1.281738,18.386841,248.817429,90.087883,0.727783,0.149902,-0.591309,-17.944336,-23.262022,46.173092
-0.899902,0.13623,-0.425781,-188.110336,85.723869,-224.334702,0.851074,0.302734,-0.611084,-20.484922,19.470215,10.307311
-0.914063,0.134766,-0.437988,-203.269943,40.626522,-196.525558,0.745605,0.47998,-0.634033,-44.464108,43.273922,-31.913755
-0.820801,0.095703,-0.352539,-195.50322,-36.018372,-165.817245,0.598145,0.571777,-0.634766,-73.791504,50.163265,-32.775879
-0.790527,0.098877,-0.336426,-191.413864,-50.407406,-145.141602,0.532471,0.421875,-0.633301,-86.326591,53.497311,2.670288
-0.765625,0.046875,-0.3125,-187.530502,-76.759338,-129.325867,0.537109,0.085693,-0.591064,-80.131531,55.90057,32.249451
-0.839111,-0.036865,-0.2229,-179.420456,-130.638123,-118.408195,0.661377,-0.299805,-0.513184,-53.665157,58.067318,5.195617
-0.86084,-0.018066,-0.241455,-185.081467,-200.119003,-112.205498,0.832031,-0.487549,-0.490234,7.247924,66.795349,-78.208923
-0.794434,0.137939,-0.289307,-214.073166,-245.712265,-110.877983,0.912598,-0.208984,-0.591797,88.920586,98.541252,-147.018433
-0.490967,0.276123,-0.579834,-249.832138,-249.992355,-109.626762,0.895996,0.489502,-0.753418,117.401115,160.514832,-118.087761
