ax,ay,az,gx,gy,gz,ax,ay,az,gx,gy,gz
0.216064,-0.39917,0.528076,23.16284,-148.391724,178.726181,0.440674,0.679688,0.453613,-71.868896,-59.867855,3.967285
0.241211,-0.443359,0.533447,26.672361,-127.868645,177.207932,0.403076,0.69043,0.42334,-73.96698,-63.552853,1.853943
0.249268,-0.498535,0.576904,26.756285,-108.467094,173.171982,0.369629,0.680176,0.395752,-75.714111,-63.224789,-0.709534
0.263428,-0.545166,0.621094,24.353025,-92.597954,168.571457,0.351807,0.654785,0.352295,-76.499939,-60.18066,-2.388
0.25293,-0.542236,0.676025,23.811338,-81.93969,163.49791,0.335205,0.634766,0.318115,-76.49231,-56.213375,-3.211975
0.197998,-0.511719,0.688965,27.847288,-74.478149,163.505539,0.307129,0.627441,0.293701,-76.095581,-52.49786,-5.279541
0.185303,-0.473633,0.67749,34.301758,-69.709778,170.150742,0.278809,0.638428,0.262451,-74.829102,-50.018307,-9.132385
0.274414,-0.456055,0.67749,41.229244,-68.069458,174.20195,0.446289,0.618652,0.471191,-59.844967,-27.969358,1.213074
0.398193,-0.498047,0.614258,47.592159,-66.719055,172.988876,0.998779,1.250977,0.041504,-71.861267,42.152401,64.559937
0.486328,-0.574707,0.556152,47.95837,-62.095638,167.793259,1.134033,1.439697,-0.088135,-41.564938,12.039184,84.320061
0.192871,-0.335693,0.590088,17.00592,-166.694626,176.055893,0.331055,1.127686,0.174072,-51.223751,63.949581,61.19537
0.039795,-0.539063,0.72168,45.356747,42.076107,26.229856,-0.201416,0.908447,0.242188,-7.110595,87.806694,-5.729675
-0.075928,-0.495361,0.849609,53.733822,70.098877,33.378601,-0.183838,0.987793,0.164063,-3.372192,83.94622,-4.020691
-0.035889,-0.532227,0.848145,50.697323,65.917969,38.749695,-0.125732,1.002686,0.13208,0.892639,81.878654,-5.966186
-0.064697,-0.515137,0.854004,51.284786,69.366455,41.328426,-0.093506,1.010498,0.140137,1.281738,80.635063,-11.978148
-0.22998,-0.430664,0.894775,38.291931,67.718506,-17.189026,0.000977,1.042725,0.213135,3.471374,76.828003,-10.650634
-0.241699,-0.204834,0.865234,67.115784,59.089657,32.745361,0.092285,1.042236,0.243164,7.522583,66.352844,-7.843017
-0.166504,-0.260498,0.88208,52.314754,51.422115,2.532959,0.143799,0.98291,0.235352,12.329101,54.115292,-10.643004
-0.07959,-0.538574,0.901611,28.846739,52.490231,-34.828186,0.135254,0.971436,0.224854,16.685486,41.137691,-13.961791
-0.15625,-0.386719,0.859375,59.42535,69.320679,36.903381,0.112061,0.988037,0.205566,18.1427,30.235289,-18.516541
-0.066406,-0.459717,0.838135,52.742001,75.645447,34.576416,0.073242,1.03418,0.236816,11.131286,17.623901,-15.930175
0.151367,-0.644775,0.729736,59.280392,47.95837,38.093567,-0.28418,0.911865,0.314941,-5.943298,95.115654,-6.278991
-0.005371,-0.415771,1.020996,63.674923,60.69183,34.240723,0.069336,1.031738,0.278564,7.911682,16.830444,-9.460449
0.048828,-0.44043,0.789551,61.546322,73.806763,44.723507,0.084717,1.027588,0.315918,0.968933,13.168334,-1.922607
0.118652,-0.509033,0.790527,64.27002,67.810059,45.166012,0.05835,1.065674,0.32666,1.586914,5.218505,7.6828
0.166504,-0.587402,0.772705,63.041683,57.800289,41.816708,0.019043,1.074951,0.327637,4.592896,-3.166198,15.419005
0.113281,-0.698486,0.692871,51.74255,39.558411,35.758972,-0.063721,0.992676,0.304443,-1.182556,-2.677917,17.051697
0.089844,-0.707275,0.679688,44.845577,34.77478,33.004761,-0.120361,0.95459,0.279297,-12.08496,9.628296,15.411376
0.034668,-0.678223,0.670898,40.695187,35.133362,30.014036,-0.117676,0.923096,0.266602,-25.596617,28.732298,20.484922
0.019043,-0.635254,0.682617,38.856506,37.590027,27.664183,-0.015137,0.907471,0.262207,-39.421082,49.667355,30.868528
0.025635,-0.579834,0.703369,40.390011,39.894104,26.527403,0.102783,0.976318,0.240723,-50.148006,65.246582,41.603085
-0.388184,-0.149414,0.829346,46.386715,72.265625,-16.75415,0.236084,1.058838,0.209229,-53.565975,70.121765,51.773067
-0.050293,-0.437012,0.826172,53.1311,75.904846,38.452148,1.089355,1.380127,-0.011475,-56.396481,28.030394,73.371887
-0.431885,-0.074219,0.782959,42.022701,38.070679,-43.594357,0.075439,1.023682,0.304199,3.723144,16.532898,-6.065368
-0.051025,-0.67749,0.745361,37.536621,-14.137267,-50.849911,-0.463623,0.926025,0.351074,-6.950378,92.872612,-5.249023
-0.148926,-0.283936,0.851074,16.540527,-52.261349,-70.4422,0.077637,1.001953,0.21582,14.801024,21.415709,-20.362852
0.060547,-0.551514,0.717529,49.827572,43.373104,25.0473,-0.623779,0.93335,0.239014,6.67572,33.889771,15.647887
-0.039063,-0.443604,0.926758,63.781734,65.444946,31.120298,-0.614258,0.891113,0.291748,-4.501343,69.061279,3.097534
-0.005859,-0.492676,0.8396,62.904354,74.455261,25.009153,0.92749,1.606201,-0.328125,1.89209,10.803222,151.2146
0.057617,-0.546875,0.780762,59.669491,83.084099,16.738892,0.541504,1.692383,-0.314209,24.032591,24.482725,187.728867
0.120117,-0.604492,0.736572,55.763241,87.738029,8.407593,0.169678,1.763428,-0.205566,36.865234,25.81024,209.472641
0.188477,-0.668457,0.716309,51.376339,83.95385,1.960754,-0.096191,1.902832,-0.072998,47.637936,6.889343,213.005051
0.291016,-0.727539,0.734619,46.218868,67.764282,-3.295898,-0.329102,1.994385,0.024414,57.968136,-16.326904,203.697189
0.368408,-0.773193,0.757568,41.15295,42.610165,-8.666992,-0.525879,1.799072,0.056396,60.516354,-28.312681,189.674362
0.355957,-0.791016,0.77124,36.323547,15.434264,-13.359069,-0.66748,1.459717,0.050781,54.206844,-27.160643,174.96489
0.313232,-0.777832,0.788574,32.295227,-9.147644,-17.456055,-0.70752,1.217285,0.054199,43.54858,-18.493652,159.736633
-0.316162,-0.15332,0.817871,26.985167,-18.081665,-63.385006,-0.642334,1.056152,0.175049,35.27832,-9.101868,145.41626
0.270752,-0.74292,0.772217,30.998228,-27.053831,-23.468016,-0.54126,0.943604,0.32666,32.531738,-3.669739,138.48877
0.05835,-0.661377,0.777588,37.361145,-29.510496,-43.228146,1.105469,1.507324,-0.210449,-22.804258,3.944397,111.2976
-0.102051,-0.6521,0.806885,35.263062,1.869202,-53.871151,-0.331055,0.78418,0.453369,33.424377,-11.169433,130.096436
0.003174,-0.620605,0.845459,32.356262,7.820129,-53.63464,-0.419434,0.853027,0.438477,33.882141,-2.876281,136.749268
0.050049,-0.498291,0.804443,44.471737,2.456665,-38.551331,-0.488525,0.863525,0.242432,8.94165,-14.61029,32.958984
0.055664,-0.346436,0.773682,67.619324,0.396728,-20.568846,-0.53125,0.840576,0.260498,7.949829,-32.676697,39.031982
0.151123,-0.551025,0.730469,47.187801,-14.236449,-32.752991,-0.565674,0.834473,0.274902,12.451171,-59.318539,46.234127
0.232666,-0.61377,0.763184,11.894225,-42.182919,-60.836788,-0.531738,0.852295,0.259521,22.804258,-89.164726,59.997555
0.088135,-0.277344,0.77417,16.899109,-66.703796,-65.261841,-0.520508,0.91748,0.22168,11.558532,3.585815,24.917601
0.012207,-0.168213,0.770264,28.694151,-70.541382,-59.349056,-0.255127,0.927734,0.230469,39.360046,-96.946709,92.590324
-0.056641,-0.258545,0.798096,23.208616,-67.070007,-65.193176,-0.214355,0.870361,0.285889,34.118652,-66.680908,103.347771
0.197998,-0.682861,0.7771,34.210205,-33.52356,-32.966614,-0.259033,0.786133,0.37793,31.448362,-33.164978,116.401665
0.076172,-0.587646,0.701416,51.650997,43.525692,23.643492,-0.392578,0.903076,0.220459,35.507202,-104.99572,78.025818
-0.008057,-0.426514,0.805908,56.312557,75.119019,41.839596,0.358643,0.792236,0.031494,48.385616,-109.245293,3.295898
0.097168,-0.622803,0.68335,51.193233,43.151852,22.53723,0.454102,1.01709,-0.638428,44.929501,-63.171383,-0.37384
0.397461,-0.732422,0.415527,38.024902,39.604187,16.708374,0.479004,1.001465,-0.615723,47.805782,-62.469479,5.706787
0.396729,-0.748535,0.399902,38.917542,38.543701,16.456604,0.519043,0.942871,-0.459229,49.049374,-63.072201,13.59558
0.402832,-0.750732,0.38916,38.970947,37.620544,15.747069,0.526855,0.908447,-0.209473,50.796505,-64.788818,21.171568
0.395996,-0.73584,0.375244,39.581299,37.612915,15.014647,0.469971,0.919434,0.010742,50.23193,-69.862366,23.53668
0.387207,-0.708984,0.368408,41.526791,37.719727,14.991759,0.509521,1.00293,0.171387,54.054256,-86.273186,16.921997
0.406738,-0.688965,0.36084,44.929501,37.109375,15.121459,0.471924,0.873779,-0.589844,40.092468,-62.751766,-1.068115
0.428955,-0.690918,0.349365,48.46954,35.690308,15.525817,0.530273,0.893066,0.222412,66.047668,-105.560295,12.321471
0.457275,-0.709229,0.327393,51.74255,33.172607,15.289306,0.423096,0.671875,0.087158,61.43951,-110.336296,11.123656
0.478271,-0.720215,0.302979,55.328365,31.433104,13.450622,0.416748,0.941406,-0.015381,61.668392,-141.838074,2.601623
0.470947,-0.741699,0.270264,57.518002,30.578611,12.321471,0.571045,0.597656,-0.271973,134.971619,-179.344162,25.138853
0.383789,-0.715088,0.422119,36.308289,41.16058,16.868591,0.529785,0.975098,-0.22168,94.139091,-185.409531,18.188477
0.483154,-0.765137,0.240967,58.204647,29.609678,11.985778,0.647461,0.815674,-0.452637,117.820732,-210.990891,24.581907
0.464355,-0.76123,0.192139,60.585018,31.98242,8.514404,0.613525,0.638184,-0.422363,130.599976,-205.749496,24.436949
0.446045,-0.751709,0.174072,60.623165,33.813477,8.354187,0.583008,0.481934,-0.259521,119.773857,-141.25061,8.323669
0.468506,-0.731934,0.165283,61.630245,35.133362,7.339477,0.564453,0.605713,-0.096436,110.099785,-110.015862,-17.471313
0.466309,-0.726807,0.167969,62.980648,35.705566,7.942199,0.653809,0.623779,0.070801,109.65728,-112.533562,-29.922483
0.499023,-0.730469,0.185791,63.774105,33.248901,9.918213,0.69165,0.648193,0.149902,107.948296,-124.65667,-46.142574
0.532715,-0.734619,0.187256,65.139771,28.915403,12.161254,0.60791,0.768799,0.24585,112.525932,-139.823914,-57.899471
0.541016,-0.748047,0.180176,66.680908,24.765013,14.205932,0.546631,0.777588,0.289063,114.204399,-153.648376,-66.497803
0.533936,-0.787354,0.165283,67.115784,21.224974,16.021729,0.530762,0.734863,-0.540283,39.199829,-62.660213,0.823975
0.533936,-0.837646,0.150391,65.856934,18.043518,15.769958,0.517578,0.853516,-0.391113,-56.27441,41.618343,-14.328002
0.497803,-0.851807,0.130615,64.453125,17.883301,15.686034,0.602051,0.718018,-0.52417,39.123535,-61.889645,-0.289917
0.497803,-0.766602,0.22168,59.165951,29.327391,9.941101,0.487793,0.738037,0.321289,108.093254,-158.508301,-71.113586
0.375977,-0.697998,0.423828,34.744263,42.907711,16.578674,0.612549,0.762939,-0.465576,32.218933,-43.334957,-2.243042
0.118408,-0.643555,0.669189,48.927303,42.304989,22.094725,0.517822,0.847412,-0.406006,-52.925106,39.123535,-13.885497
0.380371,-0.716064,0.42041,32.600403,45.837399,16.967773,0.523193,0.844238,-0.417236,-49.140926,37.109375,-13.603209
0.148926,-0.64917,0.665039,46.394344,40.534969,22.438047,0.511475,0.837158,-0.428223,-45.150753,35.179138,-13.023376
0.151855,-0.632813,0.653809,44.609066,40.390011,22.193907,0.502686,0.824951,-0.449219,-41.938778,33.210754,-12.039184
0.105225,-0.611084,0.641846,44.425961,43.373104,22.048948,0.503906,0.807617,-0.469482,-38.764954,31.410215,-11.054992
0.089111,-0.590332,0.641357,46.127316,47.607418,22.773741,0.50415,0.787109,-0.489014,-35.858154,29.426573,-10.017395
0.108643,-0.578613,0.634766,49.179073,51.071163,24.101255,0.497803,0.7771,-0.505127,-33.01239,27.000425,-8.934021
0.13208,-0.573975,0.62915,53.924557,53.932186,24.642942,0.489502,0.777832,-0.529541,-30.044554,23.780821,-7.93457
0.385742,-0.697266,0.423096,33.187866,44.174191,16.395569,0.483887,0.781494,-0.550049,-26.954649,19.866943,-7.362365
0.188477,-0.647949,0.591064,59.204098,58.769222,25.55084,0.483887,0.782227,-0.568115,-22.842405,15.518188,-6.591796
0.239258,-0.701904,0.56958,56.076046,57.022091,25.779722,0.626709,0.750977,-0.494385,36.499023,-54.473873,-2.76947
0.276123,-0.737549,0.557129,51.650997,53.115841,25.482176,0.486572,0.79126,-0.583252,-17.929077,10.925292,-5.187988
0.250732,-0.75,0.539795,48.278805,51.025387,24.383543,0.497314,0.78418,-0.60498,-5.92041,1.609802,-0.846863
0.1521,-0.595459,0.616455,58.311459,56.861874,25.413511,0.518311,0.781738,-0.60498,0.389099,-3.189087,2.14386
0.229004,-0.697754,0.570068,47.20306,49.690243,24.932859,0.523438,0.778809,-0.609131,6.149292,-8.537292,5.218505
0.229492,-0.739746,0.551025,46.119686,49.842831,24.314878,0.512939,0.775391,-0.617676,10.887145,-13.801574,7.911682
0.353271,-0.753418,0.422607,37.528992,47.424313,19.119263,0.486816,0.766113,-0.61792,14.709472,-18.043518,10.177611
0.357178,-0.759277,0.44458,41.740414,46.539303,21.102903,0.467285,0.770264,-0.61499,17.280579,-21.331785,10.185241
0.367188,-0.757568,0.477051,46.508785,45.585629,23.384092,0.458008,0.772461,-0.598145,19.416809,-23.506163,7.896423
0.358398,-0.739502,0.513672,51.36871,45.616146,26.008604,0.472656,0.764893,-0.550537,21.179197,-24.16992,4.753113
0.362061,-0.73584,0.417236,34.240723,47.340389,17.974854,0.506348,0.74707,-0.502686,23.41461,-26.580809,2.479553
0.313477,-0.679443,0.581055,56.541439,47.8363,28.068541,0.557373,0.752686,-0.468506,27.412413,-33.477783,0.38147
0.273193,-0.668213,0.588135,56.175228,50.071712,27.57263,0.486572,0.792969,-0.599365,-12.298583,6.141662,-3.372192
0.229492,-0.656738,0.585693,54.542538,51.61285,26.451109,0.501465,0.690674,0.365723,100.547783,-153.388977,-72.105408
0.210205,-0.658447,0.578613,51.261898,51.132198,25.749205,0.580811,0.648438,0.354004,-15.670775,-153.137207,-29.434202
0.334961,-0.708008,0.553711,55.13763,46.501156,27.580259,0.668701,0.567871,0.413086,76.255798,-144.859314,-74.005127
-0.612305,0.424316,0.79126,-15.296935,-15.014647,-16.616821,0.364258,0.723877,0.505127,-34.179688,-62.377926,-21.858213
-0.648193,0.433594,0.7854,-15.708922,-13.328551,-16.471863,0.407959,0.692871,0.541992,-33.103943,-63.056942,-20.271299
-0.669189,0.449463,0.780518,-15.502929,-9.414673,-15.228271,0.425293,0.678955,0.560547,-32.707214,-64.590454,-17.669678
-0.660889,0.460938,0.776611,-14.266967,-5.645751,-13.946532,0.420166,0.692871,0.560303,-32.997131,-65.498352,-14.244079
-0.660645,0.466553,0.776123,-12.374877,-4.28772,-11.840819,0.394287,0.71875,0.545166,-33.790588,-64.926147,-11.810302
-0.682861,0.490967,0.778564,-9.765625,-3.135681,-8.010864,0.358398,0.736816,0.51416,-33.950806,-62.95013,-10.505675
-0.721436,0.519531,0.771729,-5.691528,0.198364,-3.326416,0.341064,0.748047,0.488525,-33.439636,-60.081478,-9.735107
-0.767822,0.54126,0.76001,-0.473022,5.424499,0.366211,0.336914,0.746338,0.479004,-32.150269,-57.647701,-10.017395
-0.80249,0.548584,0.736328,4.219055,12.092589,3.730774,0.342773,0.739014,0.483887,-30.380247,-56.663509,-11.062621
-0.808105,0.562256,0.709717,7.30133,19.264221,6.317138,0.346191,0.711914,0.537842,-29.571531,-55.793758,-13.114928
-0.520264,0.648682,0.675049,16.426086,3.486633,21.186827,0.313965,0.750244,0.461426,-36.476135,-64.620972,-21.942137
-0.812256,0.566162,0.680908,8.537292,36.514282,9.521484,0.35376,0.698486,0.554443,-30.311583,-55.053707,-12.252807
-0.790283,0.5625,0.68335,7.110595,44.723507,10.231017,0.358643,0.689941,0.549316,-32.516479,-51.23901,-8.155823
-0.766846,0.576172,0.694336,6.866455,48.889156,11.878966,0.342529,0.703369,0.534668,-33.256531,-47.012325,-7.278442
-0.742188,0.5979,0.686768,7.942199,48.347469,13.893126,0.332031,0.715332,0.515869,-33.370972,-42.5415,-7.751464
-0.706787,0.617676,0.671631,8.583069,45.967098,14.953612,0.334229,0.723145,0.504883,-33.004761,-39.924622,-9.094238
-0.677979,0.626953,0.649658,9.223938,44.197079,15.556334,0.341797,0.728271,0.505127,-32.295227,-39.970398,-11.550902
-0.655518,0.623047,0.636963,10.185241,43.350216,15.747069,0.346924,0.732422,0.518066,-32.25708,-42.015072,-14.579772
-0.607178,0.610596,0.632568,10.528563,39.421082,15.1062,0.345947,0.730713,0.531738,-32.730103,-44.540401,-16.929626
-0.55542,0.59375,0.648193,10.078429,30.326841,14.328002,0.350342,0.717041,0.541748,-33.317566,-46.432491,-18.287659
-0.549072,0.623535,0.670166,11.566161,16.731262,16.227722,0.358154,0.704834,0.546387,-33.828735,-47.46246,-18.417358
-0.583496,0.415527,0.800537,-14.877318,-13.504027,-15.663146,0.58252,0.604004,0.394531,88.973991,-148.574829,-74.684143
-0.810791,0.571777,0.690918,8.68988,27.465818,8.140564,0.362549,0.689209,0.558594,-31.372068,-53.863522,-10.025024
-0.576172,0.416504,0.809326,-13.923644,-10.19287,-14.808654,0.281738,0.749268,0.429443,-38.803101,-69.732666,-19.729614
-0.806641,0.307129,0.868652,-38.909912,5.096435,-20.179747,0.344238,0.725586,0.506592,-29.441832,-56.236263,-12.367248
-0.490723,0.418945,0.835693,-18.737793,-0.106812,-14.190673,0.370117,0.66333,0.511475,-40.27557,-81.710808,-17.402649
-0.498047,0.628418,0.680176,19.577026,-10.95581,23.91815,0.302734,0.713379,0.455811,-40.321346,-75.85907,-17.14325
-0.742432,0.391846,0.624268,1.304626,15.304564,-7.949829,0.768555,0.630859,0.336426,56.480404,-142.051697,-61.088558
-0.717773,0.372314,0.63501,-1.777649,14.770507,-7.133483,0.719971,0.678711,0.27124,49.964901,-140.525818,-56.869503
-0.677734,0.362793,0.637207,-3.189087,11.695861,-7.568359,0.635498,0.704346,0.230225,45.021053,-136.772156,-55.6488
-0.648926,0.360352,0.63208,-2.39563,8.079529,-9.20105,0.597168,0.693848,0.261963,40.496822,-133.346558,-54.687496
-0.66748,0.362549,0.61499,-0.312805,7.240295,-9.796143,0.615234,0.677246,0.350586,35.423279,-133.94928,-52.864071
-0.700928,0.353516,0.605225,0.701904,9.811401,-9.498596,0.688232,0.660156,0.510742,20.874022,-149.108887,-47.248837
-0.704102,0.327148,0.612793,-0.434875,13.916015,-9.918213,0.711182,0.637939,0.548096,11.489867,-159.927368,-43.525692
-0.688232,0.308594,0.641357,-2.845764,17.402649,-10.711669,0.720947,0.614502,0.538574,0.892639,-167.091354,-38.635254
-0.687744,0.292969,0.692139,-5.859375,18.066406,-9.887695,0.674072,0.618408,0.469238,-8.811951,-164.833054,-32.936096
-0.542725,0.428955,0.827393,-14.801024,-6.309509,-15.045165,0.483643,0.686035,0.277588,-19.508362,-136.58905,-29.937742
-0.668701,0.290771,0.751709,-7.667541,14.160155,-8.552551,0.656982,0.67334,0.437744,28.999327,-139.74762,-50.048824
-0.686279,0.300293,0.840088,-21.163939,-0.236511,-13.053893,0.429199,0.621338,0.591309,-37.086487,-85.067741,-22.514341
-0.81665,0.306885,0.877686,-50.918575,24.871824,-29.83856,0.415771,0.719727,0.274658,-21.080015,-119.094841,-29.281614
-0.74292,0.315674,0.874023,-55.13763,49.606319,-36.66687,0.441895,0.612549,0.644287,-32.00531,-85.319511,-29.144285
-0.675781,0.356445,0.848633,-47.607418,67.41333,-35.865784,0.434814,0.642578,0.664551,-27.336119,-84.289543,-32.730103
-0.616699,0.374268,0.824707,-38.734436,68.405151,-30.868528,0.431152,0.675781,0.65332,-24.375914,-82.847588,-33.615112
-0.574951,0.361816,0.811279,-34.317017,60.623165,-25.825499,0.404053,0.695068,0.604248,-23.460386,-80.26886,-35.255432
-0.537598,0.368408,0.803223,-33.256531,50.743099,-21.408079,0.746094,0.582031,0.39624,65.055847,-142.738342,-68.359375
-0.501953,0.397705,0.804443,-31.585691,36.811829,-17.532349,0.335449,0.730957,0.458252,-24.627684,-77.598572,-32.844543
-0.486572,0.401123,0.81543,-27.542112,21.598814,-14.137267,0.324463,0.742188,0.374268,-24.80316,-85.632317,-29.937742
-0.474854,0.405762,0.825439,-23.315428,9.140015,-12.939452,0.366699,0.743896,0.310303,-23.03314,-101.21154,-28.411863
-0.633789,0.306885,0.79541,-8.636475,5.714416,-8.69751,0.374756,0.709961,0.535889,-23.689268,-77.461243,-35.293579
-0.732666,0.408447,0.616211,2.883911,14.305114,-9.254456,0.513428,0.678223,0.487305,-40.672298,61.508175,13.404845
-0.519531,0.580566,0.691895,20.721434,-32.684326,24.108885,0.381104,0.692139,0.553955,-52.162167,136.978149,2.090454
-0.536865,0.556885,0.676758,16.296387,-37.025452,20.286558,0.447266,0.613525,0.549072,-47.927853,132.728577,4.051208
-0.605957,-0.087891,0.721924,95.214836,135.719299,38.108826,0.523438,0.582031,0.540527,-49.652096,118.301384,10.894774
-0.543945,-0.099121,0.629639,96.67968,141.220093,41.007992,0.45459,0.632324,0.5354,-49.606319,106.475822,13.549804
-0.501465,-0.098877,0.601318,96.221916,144.706726,42.144772,0.442139,0.650391,0.524902,-48.614498,100.120537,15.594481
-0.466309,-0.111084,0.550781,94.16198,146.202087,44.944759,0.477295,0.648438,0.517822,-47.218319,92.64373,17.76886
-0.372559,-0.134277,0.534424,90.171806,143.768311,49.316402,0.494873,0.656738,0.522217,-44.281002,84.571831,18.432617
-0.234375,-0.161377,0.581055,85.220329,136.871338,50.308224,0.510254,0.67041,0.528076,-41.862484,78.063965,16.746521
-0.123047,-0.178467,0.66333,80.810539,127.075188,46.859737,0.530762,0.669922,0.522461,-40.504452,69.923401,14.381408
-0.119141,-0.174561,0.72998,77.178955,117.820732,42.79327,0.413818,0.768311,0.564941,-58.631893,134.552002,10.498046
-0.212402,-0.161621,0.759277,74.752808,112.266533,41.580196,0.430664,0.746094,0.337891,-54.473873,26.451109,1.159668
-0.362549,-0.165039,0.808105,72.433472,122.459404,43.792721,0.485596,0.70459,0.430176,-42.030331,47.019955,14.068603
-0.619629,-0.062256,0.929443,90.675346,129.402161,30.731199,0.468506,0.704346,0.408691,-42.762753,41.183468,13.328551
-0.356934,-0.186523,0.869873,72.914124,138.824463,42.091366,0.458984,0.70752,0.409424,-42.984005,36.16333,11.497497
-0.359131,-0.215088,0.904053,74.760437,160.415649,43.525692,0.454346,0.714111,0.414551,-42.610165,31.570433,8.552551
-0.323242,-0.217285,0.88501,77.148438,158.462524,48.110958,0.450195,0.720459,0.406738,-42.91534,27.664183,5.645751
-0.231934,-0.266846,0.827637,78.407288,148.239136,52.803036,0.457031,0.723145,0.404297,-43.93005,25.451658,3.257751
-0.14502,-0.324463,0.823242,76.690674,134.185791,55.305477,0.458252,0.726318,0.394531,-45.56274,25.207518,1.609802
-0.056885,-0.362793,0.868408,73.310852,119.842522,53.031918,0.450195,0.737793,0.372559,-47.889706,25.3067,0.915527
-0.015137,-0.375,0.909424,69.358826,107.467644,49.674984,0.443848,0.746826,0.359375,-50.903316,25.749205,0.808716
0.001465,-0.379883,0.968018,66.352844,93.925468,47.180172,0.474121,0.755615,0.587646,-62.667843,132.896423,18.371582
0.050049,-0.393311,1.037109,64.750671,77.720642,42.297359,0.499512,0.689941,0.461182,-41.53442,54.229733,13.999938
0.056152,-0.403076,1.063965,64.163208,64.720154,37.155151,0.579102,0.737061,0.633545,-64.620972,134.033203,24.978636
-0.504395,0.603271,0.694336,21.385191,-23.223875,25.314329,0.274414,0.653809,0.858643,-64.666748,102.500908,-38.9328
-0.352051,-0.212646,0.899902,73.547363,153.045654,40.801998,0.365967,0.756348,0.617432,-65.620422,152.145386,23.66638
-0.523438,0.083496,1.134277,86.242668,127.784721,23.559568,0.137939,0.632324,0.842041,-66.955566,111.236565,-45.81451
-0.314453,-0.159424,0.770508,73.120117,113.006584,42.892452,0.418213,0.741455,0.322021,-57.838436,26.535032,1.617432
-0.651855,0.528809,1.132568,84.57946,131.500244,57.777401,0.328613,0.635498,0.846436,-60.653683,87.303154,-27.053831
-0.423096,0.334717,1.210449,84.091179,131.469727,31.173704,0.342041,0.621338,0.821045,-54.862972,64.163208,-18.707275
-0.573975,0.523438,0.663818,5.813598,-29.129026,17.730713,0.33667,0.593994,0.787354,-46.56982,33.287048,-16.990662
-0.529053,0.541504,0.67041,1.922607,-27.862547,19.729614,0.287354,0.600586,0.767822,-36.193848,-3.471374,-19.668579
-0.45166,0.573242,0.676514,3.135681,-37.857056,19.699097,0.264404,0.6521,0.741699,-26.962278,-41.641232,-10.482787
-0.420898,0.560059,0.685059,3.189087,-55.511471,16.799927,0.150391,0.624023,0.669434,-25.688169,-53.009029,26.039122
-0.451172,0.537598,0.687012,1.327515,-69.602966,18.844604,-0.282715,0.515137,0.517822,-35.140991,-0.305176,57.746883
-0.475342,0.505859,0.68042,8.575439,-75.012207,27.786253,-0.794922,0.498047,0.299316,-45.852657,78.613281,37.29248
-0.557129,0.365967,0.684326,22.186277,-68.359375,28.610228,-0.513428,0.634521,0.183594,-41.15295,118.690483,3.501892
-0.827393,0.338135,0.650879,46.463009,-60.783382,52.391048,-0.208008,0.654053,0.270752,-31.112669,128.723145,-18.4021
-0.732422,0.570801,0.568359,77.606201,-72.517395,129.615784,0.062744,0.624512,0.491699,-25.535582,128.578186,-20.881651
-0.474609,0.740479,0.519043,125.717155,-72.250366,212.013229,0.175781,0.619629,0.639648,-25.489805,130.149841,-17.356873
-0.559326,0.544678,0.664307,11.573791,-34.240723,17.189026,0.206299,0.653076,0.698975,-26.748655,133.285522,-14.61029
-1.20874,0.292725,0.526367,216.270432,-30.822752,155.181885,0.273438,0.693115,0.737549,-26.077269,131.744385,-9.918213
-0.868652,0.787354,0.468506,235.382065,-45.593258,238.937363,0.326172,0.660889,0.756836,-29.08325,129.570007,-1.251221
-2.098145,0.744873,1.22876,91.773979,109.53521,107.925407,0.302979,0.656738,0.736816,-38.162231,136.047363,3.623962
-1.791992,0.493652,1.20752,86.60125,92.727654,98.831169,0.265381,0.730713,0.730225,-43.159481,145.614624,2.075195
-1.514648,0.361572,1.077881,87.814323,48.553463,97.534172,0.424561,0.731689,0.698242,-44.677731,144.630432,9.109497
-1.684082,0.3396,0.937744,74.523926,34.690857,90.637199,0.427002,0.631348,0.717529,-49.430843,139.678955,24.520872
-1.171387,0.678467,1.124023,88.935844,121.200554,90.148918,0.350342,0.674805,0.647705,-55.641171,147.659302,38.391113
-1.198975,0.208252,0.641357,62.400814,25.459288,62.255856,0.331299,0.67041,0.613037,-64.163208,150.947571,31.028746
-1.069092,0.189941,0.604248,62.469479,19.752502,57.655331,0.535645,0.758545,0.648438,-65.628052,142.715454,26.710508
-1.047607,0.094727,0.605957,94.352715,2.204895,70.465088,0.409424,0.743408,0.316162,-60.798641,25.062559,2.029419
-1.516846,0.264648,0.740234,61.767574,31.707762,72.357178,0.434082,0.845703,0.206787,-55.320736,11.749267,3.593445
-0.942627,-0.106689,0.334473,66.543579,-127.128593,-220.909103,0.40918,0.755371,0.301025,-64.369202,21.27075,2.540588
-0.348389,0.452393,0.908447,89.355461,-122.077934,-249.992355,0.438477,0.822266,-0.032959,-59.92889,25.505064,-1.701355
-0.544678,0.368896,0.797119,86.074821,-131.835938,-249.992355,0.443604,0.832031,-0.060303,-61.355587,27.137754,-2.616882
-0.632568,0.305176,0.702881,84.426872,-133.872986,-249.954208,0.454834,0.84082,-0.084961,-62.629696,28.968809,-3.456115
-0.600098,0.239014,0.668945,81.481926,-134.635925,-249.908432,0.464111,0.852051,-0.11084,-63.613888,30.822752,-4.707336
-0.558105,0.165283,0.626465,76.332092,-136.573792,-249.992355,0.457275,0.854736,-0.141357,-64.804077,32.577515,-5.744934
-0.601074,0.085693,0.567139,72.273254,-141.181946,-248.80217,0.455322,0.858154,-0.173584,-66.268921,35.346985,-6.324768
-0.112793,0.510498,1.024902,95.787041,-104.156487,-249.992355,0.462891,0.858398,-0.196045,-67.03949,38.520813,-7.095336
-0.692627,-0.001221,0.491211,70.19043,-142.402649,-239.494308,0.447021,0.841064,-0.21167,-67.276001,42.076107,-8.178711
-0.819092,-0.073242,0.391602,67.91687,-137.466431,-230.468735,0.423828,0.821045,-0.217529,-67.550659,46.257015,-9.69696
-1.03418,-0.124023,0.31665,67.443848,-112.480156,-209.144577,0.40625,0.748291,0.307129,-63.156124,23.101805,2.426147
-1.097412,-0.161865,0.434326,80.42144,6.599426,-169.136032,0.436768,0.82666,-0.016113,-58.624264,23.742674,-0.801086
-1.105957,-0.158203,0.337646,74.279785,-72.029114,-183.746323,0.434082,0.816406,-0.221924,-68.634033,53.153988,-12.886046
-1.130127,-0.175537,0.371826,77.011108,-47.004696,-176.162704,0.454102,0.82959,-0.243164,-70.327759,56.503292,-15.838622
-1.147705,-0.160889,0.405273,79.627991,-18.943787,-171.844467,0.471436,0.836426,-0.251953,-70.838928,57.334896,-16.403198
-1.018066,-0.174561,0.450928,77.323914,23.391722,-167.045578,0.492432,0.833984,-0.262939,-70.854187,56.915279,-16.815186
-0.957031,-0.157715,0.458008,72.860718,30.2124,-166.275009,0.509766,0.832764,-0.277344,-70.373535,55.557247,-16.807556
-0.897705,-0.117188,0.464844,71.212769,32.76825,-167.411789,0.510498,0.828857,-0.298828,-69.618225,53.962704,-16.067505
-0.938477,-0.104004,0.495605,71.983337,43.434139,-169.189438,0.496338,0.825439,-0.320313,-68.870544,52.963253,-15.747069
-1.052734,-0.112549,0.545166,69.877625,60.676571,-164.848312,0.492676,0.830078,-0.33374,-67.9245,52.261349,-15.86151
-0.929932,-0.083984,0.5979,65.032959,66.673279,-161.35405,0.49707,0.834473,-0.351563,-65.887451,50.926205,-16.059875
-0.011963,0.520508,1.11084,102.09655,-85.876457,-249.992355,0.508301,0.836914,-0.363525,-62.774654,48.21014,-15.686034
-1.092041,-0.136475,0.315674,70.373535,-94.03228,-195.62529,0.516846,0.843262,-0.377197,-59.486385,44.68536,-15.022277
-0.151611,0.481934,1.082764,107.276909,-77.156067,-249.992355,0.442871,0.824951,-0.233643,-69.480896,55.038448,-14.640807
0.331055,0.588379,0.743164,4.501343,-129.837036,-244.209274,0.439697,0.839355,-0.002686,-57.624813,22.308348,-0.198364
-0.583496,0.452393,1.025635,105.583183,-99.784843,-249.992355,0.425049,0.808594,-0.217529,-67.802429,50.300594,-11.215209
0.342773,0.702637,0.811279,15.274047,-121.093742,-249.992355,0.466064,0.856445,0.02832,-56.28204,20.042419,0.823975
0.25293,0.690674,0.91626,21.766661,-116.310112,-249.992355,0.453125,0.852295,0.009277,-56.945797,21.179197,0.259399
0.013428,0.558594,1.04126,26.679991,-109.931938,-237.289413,0.421631,0.776855,0.283203,-64.193726,19.691467,2.037048
-0.274658,0.369385,1.079834,31.471251,-105.186455,-215.888962,0.424316,0.797607,0.265381,-63.2019,18.936157,1.296997
-0.411621,0.166504,1.042725,32.905579,-101.036064,-192.779526,0.433594,0.802002,0.251953,-62.080379,19.203186,1.068115
-0.393555,0.006592,0.984375,28.343199,-95.931999,-172.996506,0.461426,0.799316,0.249268,-61.202999,20.309446,1.594543
-0.320801,-0.057617,0.958496,22.796629,-90.354912,-157.791138,0.475586,0.802002,0.242432,-59.219357,21.339415,2.593994
-0.231201,-0.041992,0.981445,18.264771,-87.760918,-143.791199,0.483887,0.80835,0.234619,-55.061337,18.592834,3.295898
-0.163086,-0.005859,1.042236,13.96942,-91.423027,-129.852295,0.46167,0.810059,0.241943,-53.215023,15.914916,3.578186
-0.171387,0.028809,1.108887,11.779784,-99.403374,-117.614738,0.449463,0.808594,0.243896,-52.192684,13.450622,3.562927
-0.44043,0.429932,1.011719,110.260002,-84.373466,-249.992355,0.446289,0.813721,0.240234,-52.291866,11.543273,3.631592
-0.265381,0.034912,1.141846,13.259887,-104.545586,-106.010429,0.441895,0.826416,0.229248,-53.573605,10.856627,3.692627
-0.354736,-0.070313,1.189453,18.753052,-102.508537,-92.559807,0.485107,0.807373,0.233643,-56.77795,20.744322,3.112793
-0.2771,-0.145752,1.205078,17.440796,-102.241508,-95.642082,0.429688,0.872559,0.137207,-57.15942,11.482238,2.89154
-0.189209,-0.181152,1.183838,16.685486,-102.897636,-107.147209,0.432617,0.867188,0.170166,-56.53381,12.283324,3.227234
-0.130127,-0.121094,1.113281,18.157959,-103.683464,-125.236504,0.469727,0.844971,0.062256,-56.144711,17.692566,2.311707
-0.102783,0.069336,1.045898,24.192808,-101.997368,-144.432068,0.453857,0.832275,0.070313,-56.144711,16.265869,3.181457
-0.06958,0.30835,1.042969,36.582947,-99.563591,-164.489731,0.44043,0.820313,0.072021,-55.946346,14.823913,3.959656
-0.109619,0.485352,1.091309,50.247189,-102.516167,-186.836227,0.432617,0.820557,0.068604,-55.908199,14.35089,4.486084
-0.260742,0.584473,1.082764,65.750122,-109.664909,-215.064987,0.475342,0.855225,0.047363,-55.946346,18.836975,1.480102
-0.41333,0.595703,1.037354,81.626884,-112.609856,-241.821274,0.411865,0.83374,0.082764,-56.358334,14.404296,4.53949
-0.528809,0.531738,1.022949,95.993034,-109.184258,-249.992355,0.415527,0.85376,0.094482,-56.709286,13.359069,3.944397
-0.360107,-0.008301,1.164063,16.51001,-104.171745,-96.275322,0.422852,0.868164,0.112305,-57.151791,12.001037,3.189087
-0.807373,-0.035156,0.606445,59.55505,45.829769,-166.046127,0.42041,0.824219,0.075439,-55.923458,14.48059,4.91333
-0.853027,-0.00708,0.674561,54.924007,32.180786,-164.596542,-0.619629,-0.452393,0.766113,-34.812927,-0.473022,3.288269
-0.892334,0.021729,0.69873,46.890255,18.165588,-155.540466,-0.618896,-0.255371,0.817871,17.173767,3.997802,18.333435
-0.920654,0.38623,0.655518,-10.246276,-3.295898,-44.075008,-0.579346,-0.249512,0.81958,13.427733,4.318237,18.409729
-0.974609,0.375488,0.657959,-10.772704,7.072448,-41.763302,-0.546387,-0.269775,0.8396,9.338379,2.372742,18.753052
-1.032959,0.376709,0.672607,-11.993407,28.785704,-38.955688,-0.517822,-0.309326,0.851318,4.386902,-1.121521,19.111633
-1.044678,0.378906,0.698975,-13.069152,52.719112,-35.797119,-0.509766,-0.355469,0.844727,-1.846313,-3.730774,20.088194
-0.99585,0.362061,0.712158,-15.579223,70.571899,-31.021116,-0.529785,-0.405762,0.827637,-9.529114,-4.013062,19.813538
-0.883789,0.353271,0.742188,-19.203186,72.525024,-26.634214,-0.561523,-0.442871,0.81958,-17.906189,-2.113342,16.807556
-0.801514,0.354492,0.775391,-19.172668,61.775204,-23.658751,-0.584961,-0.456543,0.801514,-25.520323,-0.869751,11.779784
-0.782715,0.352783,0.78125,-16.540527,49.545284,-20.706175,-0.601318,-0.455566,0.776123,-31.005857,-0.724792,6.980896
-0.781494,0.359619,0.743896,-14.633178,39.550781,-17.402649,-0.64209,-0.478271,0.758057,-38.528442,0.831604,-0.312805
-0.773682,0.373779,0.695068,-13.236999,32.615662,-15.281676,-0.735596,-0.266602,0.781738,-18.051147,22.262571,-66.001892
-0.914307,0.369141,0.651855,-11.970519,-5.92041,-45.669552,-0.687256,-0.500732,0.686035,-44.158932,2.807617,-7.537841
-0.782227,0.383789,0.661377,-10.665893,29.624937,-12.229918,-0.685547,-0.484131,0.648682,-44.81506,3.448486,-11.978148
-0.77124,0.379639,0.714355,-7.530212,30.418394,-5.821228,-0.696045,-0.462646,0.617432,-44.296261,6.126403,-17.150879
-0.736084,0.39502,0.744873,-7.217407,27.534483,-5.279541,-0.702637,-0.450928,0.623779,-43.632504,11.421203,-24.063108
-0.720703,0.417725,0.718262,-5.203247,21.759031,-5.943298,-0.696289,-0.445068,0.664063,-43.022152,17.494202,-33.325195
-0.729492,0.42334,0.66748,-2.090454,15.220641,-6.41632,-0.660645,-0.429443,0.719238,-40.870663,20.76721,-42.518612
-0.735107,0.421387,0.618164,0.770569,10.06317,-5.928039,-0.605225,-0.398926,0.772949,-36.491394,18.966675,-50.346371
-0.738525,0.4104,0.585693,2.799988,6.805419,-5.027771,-0.589355,-0.356934,0.801025,-30.2124,14.785766,-55.877682
-0.727539,0.412109,0.570068,4.562378,5.310058,-5.142211,-0.643066,-0.308594,0.804443,-23.79608,14.633178,-60.142513
-0.708496,0.405762,0.562988,5.28717,6.568908,-6.820678,-0.640869,-0.272705,0.807373,20.477293,1.678467,20.1416
-0.702148,0.408936,0.580322,4.272461,9.368896,-8.628845,-0.671875,-0.499268,0.72998,-42.091366,2.174377,-3.768921
-0.712646,0.412354,0.602295,3.311157,12.329101,-9.689331,-0.635498,-0.284668,0.813232,23.262022,-3.028869,22.338865
-0.792725,0.37915,0.665527,-8.110046,29.861448,-8.056641,-0.472168,-0.205078,0.591553,151.657104,54.557796,38.780212
-0.9104,0.351318,0.651855,-13.206481,-6.996154,-46.211239,-0.59668,-0.257813,0.85791,28.358458,-12.237548,22.834776
-0.869385,0.008789,0.703613,51.353451,25.260923,-160.888657,-0.816406,-0.233154,0.75708,-12.931823,33.973694,-75.698853
-0.872314,0.339844,0.67749,-16.624451,-5.058288,-48.927303,-0.410156,-0.245361,0.639648,146.324158,52.764889,35.972595
-0.891846,0.029297,0.676514,41.137691,9.155273,-148.925781,-0.382568,-0.272217,0.703857,140.594482,49.507137,31.98242
-0.864502,0.038086,0.63916,34.507751,-1.701355,-143.035889,-0.371826,-0.272217,0.786621,135.4599,46.165462,27.046202
-0.844482,0.051758,0.595947,27.053831,-11.886596,-139.129639,-0.373779,-0.285645,0.827637,128.753662,41.748043,24.139402
-0.883301,0.067871,0.562256,19.233704,-20.050049,-135.017395,-0.367432,-0.287598,0.861572,121.139519,38.200378,22.819517
-0.971191,0.087158,0.539795,11.985778,-24.490355,-129.951477,-0.334717,-0.279297,0.889893,115.013115,31.318663,21.934507
-1.037598,0.110107,0.545898,4.974365,-25.260923,-124.572746,-0.307373,-0.335693,0.900879,107.711784,20.713804,23.361204
-1.019531,0.161133,0.591797,-6.309509,-26.473997,-112.983696,-0.302979,-0.334229,0.914307,99.594109,10.185241,25.474546
-0.989746,0.183838,0.609375,-9.757996,-27.870176,-107.26165,-0.331055,-0.262207,0.913818,94.314568,-0.846863,26.19171
-0.968506,0.209473,0.610352,-11.848449,-29.426573,-100.395195,-0.613281,-0.276123,0.838135,25.993345,-8.44574,23.132322
-0.930908,0.22998,0.611328,-13.656615,-32.157898,-93.391411,-0.395996,-0.23584,0.897217,89.027397,-9.216309,26.06201
-1.051758,0.137695,0.572998,-1.449585,-25.192259,-118.637077,-0.460205,-0.19873,0.845703,75.706482,-13.290404,21.804808
-0.892334,0.235352,0.587891,-17.158508,-39.878845,-82.008354,-0.454834,-0.218018,0.933838,64.64386,-15.388488,24.902342
-0.892822,0.239502,0.601807,-15.396117,-36.178589,-87.142937,-0.474854,-0.231689,0.98584,60.142513,-15.61737,26.130674
-0.856445,0.342041,0.675049,-17.684937,1.907349,-50.903316,-0.491455,-0.229248,1.001709,55.90057,-13.687133,26.863096
-0.922363,0.34668,0.645508,-17.814636,4.127502,-51.277157,-0.520508,-0.236328,0.993408,50.064083,-11.322021,26.580809
-1.037109,0.344238,0.599121,-17.860413,2.89154,-53.222652,-0.546143,-0.237793,0.974121,44.43359,-10.177611,25.665281
-1.108643,0.318115,0.559082,-18.318176,-4.310608,-58.410641,-0.552002,-0.221191,0.948975,39.886475,-10.56671,25.314329
-0.849609,0.337402,0.678467,-17.440796,-1.708984,-50.163265,-0.553955,-0.21167,0.915283,36.247253,-11.909484,25.451658
-1.076172,0.259033,0.509766,-18.028259,-30.998228,-67.687988,-0.562256,-0.22583,0.887939,33.103943,-13.298034,24.826048
-1.002441,0.254883,0.530029,-17.707825,-39.039612,-72.83783,-0.58252,-0.242676,0.875244,30.776976,-13.778686,23.498533
-0.929688,0.244141,0.561523,-17.921448,-41.511532,-77.705383,-0.453369,-0.209717,0.859619,82.321159,-11.360168,24.261473
-1.112061,0.283936,0.526611,-18.478394,-17.570496,-63.316341,-0.783203,-0.186768,0.739258,-7.67517,42.816158,-81.596367
-0.893555,0.345459,0.66626,-14.747619,-6.942749,-47.431942,-0.454834,-0.202393,0.880127,69.946289,-14.47296,22.369383
0.739746,-0.150391,0.442871,36.933899,0.747681,170.166,-0.503906,-0.155273,0.768799,0.900268,41.893002,-76.538086
0.571777,-0.471924,0.440674,50.361629,-16.113281,161.735519,-0.359863,0.210205,0.668945,-90.293877,108.627312,-72.906494
0.603027,-0.461182,0.425537,48.934933,-10.94818,161.247238,-0.359863,0.225586,0.673828,-89.691154,108.291618,-79.154968
0.621338,-0.435547,0.40332,46.745296,-7.499694,161.705002,-0.349854,0.220703,0.663574,-89.088432,107.666008,-82.695
0.62793,-0.389648,0.402344,44.021603,-6.103515,162.933334,-0.330811,0.212402,0.656494,-89.042656,107.086174,-82.557671
0.661621,-0.347412,0.426025,41.526791,-6.286621,164.054855,-0.304932,0.215088,0.677246,-90.293877,107.589714,-79.566956
0.663574,-0.319336,0.450439,40.298458,-4.440308,165.977463,-0.271729,0.242676,0.712891,-91.217033,108.383171,-74.806213
0.671875,-0.293457,0.454834,39.581299,-1.480102,166.778549,-0.246582,0.291016,0.76123,-90.789787,106.979362,-69.992065
0.703369,-0.258057,0.448975,38.635254,0.595093,167.381271,-0.229248,0.351318,0.80835,-88.85955,104.095451,-66.223145
0.722656,-0.210693,0.449707,37.445068,1.083374,168.441757,-0.220215,0.387939,0.835205,-87.387077,103.454582,-63.224789
0.925049,0.29248,0.387451,36.361694,5.798339,175.132736,-0.653564,-0.144775,0.739014,-2.182007,45.539852,-79.444885
0.727295,0.033691,0.384766,35.469055,9.811401,180.229172,-0.371582,0.157227,0.643311,-92.170708,109.016411,-67.398071
0.765625,0.082031,0.368896,35.02655,15.266418,183.258041,-0.234375,0.377441,0.849854,-88.85955,108.306877,-63.545223
0.829834,0.102783,0.354492,33.508301,20.103453,183.631882,-0.171143,0.388916,0.836182,-93.933098,120.445244,-82.603447
0.866699,0.115967,0.382568,32.081604,24.711607,183.219894,-0.027344,0.44458,0.823486,-94.573967,114.685051,-70.144653
0.860107,0.134766,0.428223,32.302856,27.488707,183.814987,0.002686,0.446777,0.812988,-93.536369,111.808769,-58.509823
0.874268,0.155029,0.477539,33.14209,25.947569,184.333786,0.054688,0.475586,0.808105,-92.094414,108.116142,-50.781246
0.909424,0.187988,0.500488,34.301758,20.484922,182.739243,0.084717,0.524414,0.785889,-88.844292,102.760307,-43.334957
0.915039,0.224854,0.482422,36.125183,14.747619,180.610641,0.065186,0.568115,0.749268,-83.152763,99.082939,-40.740963
0.90918,0.25415,0.433594,36.705017,10.231017,178.512558,0.055908,0.592773,0.735107,-76.339722,96.389763,-41.549679
0.581299,-0.476074,0.449707,51.002499,-24.581907,160.736069,0.081543,0.606689,0.761719,-68.977356,90.75927,-42.129513
0.752441,-0.097168,0.424316,36.209106,1.342773,171.943649,0.09082,0.625977,0.792969,-64.163208,86.074821,-40.641781
0.592773,-0.469238,0.474609,51.910397,-33.340454,161.926254,0.02124,0.640137,0.807373,-60.546871,91.033928,-44.456478
0.341553,-0.544189,0.520264,57.342525,-74.752808,172.828659,-0.240967,0.361572,0.847412,-92.155449,117.706291,-74.378967
0.616211,-0.480225,0.477539,53.436275,-46.302792,166.854843,-0.415771,0.096191,0.591309,-95.260612,109.02404,-64.186096
-0.015625,-0.539795,0.336914,30.555723,-144.477844,129.219055,0.019775,0.592041,0.821777,-63.636776,105.918877,-47.050472
-0.061523,-0.540039,0.372314,37.971497,-114.135735,140.151978,-0.551758,0.054688,0.591553,-102.775566,109.367363,-61.965939
-0.036377,-0.556152,0.482178,40.840145,-90.3778,149.681091,-0.35791,-0.186523,0.810547,-0.686645,34.515381,-71.678162
0.066162,-0.594971,0.575195,39.245605,-79.360962,153.457642,-0.272705,-0.211426,0.861572,-9.742737,31.387327,-62.683102
0.183838,-0.601807,0.646973,39.672852,-76.843262,153.694153,-0.279297,-0.236328,0.878174,-25.222776,37.216187,-54.595943
0.268066,-0.573975,0.667969,41.946407,-77.804565,155.220032,-0.229004,-0.259277,0.861572,-40.573116,42.816158,-46.005245
0.347412,-0.529053,0.647705,45.623775,-83.328239,156.402588,-0.076416,-0.262207,0.832275,-49.72839,37.483215,-34.40094
0.409668,-0.513428,0.578125,51.673885,-90.469353,155.342102,0.026123,-0.209229,0.786621,-54.954525,23.056028,-13.931273
0.383789,-0.560303,0.47168,57.861324,-94.047539,157.119751,-0.481934,0.060059,0.559814,-98.785393,109.107964,-63.018795
0.29834,-0.61377,0.399658,60.539242,-94.360344,161.537155,-0.179932,0.039063,0.779297,-67.337036,5.645751,43.29681
0.593262,-0.459229,0.496582,52.787777,-40.809628,164.924606,-0.48291,0.131104,0.887939,-79.719543,13.771056,50.254818
0.265869,-0.640381,0.387939,61.454769,-92.636101,165.039047,-0.768066,0.186768,1.030273,-95.237724,25.260923,46.226498
0.261475,-0.585205,0.480957,59.394833,-80.947868,173.538193,-0.867432,0.178467,1.187012,-105.865471,20.088194,29.548643
0.951172,0.32373,0.350098,34.317017,0.823975,170.051559,-0.00293,-0.08374,0.749512,-59.67712,9.284973,19.119263
0.380859,-0.500977,0.54541,57.266232,-67.871094,173.431381,-0.761475,0.331787,1.328369,-62.820431,-131.530762,-43.739315
0.418213,-0.474365,0.543945,59.753414,-61.485287,175.147995,-1.168457,0.199463,1.251221,-33.950806,-201.766953,-47.851559
0.511963,-0.484619,0.510498,63.072201,-57.991024,171.783432,-1.925293,-0.314209,1.122559,-34.744263,-171.81395,-25.222776
0.552246,-0.525635,0.460205,65.246582,-54.328915,168.273911,-2.250488,-0.863281,1.025879,-55.297848,-56.648251,-4.058838
0.513184,-0.548584,0.436279,64.552307,-49.919125,169.525131,-2.182861,-1.086182,1.098877,-69.023132,58.197018,-33.584595
0.5271,-0.535645,0.45166,61.988827,-48.400875,170.478806,-1.448975,-0.879883,1.281006,-76.255798,109.466545,-61.233517
0.580566,-0.512695,0.454102,59.501644,-48.240658,170.112595,-0.780029,-0.43042,1.469971,-88.86718,123.054497,-43.350216
0.607666,-0.500977,0.452393,55.946346,-48.347469,168.78508,-0.546875,0.01123,1.415527,-100.502007,115.440361,-36.819458
0.234131,-0.628662,0.42627,61.241146,-87.387077,170.318588,-0.59668,0.15918,1.062012,-106.552116,108.3908,-48.995968
0.956543,0.359863,0.360352,31.738279,-2.311707,164.947495,-0.599121,0.091553,0.762207,-106.391899,109.001152,-58.807369
0.73999,-0.03418,0.396973,35.65979,4.638672,175.392136,-0.736572,0.239502,1.307861,-94.390862,-34.40094,-9.086609
0.934082,0.405762,0.419678,30.921934,-1.083374,160.110474,-0.679688,0.758057,0.105225,67.008972,8.041382,64.498901
1.308838,0.144775,0.540039,-28.991697,-33.77533,-123.123161,-0.584961,0.707764,0.139648,66.108704,2.677917,68.649292
1.223389,0.28418,0.513428,-29.594419,-57.868954,-126.152031,-0.513184,0.712646,0.164307,63.888546,6.118774,72.723389
1.137939,0.38501,0.444336,-29.319761,-76.560974,-130.584717,-0.494629,0.761719,0.170166,57.41119,17.074585,75.714111
1.095703,0.422607,0.432617,-28.648375,-94.993584,-135.20813,-0.686279,0.907471,-0.076416,4.295349,18.730164,97.084038
1.068848,0.372803,0.451904,-29.792784,-115.768425,-140.098572,-0.61084,0.826904,0.059082,36.026001,37.612915,81.802361
1.015869,0.289795,0.426758,-31.036375,-136.604309,-145.957947,-0.67627,0.877197,0.005371,28.747557,39.039612,87.409966
0.943848,0.191406,0.414307,-32.646179,-153.617859,-150.062561,-0.70459,0.925781,-0.051758,20.294188,32.13501,92.170708
0.867188,0.086914,0.444336,-34.416199,-163.887009,-152.97699,-0.532227,0.803467,0.126953,46.684261,29.20532,78.163147
0.814941,0.032959,0.453369,-34.156799,-168.334946,-160.575867,-0.762695,0.81543,0.0896,67.176819,19.645691,60.256954
0.875977,0.172363,0.32666,-31.059263,-168.235764,-188.430771,-0.652588,0.728271,0.41748,20.660398,59.234615,34.355164
1.322266,0.000732,0.498047,-26.802061,-9.32312,-116.84417,-0.842529,0.777344,0.174072,63.3316,45.730587,50.819393
0.834717,0.296875,0.351318,-29.418943,-160.301208,-198.883041,-0.837158,0.682373,0.232422,59.745785,56.549068,45.303341
0.604248,0.37207,0.529053,-25.566099,-132.888794,-194.49614,-0.800537,0.629639,0.283936,57.098385,65.666199,38.18512
0.601563,0.411377,0.566895,-24.406431,-134.559631,-188.354477,-0.770508,0.65332,0.337402,55.549618,71.334839,30.693052
0.653076,0.388184,0.626709,-30.044554,-152.96936,-178.451523,-0.731934,0.688965,0.394043,53.497311,71.769714,26.000975
0.674316,0.317871,0.709961,-35.011292,-182.281479,-166.221603,-0.672852,0.703857,0.425781,50.193783,68.206787,26.18408
0.61792,0.254395,0.751709,-36.529541,-211.013779,-156.806946,-0.628662,0.700684,0.427002,44.990536,64.064026,29.090879
0.512451,0.138916,0.755615,-39.505005,-226.272568,-156.227112,-0.621582,0.692627,0.425293,38.169861,60.974117,31.211851
0.403809,0.054688,0.767334,-39.916992,-218.963608,-171.295151,-0.647217,0.698975,0.412842,31.379698,59.280392,31.898497
0.329346,0.141846,0.763428,-29.197691,-190.307602,-198.562607,-0.654541,0.723389,0.398682,26.000975,59.143063,32.89032
0.304932,0.362793,0.742188,-11.726378,-154.251099,-226.028427,-0.604248,0.807373,0.0354,-18.989563,6.752014,104.721062
0.919678,0.430176,0.452637,31.494139,4.547119,155.044556,-0.817871,0.831787,0.115234,66.001892,33.187866,55.7785
0.718506,0.347656,0.450439,-28.717039,-145.28656,-199.584946,-0.492188,0.754395,0.187744,-39.108276,6.057739,111.747734
1.29126,-0.035889,0.467041,-21.156309,4.981995,-103.904716,-0.595703,1.005615,0.010986,-15.258788,36.010742,44.158932
0.840576,0.063477,0.395264,-32.76062,-169.761642,-173.721298,-0.348389,0.885254,0.372314,-46.127316,44.914242,107.170097
1.165527,0.313232,0.456299,-10.82611,3.585815,-77.125549,-0.640869,0.713379,0.452637,14.945983,58.067318,34.645081
1.245361,0.118164,0.480469,-14.175414,8.43811,-88.882439,-0.025391,1.116699,-0.249756,-55.183407,43.716427,63.705441
0.907471,0.391113,0.469482,34.416199,17.39502,142.913818,0.011963,1.030762,-0.319092,-45.379635,19.439697,56.686398
0.934082,0.36084,0.446533,34.912109,19.035339,135.482788,-0.022461,1.078613,-0.36377,-34.606934,-7.919311,49.22485
0.989014,0.340088,0.415527,33.454895,13.633727,127.700798,-0.082275,1.176514,-0.301514,-17.852783,-26.649473,49.34692
1.066162,0.30542,0.404053,29.258726,0.534058,118.705742,-0.073242,1.174072,-0.189941,-2.578735,-37.834167,59.562679
1.131836,0.279785,0.378418,22.705076,-17.997742,107.307426,-0.068848,1.07666,-0.092773,5.210876,-44.853207,69.511414
1.141602,0.272217,0.365234,16.738892,-34.52301,94.810478,-0.164551,0.959717,-0.011475,4.486084,-48.72131,70.510864
1.112061,0.263916,0.378174,12.184142,-43.350216,81.985466,-0.306152,0.880859,0.058105,-4.219055,-46.82922,65.353394
1.068115,0.249756,0.417969,8.918762,-44.410702,69.084167,-0.436279,0.868896,0.056885,-14.495849,-35.40802,57.403561
1.044678,0.26709,0.461182,6.988525,-40.603634,56.076046,-0.396973,0.827393,0.29248,-48.393246,20.881651,112.724297
1.054443,0.33374,0.498047,6.530761,-35.629272,44.410702,-0.527588,0.869873,0.044922,-23.376463,-16.662598,48.889156
1.073975,0.423096,0.501953,7.843017,-30.067442,36.148071,-0.591797,0.975342,0.042236,-24.528502,24.55139,39.68811
0.90625,0.425049,0.46167,32.867432,11.260985,149.505615,-0.588867,1.000244,-0.02002,-4.78363,36.956787,49.774166
1.114014,0.386963,0.407959,-12.268065,-10.719298,-69.396973,-0.598633,0.985596,-0.060791,6.446838,32.37915,53.62701
1.15332,0.473877,0.427734,6.515502,-20.935057,20.63751,-0.631348,0.956543,-0.097168,17.616272,28.564451,51.887508
1.15918,0.429932,0.380615,3.356933,-19.264221,12.725829,-0.638916,0.897461,-0.049561,24.444578,31.921385,45.867916
1.181641,0.369385,0.378662,-0.801086,-23.086546,4.615784,-0.646729,0.797852,0.071045,22.186277,42.572018,43.876644
1.240479,0.277832,0.390869,-6.17218,-33.7677,-5.805969,-0.592041,0.679932,0.202881,12.657165,57.090755,50.804134
1.285156,0.203857,0.369629,-13.366698,-48.248287,-18.440247,-0.510498,0.622803,0.361084,-2.372742,70.487976,63.796993
1.283447,0.231934,0.345459,-18.188477,-60.760494,-28.19824,-0.437744,0.6875,0.424561,-20.690916,74.203491,78.460693
1.232666,0.313965,0.357178,-17.791748,-63.591,-36.781311,-0.375244,0.821289,0.413086,-36.804199,65.139771,94.566338
1.168945,0.35376,0.376709,-16.51001,-52.291866,-48.934933,-0.561523,0.910889,0.054199,-27.748106,5.241394,41.343685
1.125977,0.375,0.376465,-14.999389,-31.639097,-61.31744,-0.620361,0.693604,0.485352,9.185791,54.466244,34.194946
1.117676,0.478516,0.475342,8.369446,-24.986265,28.778074,-0.588379,0.684814,0.506348,3.875732,48.599239,35.018921
0.47168,-0.892822,0.112061,-3.14331,0.007629,-3.608703,-0.558594,0.69165,0.518799,-0.282288,40.519711,37.399292
0.489014,-0.910156,0.115967,-1.159668,-0.457764,-3.059387,-1.488281,3.364014,0.355469,42.243954,57.220455,13.862609
0.496094,-0.92334,0.085938,-0.061035,-0.495911,-2.319336,-1.466553,2.272217,1.080566,89.309685,74.707031,60.272213
0.513184,-0.931641,0.061035,1.25885,-1.281738,-0.556946,-0.984619,1.095459,0.633057,109.161369,90.072624,76.896667
0.534668,-0.858154,0.124512,20.530699,3.692627,7.751464,-0.84082,0.79541,0.432373,121.12426,95.901482,75.340271
0.457031,-0.949707,0.058838,8.514404,-3.501892,4.264832,-0.7854,0.709229,0.439453,131.576538,99.777214,69.244385
0.490479,-0.914063,0.066162,14.884948,-2.845764,4.127502,-0.756104,0.682861,0.460205,140.419006,103.271477,62.042233
0.526611,-0.891113,0.132813,17.936707,-1.686096,6.41632,-0.727539,0.662109,0.473145,147.377014,105.133049,56.159969
0.449707,-0.880615,0.095703,-5.706787,0.900268,-3.425598,-0.696289,0.664795,0.481934,154.876709,102.966301,52.467342
0.5354,-0.945801,0.028564,4.096985,-2.01416,2.02179,-0.664795,0.653809,0.468506,162.818893,95.321648,50.216671
0.455322,-0.886475,0.066162,-9.292603,1.312256,-3.15094,-0.635498,0.615967,0.451416,168.91478,84.793083,50.23193
0.487305,-0.876709,0.105225,-24.085997,4.188538,-3.211975,-0.759766,2.203125,-0.026123,16.242981,68.710327,-3.059387
0.462646,-0.906982,0.033447,-17.066956,0.946045,-3.997802,-0.621338,0.582031,0.438721,174.903854,73.898315,52.001949
0.452881,-0.897949,0.055908,-19.599915,1.808166,-3.860473,-0.615479,0.527344,0.431641,181.373581,62.591549,59.265133
0.449219,-0.888428,0.081299,-21.293638,3.608703,-3.707886,-0.628662,0.510986,0.453857,183.685287,61.370846,62.988277
0.449463,-0.886719,0.09375,-23.048399,4.615784,-3.425598,-0.623779,0.470947,0.476807,185.264572,59.333797,64.483643
0.492188,-0.86377,0.120361,-24.032591,1.998901,-3.067016,-0.602051,0.35498,0.498291,184.387192,56.510921,64.796448
0.477539,-0.870361,0.137207,-24.612425,-0.854492,-2.487183,-0.5896,0.200928,0.508789,181.13707,53.50494,64.01062
0.496582,-0.880127,0.140625,-25.627134,-3.684997,-2.5177,-0.574463,0.068848,0.515869,178.443893,50.903316,61.584469
0.492188,-0.873779,0.12915,-25.733946,-5.142211,-3.15094,-0.559326,-0.01001,0.514404,176.010117,49.575802,57.807919
0.467529,-0.871338,0.123291,-26.130674,-4.615784,-3.074646,-0.548584,-0.04126,0.509277,173.049911,48.049923,54.405209
0.479736,-0.875732,0.120361,-27.175901,-3.15094,-4.142761,-0.556641,-0.062988,0.530518,169.013962,49.034115,51.23901
0.466797,-0.899902,0.041504,-13.320922,1.091003,-3.700256,-0.56543,-0.091797,0.549072,164.337143,51.23138,46.669003
0.499023,-0.878906,0.109619,19.958496,7.713317,7.5531,-0.608887,0.543945,0.416504,178.550705,65.635681,54.580685
0.460205,-0.886719,0.106201,-29.953001,-1.594543,-5.065917,-0.743652,0.631348,0.022217,-32.402039,74.676514,-5.256652
0.451904,-0.858154,0.111572,20.431517,11.405944,8.506775,-0.544678,-0.147949,0.557617,158.073425,53.405758,41.816708
0.384033,-0.866211,0.239502,35.118103,44.464108,12.290954,-0.759521,-0.567139,-0.316895,-43.792721,118.545525,-14.282226
0.408447,-0.868164,0.221924,33.279419,44.326778,11.840819,-0.5271,0.697021,0.530518,-2.159119,29.762266,40.428158
0.404785,-0.861084,0.218018,31.997679,43.342587,11.383056,-0.512207,0.681885,0.544922,-2.555847,16.532898,42.282101
0.404053,-0.853271,0.222168,31.051634,41.870113,11.83319,-0.526611,0.657227,0.553955,-2.883911,1.968384,40.64941
0.422119,-0.860107,0.236328,29.83856,39.649963,12.245177,-0.533936,0.647949,0.562988,-3.311157,-14.144897,37.368774
0.403809,-0.867676,0.226318,28.839109,38.513184,12.435912,-0.526611,0.644287,0.570313,-3.707886,-31.501768,35.575867
0.395996,-0.872803,0.220459,28.282164,37.887573,13.015746,-0.554443,0.62207,0.575928,-4.867554,-48.46954,34.431458
0.422607,-0.865234,0.211426,28.800962,37.796021,12.924193,-0.697266,-0.484131,-0.117432,-73.501587,94.398491,-12.512206
0.440674,-0.860596,0.199463,29.380796,37.536621,12.565612,-0.737061,0.603516,0.553467,-12.878417,-59.837337,31.837461
0.487549,-0.858643,0.187256,29.777525,35.469055,12.619018,-0.852295,0.620117,0.502686,-19.485474,-45.959469,30.014036
0.473145,-0.874512,0.110596,20.721434,10.391234,8.018494,-0.934326,0.657715,0.445068,-25.459288,-22.819517,27.183531
0.514404,-0.857178,0.164307,29.800413,32.203674,12.184142,-0.953613,0.700928,0.37793,-26.679991,0.518799,18.585205
0.439209,-0.855713,0.152588,29.014585,27.359007,10.57434,-0.62793,0.603271,0.570557,-7.835388,-60.012814,33.172607
0.442627,-0.862061,0.148193,28.633116,25.962828,11.047362,-0.901611,0.548584,0.195313,-19.020081,22.132872,-18.4021
0.482422,-0.87915,0.138184,27.091978,23.773191,11.108397,-0.756836,0.378418,0.14917,-15.304564,4.890442,-27.282713
0.50293,-0.891602,0.129395,24.909971,20.423887,10.643004,-0.558105,0.411133,0.18042,-8.552551,-35.15625,-20.500181
0.49292,-0.891846,0.108398,22.65167,17.76886,9.658813,-0.554932,0.877197,0.208252,11.314391,-71.731567,3.967285
0.486816,-0.895752,0.09668,20.39337,15.99121,8.293152,-0.731934,1.366943,0.176025,36.079407,-81.909172,25.283812
0.487549,-0.884277,0.103027,19.40918,14.671325,7.362365,-0.999512,1.337646,0.188477,42.739864,-65.856934,40.344234
0.458252,-0.874268,0.10376,19.004822,14.488219,6.980896,-1.127197,0.910156,0.179199,28.648375,-22.064207,54.428097
0.453125,-0.876953,0.099365,18.486023,14.488219,7.041931,-1.100098,0.574463,0.026367,12.481688,36.735535,39.634705
0.470459,-0.866699,0.104248,18.997192,12.939452,7.652282,-1.033936,0.376465,-0.086426,10.421752,88.60778,1.63269
0.490723,-0.861816,0.14917,29.243467,29.350279,10.780334,-0.95752,-0.043701,-0.210693,-2.342224,117.553703,-15.594481
0.426514,-0.858887,0.258545,36.643982,43.907162,12.687682,-0.932617,0.681152,0.287354,-23.223875,17.555237,0.404358
0.518311,-0.863037,0.126221,-32.104492,-2.960205,-5.889892,0.457275,0.520508,0.224854,-133.956909,-32.783508,-81.329338
0.463379,-0.810303,0.16333,-31.700132,-10.45227,-5.386352,0.440918,0.520996,0.20459,-132.469177,-23.071287,-75.241089
0.745117,-0.71875,0.412598,7.598876,-142.64679,27.656553,0.410156,0.505859,0.184326,-129.608154,-15.693664,-68.572998
0.734131,-0.71167,0.426758,3.669739,-166.90062,35.987854,0.388184,0.483398,0.17749,-124.90081,-15.686034,-63.278194
0.699951,-0.595215,0.402344,0.999451,-195.869431,45.433041,0.378418,0.51123,0.366211,-83.95385,-90.118401,-65.498352
0.755615,-0.634766,0.357422,-0.083923,-223.701462,50.460812,0.331055,0.440186,0.212158,-109.53521,-41.236874,-62.271114
0.692383,-0.724854,0.388916,-3.822326,-240.10466,52.37579,0.312012,0.445313,0.260254,-100.45623,-61.553951,-63.682552
0.588623,-0.657715,0.431396,-0.953674,-241.36351,54.153439,0.337402,0.473145,0.318359,-91.667168,-79.551697,-64.346313
0.604004,-0.587646,0.412598,2.037048,-231.704697,54.00848,0.362549,0.455811,0.180664,-118.09539,-24.818419,-61.31744
0.637207,-0.564209,0.370117,2.746582,-217.582687,54.63409,0.44751,0.513428,0.224609,-134.986877,-39.382935,-85.708611
0.642822,-0.553467,0.315674,3.463745,-201.728806,54.962154,0.588867,0.762207,0.042725,-143.234253,-5.233764,-99.616997
0.662354,-0.56958,0.242432,3.181457,-191.078171,54.64172,0.391602,0.434082,0.158691,-141.838074,-31.433104,-87.295525
0.594727,-0.760254,0.402588,3.669739,-127.479546,22.6593,0.371338,0.398926,0.104004,-147.766113,-16.944885,-89.271538
0.608154,-0.578857,0.202393,2.082825,-180.25206,56.327816,0.396484,0.404053,0.05127,-154.319763,-0.747681,-91.621391
0.418701,-0.574707,0.284424,3.013611,-152.160645,68.733215,0.447998,0.445313,0.018311,-159.690857,13.053893,-93.482964
0.416992,-0.568359,0.398193,2.082825,-142.105103,73.944092,0.497803,0.494629,0.012451,-162.696823,22.15576,-95.66497
0.428467,-0.547363,0.532715,2.227783,-138.000488,80.001831,0.544922,0.542969,0.036133,-163.070663,25.451658,-97.579948
0.466064,-0.529053,0.643066,4.28009,-143.920898,86.486809,0.587646,0.588135,0.053955,-161.659225,22.315977,-99.128716
0.508789,-0.517822,0.707031,7.652282,-156.959534,92.697136,0.616943,0.644043,0.064941,-158.111572,13.71765,-99.95269
0.504883,-0.518555,0.74292,10.734557,-172.729477,97.228996,0.626953,0.700439,0.06665,-153.160095,2.929687,-99.609367
0.447021,-0.529297,0.722168,14.48059,-186.065659,100.189201,0.612793,0.747314,0.060791,-147.926331,-4.478455,-99.296562
0.301514,-0.547363,0.644775,18.089294,-191.253647,107.124321,0.407227,0.553955,0.390869,-78.079224,-91.880791,-66.818237
0.164795,-0.547852,0.537109,20.378111,-185.28746,116.020195,0.422119,0.486084,0.200439,-137.443542,-39.459229,-86.906425
0.079346,-0.537109,0.426025,23.735044,-169.181808,121.955864,0.421387,0.588135,0.399658,-74.447632,-86.914055,-67.03949
0.486084,-0.573975,0.223633,2.304077,-166.107162,62.499996,0.481445,0.653076,0.590088,-39.543152,-88.272087,-55.52673
0.564453,-0.952393,0.424316,6.050109,-115.501396,17.906189,0.40625,0.595947,0.402344,-68.809509,-68.916321,-64.994812
0.51001,-0.823242,0.142822,-31.898497,-5.958557,-7.080078,0.582275,0.757324,0.006104,-138.748169,1.396179,-99.845879
0.573975,-0.796875,0.088379,34.126282,-90.782158,7.781982,0.419189,0.706787,0.544189,-18.554688,-95.962517,-45.249935
0.476318,-0.809082,0.179199,-31.814573,-17.074585,-3.448486,0.437744,0.692139,0.574219,-20.332335,-100.07476,-46.730038
0.400635,-0.827881,0.175293,-32.669067,-21.476744,-1.770019,0.455811,0.665039,0.580322,-22.445677,-104.164116,-47.775265
0.296631,-0.869141,0.175781,-34.0271,-20.561216,0.282288,0.446045,0.650146,0.562988,-24.200438,-106.605522,-48.202511
0.266113,-0.907715,0.166748,-36.102295,-15.258788,1.25885,0.412109,0.660889,0.529297,-25.245665,-105.522148,-48.316952
0.374756,-0.922363,0.195557,-39.375305,-12.947082,1.770019,0.367188,0.68042,0.496338,-26.367186,-101.417534,-49.453732
0.472168,-0.886963,0.244385,-39.337158,-13.580321,-0.396728,0.34375,0.699463,0.499512,-27.748106,-95.222466,-51.017757
0.631592,-0.965088,0.218018,21.980284,-101.791374,11.054992,0.34668,0.693359,0.510254,-29.037474,-88.874809,-52.551266
0.405518,-0.857178,0.294434,-30.128477,-8.247375,-1.075745,0.358887,0.655273,0.528809,-30.85327,-83.602898,-53.749081
0.387695,-0.885498,0.255615,-26.077269,-2.067566,0.854492,0.423828,0.603516,0.395996,-71.800232,-77.949524,-66.062927
0.359619,-0.983887,0.177979,-28.305052,6.523132,5.073547,0.397217,0.61499,0.560791,-33.119202,-80.01709,-54.313656
0.379395,-1.166748,0.088867,-41.114803,16.525269,-0.801086,0.469727,0.621826,0.599121,-38.536072,-82.336418,-55.335995
0.39624,-0.848633,0.275879,-34.957886,-11.512755,-1.243591,0.474854,0.673828,0.564697,-40.168758,-94.619743,-56.442257
0.456787,-1.106201,0.227295,-67.832947,23.66638,-27.671812,0.443359,0.677734,0.525635,-41.65649,-98.762505,-57.350155
0.073486,-0.482422,0.470459,-36.262512,37.223816,-22.033689,0.404541,0.669434,0.484863,-43.617245,-99.365227,-57.884212
-0.272949,0.087891,0.864746,34.301758,78.384399,-13.008117,0.37207,0.651611,0.451904,-46.07391,-96.519463,-58.898922
-0.020264,-0.144287,1.106934,88.478081,106.185905,-2.723694,0.346924,0.630615,0.431641,-48.84338,-90.713493,-59.745785
0.472656,-0.703369,0.756348,101.043694,84.411613,4.013062,0.326416,0.617188,0.42627,-52.192684,-82.054131,-60.127254
0.705078,-0.825439,0.413086,98.449699,44.731136,7.995605,0.318848,0.604004,0.418213,-56.320187,-72.059631,-60.69183
0.811768,-0.821289,0.226563,87.142937,1.38092,17.288208,0.337402,0.592773,0.410156,-60.920712,-64.994812,-61.676022
0.93335,-0.845947,0.144043,64.193726,-48.59161,24.314878,0.371582,0.5896,0.407227,-64.979553,-63.71307,-63.430782
0.886719,-0.799805,0.05127,44.761654,-86.799614,25.657652,0.440674,0.604736,0.591309,-36.087036,-79.368591,-54.992672
0.650146,-0.744141,0.00293,36.682129,-94.123833,20.988462,0.630127,0.768066,-0.056885,-131.820679,11.428832,-97.862236
0.451172,-1.293701,0.074463,-59.814449,24.986265,-18.424988,0.737061,0.79248,-0.083496,-121.643059,17.105103,-93.429558
0.855957,-0.818604,0.68457,53.276058,15.86914,122.619621,-0.095459,1.127441,-0.124268,-65.841675,57.624813,65.1474
0.796631,-0.835938,0.680908,55.152889,11.421203,135.551453,-0.501709,0.806396,0.262939,19.859314,-39.459229,60.462948
0.769775,-0.903809,0.669189,57.586666,10.32257,145.843506,-0.273926,0.881592,0.427002,19.233704,-22.254942,56.808468
0.751953,-0.964355,0.638184,61.073299,13.786315,155.36499,-0.017578,0.898926,0.632568,30.906675,-13.46588,56.129452
0.370361,-0.552002,0.401367,83.518974,41.801449,190.261826,0.188965,0.881104,0.709229,45.372005,-25.817869,67.382813
0.631348,-0.891357,0.542725,71.273804,33.218384,173.500046,0.208984,0.962891,0.48877,47.843929,-46.180721,79.460144
0.530762,-0.776611,0.48584,74.043274,41.778561,181.365952,-0.023193,1.18457,0.118408,38.909912,-42.785641,75.141907
0.435791,-0.661133,0.429443,77.690125,43.899532,186.80571,-0.260254,1.320068,-0.147461,19.721985,-11.306762,53.024288
0.707031,-0.963135,0.594482,66.558838,22.163389,164.611801,-0.307373,1.250488,-0.205322,-1.190186,28.823851,29.602049
0.902832,-0.851074,0.696289,51.567074,23.330687,107.337944,-0.052979,1.023438,-0.009766,-5.889892,56.457516,26.30615
0.970215,-0.529053,0.428711,28.625486,106.498711,-66.375732,0.241699,0.757813,0.29541,-0.320435,62.507626,45.585629
0.93042,-0.96582,0.724609,46.623226,36.506653,73.616028,-0.559082,0.717529,0.19458,31.288145,-54.664608,79.25415
0.919922,-0.964355,0.70874,43.525692,40.359493,57.525631,0.3125,0.577637,0.583008,1.88446,51.513668,68.031311
0.887695,-0.883057,0.666504,41.748043,41.046139,46.134945,0.50415,0.642334,1.155273,23.864744,-41.748043,80.505363
0.94458,-0.776367,0.599609,39.718628,33.378601,37.628174,0.512695,0.667725,1.168457,23.376463,-101.890556,93.994133
1.092529,-0.68042,0.531006,35.949707,14.755248,27.091978,0.237061,0.752441,0.85791,15.213012,-135.597229,115.432732
1.211182,-0.644531,0.463623,29.777525,-9.613037,13.137816,-0.220215,0.81958,0.562744,6.217956,-127.220146,129.989624
1.20752,-0.651123,0.400635,22.254942,-31.211851,-2.311707,-0.719971,0.876709,0.37207,-2.731323,-89.447014,124.244682
1.146484,-0.638916,0.369873,17.448425,-35.865784,-18.447876,-1.040283,0.947754,0.268555,-13.114928,-41.175838,105.361931
1.059814,-0.62915,0.360596,16.334534,-12.535094,-36.193848,-1.031006,0.970703,0.252441,-25.947569,3.631592,81.55822
0.962402,-0.605957,0.384766,21.186827,39.596558,-53.337093,-0.723633,0.952637,0.216797,-42.472836,36.323547,64.239502
0.337891,-0.456299,0.423828,88.981621,39.962769,191.764816,-0.337402,0.943115,0.134277,-59.455868,55.26733,59.715267
0.912842,-0.9104,0.712646,49.583431,31.318663,90.927116,-0.148682,1.031738,0.037354,-67.863464,61.744686,62.591549
0.321777,-0.387207,0.467529,93.605034,40.260311,189.918503,0.395264,0.586914,0.879395,10.95581,17.593384,77.087402
0.073486,-0.050293,0.64917,87.791435,83.717339,99.227898,-0.500977,0.705566,0.2146,43.907162,-63.735958,117.431633
0.261963,-0.264404,0.580566,97.427361,59.562679,180.236801,0.869629,0.816162,-0.070068,-109.970085,13.114928,-89.706413
1.105713,-0.406982,0.491699,33.77533,165.069565,-80.909721,-0.24707,0.605225,0.316162,45.501705,-51.300045,187.660202
-0.271484,-0.053223,0.62915,106.048576,136.924744,44.029232,1.030518,0.870361,-0.060059,-96.160881,-3.929138,-86.158745
-0.206543,-0.037598,0.606201,101.119987,137.794495,45.448299,1.220459,0.961914,-0.062988,-78.460693,-35.91156,-77.606201
-0.155518,-0.046143,0.603027,97.068779,138.053894,46.836849,1.402344,1.074463,-0.067139,-56.137081,-78.575134,-62.492367
-0.103271,-0.047852,0.629395,94.192497,135.5896,48.667904,1.498047,1.151855,-0.093506,-32.066345,-119.026176,-43.739315
-0.052734,-0.050293,0.667236,91.316216,127.738945,50.491329,1.474121,1.141357,-0.145264,-13.46588,-136.97052,-19.65332
-0.007324,-0.035889,0.697266,89.11132,115.264885,53.024288,1.391113,1.053955,-0.193359,-7.972717,-119.1101,13.809203
0.008301,-0.017334,0.707764,88.088982,100.921623,57.441708,-0.376709,0.687256,0.253662,47.439571,-61.782833,155.311584
-0.020264,-0.015137,0.702881,87.120049,89.347832,63.865658,1.425781,1.065674,-0.203369,-22.430418,-15.892028,75.164795
-0.051758,-0.001221,0.689697,85.479729,83.847038,71.495056,1.509277,1.219238,-0.188232,-21.675108,19.287109,108.64257
0.305176,-0.310791,0.524902,97.160332,45.867916,186.096176,1.526367,1.383789,-0.252686,-9.880066,36.262512,150.588989
-0.055664,0.014893,0.677002,83.709709,83.717339,78.559875,1.349609,1.466797,-0.316895,5.371093,45.94421,185.791
0.019043,-0.001953,0.665771,85.84594,86.830132,93.284599,1.372314,1.002197,-0.206543,-14.389037,-70.549011,47.416683
0.106445,-0.083008,0.641357,90.00396,77.331543,105.606071,0.720459,1.51416,-0.160645,17.608643,56.259151,225.540146
0.115723,-0.108643,0.653076,91.217033,68.183899,113.517754,1.00708,1.454102,-0.265869,14.778136,52.467342,207.748398
0.087646,-0.107422,0.662842,91.964714,60.104366,122.940056,-0.038818,0.328613,0.331787,35.171509,-34.286499,249.992355
0.053955,-0.080322,0.659668,93.826286,58.349606,133.926392,0.045166,0.342285,0.233398,42.381283,-30.441282,249.992355
0.033203,-0.074219,0.657715,93.879692,63.568111,142.929077,0.082764,0.597168,0.067383,52.818295,-23.612974,249.511703
0.019043,-0.068848,0.655762,93.879692,74.928284,150.032043,0.054443,0.968506,0.000244,53.932186,-13.031005,249.977097
0.027832,-0.062744,0.655518,97.236626,87.516777,157.76062,-0.123291,0.47583,0.340576,39.733887,-40.130615,222.2061
0.094727,-0.131104,0.642822,99.151604,89.035027,164.840683,0.179688,1.625488,-0.065674,33.058167,25.390623,249.992355
0.174805,-0.207031,0.619629,98.31237,77.293396,172.576889,0.260498,1.960938,-0.049805,22.430418,44.525143,249.992355
-0.032471,0.019287,0.665283,83.900444,85.914604,86.120598,0.350342,2.101074,-0.051025,17.280579,57.220455,249.992355
-0.346924,-0.086182,0.671387,111.839287,135.108948,42.221066,0.508789,1.814941,-0.085693,16.746521,59.440609,244.453415
1.354004,-0.312988,0.519775,31.867979,197.814926,-105.026237,0.077148,1.312012,-0.044922,45.150753,4.432678,249.992355
1.640869,-0.30957,0.508057,-3.250122,170.722946,-167.869553,0.502197,0.881836,-0.343506,0.686645,-10.437011,-2.204895
0.105225,-0.637939,0.565674,33.996582,20.843504,15.60974,0.494141,0.869873,-0.330078,3.311157,-12.619018,-2.105713
0.158691,-0.684814,0.517578,35.476685,25.947569,17.929077,0.481201,0.850342,-0.329346,5.241394,-14.877318,-1.861572
0.18042,-0.73291,0.457275,35.186768,30.868528,18.264771,0.470703,0.827393,-0.337402,6.889343,-16.365051,-1.266479
0.199707,-0.758057,0.414307,35.751343,35.102844,18.112183,0.476563,0.818115,-0.354004,8.476257,-17.486572,-0.610352
0.225098,-0.778809,0.403809,37.612915,37.361145,17.868042,0.490479,0.81665,-0.367188,10.437011,-18.791199,-0.244141
0.233398,-0.814209,0.40332,38.68866,39.802551,15.647887,0.494141,0.831055,-0.365234,11.978148,-19.226074,-0.175476
0.217041,-0.838867,0.400635,38.597107,43.266293,12.84027,0.485352,0.846191,-0.359619,13.450622,-19.042969,-0.236511
0.24292,-0.796875,0.442139,41.236874,44.479366,12.153625,0.483643,0.842041,-0.336914,15.510558,-18.875122,0.297546
0.261719,-0.737549,0.502686,47.096249,42.755123,14.503478,0.477783,0.845703,-0.325928,17.150879,-17.715454,1.533508
0.246338,-0.766113,0.455078,51.185604,39.642334,18.592834,0.517578,0.787109,-0.212158,31.112669,-26.214598,6.965637
0.067383,-0.630615,0.594238,29.273985,14.205932,10.726928,0.501221,0.846436,-0.296631,19.462585,-20.484922,2.113342
0.244385,-0.788574,0.387939,49.873348,40.504452,18.15033,0.498779,0.845215,-0.284912,20.103453,-22.735594,2.5177
0.280762,-0.813965,0.327393,46.70715,42.518612,16.487122,0.49707,0.851074,-0.291992,20.858763,-23.53668,3.311157
0.304932,-0.83374,0.306641,44.143673,43.075558,15.3656,0.482666,0.858643,-0.300537,22.3999,-23.79608,4.150391
0.312744,-0.846191,0.298584,41.725155,43.540951,14.48059,0.472656,0.86084,-0.306641,24.345396,-24.513243,5.432128
0.309082,-0.849121,0.293945,39.94751,44.250484,13.992309,0.466553,0.859863,-0.30957,26.588438,-24.749754,6.805419
0.304199,-0.850586,0.305664,38.68866,45.028683,14.328002,0.465576,0.85083,-0.305664,28.068541,-24.368284,8.468628
0.328369,-0.853516,0.30957,38.30719,45.501705,14.595031,0.471191,0.842773,-0.287842,29.525755,-24.29962,9.513855
0.354248,-0.854004,0.293701,38.246155,46.730038,14.205932,0.4729,0.826172,-0.254883,31.211851,-24.566648,9.475708
0.381836,-0.844727,0.288086,38.063049,47.012325,14.35852,0.489258,0.810547,-0.229492,31.753538,-24.955748,9.048462
0.442871,-0.842285,0.296631,37.666321,44.776913,14.335631,0.490234,0.884033,-0.364502,-2.326965,-9.666443,-2.586365
1.582275,-0.290039,0.514648,16.38031,199.218735,-136.734009,0.488281,0.850342,-0.319092,18.661499,-17.662048,2.090454
0.255859,-0.800049,0.349365,48.538204,41.755672,17.494202,0.481201,0.871338,-0.384033,-6.17218,-10.017395,-3.356933
0.022949,-0.626953,0.62085,23.757933,5.508422,8.338928,0.47998,0.852295,-0.320313,-33.866882,4.981995,-3.417969
0.260742,-0.73291,0.512695,50.956722,40.420528,17.578125,0.496582,0.832275,-0.345703,-14.595031,-6.843566,-5.40924
-0.059326,-0.531006,0.629639,5.203247,-15.502929,2.174377,0.537354,0.780762,-0.194824,29.70886,-28.869627,3.753662
-0.047852,-0.58374,0.615723,16.799927,-4.386902,6.629943,0.486572,0.86377,-0.182617,-50.720211,9.788513,3.059387
1.398438,-0.32666,0.415039,-9.559631,89.042656,-194.770798,0.489014,0.865723,-0.185791,-50.552364,8.460999,2.670288
1.305176,-0.379395,0.263672,-8.018494,57.128902,-204.1931,0.482422,0.877441,-0.205322,-50.331112,7.5531,2.464294
1.154053,-0.375,0.192871,-13.610839,33.683777,-217.391953,0.472656,0.887207,-0.225586,-49.293514,7.705688,2.220154
1.022705,-0.270752,0.262939,-20.011902,24.818419,-231.590256,0.463135,0.889893,-0.239502,-47.698971,8.834839,2.113342
0.781006,-0.19458,0.381348,-24.780272,35.087585,-242.362961,0.456299,0.886475,-0.257813,-45.921322,9.750366,1.937866
0.378174,-0.126709,0.497803,-20.370481,63.316341,-239.860519,0.462158,0.872314,-0.272949,-44.219967,10.154723,1.045227
0.083008,-0.141113,0.575439,-9.773254,102.386467,-225.692734,0.479004,0.856445,-0.263916,-42.770382,9.971619,-0.053406
0.02417,-0.436279,0.536621,-28.114317,142.692566,-217.399582,0.474854,0.848145,-0.259277,-41.770931,9.70459,-0.762939
0.133057,-0.467285,0.49292,-34.706116,169.570908,-211.723312,0.474121,0.855225,-0.279053,-40.733334,9.002686,-1.434326
0.24707,-0.027344,0.622559,36.521912,166.244492,-172.836288,0.47998,0.855469,-0.29126,-38.864136,7.316589,-2.304077
1.514893,-0.314697,0.48584,-11.863708,127.624504,-186.065659,0.484375,0.854492,-0.303955,-36.399841,6.195068,-2.960205
0.342041,-0.042236,0.44873,77.529907,55.786129,-138.450623,0.479004,0.85376,-0.327148,-31.654356,4.302979,-3.707886
0.456543,0.096436,0.498779,75.378418,125.427238,-136.421204,0.474609,0.85498,-0.326172,-29.785154,4.737854,-3.631592
-0.080566,-0.434326,0.63916,-31.326292,-35.896301,-18.821716,0.468994,0.852295,-0.331299,-28.45764,4.699707,-3.219604
-0.097168,-0.421875,0.613281,-55.282589,-47.943111,-31.34918,0.472656,0.848145,-0.332031,-27.557371,3.593445,-2.998352
-0.12793,-0.431885,0.608398,-80.039978,-63.827511,-43.609615,0.482178,0.843018,-0.323242,-26.634214,2.63977,-3.120422
-0.181641,-0.437744,0.655518,-89.279167,-86.34185,-56.266781,0.487793,0.841553,-0.321289,-25.177,1.899719,-3.27301
-0.060791,-0.476563,0.650635,-11.344909,-26.382444,-6.156921,0.488281,0.842529,-0.325195,-23.468016,1.25885,-3.417969
-0.266113,-0.550781,0.649658,-128.227234,-99.189751,-190.803513,0.48877,0.84375,-0.323242,-21.575926,0.297546,-3.234863
0.048096,-0.910156,0.422607,-96.275322,-60.56213,-249.992355,0.494141,0.842773,-0.325439,-19.424438,-1.739502,-4.226685
0.260742,-0.543457,0.474609,20.545958,1.708984,-204.231247,0.495361,0.846436,-0.338379,-17.723083,-4.547119,-5.424499
-0.273438,-0.329346,0.729736,-103.111259,-101.638786,-96.115105,0.47168,0.864014,-0.383057,-11.413573,-9.567261,-4.241943
-0.654053,0.343506,0.835449,-61.119076,-154.792786,17.921448,0.54834,0.796143,-0.191895,28.358458,-32.63855,1.174927
-0.509521,0.260254,0.87207,18.165588,-129.386902,28.350828,0.5271,0.592285,0.428955,44.55566,-107.322685,-38.780212
-0.527588,0.287109,0.881592,5.203247,-128.700256,25.642393,0.534424,0.85376,-0.202393,26.496885,-40.184017,0.099182
-0.567627,0.286377,0.904053,-7.377624,-129.53186,23.864744,0.657715,0.546875,0.40625,63.217159,-80.062866,2.853393
-0.608643,0.290039,0.942871,-22.964476,-134.239197,20.538328,0.786377,0.592041,0.439209,55.480953,-94.78759,-11.672973
-0.64209,0.32373,0.964111,-36.193848,-141.647339,14.007567,0.698975,0.59375,0.413818,46.585079,-113.136284,-19.325256
-0.668945,0.320313,0.954346,-45.623775,-149.307251,10.040282,0.612549,0.626465,0.330322,36.758423,-120.468132,-26.80969
-0.442871,0.254395,0.873779,32.341003,-132.575989,30.693052,0.541992,0.69873,0.2229,28.778074,-115.646355,-29.991148
-0.694824,0.313477,0.938232,-54.107662,-153.907776,11.024474,0.53125,0.729736,0.168213,22.941587,-106.071465,-29.998777
-0.671631,0.340332,0.902344,-59.020992,-156.227112,13.168334,0.560791,0.713379,0.179932,17.417908,-99.258415,-29.861448
-0.69165,0.343018,0.768311,-60.997005,-146.759033,24.642942,0.596191,0.679443,0.223633,12.306212,-96.244804,-28.968809
-0.765137,0.40918,0.701904,-28.160093,-43.05267,11.856078,0.634766,0.643066,0.261475,7.522583,-97.145073,-27.816771
-0.748047,0.509766,0.699707,-44.609066,-109.649651,26.969908,0.53833,0.823486,-0.194336,27.114866,-36.621094,0.144958
-0.750732,0.512939,0.678955,-34.790039,-87.059013,23.056028,0.569092,0.595703,0.398682,73.936462,-89.24102,8.628845
-0.768311,0.466064,0.675293,-28.724669,-64.086914,17.822266,0.692139,0.620117,0.324219,-1.88446,-113.426201,-23.780821
-0.73877,0.44873,0.747314,-30.708311,-27.397154,10.299682,0.653076,0.674561,0.319824,-10.162353,-136.810303,-20.790098
-0.72876,0.622803,0.777588,-24.085997,-18.363953,20.881651,0.564209,0.704834,0.28418,-14.007567,-140.434265,-20.828245
-0.6875,0.690918,0.809082,-13.458251,-20.202635,31.997679,0.460938,0.706787,0.239502,-17.127991,-135.658264,-22.186277
-0.67041,0.67334,0.806152,-7.194519,-25.276182,36.132813,0.384766,0.681641,0.236572,-18.928528,-124.244682,-24.879454
-0.69165,0.599121,0.762695,-8.758545,-21.789549,36.682129,0.340332,0.655518,0.26001,-19.714355,-110.244743,-29.754637
-0.687012,0.575684,0.711914,-10.765075,-9.712219,30.227659,0.323975,0.637939,0.299316,-19.668579,-97.80883,-34.667969
-0.327393,0.244385,0.88623,43.601986,-134.376526,31.997679,0.340332,0.630371,0.354492,-19.40918,-89.294426,-37.979126
-0.734619,0.4375,0.719727,-55.297848,-131.187439,27.778624,0.376221,0.635254,0.41626,-18.562317,-86.074821,-40.138245
-0.198242,0.294434,0.897217,51.879879,-130.004883,36.66687,0.407959,0.665527,0.462891,-17.578125,-88.012688,-41.320797
-0.599365,0.549805,0.661133,-13.34381,3.234863,18.096924,0.418457,0.693604,0.500977,-17.471313,-92.056267,-43.022152
-0.060547,0.462402,0.869385,46.676632,-105.415337,46.623226,0.695068,0.636963,0.324219,-6.324768,-126.029961,-22.056578
-0.33374,0.494141,0.92334,-20.050049,-2.685547,-4.104614,0.799316,0.638428,0.339844,87.715141,-104.148857,-1.747131
-0.34375,0.509033,0.955078,-17.570496,4.554749,-2.26593,0.66748,0.625488,0.299316,2.792358,-103.080742,-26.05438
-0.340576,0.5271,0.977539,-16.906738,11.093139,-1.869202,0.694336,0.783691,0.163818,99.594109,-98.678581,-30.052183
-0.315186,0.539063,0.981445,-18.058777,15.029906,-3.379822,0.859619,0.693115,0.284424,99.937431,-106.25457,-19.897461
-0.302979,0.52832,0.971436,-20.111082,17.593384,-3.173828,0.553223,0.874023,-0.187744,27.32086,-43.357845,-0.480652
-0.286377,0.51709,0.955078,-20.111082,19.096375,-1.792908,0.558838,0.874512,-0.171631,27.8244,-47.042843,-0.404358
-0.249512,0.519287,0.937256,-17.791748,20.347593,-0.770569,0.554688,0.884033,-0.185791,27.618406,-49.209591,0.831604
-0.212402,0.522461,0.912598,-14.10675,19.859314,1.731872,0.53833,0.912354,-0.215576,27.976988,-48.065182,4.852295
-0.193359,0.510498,0.895996,-9.048462,17.097473,8.049011,0.533203,0.950195,-0.254395,29.228209,-45.600887,12.596129
-0.171387,0.501221,0.885986,-5.256652,14.526366,14.030456,0.600098,0.989014,-0.244873,35.858154,-48.774715,18.867493
-0.111328,0.396973,0.903076,53.604122,-118.698112,41.313168,0.590332,0.979248,-0.052734,51.216122,-70.861816,16.082764
-0.148926,0.494141,0.873535,-2.342224,11.314391,17.478943,0.536621,1.047119,0.094971,55.870052,-87.234489,-0.450134
-0.122314,0.495117,0.885742,8.56781,4.989624,18.707275,0.539795,1.112061,0.299316,61.386105,-102.920525,-28.350828
-0.171875,0.482666,0.893555,16.25824,7.286071,16.067505,0.56543,0.874023,0.416992,56.373592,-111.030571,-43.838497
-0.236572,0.385986,0.898926,18.707275,11.32965,13.626098,0.649902,0.998047,-0.168457,45.57037,-58.67767,19.752502
-0.145996,0.26709,0.898193,11.314391,3.936767,-0.556946,0.413818,0.637207,0.273682,38.627625,-96.069328,-30.014036
0.031494,0.415771,0.891602,4.875183,-9.727478,-16.265869,0.599609,0.906006,-0.058594,91.148369,-116.172783,-19.462585
-0.11499,0.512939,0.887939,7.438659,-18.516541,-12.046813,0.596436,0.841797,-0.110107,76.957703,-112.922661,-24.147032
-0.166992,0.508301,0.865967,16.098022,-22.064207,-8.056641,0.518311,0.905762,-0.140137,60.066219,-97.190849,-29.365538
-0.046631,0.506348,0.841553,21.751402,-36.903381,2.189636,0.446533,0.92627,-0.145264,51.094051,-85.014336,-26.741026
0.023682,0.504639,0.830811,29.45709,-62.393185,19.859314,0.617676,0.873047,0.0354,95.390312,-106.857292,-22.071836
0.016846,0.502441,0.842285,40.184017,-88.653557,40.000916,0.325439,0.776123,-0.0979,44.448849,-85.990898,-16.105652
-0.132813,0.499023,0.871582,1.88446,7.568359,18.737793,0.307373,0.692383,-0.036133,38.612366,-87.455742,-18.035889
-0.552246,0.545654,0.614502,-14.35089,11.71112,13.320922,0.328369,0.689941,0.088379,36.643982,-90.461723,-24.688719
-0.435303,-0.148193,0.689453,117.622368,132.019043,40.664669,0.382568,0.880859,-0.119873,49.087521,-83.923332,-20.675657
-0.527588,0.504883,0.586914,-20.774839,23.658751,19.378662,0.301758,0.727783,0.590576,103.500359,187.728867,57.495113
-0.289795,-0.160156,0.557129,28.70178,68.473816,-80.810539,-0.23291,1.245605,0.025391,83.816521,31.661985,33.798218
-0.158203,0.134277,0.623047,-12.046813,-26.138304,-99.349968,-0.252441,1.173096,0.10083,90.148918,53.939816,39.108276
-0.290771,0.513672,0.595947,-15.373229,-75.218201,-52.581783,-0.240723,1.107666,0.183594,94.146721,78.407288,43.113705
-0.962158,0.56665,0.842285,-2.89154,-46.806332,-0.762939,-0.208252,1.04834,0.263184,96.725456,103.660576,46.485897
-1.483398,0.638672,1.160645,9.918213,12.474059,28.236387,-0.164795,0.999023,0.344971,98.884575,128.349304,50.025936
-2.018311,0.886475,1.907471,41.893002,53.573605,53.38287,-0.092773,0.955078,0.419922,101.280205,149.879456,53.474422
-2.359131,1.149902,2.411865,95.832817,72.33429,53.459164,-0.003174,0.914795,0.474609,103.996269,167.381271,55.488583
-2.029297,1.047852,1.907471,131.660461,98.228447,30.166624,0.0896,0.857422,0.514404,105.545036,180.358871,55.885311
-2.197754,0.870361,1.226563,150.306702,142.578125,34.713745,0.190674,0.793945,0.553711,105.514519,187.530502,56.350704
-1.786621,0.708008,0.985107,137.207031,158.538818,44.441219,0.410889,0.49585,0.632324,-134.101868,47.248837,-134.20105
-0.670654,-0.539795,0.457031,77.453613,150.161743,-35.40802,0.277344,0.475586,0.55835,-10.284423,142.64679,45.593258
-1.019287,0.530518,1.171387,116.416924,171.333298,30.075071,0.415527,0.61084,0.7229,90.621941,172.355637,59.356686
-0.484619,-0.030273,1.555908,128.356934,153.015137,9.628296,0.418945,0.574707,0.777344,80.482475,162.818893,60.501095
-0.621582,-0.235107,1.130371,132.667542,147.125244,17.654419,0.410889,0.530029,0.791992,69.55719,155.62439,62.179562
-0.640381,-0.219482,0.825439,135.070801,150.634766,26.107786,0.409912,0.486084,0.794189,58.975216,149.299622,65.757751
-0.545654,-0.188232,0.739502,136.489868,154.190063,29.853819,0.40625,0.460205,0.786133,49.438473,143.493652,69.984436
-0.456055,-0.188965,0.717773,136.566162,151.405334,32.241821,0.384277,0.449707,0.763916,39.924622,139.358521,71.105957
-0.386475,-0.205811,0.727783,136.299133,142.860413,33.500671,0.335205,0.445313,0.733887,29.136656,137.557983,67.405701
-0.352539,-0.23584,0.724609,135.574341,132.461548,33.584595,0.288086,0.453369,0.701416,17.028809,136.947632,61.561581
-0.38208,-0.247559,0.716553,133.43811,125.41198,33.782959,0.278076,0.462646,0.651855,3.807068,138.183594,54.321285
-0.451416,-0.23877,0.695313,129.554749,124.458305,35.362244,-0.191895,1.302246,-0.030518,73.707581,13.206481,26.161192
-0.47876,-0.208496,0.684082,123.886101,127.700798,38.230896,0.385498,0.66333,0.656006,98.915092,182.106003,58.639523
-0.609619,0.342529,1.523193,119.621269,166.412338,15.022277,-0.137207,1.333984,-0.059326,62.431332,-2.830505,16.166687
-1.111572,-0.440674,0.343506,114.021294,153.747559,13.97705,0.305908,0.512695,0.46875,-22.567747,148.902893,37.345886
-0.555908,0.522217,0.586182,-15.121459,18.173218,16.090393,-0.015625,1.327881,0.011475,40.237423,-28.778074,-1.64032
-0.931152,0.553467,-0.036865,90.362541,-40.39764,7.568359,0.48877,0.521484,0.679932,-134.666443,36.499023,-128.372192
-0.50415,0.523926,0.61084,-27.023314,25.650023,18.981934,0.522217,0.545654,0.672607,-134.925842,25.924681,-124.000542
-0.501221,0.55835,0.646484,-27.313231,22.392271,16.586304,0.494629,0.549561,0.633545,-135.4599,21.064756,-121.704094
-0.553223,0.572998,0.688965,-23.880003,21.530149,25.329588,0.448486,0.547363,0.582275,-136.97052,25.29907,-118.667595
-0.65918,0.55957,0.73291,-23.368834,35.140991,35.804749,0.421631,0.569092,0.526123,-138.633728,38.047791,-113.647453
-0.805908,0.594971,0.789063,-25.291441,64.872742,37.887573,0.436768,0.607178,0.477539,-138.946533,52.963253,-105.293266
-0.913818,0.714111,0.870605,-20.172117,99.273674,50.704952,0.504395,0.652588,0.450195,-136.894226,63.636776,-93.811028
-1.20752,0.136475,0.149658,121.078484,69.168091,35.171509,0.594482,0.693848,0.434082,-132.270813,65.124512,-82.054131
-0.865479,0.796631,0.959717,15.373229,122.398369,87.821953,0.679443,0.737305,0.434082,-126.205437,56.182858,-72.776794
-0.785156,0.732422,0.946777,32.302856,102.462761,94.764702,0.736328,0.793945,0.421631,-118.614189,38.223267,-66.246033
-0.7146,0.651855,0.863037,46.546932,79.223633,92.582695,0.765137,0.838867,0.413574,-111.206047,13.359069,-61.06567
-0.711914,0.583008,0.748535,55.236813,60.539242,86.395256,0.755859,0.877686,0.388184,-104.988091,-13.305663,-56.190487
-0.917236,0.808838,0.940186,-3.692627,123.809807,72.128296,0.716064,0.917725,0.311523,-97.969048,-36.148071,-51.803585
-0.777588,0.463867,0.627197,52.177425,37.811279,84.991447,0.664307,0.960205,0.199463,-88.470451,-53.146358,-46.775814
-0.720215,0.413818,0.634033,47.760006,32.829285,90.019218,0.611572,0.998535,0.089844,-76.133728,-63.987728,-40.481564
-0.562012,0.315186,0.674316,44.30389,29.228209,88.49334,0.557129,1.034424,-0.006104,-61.546322,-67.962646,-33.569336
-0.443848,0.153564,0.691406,42.564388,26.664732,80.207825,0.487061,1.068848,-0.083496,-45.56274,-66.925049,-28.274534
-0.436279,0.040039,0.656738,39.154053,24.948118,77.835083,0.412842,1.107178,-0.098633,-28.602598,-63.2019,-23.948668
-0.442627,0.098389,0.615967,35.293579,10.353087,79.429626,0.336914,1.14917,-0.081299,-12.428283,-59.020992,-20.51544
-0.275879,0.335693,0.608398,35.91156,-28.427122,74.775696,0.24585,1.18335,-0.007813,0.099182,-54.664608,-18.440247
-0.088135,0.5625,0.56958,43.380733,-82.466118,47.859188,0.157959,1.222656,0.059814,10.360717,-49.842831,-16.464233
-0.19043,0.577881,0.398682,47.676083,-118.22509,3.14331,0.105469,1.264893,0.067871,20.561216,-44.166561,-12.405395
-0.520996,0.600342,0.117188,57.91473,-110.214226,-16.342163,0.05249,1.294678,0.040771,30.2124,-37.635803,-7.43103
-0.751709,0.517822,0.666016,56.236263,46.874996,83.328239,-0.077637,1.345459,-0.032959,51.307674,-16.838074,6.347656
-0.447998,0.811035,1.07959,-19.348145,-45.745846,3.532409,0.376709,0.569092,0.39502,-30.021666,151.283264,30.914305
-0.522705,0.929932,1.116211,-23.200987,-53.733822,0.572205,0.861328,0.70752,0.341064,-19.073486,92.742912,46.005245
-0.612793,1.019043,1.094482,-27.626036,-61.393734,-5.516052,0.575928,0.691895,0.353516,-25.703428,133.216858,31.219481
-0.705566,1.087646,1.033203,-28.358458,-70.045471,-14.411925,0.524414,0.833984,0.036377,-40.336605,42.694088,11.779784
-1.195313,1.158691,1.367676,-110.076897,-58.830257,-32.157898,0.531982,0.837646,0.044922,-40.725704,41.389462,11.039733
-0.813232,1.151367,1.105957,-16.975403,-67.382813,-25.733946,0.52124,0.843018,0.074219,-42.236324,39.642334,9.338379
-0.96582,1.166504,1.279053,-26.145933,-62.103268,-22.483824,0.491943,0.843506,0.09375,-44.540401,37.124634,7.186889
-1.110352,1.196777,1.372803,-58.761593,-60.424801,-23.246763,0.470703,0.833496,0.075928,-47.660824,34.172058,5.264282
-0.760498,1.127441,1.016846,-21.499632,-73.59314,-22.804258,0.469238,0.820557,0.032227,-50.666805,31.532286,3.967285
-0.366455,0.697998,0.98584,-19.050598,-37.368774,4.013062,0.475586,0.817139,-0.006592,-52.833553,29.327391,3.044128
-0.347412,0.40918,0.956787,-6.080627,-18.478394,-2.975464,0.479492,0.817627,-0.0354,-54.298397,26.863096,1.968384
-0.304199,0.556885,0.886963,-19.050598,-27.305601,1.121521,0.479492,0.826416,-0.063232,-55.435177,24.162291,1.167297
-0.297607,0.498779,0.870117,-15.213012,-25.749205,-2.197266,0.486572,0.832764,-0.078613,-56.343075,21.476744,0.732422
-0.300293,0.464844,0.845459,-11.520385,-24.772642,-5.302429,0.508789,0.831543,0.036621,-40.725704,44.105526,12.4588
-0.302002,0.449219,0.83374,-9.925842,-23.811338,-7.43103,0.489014,0.834229,-0.083252,-57.02972,19.294739,0.62561
-0.302979,0.444336,0.852783,-8.728027,-22.712706,-8.056641,0.500977,0.854248,-0.084229,-58.021542,16.563416,1.25885
-0.301514,0.443848,0.890137,-7.087707,-21.40045,-7.507324,0.491699,0.866455,-0.103271,-58.128353,15.670775,1.846313
-0.300049,0.447754,0.925537,-5.577087,-20.362852,-6.759643,0.474365,0.878174,-0.119385,-57.350155,15.426635,2.525329
-0.302734,0.44165,0.941162,-4.898071,-20.195005,-5.798339,0.4646,0.892578,-0.130859,-56.457516,15.373229,2.868652
-0.31665,0.421631,0.941162,-5.050659,-20.423887,-4.699707,0.464111,0.89624,-0.154785,-55.496212,14.823913,2.693176
-0.329834,0.406006,0.945557,-5.767822,-20.050049,-3.746032,0.468262,0.885254,-0.166504,-54.061886,13.771056,2.861023
-1.345459,1.053711,1.238037,-169.197067,-59.17358,-40.90881,0.465088,0.874756,-0.182129,-52.680965,12.4588,3.578186
-0.317627,0.621826,0.915039,-19.454956,-31.143187,2.876281,0.47583,0.861572,-0.188965,-51.666256,11.680602,3.784179
-1.13208,0.814697,0.937256,-210.609421,-74.295044,-62.530514,0.477783,0.853027,-0.183594,-51.002499,11.085509,3.753662
1.434082,-0.470947,0.071045,-147.918701,-249.992355,-226.043686,0.47876,0.857422,-0.182861,-50.872799,10.57434,3.494262
-0.841797,0.510986,0.690674,-180.229172,-172.431931,-102.867119,0.493164,0.840576,-0.081543,-57.418819,17.662048,0.747681
-0.361328,0.415039,0.958252,-5.821228,-15.701293,-2.151489,0.481934,0.829102,0.038086,-41.503902,46.173092,13.427733
0.754883,-0.185303,1.249512,62.965389,82.611076,-157.493591,0.485107,0.63916,0.35083,-30.113218,146.080017,28.861998
0.801025,-0.153564,0.988037,63.446041,19.302368,-164.657578,0.411133,0.840576,0.102295,-43.495174,49.842831,16.395569
1.058105,-0.375,0.832275,38.162231,-80.54351,-161.323532,0.599365,0.728027,0.409668,-17.662048,114.852898,32.035828
1.032959,-0.529541,0.665771,-3.311157,-189.521774,-189.895615,0.541992,0.686523,0.460938,-9.605408,105.049126,28.289793
0.72876,-0.503174,0.535645,-51.528927,-249.992355,-204.627975,0.397461,0.524414,0.446045,-15.11383,122.108452,34.378052
0.246826,-0.041748,0.739014,-12.565612,-249.992355,-181.51091,0.222168,0.245361,0.39917,-45.173641,174.087509,37.467957
-0.883789,0.19165,1.126465,126.129143,-75.485229,-176.895126,0.279785,-0.014648,0.307373,-98.69384,234.931931,-27.992247
-2.281982,-1.01709,0.395264,84.510796,201.652512,-108.169548,0.623291,0.307617,0.276611,-133.964539,249.992355,-121.25396
-0.891113,-2.047119,-0.095703,-165.351852,243.240341,-103.889458,0.44458,0.83252,0.060791,-42.449947,48.095699,14.808654
-0.750488,0.570557,0.70874,-206.9702,-111.839287,-84.526054,0.862793,1.049805,0.472168,-66.619873,210.845932,-24.368284
-0.895264,-0.780273,0.827881,-249.992355,249.992355,-238.944992,0.835938,0.752197,0.354492,-54.092403,189.857468,-19.981384
4.46875,0.548828,-0.076904,-123.634331,-62.499996,-249.992355,1.044189,0.775879,0.358398,-39.207458,149.147034,0.656128
-1.908936,-1.238037,0.595947,-153.991699,-86.364738,-184.806808,0.930664,0.760986,0.364258,-26.855467,114.784233,29.899595
0.535156,-0.983643,1.259766,-207.878098,-9.635925,-240.257248,0.913574,1.215332,0.465088,-95.428459,244.949326,-91.087334
1.739746,1.298096,1.294434,-246.307358,-189.002975,-236.503586,0.709717,0.642822,0.26123,-21.026609,69.381714,72.425842
0.696045,1.445313,1.043701,-249.420151,-249.992355,-231.094345,0.666504,0.674316,0.220459,-28.70941,64.804077,72.868347
0.128906,0.748779,0.822266,-249.992355,-249.992355,-225.395187,0.625488,0.71582,0.220215,-30.441282,64.460754,70.045471
-1.316162,0.305908,0.960938,-249.816879,-216.178879,-185.073837,0.593506,0.736572,0.227539,-31.524656,66.772461,62.728878
-1.046143,0.244385,1.030518,-214.721664,-183.65477,-147.850037,0.557861,0.745361,0.239502,-33.935547,67.855835,53.047176
-0.711182,0.316895,1.043701,-189.44548,-210.12114,-129.302979,0.529297,0.757568,0.249023,-36.430359,66.360474,43.42651
-0.934082,0.493408,0.886475,-171.203598,-216.827377,-121.37603,0.501221,0.785156,0.241211,-39.1922,61.958309,35.377502
4.088379,0.549072,0.072998,-153.85437,249.992355,-249.992355,0.464111,0.811523,0.221924,-41.53442,56.488033,28.213499
-0.347168,0.404297,0.94873,-5.249023,-12.374877,-2.464294,0.426758,0.829346,0.189453,-42.945858,53.283688,22.819517
-0.319336,0.411865,0.929688,-2.975464,-9.32312,-3.677368,0.406006,0.837158,0.1521,-43.762203,51.719662,18.852234
-0.297607,0.410889,0.912354,-0.328064,-7.446289,-4.882813,0.824219,0.689209,0.302734,-15.060424,77.140808,65.376282
-0.224121,0.336914,0.946289,-1.869202,84.83123,8.499146,-0.62085,-0.592529,0.783447,13.84735,9.735107,9.986877
-0.13208,0.351318,0.921143,-5.012512,80.169678,0.526428,-0.606689,-0.604004,0.817383,28.297422,3.479004,14.419555
-0.087402,0.350098,0.910889,-3.929138,73.638916,-6.080627,-0.615479,-0.565918,0.853027,42.92297,-5.004883,15.960692
-0.049316,0.349609,0.904541,-1.716614,65.193176,-11.215209,-0.634033,-0.519775,0.884766,55.130001,-13.557433,18.623352
0.012939,0.347168,0.904541,0.114441,54.313656,-17.272949,-0.283691,-0.308594,1.267578,116.409294,-7.499694,37.963867
0.047363,0.3125,0.906006,-2.39563,42.938229,-23.216246,-0.577637,-0.44165,0.979492,80.535881,-28.785704,32.485962
0.061768,0.267334,0.914063,-6.324768,29.556273,-24.192808,-0.436279,-0.401367,1.112061,95.016472,-31.700132,38.459778
0.038574,0.264648,0.948242,-8.712769,17.50946,-22.117613,-0.310547,-0.357422,1.213379,107.063286,-21.850584,38.780212
0.002197,0.27417,0.973633,-13.656615,6.523132,-18.707275,-0.636963,-0.477295,0.909668,66.680908,-20.103453,24.810789
-0.010254,0.293457,0.985352,-19.180298,-4.28009,-17.196655,-0.609131,-0.556641,0.750732,2.372742,13.801574,2.288818
-0.327148,0.310303,0.954346,4.119873,83.602898,15.892028,-0.641357,-0.355713,0.676025,-64.994812,-9.391785,-32.463074
-0.020996,0.30957,0.976074,-25.161741,-15.205382,-17.112732,-0.575439,-0.488037,0.758301,-6.629943,6.04248,-10.665893
-0.082764,0.369385,0.948486,-36.148071,-31.585691,-15.335082,-0.573975,-0.485107,0.780518,-9.750366,1.76239,-16.738892
-0.124268,0.412598,0.942139,-39.001465,-37.071228,-13.549804,-0.546631,-0.501221,0.791504,-14.137267,-1.838684,-21.110533
-0.179688,0.429932,0.935059,-42.869564,-41.564938,-10.810851,-0.517822,-0.500244,0.793701,-19.638062,-6.019592,-22.621153
-0.21875,0.452881,0.922852,-46.661373,-45.936581,-7.377624,-0.50415,-0.502686,0.787354,-24.658201,-11.878966,-24.520872
-0.223389,0.495361,0.916016,-46.295162,-47.935482,-4.554749,-0.504883,-0.517578,0.755615,-32.76062,-17.196655,-28.533934
-0.263672,0.503662,0.92041,-40.504452,-45.577999,-1.441955,-0.519531,-0.514648,0.734863,-42.236324,-19.287109,-32.859802
-0.300537,0.469482,0.913086,-35.873413,-39.253235,-0.106812,-0.530273,-0.471191,0.731445,-47.653194,-20.065308,-34.072876
-0.327148,0.466553,0.907959,-34.133911,-32.318115,-2.799988,-0.565674,-0.425781,0.702148,-53.985592,-19.020081,-32.905579
-0.327881,0.470459,0.89917,-31.959532,-25.207518,-4.852295,-0.604004,-0.37793,0.678711,-59.410091,-15.35797,-31.829832
-0.325928,0.475098,0.899658,-27.923582,-17.150879,-5.149841,-0.259277,-0.250488,1.249512,121.292107,7.781982,40.603634
-0.045654,0.328613,0.96167,-31.47888,-24.475096,-16.723633,-0.574707,-0.520752,0.744629,-3.700256,12.039184,-5.493164
-0.402344,0.287354,0.956543,12.222289,77.331543,20.904539,-0.216553,-0.185791,1.166016,122.360222,26.527403,41.648861
-0.32666,0.484375,0.904053,-23.391722,-9.490967,-4.989624,-0.876465,0.326172,0.512939,23.452757,36.987305,-15.182494
-0.424072,0.380615,0.925537,29.174803,57.66296,26.359556,-0.268311,-0.111084,1.10791,110.816948,66.03241,39.024353
-0.286621,0.40625,0.905518,0.38147,-6.92749,-5.607605,-0.686523,-0.348389,0.684326,-71.884155,-1.037598,-34.965515
-0.281494,0.397217,0.911133,0.061035,-7.408142,-5.424499,-1.009277,-0.212891,0.705811,-45.501705,-22.91107,-27.717588
-0.276123,0.393555,0.921875,-0.419617,-8.796692,-4.447937,-0.949951,-0.14624,0.681641,-51.147457,-8.468628,-32.852173
-0.278809,0.389404,0.934814,-0.999451,-10.833739,-3.471374,-0.903564,-0.072754,0.662109,-52.040096,1.197815,-36.750793
-0.289063,0.387939,0.947021,-0.534058,-12.7182,-2.471924,-0.870605,0.000244,0.639648,-49.842831,9.33075,-38.002014
-0.305176,0.378906,0.947754,-0.12207,-14.770507,-1.937866,-0.855713,0.048828,0.605957,-47.760006,19.470215,-37.223816
-0.443848,0.295898,0.946533,23.16284,68.397522,26.077269,-0.853027,0.103027,0.579346,-43.128963,32.50885,-35.972595
-0.311279,0.381348,0.921875,1.625061,-17.486572,-3.341675,-0.832764,0.167236,0.557129,-35.110474,43.342587,-34.713745
-0.323486,0.386719,0.908936,3.257751,-16.960144,-3.65448,-0.756348,0.241943,0.538574,-25.451658,44.456478,-29.830931
-0.334229,0.394531,0.906494,3.768921,-16.998291,-3.135681,-0.656982,0.317871,0.55127,-11.222838,31.219481,-24.032591
-0.344238,0.401367,0.907959,3.707886,-17.227173,-1.556396,-0.226563,-0.143066,1.10376,118.10302,47.218319,40.847775
-0.312256,0.380371,0.942139,0.144958,-17.036438,-2.563476,-0.558594,0.282959,0.571777,-1.174927,1.586914,-33.439636
-0.386475,0.426758,0.916992,4.348755,-16.517639,2.975464,-0.807373,0.324219,0.52417,14.282226,8.956909,-15.998839
-0.425781,0.443848,0.923584,5.874633,-14.60266,5.470275,-0.862549,0.281738,0.510498,29.769896,64.651489,-23.612974
-0.464844,0.446289,0.936523,8.262634,-11.367797,8.178711,-0.807129,0.334229,0.559082,41.732784,85.113518,-19.325256
-0.481445,0.42749,0.919678,10.025024,-6.759643,10.414123,-0.742188,0.348877,0.618652,52.742001,96.641533,-7.415771
-0.495361,0.40918,0.896729,11.352538,0.038147,12.4588,-0.690674,0.265869,0.685547,57.838436,104.301445,-1.594543
-0.489014,0.399658,0.88501,12.237548,8.18634,14.60266,-0.647461,0.22583,0.796631,68.237305,112.091057,9.689331
-0.476807,0.399414,0.891846,14.755248,16.670227,16.00647,-0.557861,0.163574,0.915527,79.788208,109.359734,22.28546
-0.474121,0.389648,0.896973,16.738892,25.856016,17.38739,-0.48999,0.035156,0.98999,86.242668,101.150505,27.992247
-0.458008,0.384766,0.891113,16.784668,35.560608,19.058228,-0.399414,-0.05249,1.035889,93.437187,93.841545,31.799314
-0.411865,0.417969,0.897949,22.178648,45.989986,20.973204,-0.307617,-0.091064,1.090332,102.72216,81.398003,35.072327
-0.359375,0.414063,0.912842,3.944397,-17.158508,0.62561,-0.654785,0.289795,0.522461,3.547668,-12.023925,-33.256531
0.40918,-0.192139,0.68457,-42.869564,-13.938903,138.916016,-0.719971,-0.348633,0.695313,-78.788757,8.216858,-37.979126
0.416016,-0.212891,0.729004,-41.793819,-11.634826,133.644104,-0.75,-0.303955,0.713379,-82.557671,16.929626,-40.245052
0.432373,-0.21875,0.756104,-40.023804,-4.234314,128.929138,-0.785156,-0.261719,0.685791,-89.279167,26.023863,-42.4118
0.430176,-0.214844,0.782715,-37.307739,8.583069,123.756401,-1.402588,-0.126465,1.75293,-78.323364,-132.43866,-57.235714
0.171143,-0.25415,0.699219,-37.651062,30.044554,81.626884,-1.975098,-0.577881,1.943604,-82.344048,-73.814392,-44.616695
0.337646,-0.217041,0.78833,-33.889771,37.605286,109.718315,-2.202148,-0.924805,1.922852,-82.916252,21.049498,-3.746032
0.272217,-0.230469,0.755859,-33.058167,44.128414,100.860588,-1.863281,-1.060059,1.714355,-79.605103,104.644768,-4.821777
0.214111,-0.23877,0.718994,-34.301758,40.977474,90.980522,-1.227051,-0.947998,1.455811,-69.984436,134.872437,-32.958984
0.391357,-0.212158,0.798096,-35.263062,23.895262,117.019646,-0.605469,-0.577148,1.360596,-72.776794,127.967827,-24.284361
0.431885,-0.158936,0.666504,-41.984554,-11.764525,142.356873,-0.365234,-0.237305,1.344971,-88.317863,109.28344,-14.060973
0.85498,-0.158203,0.578613,10.559081,-33.920288,83.19091,-0.37085,-0.043701,1.180908,-106.796257,102.500908,-34.057617
0.508545,-0.095947,0.711182,-31.501768,4.676819,145.133972,-0.472656,0.000488,0.869385,-122.566216,101.478569,-67.03949
0.549805,-0.07959,0.733154,-26.138304,13.038634,144.462585,-0.38623,0.056152,0.640625,-131.889343,101.325981,-99.876396
0.639893,-0.076416,0.73877,-21.751402,16.563416,139.358521,-1.032227,0.255371,1.443604,-67.298889,-134.292603,-46.104427
0.75415,-0.089355,0.725098,-18.852234,13.137816,131.629944,-0.354248,0.085938,0.61792,-133.460999,107.460014,-109.901421
0.831787,-0.108643,0.730957,-16.448975,2.693176,125.297539,-0.231445,0.162598,0.734375,-140.296936,107.77282,-131.538391
0.875488,-0.121094,0.76709,-11.802672,-13.206481,121.185295,-0.108398,0.20874,0.769775,-144.454956,96.595757,-136.817932
0.907715,-0.136475,0.770264,-6.057739,-32.699585,118.614189,0.003906,0.251953,0.741699,-147.148132,82.237236,-139.808655
0.919678,-0.147217,0.732422,-0.549316,-49.98016,115.95916,0.086426,0.280273,0.678467,-148.139954,69.320679,-142.883301
0.929932,-0.168213,0.657959,3.440857,-57.609554,108.062737,0.121826,0.28418,0.592285,-147.697449,60.9436,-146.29364
0.908203,-0.178711,0.585449,6.370544,-51.292416,95.497124,0.147949,0.303711,0.506836,-145.454407,57.167049,-148.605347
0.162109,-0.276123,0.704102,-40.519711,16.792297,72.128296,0.18457,0.349854,0.473145,-141.838074,56.610104,-148.68927
0.478027,-0.12207,0.683594,-37.307739,-5.111694,143.90564,0.220215,0.399658,0.476563,-138.465881,57.197567,-146.30127
0.181885,-0.290527,0.725586,-41.473385,3.158569,63.240047,0.275879,0.445801,0.510254,-135.749817,57.243343,-142.372131
0.321777,-0.505615,0.73877,-44.105526,-43.273922,10.833739,0.334717,0.478516,0.559814,-134.094238,54.38995,-138.580322
0.248047,-0.302246,0.767822,-40.206905,-15.388488,48.789974,-0.31958,0.119629,0.664307,-136.184692,111.2976,-121.711723
0.87085,-0.154785,0.633057,15.510558,-14.617919,71.57135,-0.582764,0.473633,1.21167,-54.26025,-105.255119,-27.114866
0.411865,-0.640869,0.679688,-30.807493,-37.42981,22.491453,-0.43457,0.023682,0.712402,-129.821777,99.639885,-88.523857
0.427002,-0.61499,0.708984,-33.279419,-41.15295,21.339415,-0.026855,0.699219,0.987305,-29.006956,22.689817,38.040161
0.439697,-0.612061,0.716797,-35.919189,-46.56982,21.301268,-0.208252,0.617188,1.052734,-39.764404,-49.22485,10.009766
0.470459,-0.636963,0.686768,-39.505005,-54.351803,19.470215,-0.774658,-0.175293,0.676025,-97.328178,35.446167,-51.254269
0.456787,-0.669189,0.640869,-43.579098,-60.905453,17.112732,-0.755615,-0.176514,0.677246,-99.555962,33.13446,-56.663509
0.404785,-0.696045,0.595459,-47.088619,-64.476013,15.258788,-0.730225,-0.168701,0.677002,-101.539604,28.785704,-60.920712
0.376221,-0.698242,0.579834,-49.400326,-64.567566,13.366698,-0.714844,-0.1521,0.670898,-102.043144,24.581907,-64.376831
0.367432,-0.670654,0.611084,-49.545284,-61.752316,11.70349,-0.729004,-0.131348,0.664795,-100.425713,22.598265,-67.626953
0.370605,-0.627441,0.65625,-48.576351,-57.464596,10.223388,-0.757813,-0.092773,0.658691,-97.30529,24.154661,-70.732117
0.205322,-0.29541,0.746094,-41.366573,-8.712769,55.351254,-0.793701,-0.03125,0.65332,-92.834465,29.060362,-75.462341
0.371582,-0.579346,0.695068,-47.859188,-53.306576,8.888245,-0.8125,0.035156,0.657715,-86.524956,36.132813,-83.511345
0.340088,-0.515869,0.744629,-45.852657,-46.539303,9.315491,-0.785156,0.097656,0.657715,-78.063965,42.320248,-91.117851
0.308105,-0.502197,0.729248,-42.274471,-39.710999,11.886596,-0.703857,0.143555,0.650391,-66.040039,44.418331,-94.726555
0.298096,-0.501953,0.71875,-41.023251,-35.91156,12.550353,-0.793213,-0.212891,0.674072,-95.237724,33.683777,-45.852657
0.258545,-0.482422,0.719727,-39.894104,-30.815123,16.220093,-0.472656,0.16626,0.625977,-33.38623,37.834167,-87.09716
0.218018,-0.443848,0.741211,-37.719727,-22.872923,21.553038,-0.592529,0.16333,0.629883,-50.315853,42.137142,-93.65081
0.231445,-0.389648,0.765137,-34.744263,-14.839171,25.962828,-0.037598,0.509521,1.000977,-22.78137,120.552055,11.413573
0.264404,-0.349365,0.782471,-32.173157,-9.849548,31.440733,-0.234863,0.366943,0.921387,-14.434813,129.638672,-21.484373
0.290527,-0.328125,0.799805,-32.432556,-9.933472,35.339355,-0.305908,0.202393,0.813721,-6.286621,105.712883,-38.345337
0.321533,-0.319092,0.801758,-34.78241,-13.557433,37.864685,-0.254883,0.091309,0.777832,-0.328064,69.68689,-46.379086
0.305664,-0.309326,0.786377,-37.490845,-16.487122,42.472836,0.043701,0.64917,0.990234,-26.748655,80.993645,39.283752
0.356201,-0.538574,0.728271,-47.256466,-49.507137,8.651733,-0.257568,0.067871,0.786621,-5.363464,38.612366,-65.727234
0.952393,-0.193359,0.685547,19.790649,-6.111145,59.883114,-0.341553,0.09668,0.726807,-11.413573,36.979675,-71.914673
1.071777,-0.218262,0.723633,19.691467,-25.115965,49.819942,-0.393066,0.146729,0.660645,-19.874573,36.010742,-78.018188
1.17749,-0.169189,0.740479,13.946532,-71.228027,44.471737,-0.207031,0.068848,0.800537,-0.62561,46.379086,-55.839535
-0.133789,0.104492,0.917236,31.517027,-11.367797,16.387939,-0.413818,-0.062988,0.91748,18.539429,-0.808716,-0.526428
-0.086426,0.125,0.957764,30.647276,-27.542112,28.305052,-0.831299,-0.279297,1.110352,33.996582,-8.331299,15.144347
-0.005371,0.179199,0.95874,29.983519,-50.895687,35.583496,-0.688721,-0.227295,1.031738,29.609678,-2.502441,14.495849
0.083252,0.212891,0.94458,28.388975,-73.112488,39.375305,-0.611328,-0.191162,0.953369,25.573729,0.762939,11.436461
0.10083,0.22998,0.896973,25.482176,-90.805046,43.266293,-0.5271,-0.152344,0.913574,23.048399,2.944946,7.522583
0.123535,0.253906,0.863281,22.102354,-104.377739,45.280453,-0.425781,-0.128906,0.888672,20.996092,3.379822,3.990173
0.201172,0.244629,0.806641,17.402649,-114.936821,43.495174,-0.36792,-0.109375,0.875488,19.607544,2.288818,1.525879
0.251221,0.237061,0.753662,11.413573,-120.788567,40.550228,-0.984863,-0.388672,1.157715,36.560059,-18.814087,14.938354
0.268799,0.280762,0.753418,8.56781,-119.323723,34.225464,-0.368164,-0.088867,0.875977,19.180298,0.602722,0.236511
0.324463,0.311523,0.75,7.347106,-110.237114,24.04785,-0.388184,-0.073486,0.892334,19.081116,-0.900268,-0.312805
-0.162109,0.113281,0.919678,30.792234,-6.088256,2.388,2.779785,7.999756,-4.999512,249.992355,28.800962,249.832138
0.38208,0.295898,0.753174,4.150391,-95.710747,11.177062,-0.362793,-0.074219,1.002197,9.140015,4.096985,-3.074646
0.503174,0.3396,0.821777,10.894774,-76.751709,-34.561157,-0.463379,-0.055908,0.96875,15.083312,2.586365,-3.944397
0.519043,0.359619,0.81958,17.799377,-78.475952,-51.261898,-0.419678,-0.04248,0.985107,14.175414,4.196167,-4.852295
0.502686,0.293213,0.810059,14.900207,-75.927734,-66.062927,-0.371094,-0.042725,0.991699,12.771605,4.806519,-4.104614
0.422363,0.224609,0.804199,20.309446,-61.073299,-89.126579,-0.357666,-0.098877,1.008057,4.302979,3.112793,-2.26593
0.055176,0.248291,0.765625,39.657593,-39.047241,-90.919487,-0.362549,-0.083984,0.991455,0.938415,2.14386,-1.609802
-0.189697,0.063721,0.658936,42.587276,-13.381957,-62.82806,-0.362793,-0.052979,0.966797,0.198364,0.686645,-1.678467
0.097168,-0.318604,0.709717,28.96118,21.461485,-67.306519,-0.356689,-0.02832,0.950195,0.602722,-0.564575,-2.5177
0.44165,-0.291504,0.907227,36.53717,65.177917,-117.355339,-0.354248,-0.007324,0.94751,1.480102,-2.067566,-3.814697
0.348877,0.269287,1.128418,79.109192,45.921322,-174.194321,-0.351318,0.019531,0.954834,3.257751,-2.967834,-4.455566
0.407715,0.387939,1.134277,85.075371,24.650572,-152.130127,-1.008057,-0.567383,1.185059,41.488644,-30.632017,16.563416
0.425537,0.294189,0.789551,3.707886,-82.412712,-9.887695,-0.447998,-0.060303,0.945801,16.921997,0.450134,-1.785278
-0.14624,0.148926,0.981201,27.931211,-9.269714,-8.209229,-0.929932,-0.796143,1.192383,54.534908,-38.658142,20.942686
0.772705,-0.199463,1.2854,45.906063,78.910828,-115.882866,1.652832,4.448486,0.221436,249.992355,-59.29565,248.268112
-0.123291,0.242432,1.025879,19.264221,-23.239134,-18.783569,-0.778564,-1.112305,1.262451,112.403862,-36.109924,43.220516
1.224854,-0.05542,0.732666,7.17926,-128.761292,42.205807,-0.363525,0.038574,0.962646,5.577087,-2.853393,-4.562378
1.241943,0.05127,0.673584,2.586365,-179.031357,36.376953,2.008301,1.60376,-1.04541,249.992355,67.779541,249.992355
1.18457,0.105957,0.605713,-1.358032,-208.900436,25.955198,1.535156,0.800293,-1.540527,249.992355,12.199401,249.992355
1.019043,0.106201,0.629639,-6.576538,-214.065536,15.937804,1.502441,0.206055,-1.410645,249.992355,13.21411,146.003723
0.858887,0.086914,0.687744,-11.825561,-201.148972,6.996154,1.343262,-0.370605,-1.171631,249.992355,106.193535,133.216858
0.734619,0.094727,0.683105,-17.189026,-180.740341,-3.349304,1.766357,-0.462158,-1.206787,249.992355,125.923149,208.381638
-0.133301,0.19873,1.043457,23.956297,-15.716552,-14.335631,2.093994,0.351074,-0.893555,249.992355,41.297909,249.992355
0.591309,0.208008,0.780273,-25.543211,-130.622864,-26.802061,1.736572,0.981689,-0.081299,249.992355,-80.192566,245.086655
0.508789,0.273438,0.822266,-26.664732,-106.246941,-35.53772,2.07959,-0.988281,-1.385742,249.992355,-59.982296,204.185471
0.442139,0.31543,0.838867,-25.169371,-86.509697,-42.892452,-0.147461,-1.499512,-1.06543,249.992355,185.333237,246.948227
0.400146,0.322021,0.834229,-22.460936,-70.106506,-49.751278,0.139648,-1.327637,-0.28833,249.992355,249.992355,249.984726
0.656982,0.138672,0.71167,-21.972654,-156.692505,-15.060424,0.200928,-1.123047,0.842285,249.992355,249.992355,249.992355
0.220947,0.281494,0.902588,-18.562317,-45.021053,-54.702755,0.812744,-0.931396,0.985352,249.992355,203.468307,249.992355
0.108154,0.26123,0.949219,-13.870238,-28.373716,-54.687496,0.919434,-0.92749,0.746582,249.992355,95.550529,249.214157
0.050537,0.240967,0.963623,-10.383605,-8.911133,-52.391048,0.630371,-0.875488,0.724854,249.992355,40.115356,249.992355
0.045898,0.218994,0.973633,-8.728027,6.080627,-49.804684,0.474121,-0.938477,0.712891,249.992355,5.386352,249.992355
0.057861,0.230713,0.965576,-4.470825,9.986877,-48.263546,0.349854,-1.069092,0.662354,249.816879,-32.264709,217.178329
0.0625,0.26709,0.939209,1.121521,1.480102,-45.845028,0.027588,-1.223633,0.776367,249.725327,-67.565918,151.016235
0.075439,0.286865,0.959961,4.127502,-13.740539,-41.900631,-0.343506,-1.311035,0.998291,249.992355,-81.329338,113.44146
0.089355,0.286865,0.996338,6.034851,-27.793882,-37.567139,-0.694824,-1.250244,1.230957,244.64415,-74.34082,98.304741
0.05249,0.274414,0.989258,9.437561,-33.7677,-31.875608,-0.869385,-1.167236,1.330566,210.983261,-59.04388,85.571281
-0.050781,0.261475,0.983887,14.114379,-30.769346,-24.818419,-0.866699,-1.126953,1.320557,179.389938,-45.883175,71.548462
0.337402,0.304688,0.855957,-20.76721,-57.006832,-53.741451,-0.809814,-1.157959,1.28418,148.544312,-36.262512,57.929989
0.417236,-0.898438,-0.177246,-11.032104,-1.747131,2.792358,-0.830322,-0.969482,1.203613,79.421997,-39.375305,30.189512
0.395752,-0.910156,-0.190186,-7.690429,-1.51062,3.005981,-0.379639,0.046631,0.966064,7.888793,-1.846313,-4.249573
0.4021,-0.911377,-0.173096,-4.859924,-1.571655,2.14386,-0.333984,-0.23584,0.968262,-18.1427,13.458251,-4.119873
0.422607,-0.900879,-0.147461,-1.861572,-1.373291,0.991821,-0.368652,0.025879,0.974609,10.971068,0.846863,-1.289368
0.396973,-0.863525,-0.13916,2.319336,7.537841,0.480652,-0.544189,0.445313,0.825439,-0.87738,-53.520199,-10.688781
0.437256,-0.891113,-0.149414,0.595093,4.78363,0.022888,-0.459473,0.416992,0.883789,5.546569,-47.981258,-7.270813
0.425781,-0.880371,-0.151855,1.625061,7.537841,0.045776,-0.391113,0.414795,0.930908,13.420104,-47.737118,-3.64685
0.406738,-0.87207,-0.149658,1.945495,8.087158,0.312805,-0.368164,0.419434,0.948242,23.742674,-51.017757,0.061035
0.435303,-0.899902,-0.147217,-0.75531,0.87738,0.572205,-0.370605,0.395752,0.945068,34.812927,-56.190487,3.547668
0.414063,-0.879883,-0.155518,-14.160155,-1.853943,2.593994,-0.390625,0.351074,0.933594,46.417233,-63.194271,6.233215
0.400391,-0.835938,-0.045654,-44.43359,13.816833,17.723083,-0.405029,0.314697,0.930908,59.333797,-72.021484,9.803772
0.38916,-0.864014,-0.153809,-18.104553,-1.464844,4.814148,-0.400879,0.29126,0.942383,73.455811,-83.808891,17.127991
0.398438,-0.883789,-0.155762,-20.446775,-0.595093,4.890442,-0.393066,0.234619,0.97168,86.143486,-101.84478,28.999327
0.397705,-0.912109,-0.164795,-22.636412,2.296448,4.066467,-0.446045,-0.013184,0.898682,93.193047,-149.711609,52.642818
0.371094,-0.926514,-0.176514,-24.80316,8.209229,3.601074,-0.57959,0.478271,0.800781,-8.811951,-61.973568,-13.801574
0.34668,-0.914551,-0.152344,-24.909971,13.053893,3.974914,-0.539551,-0.1604,0.842773,84.182732,-165.779099,56.228634
0.37207,-0.899658,-0.109375,-25.871275,14.244079,4.516602,-0.666504,-0.261719,0.71582,63.522335,-152.59552,49.087521
0.380127,-0.893066,-0.099365,-29.312132,12.687682,4.91333,-0.710449,-0.254395,0.683594,55.595394,-136.894226,42.678829
0.377197,-0.878418,-0.105957,-34.111023,10.803222,6.637573,-0.724121,-0.269287,0.69165,47.172543,-123.062126,37.078857
0.364014,-0.862793,-0.10791,-38.993835,11.405944,10.635375,-0.749023,-0.288574,0.7146,37.246704,-112.411491,31.723021
0.363525,-0.848877,-0.081299,-42.739864,13.198852,14.656066,-0.783936,-0.323242,0.751221,24.841307,-105.415337,25.009153
0.398438,-0.853516,-0.133301,4.203796,6.607055,-0.343323,-0.842773,-0.356934,0.774902,9.246826,-98.625175,16.983032
0.389893,-0.861328,-0.145264,-15.785216,-1.777649,3.982544,-0.948975,-0.373535,0.770264,-8.338928,-85.891716,5.691528
0.398193,-0.85791,-0.134766,6.599426,4.768372,-1.853943,-1.05542,-0.354004,0.750977,-24.185179,-65.383911,-8.926392
0.418945,-0.866943,-0.014893,32.569885,7.873535,-6.652832,-1.065674,-0.293701,0.731689,-36.628723,-42.617794,-21.095274
0.439697,-0.860596,-0.104736,11.589049,3.311157,-4.394531,-0.378418,0.041504,0.969482,10.009766,-0.495911,-3.158569
0.394287,-0.838867,-0.020508,-45.112606,15.541076,20.408628,-0.614502,-0.243896,0.778076,73.112488,-164.916977,54.168697
0.443848,-0.84082,0.065186,42.312618,14.083861,-2.89154,-0.540283,0.473633,0.802979,-21.743773,-72.181702,-17.807007
0.45166,-0.84082,0.051758,42.343136,13.992309,-3.341675,-0.394043,0.126953,0.950195,93.40667,-125.289909,42.366024
0.463379,-0.834717,0.049561,42.678829,12.954711,-3.890991,-0.373047,0.307617,0.857666,-53.939816,-75.98877,-23.582457
0.468994,-0.832031,0.049805,43.388363,11.367797,-4.135132,-0.456543,0.405273,0.819824,-38.772583,-77.796936,-22.262571
0.4646,-0.829834,0.044434,43.16711,10.353087,-4.28009,-0.352539,-0.018555,0.960449,9.849548,2.540588,1.541138
0.457275,-0.841309,0.028564,42.083736,9.147644,-4.714966,-0.341553,-0.027344,0.948975,9.07135,2.609253,2.250671
0.446289,-0.858154,0.015381,40.847775,8.094788,-5.149841,-0.344727,-0.027832,0.952148,9.170532,3.158569,2.906799
0.442871,-0.869385,0.008545,39.604187,7.827758,-6.004333,-0.364014,-0.030518,0.960205,9.941101,4.104614,3.288269
0.425781,-0.868896,-0.000977,37.910461,8.140564,-6.393432,-0.390381,-0.050537,0.967285,10.528563,6.263732,2.975464
0.418213,-0.854004,-0.125732,9.132385,3.242492,-3.196716,-0.406982,-0.089355,0.980225,9.437561,9.033203,1.861572
0.430664,-0.863525,-0.01416,36.300659,8.285522,-6.958007,-0.376709,-0.186035,1.009033,2.700805,12.199401,-0.846863
0.425293,-0.865479,-0.013428,34.53064,7.705688,-7.232666,-0.353516,-0.232666,1.008057,-4.371643,12.763976,-2.090454
0.422119,-0.870117,-0.018066,30.303953,8.087158,-6.370544,-0.342285,-0.248047,0.98584,-12.184142,12.794494,-2.777099
0.42334,-0.868652,-0.023193,28.877256,8.010864,-6.355285,-0.309814,-0.221436,0.960938,-23.269651,13.954162,-5.844116
0.415039,-0.866943,-0.031982,27.9541,7.8125,-6.233215,-0.400391,-0.137451,0.992676,6.874084,11.245727,0.534058
0.414307,-0.876221,-0.044189,26.412962,7.965087,-6.271362,-0.298096,0.184814,0.915771,-64.346313,-68.206787,-22.262571
0.424561,-0.891602,-0.06958,24.16992,8.621216,-6.706237,-0.278564,-0.195068,0.967041,-27.717588,13.748168,-6.263732
0.432861,-0.890625,-0.081055,21.65222,9.338379,-7.202148,-0.218506,0.066406,0.971191,-67.405701,-57.327267,-18.966675
0.437988,-0.876709,-0.075195,18.997192,8.537292,-6.896972,-0.146729,-0.031006,1.011963,-64.14032,-45.921322,-14.961242
0.444824,-0.870117,-0.076416,16.616821,6.820678,-6.225585,-0.091064,-0.105225,1.036377,-57.464596,-33.058167,-12.123107
0.442383,-0.868896,-0.088135,14.205932,4.798889,-5.279541,-0.066895,-0.139648,1.03833,-49.22485,-19.317627,-9.620667
0.433838,-0.863525,-0.013672,35.377502,7.93457,-7.400512,-0.362305,0.001709,0.975586,10.917663,1.937866,0.450134
0.366943,-0.845215,-0.015869,-44.952389,20.118711,21.911619,-0.132568,-0.134277,1.030273,-35.507202,6.347656,-6.507873
0.405762,-0.8396,0.001709,-44.05212,21.39282,21.781919,-0.210938,-0.125244,1.002197,-31.73065,10.406493,-5.79071
0.458496,-0.856445,0.008789,-44.364925,16.891479,24.131773,-0.257568,-0.154297,0.977783,-30.387877,12.359618,-5.714416
0.399414,-0.863525,0.177246,-20.553587,-103.836052,78.659058,-0.07959,-0.145264,1.0271,-41.931149,-4.699707,-7.80487
0.456543,-0.84375,0.240967,-27.503965,-102.088921,75.431824,0.375732,1.066895,-0.588623,-44.258114,-11.169433,60.638424
0.437744,-0.853516,0.296143,-29.937742,-100.997917,74.09668,0.324219,0.757813,-0.608643,-95.436089,-22.293089,40.390011
0.433105,-0.837402,0.36084,-33.462524,-101.875298,72.463989,0.381836,0.765869,-0.624512,-89.126579,-16.029358,44.784542
0.496582,-0.735596,0.401367,-33.744812,-107.215874,72.822571,0.430908,0.789307,-0.615723,-83.358757,-13.275146,47.309872
0.516357,-0.638672,0.439941,-28.938292,-110.374443,74.188232,0.451904,0.844971,-0.583984,-76.347351,-12.702941,51.147457
0.476563,-0.619141,0.44165,-22.018431,-104.392998,76.49231,0.428223,0.903076,-0.541016,-69.229126,-14.47296,53.520199
0.4646,-0.675781,0.399658,-19.15741,-93.040459,76.164246,0.373047,0.940918,-0.493896,-63.468929,-17.570496,53.283688
0.512695,-0.735596,0.336182,-20.1416,-84.808342,71.44165,0.336914,0.96582,-0.487793,-59.005733,-18.486023,53.054806
0.550293,-0.767822,0.306641,-22.300718,-80.375664,65.940857,0.348877,1.008057,-0.527588,-53.428646,-15.724181,55.213924
0.36499,-0.809814,0.137451,-10.559081,-115.112297,82.466118,0.275391,0.754639,-0.577881,-101.516716,-32.272339,33.355713
0.553955,-0.753662,0.353516,-24.513243,-79.75769,63.247677,0.455811,1.980713,0.265137,64.826965,163.597092,65.879822
0.615234,-0.686035,0.504883,-30.509947,-96.824638,58.372494,0.308105,1.146973,-0.626953,-15.319823,-9.147644,66.360474
0.607666,-0.652344,0.550781,-32.295227,-108.360283,53.718563,0.22876,1.18457,-0.60791,1.419067,-9.83429,67.405701
0.556885,-0.625,0.578369,-32.188416,-113.929741,49.423214,0.148926,1.234863,-0.563721,18.852234,-7.881164,67.741394
0.52002,-0.60083,0.582764,-30.158995,-111.366264,45.0592,0.032227,1.282471,-0.512939,34.858704,0.50354,62.782284
0.459961,-0.587646,0.558105,-26.916502,-99.945061,40.893551,-0.090088,1.304688,-0.44751,46.363827,21.072386,51.826473
0.395752,-0.603516,0.499756,-23.300169,-81.626884,38.078308,-0.200195,1.341553,-0.387939,54.573055,62.095638,38.94043
0.366211,-0.638428,0.450684,-20.523069,-62.82806,36.979675,-0.249268,1.436035,-0.30835,63.110348,122.817986,27.847288
0.397217,-0.681396,0.449951,-21.072386,-49.102779,34.637451,-0.12915,1.522461,-0.170654,65.719604,177.795395,28.671263
0.429199,-0.717773,0.482422,-24.612425,-41.351315,29.70886,0.217529,1.658936,0.054443,59.562679,190.559372,45.69244
0.414063,-0.713379,0.544434,-27.45056,-36.575317,27.412413,0.243164,0.762939,-0.540283,-105.834953,-43.243404,25.81024
0.571289,-0.720459,0.438232,-27.458189,-85.472099,61.782833,0.36084,1.110596,-0.624512,-31.295774,-8.865356,65.0177
0.44458,-0.735352,0.11377,-8.522034,-130.966187,80.26123,0.236084,0.781982,-0.525879,-108.810417,-53.314205,19.577026
0.39502,-0.67627,0.623779,-28.892515,-35.224915,25.817869,0.666748,0.497559,0.250977,-78.697205,-91.987602,7.820129
0.4729,-0.737549,0.087646,-14.251708,-142.303467,69.412231,0.313477,0.743652,-0.494141,-114.326469,-67.832947,11.383056
0.455322,-0.912842,-0.0354,-46.07391,12.664794,27.961729,0.423096,2.119629,0.391846,73.913574,126.41143,68.916321
0.449219,-0.973389,-0.079346,-49.438473,10.19287,29.678343,0.6875,0.477539,0.282227,-85.823051,-99.517815,7.43103
0.479736,-0.985596,-0.089844,-51.071163,7.80487,27.725218,0.678955,0.468994,0.274414,-92.590324,-105.186455,7.492065
0.518311,-0.968994,-0.020508,-51.979061,4.928589,27.19879,0.644043,0.4646,0.225586,-98.335258,-107.406609,7.492065
0.537109,-0.912354,0.155273,-53.497311,3.265381,25.749205,0.59375,0.468506,0.14502,-102.98156,-104.515068,7.957458
0.583252,-0.811768,0.376465,-52.429195,-1.037598,25.375364,0.533936,0.473145,0.056641,-106.079094,-96.313469,7.8125
0.500244,-0.72168,0.113037,-13.305663,-139.99176,73.799133,0.510254,0.463867,0.009521,-107.994072,-87.303154,6.126403
0.654297,-0.585938,0.615967,-28.854368,-29.899595,15.213012,0.523926,0.44751,-0.009521,-109.580986,-81.230156,3.15094
0.687256,-0.606445,0.594482,-20.317076,-46.363827,12.748717,0.560791,0.444092,-0.018799,-111.381523,-79.246521,0.701904
0.731689,-0.683838,0.150635,-14.739989,-55.252071,13.282775,0.590332,0.436279,0.003174,-114.379875,-80.215454,-0.350952
0.60498,-0.729004,-0.009766,-12.603759,-55.6488,12.565612,0.611328,0.437256,0.012695,-117.774956,-83.541862,-1.419067
0.630371,-0.689941,0.504395,-42.991634,-16.044617,24.383543,0.616455,0.448242,-0.013672,-120.147697,-90.148918,-2.571106
0.580322,-0.77832,-0.054932,-8.979797,-38.490295,4.196167,0.610596,0.473877,-0.054932,-120.559685,-98.541252,-2.548218
0.616699,-0.768311,-0.010986,-10.711669,-34.431458,0.87738,0.583252,0.495117,-0.113525,-119.964592,-105.75103,-0.770569
0.670654,-0.703369,0.051514,-10.498046,-46.19598,-0.801086,0.531006,0.504883,-0.169678,-120.391838,-109.313957,0.587463
0.694092,-0.620605,0.104736,-7.766723,-70.19043,4.615784,0.484375,0.529297,-0.229736,-121.6278,-108.26873,1.014709
0.666992,-0.575439,0.125488,-4.386902,-97.015373,20.629881,0.467529,0.565918,-0.303711,-122.581474,-104.576103,3.265381
0.642334,-0.632568,0.109619,-7.499694,-117.530815,36.827087,0.464355,0.589355,-0.371582,-122.062675,-100.677483,6.240844
0.581055,-0.689697,0.117676,-12.748717,-130.630493,43.968197,0.454102,0.591553,-0.429199,-121.162407,-96.473686,7.67517
0.491943,-0.711182,0.128662,-15.068053,-140.304565,51.048275,0.442627,0.598389,-0.455566,-120.529167,-91.751091,8.506775
0.437744,-0.739014,0.111084,-14.892577,-144.91272,59.364315,0.424072,0.631836,-0.481934,-119.155876,-86.013786,9.101868
0.44165,-0.749023,0.095947,-14.244079,-144.203186,64.613342,0.395264,0.668213,-0.493652,-117.546074,-79.620361,9.552002
0.567871,-0.76709,-0.048584,-11.421203,-47.798153,8.621216,0.355713,0.70166,-0.487061,-116.355888,-73.455811,9.925842
0.318848,-0.633545,0.623535,39.619446,27.976988,7.881164,0.269287,0.78125,-0.515381,-111.625664,-61.386105,14.869689
0.335938,-0.627686,0.643555,35.949707,24.482725,6.462097,0.286133,1.883545,0.433838,72.128296,97.274773,54.817196
