ax,ay,az,gx,gy,gz,ax,ay,az,gx,gy,gz
-0.813965,0.304688,0.760742,-20.149229,19.309998,-0.213623,0.078369,-0.989502,0.178711,-19.14978,-7.43103,5.0354
-0.824707,0.283203,0.716553,-13.603209,11.337279,-4.127502,0.185547,-0.979004,0.110352,-21.194456,-8.850098,8.338928
-0.808594,0.285645,0.741211,-14.617919,12.306212,-3.120422,0.325195,-0.981689,0.094971,-26.55792,-7.087707,3.372192
-0.799316,0.293945,0.756104,-17.021179,16.014099,-1.51062,0.361572,-0.975098,0.131592,-33.714294,0.846863,-7.408142
-0.856445,0.296875,0.68335,-13.511657,14.282226,-3.494262,0.187256,-0.954346,0.156738,-3.448486,-3.753662,-23.490904
-0.994629,0.376953,0.775879,-3.051758,125.846855,8.506775,0.26001,-0.981201,0.185547,-38.825989,10.467528,-16.25061
-0.556152,0.321533,0.867432,87.783806,-19.203186,22.994993,0.133057,-1.017334,0.246582,-39.871216,13.900756,-17.501831
-0.854248,0.46167,0.83252,15.174865,160.819992,7.850646,0.040283,-1.029785,0.267334,-38.726807,10.124206,-10.910033
-0.745361,0.522705,0.838867,27.084349,163.505539,7.118225,0.03125,-1.017334,0.279053,-37.42981,1.937866,-0.473022
-0.614502,0.55127,0.840088,38.154602,152.946472,10.848998,0.047607,-0.982178,0.2854,-36.53717,-8.506775,10.581969
-0.481201,0.523682,0.864502,46.836849,131.019592,16.197205,0.030273,-0.975098,0.208252,-37.612915,-13.801574,20.500181
-0.37915,0.455322,0.890381,55.206295,104.156487,18.783569,0.105469,-0.981934,0.229248,-40.138245,-15.602111,27.053831
-0.32666,0.354492,0.937012,62.416073,75.408936,19.927979,0.112305,-0.939453,0.201416,-43.823238,-11.672973,30.364988
-0.288818,0.266602,1.002441,69.122314,45.280453,19.821167,0.192139,-0.932861,0.191162,-47.271725,-5.279541,28.388975
-0.254395,0.269287,1.024902,83.351128,14.785766,18.798828,0.375,-0.913574,0.256592,-46.600338,-5.622863,24.92523
-0.272949,0.333984,1.010498,105.316154,-6.54602,13.946532,0.381836,-0.856201,0.165039,-42.617794,-7.17926,22.354124
-0.406738,0.296143,0.907715,101.409904,-11.070251,10.047912,-0.474365,1.089355,-0.256592,-13.748168,-48.828121,-181.12944
-0.835205,0.304688,0.765137,-23.506163,20.027161,-0.419617,-0.42627,1.016846,-0.191895,-19.004822,-93.711845,-188.964828
-0.930664,0.410889,0.80957,4.524231,147.850037,8.918762,-0.366699,1.002441,-0.171387,-18.486023,-117.317192,-188.19426
-0.849854,0.28833,0.769531,-26.145933,17.929077,-1.998901,-0.338867,1.05835,-0.210938,-17.745972,-123.51226,-186.897263
-0.797852,0.285645,0.739502,-3.39508,23.948668,-11.95526,-0.355957,1.205566,-0.480225,-83.427422,-73.387146,-215.698227
-0.826172,0.252197,0.769775,-28.907774,8.522034,-8.300781,-0.305176,1.138428,-0.411377,-34.637451,-108.451836,-190.933212
-0.515381,0.22583,0.77002,68.527222,-25.566099,30.784605,-0.251709,1.178711,-0.462158,-48.034664,-97.015373,-195.365891
-0.85376,0.39624,0.638428,-43.601986,-19.737244,-15.731811,-0.291992,1.215332,-0.484863,-63.4613,-84.609978,-204.643234
-0.841553,0.35498,0.674072,-37.567139,-15.289306,-16.372681,-0.346924,1.109131,-0.302979,-23.330687,-118.392937,-187.950119
-0.81958,0.338379,0.700684,-31.265257,-13.824462,-16.120911,-0.462402,1.131348,-0.32666,-2.487183,12.367248,-159.942627
-0.792969,0.32666,0.700439,-26.268003,-14.541625,-15.396117,0.061768,1.118164,-0.453613,77.384949,-39.802551,-106.994621
-0.772949,0.30835,0.688721,-22.445677,-15.754699,-14.694213,0.006592,1.016357,-0.495117,48.423763,67.352295,-115.997307
-0.78125,0.290283,0.673828,-19.424438,-15.541076,-14.160155,0.108887,1.02124,-0.50415,60.256954,27.519224,-112.792961
-0.799561,0.272461,0.66626,-17.25769,-12.649535,-14.869689,0.142822,1.087402,-0.496826,72.860718,-15.731811,-109.466545
-0.818115,0.252686,0.678223,-15.296935,-8.216858,-15.876769,-0.042725,1.127197,0.158691,-3.089905,-57.945248,-134.132385
-0.8396,0.241699,0.69751,-12.825011,-3.013611,-16.044617,-0.080566,1.066406,-0.334961,66.352844,-22.819517,-101.753227
-0.851074,0.264893,0.773193,-27.816771,13.587951,-4.867554,-0.011719,0.892822,-0.168457,45.227047,16.296387,-90.332024
-0.852783,0.241699,0.706543,-10.44464,4.333496,-16.113281,0.255615,0.629639,-0.003906,16.815186,40.466305,-69.68689
-0.84668,0.280273,0.727295,-5.279541,20.309446,-13.96942,0.452881,0.42627,0.13501,-17.601013,34.408569,-49.758907
-0.732422,0.279297,0.734619,-2.349854,23.132322,-11.619567,0.505127,0.477051,0.243652,-43.357845,-1.853943,-55.381771
-0.69458,0.266602,0.716797,-3.875732,19.668579,-12.130736,0.369629,0.844482,0.26416,-31.997679,-42.861935,-94.619743
-0.668213,0.25708,0.712158,-7.583618,13.824462,-12.428283,-0.433105,1.106201,-0.434814,-106.292717,-67.474365,-223.060593
-0.65625,0.244385,0.708252,-12.321471,7.133483,-12.603759,-0.349854,1.129883,-0.380371,14.457702,64.842224,-136.46698
-0.66333,0.218262,0.697754,-18.234253,2.13623,-12.748717,-0.481445,0.968994,-0.396729,-125.114433,-67.955017,-226.837143
-0.682129,0.196045,0.698242,-23.605345,-0.007629,-13.053893,-0.743164,0.227539,0.348633,-127.54821,-73.822021,-188.583359
-0.714355,0.212646,0.711914,-27.091978,-0.053406,-13.267516,-0.550293,0.771484,-0.243164,-151.107788,-83.961479,-228.530869
-0.745117,0.235107,0.730225,-28.907774,1.350403,-12.901305,-0.315186,1.192871,-0.064941,11.726378,-46.844479,-155.448914
-0.785645,0.248291,0.753662,-29.396055,4.089355,-11.169433,-0.861084,-0.002441,0.648438,-13.801574,-44.723507,-80.68084
-0.855957,0.260498,0.721924,-7.843017,12.664794,-15.830993,-0.835205,-0.018311,0.665283,-21.77429,-53.665157,-91.911308
-0.404053,0.20166,0.739258,63.468929,-31.501768,32.00531,-0.800049,-0.014648,0.64209,-31.082151,-61.286922,-101.699821
-0.868652,0.454102,0.602051,-49.079891,-26.428221,-14.953612,-0.80249,0.000732,0.60376,-39.726257,-65.200806,-111.305229
-0.425537,0.180908,0.77002,66.322327,-96.633904,53.306576,-0.80249,0.009033,0.546631,-47.241207,-67.314148,-121.398918
-0.713867,-0.360352,0.751953,26.496885,13.305663,-1.098633,-0.784912,0.029297,0.49707,-53.741451,-70.167542,-130.92804
-0.674072,-0.297852,0.79248,23.620604,12.443542,-1.266479,-0.784668,0.075684,0.48877,-59.730526,-73.165894,-139.23645
-0.671631,-0.25,0.811768,20.866392,11.917113,-0.785828,-0.782471,0.117432,0.509277,-68.069458,-75.332642,-147.30072
-0.680176,-0.228516,0.812988,18.379211,12.496947,-0.541687,-0.784912,0.148438,0.532471,-78.468323,-76.774597,-155.891418
-0.682129,-0.215088,0.80542,16.418457,12.802123,-0.450134,-0.501221,0.858643,-0.336914,-139.129639,-73.936462,-227.615341
-0.674072,-0.205811,0.799072,14.938354,11.756896,-0.358582,-0.789307,0.142578,0.537354,-91.087334,-77.697754,-165.801987
-0.661865,-0.213623,0.786377,13.763427,9.094238,0.152588,-0.781006,0.176514,0.439453,-117.637627,-73.890686,-182.426437
-0.651855,-0.228271,0.782227,13.153075,5.638122,1.235962,-0.6875,0.289551,0.282959,-133.460999,-78.712463,-192.10051
-0.654541,-0.233643,0.777588,12.96997,1.800537,3.14331,-0.657471,0.351807,0.262451,-137.390137,-87.234489,-194.686874
-0.657959,-0.225098,0.770508,13.259887,-1.304626,5.638122,-0.664795,0.41626,0.28418,-141.052246,-96.199028,-199.340805
-0.791504,-0.400391,0.717285,29.724119,12.603759,-0.244141,-0.693115,0.473633,0.300293,-145.111084,-103.164665,-205.009445
-0.648682,-0.212158,0.757813,14.09912,-2.975464,7.202148,-0.718262,0.522461,0.300293,-149.742126,-106.452934,-210.87645
-0.667725,-0.214111,0.743164,16.014099,-0.732422,7.156372,-0.719238,0.552734,0.274902,-154.548645,-107.849113,-216.522202
-0.695801,-0.229736,0.750732,16.708374,2.464294,7.408142,-0.689209,0.574463,0.196777,-159.14917,-107.200615,-222.84697
-0.72583,-0.231934,0.776855,17.578125,6.393432,9.32312,-0.653564,0.616699,0.071045,-161.735519,-103.469841,-227.905258
-0.737061,-0.231201,0.810547,18.424988,10.498046,11.466979,-0.61084,0.688477,-0.094238,-159.240723,-95.130913,-229.64476
-0.718262,-0.21875,0.858154,19.523621,13.435363,11.871337,-0.795166,0.141357,0.506592,-105.026237,-76.293945,-174.987778
-0.701904,-0.205078,0.917969,21.354673,14.22119,12.107848,-0.306396,1.205078,-0.243652,26.458738,-26.44348,-165.863022
-0.712158,-0.198486,0.966797,23.559568,11.512755,14.450072,-0.165039,1.076904,-0.447754,33.508301,84.854118,-122.00164
-0.731689,-0.191406,1.007813,26.741026,4.814148,19.340515,0.019775,1.037354,-0.24292,52.421566,-38.337708,-182.998642
-0.729736,-0.20459,1.033447,30.693052,-4.379272,23.902891,0.807373,-0.318848,0.453369,83.129875,-33.51593,-249.992355
-0.729736,-0.230469,1.004395,34.194946,-11.726378,25.825499,0.907715,-0.311279,0.425293,95.123283,-61.111446,-249.992355
-0.644287,-0.20752,0.740723,14.976501,-2.677917,7.354736,0.945557,-0.303223,0.376465,110.359184,-98.82354,-249.992355
-0.834961,-0.430664,0.687988,32.615662,8.132935,-0.137329,0.894531,-0.288574,0.332764,128.959656,-134.368896,-249.992355
-0.382813,0.199707,0.808105,64.620972,-68.908691,43.693539,0.845215,-0.29126,0.282959,151.245117,-159.065247,-249.992355
-0.818604,-0.430908,0.680908,39.093018,-10.32257,0.915527,0.830322,-0.319336,0.236328,172.752365,-165.847763,-249.992355
-0.535645,0.202881,0.827148,70.655823,-97.640984,60.043331,0.820313,-0.37085,0.192871,188.81987,-152.915955,-249.832138
-0.631104,0.24292,0.913818,79.833984,-74.455261,61.904903,0.833252,-0.425293,0.178955,199.745163,-121.948235,-249.992355
-0.557373,0.244629,0.939209,81.794731,-35.804749,52.574154,0.875977,-0.430908,0.200439,210.23558,-78.483582,-249.992355
-0.470947,0.206055,1.062012,78.086853,-4.417419,36.575317,0.989502,-0.416992,0.292725,220.619186,-33.050537,-242.62236
-0.405762,0.138428,1.090332,84.70916,-1.13678,30.769346,0.698242,-0.330566,0.418701,74.638367,-21.102903,-246.971115
-0.400635,0.086426,0.997559,91.812126,-0.900268,24.16992,1.116211,-0.409912,0.404297,227.767929,3.036499,-228.393539
-0.846191,-0.442871,0.677979,35.629272,-0.770569,-0.106812,1.161133,-0.395508,0.557129,244.842514,-9.506226,-217.55217
-0.416016,0.018555,0.817383,98.915092,-4.615784,17.753601,1.212402,-0.354736,0.672119,249.80925,-68.54248,-230.720505
-0.350586,-0.015137,0.738281,98.1903,-18.310547,14.22882,1.294678,-0.252197,0.653564,249.992355,-148.841858,-236.45018
-0.35376,-0.022705,0.697266,95.046989,-34.568787,10.650634,1.32666,-0.056641,0.426514,249.992355,-210.891708,-207.97728
-0.42334,-0.011963,0.691895,92.64373,-43.937679,8.300781,1.214111,0.075195,0.226074,249.992355,-234.085068,-168.594345
-0.430176,0.050537,0.9104,96.282951,-0.686645,20.172117,0.746826,-0.113281,0.429199,249.68718,-240.127548,-154.960632
-0.602051,-0.077881,0.627441,84.945671,-33.760071,5.836486,0.201416,-0.244873,0.527344,249.992355,-239.585861,-158.27179
-0.629395,-0.146729,0.644775,77.987671,-27.343748,3.433227,0.27002,-0.337402,0.706543,249.992355,-223.808273,-162.628159
-0.617188,-0.193359,0.689697,71.434021,-22.91107,1.716614,0.484131,-0.362549,0.615479,234.18425,-187.515244,-162.338242
-0.627686,-0.215576,0.729492,66.955566,-20.378111,0.259399,0.745605,-0.295166,0.666016,223.556503,-125.625603,-152.679443
-0.658447,-0.240967,0.740234,63.354488,-18.562317,0.091553,1.133789,-0.397949,0.450684,235.076889,14.167785,-218.368515
-0.687012,-0.278809,0.734619,59.127804,-17.684937,1.335144,0.605957,-0.330566,0.39209,70.81604,-19.561768,-236.152634
-0.699219,-0.327637,0.723389,54.779049,-18.600464,2.922058,-0.168457,1.164551,-0.277832,42.518612,-19.790649,-176.139816
-0.707031,-0.364746,0.712402,50.773617,-20.072937,3.959656,0.543701,-0.233398,0.374023,73.600769,-27.976988,-208.671555
-0.732178,-0.389893,0.696533,46.791073,-20.378111,3.822326,0.561035,-0.290771,0.386719,71.69342,-23.147581,-222.58757
-0.771729,-0.40918,0.684814,42.861935,-17.494202,2.586365,0.389893,0.725098,-0.197021,80.856316,-135.787964,-176.658615
-0.52002,-0.023926,0.650146,89.99633,-41.854855,7.736206,0.344971,0.802734,-0.167236,102.935783,-172.866806,-175.941452
0.488037,-0.400879,0.12207,-112.67852,83.770744,-139.762878,0.174805,0.99707,-0.122314,112.907402,-170.17363,-180.671677
0.466553,-0.450439,0.138428,-112.442009,30.006407,-126.983635,0.068359,1.152832,-0.034668,107.681267,-127.410881,-180.969223
0.527588,-0.44043,0.086182,-100.807182,-41.778561,-107.986443,0.076416,1.048828,0.112305,87.783806,-68.519592,-173.19487
0.737793,-0.334961,0.169434,-100.692741,-129.196167,-89.080803,0.14209,0.624512,0.222412,62.911983,-14.938354,-166.152939
0.999023,-0.486328,-0.000488,-70.579529,15.045165,-26.588438,0.30249,-0.017822,0.209229,44.113155,16.334534,-191.276535
1.287354,-0.564697,0.111816,-106.163017,-121.604912,-61.44714,0.562256,-0.425049,0.19458,45.021053,20.965574,-239.738449
1.130127,-0.47998,0.246094,-83.381645,-55.046078,-40.290829,0.815918,-0.373047,0.35498,57.968136,15.907287,-249.992355
0.995361,-0.500488,0.14209,-79.406738,-0.427246,-36.026001,1.07959,0.008057,0.526855,74.737549,25.382994,-231.315598
1.11792,-0.526855,0.099609,-120.033257,-158.554077,-82.405083,0.240234,0.83667,-0.22168,61.958309,-81.741325,-182.281479
0.442871,-0.424072,0.2854,-110.748283,111.488335,-143.852234,1.414063,0.0979,0.756348,67.420959,18.470764,-179.092392
0.219727,-0.712158,0.574707,-22.232054,-64.346313,-21.110533,1.291748,-0.384277,1.226074,-36.933899,-32.493591,-157.798767
0.622314,-0.37085,0.702148,-90.927116,112.487785,-143.02063,0.945313,0.561035,0.78125,-82.542412,-44.967648,-145.362854
0.635986,-0.445801,0.906982,-79.101563,92.926018,-137.481689,1.354004,3.166016,0.097656,92.224113,-53.962704,-83.808891
0.645508,-0.488281,1.05835,-66.085815,65.887451,-124.999992,1.413818,5.077637,-0.311279,211.051926,-100.532524,-0.930786
0.646484,-0.504395,1.088379,-56.129452,34.90448,-112.083427,0.143555,3.766846,-0.091309,147.224426,-108.612053,-15.007018
0.648193,-0.481201,1.019531,-51.48315,4.310608,-102.508537,0.363281,1.084717,1.076416,131.744385,-39.81781,-109.481804
0.545898,-0.47583,0.897949,-51.292416,-20.072937,-92.552177,0.431885,-0.255615,0.833252,76.919556,-33.51593,-161.148056
0.387695,-0.503418,0.819824,-50.292965,-34.988403,-79.63562,0.449951,-0.147217,0.301025,71.136475,-33.309937,-175.384506
0.270508,-0.55957,0.830811,-43.380733,-43.838497,-65.254211,0.524414,-0.133545,0.341797,76.133728,-32.516479,-185.317978
0.211426,-0.647949,0.766357,-35.652161,-51.818844,-50.651546,0.550537,-0.174072,0.365234,76.011658,-31.188963,-195.968613
0.185303,-0.705322,0.642578,-29.296873,-58.898922,-35.003662,-0.934814,-0.460693,0.859863,-28.213499,-16.372681,-29.96826
1.025635,-0.489502,-0.108887,-52.787777,9.017944,-7.17926,-0.854004,-0.350098,0.839355,-11.886596,-35.430908,-22.056578
0.502197,-0.355225,0.477051,-101.21917,120.346062,-143.4021,-0.773926,-0.297363,0.799316,-2.609253,-43.067928,-13.839721
1.041016,-0.503662,-0.142822,-33.531189,1.045227,10.56671,-0.704834,-0.239014,0.691162,6.263732,-46.867367,-5.615234
0.607666,-0.753662,0.19043,69.17572,36.92627,42.884823,-0.708496,-0.277832,0.715088,5.508422,-41.66412,-3.14331
0.94043,-0.555664,-0.223389,-6.637573,-6.080627,33.813477,-0.730225,-0.23999,0.68457,7.987976,-41.03088,-0.1297
0.273438,-0.714355,0.484863,-18.531799,-64.979553,-11.421203,-0.743652,-0.236572,0.676758,7.781982,-42.465206,-2.365112
0.475586,-0.446289,0.49585,54.672237,62.103268,-17.250061,-0.921875,-0.487549,0.844971,-50.47607,4.577637,-30.84564
0.480225,-0.52002,0.476318,57.777401,65.940857,-8.499146,-0.732666,-0.286133,0.750488,1.495361,-43.258663,-7.93457
0.509521,-0.529541,0.47168,60.951229,64.178467,-2.113342,-0.829834,-0.373291,0.837891,-62.995907,14.48059,-27.793882
0.543213,-0.50293,0.473877,62.644955,57.121273,1.716614,-0.378174,-0.280762,0.818848,-46.096798,-41.717525,-41.03088
0.55957,-0.49292,0.448486,60.493465,46.539303,5.195617,-0.620361,-0.241943,0.795166,-71.311951,5.882263,-29.098509
0.562012,-0.490234,0.394287,56.457516,36.018372,10.57434,-0.561523,-0.188477,0.797852,-67.001343,-8.178711,-33.966064
0.562988,-0.488525,0.368652,56.083675,27.732847,18.028259,-0.582031,-0.209473,0.79834,-56.40411,-21.553038,-36.125183
0.557129,-0.521729,0.349609,59.020992,22.827147,25.787352,-1.02002,0.202393,0.784668,-10.581969,9.536743,-26.550291
0.54126,-0.605469,0.317383,62.820431,21.972654,33.081055,-0.314209,-0.239502,0.82251,-32.783508,-63.3316,-46.669003
1.008057,-0.501465,-0.166504,-18.165588,-2.403259,24.406431,-0.449707,-0.32373,0.874512,-30.120848,-79.963684,-54.870602
0.52417,-0.706543,0.300537,67.764282,24.566648,39.108276,-0.598877,-0.360596,0.909912,-31.890867,-93.1549,-71.586609
0.542725,-0.785156,0.23877,71.746826,34.072876,44.05975,-0.657471,-0.377197,0.864014,-37.689209,-88.98925,-79.223633
0.689209,-0.759277,0.143066,64.651489,35.820007,40.06958,-0.791504,-0.292236,0.851318,-47.271725,-67.893982,-76.972961
0.737549,-0.802979,0.103516,59.623714,29.823301,38.612366,-0.970215,0.091797,0.79248,-35.78186,-23.941038,-69.129944
0.763428,-0.844971,0.06958,56.15234,18.806458,40.267941,-0.682129,-0.274902,0.7146,3.280639,-51.23901,-7.347106
0.799561,-0.905273,0.022217,51.727291,4.920959,42.91534,-0.736816,-0.298584,0.815186,-68.878174,14.808654,-26.05438
0.836182,-0.961914,-0.04126,44.921871,-8.94165,44.166561,-0.653564,-0.310303,0.738037,2.975464,-54.77142,-8.148193
0.852051,-0.964355,-0.087402,37.521362,-20.179747,43.830868,-0.580078,-0.227051,0.786133,30.021666,-35.346985,5.088806
0.852539,-0.89624,-0.121338,29.541014,-25.688169,43.815609,-0.624023,-0.326172,0.791016,7.957458,-52.429195,-4.806519
0.851318,-0.773682,-0.1604,20.683287,-22.766111,43.495174,-0.554932,-0.208496,0.86792,15.060424,-46.417233,2.220154
0.883789,-0.654785,-0.212646,7.545471,-14.053344,40.06958,-0.810059,0.019531,0.770752,5.28717,13.496398,-3.753662
0.52124,-0.780518,0.279541,71.540833,29.197691,42.739864,-0.521729,-0.176025,0.828613,20.446775,-44.914242,4.570007
0.511719,-0.352051,0.516357,51.696774,55.503841,-26.237486,-0.523438,-0.175537,0.83374,22.140501,-44.93713,5.41687
0.284668,-0.711182,0.412598,-17.211914,-60.676571,-4.951477,-0.501953,-0.146973,0.844482,25.451658,-47.531124,5.66101
0.372314,-0.708496,0.458984,-11.375426,-58.219906,-2.27356,-0.522705,-0.146973,0.844971,31.448362,-49.697872,5.53894
-0.318359,-1.14209,1.466797,-249.992355,133.644104,-245.597824,-0.540771,-0.145264,0.837402,35.545349,-50.582882,4.829407
0.301514,-1.153809,1.078369,-249.992355,-75.973511,-134.45282,-0.584717,-0.180908,0.841309,36.933899,-49.819942,3.64685
0.209473,-0.789307,1.145508,-249.992355,-223.213181,-82.489006,-0.599854,-0.19165,0.837402,36.735535,-48.294064,2.410889
0.102539,-0.677002,1.148926,-249.992355,-249.93132,-73.669434,-0.604492,-0.202393,0.829834,38.581848,-46.234127,2.204895
0.253418,-0.618164,1.007324,-249.992355,-249.992355,-74.645996,-0.629883,-0.24585,0.819824,38.490295,-43.098446,2.204895
0.218994,-0.612305,0.862061,-249.992355,-249.992355,-73.890686,-0.646729,-0.279053,0.806152,33.721924,-39.123535,2.76947
0.088379,-0.476563,0.830322,-249.908432,-249.992355,-103.088371,-0.641113,-0.277832,0.799805,30.2124,-36.087036,3.318786
-0.227539,-0.160645,0.820801,-249.725327,-249.992355,-117.301933,-0.604492,-0.249512,0.789551,29.235838,-34.683228,4.173279
-0.656982,0.227295,0.930664,-249.992355,-249.992355,-131.973267,-0.585449,-0.221924,0.793701,30.868528,-35.78949,5.592346
-1.251221,0.487793,1.002441,-224.815353,-249.816879,-127.243034,-0.601074,-0.223877,0.810547,30.830381,-35.728455,4.875183
-0.553467,-0.58252,1.789795,-249.992355,239.242538,-249.992355,-0.60791,-0.23877,0.828613,29.58679,-35.53772,3.868103
-1.41626,0.498779,1.031738,-200.485214,-249.54985,-120.162956,-0.613525,-0.256348,0.844482,27.496336,-35.377502,3.02124
-1.779541,0.80542,0.843994,-140.975952,-245.452866,-80.383293,-0.633301,-0.276123,0.84668,24.276731,-34.896851,2.487183
-1.873779,0.84668,0.732422,-120.681755,-200.645432,-58.814999,-0.641602,-0.292236,0.845215,21.171568,-34.996033,1.335144
-1.867432,0.84375,0.686035,-107.528679,-149.124146,-45.288082,-0.635254,-0.307373,0.840576,18.455505,-37.078857,-0.473022
-1.742432,0.818604,0.676514,-97.618095,-108.108513,-34.797668,-0.627441,-0.324707,0.826904,15.319823,-41.236874,-2.120972
-1.521484,0.762451,0.652588,-88.371269,-77.804565,-27.084349,-0.626465,-0.333252,0.812256,11.352538,-46.57745,-3.211975
-1.327393,0.707031,0.637939,-77.75116,-57.518002,-21.65222,-0.62793,-0.315674,0.757324,4.722595,-55.534359,-6.904602
-1.141357,0.64209,0.611328,-67.848206,-46.058651,-17.26532,-0.544189,-0.196045,0.84668,17.181396,-45.204159,3.623962
-0.975098,0.576416,0.577393,-60.478207,-39.451599,-14.801024,-0.775635,-0.084229,0.82666,29.701231,3.089905,-56.335445
-0.895996,0.51416,0.575928,-54.702755,-33.317566,-14.556884,-0.143311,-0.52124,0.54541,15.533446,-38.444519,-60.806271
0.325439,-0.707764,0.446045,-14.663695,-58.151241,-2.243042,-0.834229,0.14209,0.754395,-22.979734,-40.138245,-3.715515
-1.584229,0.675049,0.991943,-169.624313,-249.992355,-103.889458,-0.892334,0.149658,0.705322,-25.573729,-39.81781,-6.118774
-0.530029,-0.894775,1.081055,-249.992355,249.992355,-248.313889,-0.939697,0.169434,0.645508,-26.19171,-34.507751,-7.67517
-0.962646,0.501953,1.015381,-247.879013,-249.992355,-137.123108,-0.921387,0.189453,0.633301,-25.230406,-30.4718,-7.67517
0.904297,-0.16626,-0.510254,-239.143356,-27.06909,-249.29808,-0.848877,0.197266,0.635254,-23.269651,-31.951902,-6.301879
-0.39502,-0.395264,0.291992,-248.878464,132.118225,-249.67955,-0.800293,0.190674,0.633545,-20.957945,-37.528992,-4.379272
0.354492,-0.651367,0.446533,-0.75531,-49.919125,-0.63324,-0.796875,0.178467,0.629395,-19.035339,-43.464657,-1.716614
0.373779,-0.61377,0.421875,6.523132,-44.403072,-2.044678,-0.819824,0.174316,0.596191,-17.982483,-46.44775,0.923157
0.390137,-0.599854,0.334961,9.994507,-34.492493,-8.956909,-0.879639,0.183105,0.563965,-17.707825,-43.739315,1.88446
0.36499,-0.602539,0.233398,8.537292,-25.192259,-15.510558,-0.914063,0.216553,0.555664,-16.716003,-26.672361,-0.328064
0.337402,-0.592041,0.161377,5.310058,-25.398252,-17.280579,-0.811768,0.163818,0.761963,-19.538879,-32.859802,1.182556
0.303711,-0.561035,0.178467,4.936218,-27.534483,-16.975403,-0.848389,0.211426,0.555176,-15.388488,-21.926878,1.396179
0.323486,-0.555908,0.217529,5.233764,-20.751951,-19.515991,-0.785645,0.175049,0.626221,-13.931273,-25.009153,2.334595
0.374756,-0.585449,0.217285,2.807617,-10.635375,-23.849485,-0.779053,0.136963,0.646973,-13.946532,-31.196592,-1.464844
0.493408,-0.604248,0.191406,-4.150391,-4.341125,-29.441832,-0.817139,0.101807,0.647705,-13.877868,-36.865234,-4.547119
0.637939,-0.468262,0.231445,-5.638122,-7.942199,-34.065247,-0.887207,0.070801,0.626221,-13.198852,-37.29248,-8.155823
0.367432,-0.695313,0.444336,-7.843017,-55.335995,-2.471924,-0.98291,0.04126,0.614258,-11.45172,-33.325195,-18.180847
1.041504,-0.258789,0.083984,-25.779722,-38.352966,-51.910397,-1.059082,0.010986,0.64624,-8.911133,-29.563902,-32.516479
0.786865,-0.302246,0.15625,-10.330199,-14.701842,-40.351864,-1.038086,0.008789,0.64917,-7.057189,-28.686522,-46.401974
1.632324,-0.152832,-0.05127,-143.737793,29.640196,-158.39386,-0.964111,0.012451,0.64624,-7.469177,-30.769346,-58.280941
1.244629,0.185791,0.227295,-100.913994,126.312248,-161.521896,-0.902344,0.013428,0.640137,-9.132385,-36.560059,-69.007874
0.834961,0.281494,0.364014,-92.559807,122.558586,-164.131149,-0.429199,-0.347168,0.645996,41.191097,-9.994507,-58.212276
0.717285,-0.049316,0.253174,-113.609306,43.067928,-154.800415,-0.799072,0.200684,0.581299,-14.389037,-21.591185,3.02124
1.920898,-0.250244,-0.569092,-199.707016,-71.411133,-206.756577,-0.812256,0.200684,0.721436,-19.058228,-23.597715,7.041931
0.927734,-0.250244,-0.0979,-80.215454,-113.655083,-90.270988,-0.926758,0.196533,0.553955,-17.730713,-35.774231,-0.350952
1.071045,-0.155762,-0.049072,-55.511471,-126.686089,-64.674377,-0.785889,0.294434,0.612305,-25.764463,-14.411925,13.908385
1.161621,-0.180908,0.096436,-38.795471,-89.736931,-57.136532,-0.805176,0.243652,0.658447,-21.118162,-17.021179,11.558532
0.835449,-0.277588,0.011963,-108.947746,-51.445004,-129.928589,-0.770996,-0.20874,0.542236,-23.124693,-46.150204,-57.945248
0.498047,-0.722168,0.313965,-34.133911,-75.569153,8.865356,-0.817627,-0.000977,0.549316,-34.439087,-28.038023,-66.841125
0.475098,-0.618896,0.043213,-61.515804,-74.378967,-12.5885,-0.679199,0.082031,0.53418,-40.664669,-27.404783,-61.019894
0.460205,-0.660645,0.067871,-55.290218,-70.640564,-9.307861,-0.831787,0.171387,0.506836,-50.712582,-17.555237,-57.258602
0.456787,-0.69043,0.099609,-49.919125,-66.238403,-6.17218,-1.030762,0.298584,0.547607,-36.5448,-2.5177,-98.327629
0.45459,-0.691406,0.134277,-46.096798,-62.591549,-2.738952,-0.739746,-0.044678,0.509766,-33.065796,0.663757,-115.83709
0.467285,-0.681152,0.164551,-43.289181,-62.171932,0.808716,-0.713379,-0.17627,0.454102,-50.842281,4.722595,-84.228508
0.497559,-0.682861,0.19458,-41.007992,-64.468384,3.196716,-0.708496,-0.036621,0.55835,-49.148556,9.437561,-70.747375
0.517822,-0.595215,0.013672,-68.351746,-75.889587,-17.63916,-0.708496,0.022461,0.550049,-64.147949,15.686034,-59.844967
0.506836,-0.699707,0.230957,-38.917542,-68.054199,5.126953,-0.69458,0.226074,0.638428,-67.596436,15.678405,-51.307674
0.499512,-0.718262,0.273193,-36.689758,-72.273254,7.362365,-0.415771,-0.368408,0.542725,-3.211975,-58.258053,-54.51202
0.491455,-0.722412,0.348145,-31.135557,-77.163696,9.307861,-0.666016,0.299316,0.70459,-71.922302,-1.51062,-33.958435
0.442383,-0.581299,0.470459,-10.673522,-60.234066,13.572692,-0.661133,0.287109,0.678711,-70.854187,8.399963,-41.984554
0.430176,-0.694092,0.402832,-23.422239,-75.469971,11.383056,-0.716309,0.385498,0.5896,-40.122986,-15.075683,9.170532
0.412354,-0.648926,0.435059,-18.753052,-72.07489,13.22174,-0.732666,0.39209,0.613525,-49.102779,-12.191772,1.464844
0.420166,-0.609619,0.456055,-14.663695,-67.070007,13.931273,-0.795654,0.37207,0.658691,-56.747433,-12.115478,-9.132385
0.450195,-0.559082,0.479736,-7.04956,-52.650448,14.640807,-0.858398,0.337402,0.686523,-61.752316,-14.831542,-16.342163
0.470215,-0.537598,0.483643,-4.508972,-46.905514,16.487122,-0.746582,0.339355,0.591797,-32.920837,-16.197205,12.687682
0.491699,-0.523682,0.484619,-2.006531,-43.395992,19.14978,-0.804932,0.275146,0.726807,-68.649292,-23.216246,-20.568846
0.506348,-0.517822,0.490723,0.289917,-41.778561,22.315977,-0.736816,0.264648,0.729492,-70.915222,-21.339415,-23.246763
0.53418,-0.51001,0.506836,2.731323,-41.549679,24.993895,-0.69043,0.286865,0.727783,-71.578979,-13.336181,-28.114317
0.558105,-0.515381,0.517334,5.622863,-42.442318,27.641294,-0.857422,0.298828,0.713135,-66.03241,-20.378111,-19.729614
0.570557,-0.57959,-0.030762,-75.775146,-74.97406,-23.071287,1.035645,-0.110107,1.229492,39.001465,-8.247375,81.55822
0.461182,-0.717041,0.375488,-27.458189,-77.079773,9.895325,1.670898,-1.258301,-1.738281,54.51202,249.992355,249.992355
0.609863,-0.568115,-0.09375,-82.534782,-72.662354,-27.114866,2.267822,-1.528076,-0.355713,101.425163,249.992355,249.992355
0.590088,-0.524658,0.523193,8.216858,-44.93713,30.494688,1.914795,-1.605469,0.020264,144.721985,154.251099,76.164246
0.654785,-0.54248,-0.220215,-85.456841,-70.716858,-32.737732,1.283691,-1.359619,0.347168,180.847153,99.96032,-63.865658
0.592041,-0.697754,-0.540039,55.465694,11.650084,22.361753,1.086182,-1.16626,0.551025,175.4608,70.121765,-71.075439
0.553955,-0.663818,-0.588623,45.234676,18.348694,48.21014,1.023926,-0.986572,0.777832,156.936646,44.273373,-30.784605
0.512451,-0.733154,-0.541016,34.721375,29.121397,61.477657,0.465576,-0.750488,-2.218994,66.40625,248.031601,236.762985
0.500732,-0.86792,-0.598877,22.300718,55.107113,56.617733,0.94458,-0.881592,0.931396,114.883415,27.488707,20.088194
0.598633,-0.874268,-0.583008,13.809203,79.681396,31.127928,0.949463,-0.517578,1.085205,69.664001,18.089294,59.570309
0.682129,-0.781494,-0.55127,11.96289,85.548393,12.96997,0.892334,0.169678,1.327393,20.301817,-38.383484,85.884087
0.718506,-0.684814,-0.529053,13.877868,74.714661,8.087158,0.358154,0.621826,0.970459,38.047791,-86.72332,38.864136
0.75415,-0.639893,-0.533447,14.076232,53.855892,10.086059,0.301514,0.510986,1.265869,26.44348,-82.389824,35.369873
0.831299,-0.645508,-0.556885,9.483337,19.14978,12.619018,0.270508,0.5896,1.186768,30.319212,-81.603996,28.717039
0.936768,-0.668701,-0.559082,0.534058,-34.240723,14.846801,0.315674,0.651123,1.071045,34.484863,-81.626884,36.979675
0.641602,-0.560547,-0.160645,-85.58654,-70.510864,-30.151365,0.386719,0.57666,0.922852,41.419979,-93.101494,40.145874
0.9646,-0.669678,-0.547852,-9.025574,-90.583794,18.081665,0.421143,0.513428,0.894043,46.173092,-98.937981,38.040161
0.69165,-0.631592,-0.485596,-26.824949,-138.160706,8.224487,0.447021,0.483887,0.866211,48.400875,-103.721611,33.64563
0.518066,-0.66333,-0.405762,-28.991697,-123.664848,4.325867,0.493164,0.502197,0.880127,49.140926,-112.159721,33.103943
0.55249,-0.779297,-0.414063,-33.64563,-129.257202,18.257141,0.48291,0.477051,0.844727,52.238461,-118.675224,31.272886
1.020752,-0.842041,-0.301514,-42.297359,-200.294479,26.351927,0.424316,0.39502,0.77832,55.046078,-119.331352,27.938841
1.440186,-0.80249,-0.371826,-57.891842,-245.330795,13.671874,0.625,-0.898682,-2.220459,-9.254456,249.992355,189.743027
1.632568,-0.64624,-0.309814,-66.085815,-187.652573,-17.318726,0.431641,0.4729,1.338623,21.263121,-77.941895,56.846615
1.204102,-0.549072,-0.135986,-66.03241,-117.103569,-37.239075,0.420898,-1.28833,-1.500977,-59.974667,200.91246,235.977158
0.80542,-0.587158,-0.260254,-72.036743,-92.979424,-37.612915,0.403809,0.24707,0.751221,55.099483,-115.165703,26.451109
0.694092,-0.558838,-0.310059,-79.994202,-84.114067,-36.155701,-0.050537,-0.905273,0.826904,37.895203,-247.421249,249.572739
0.658691,-0.537598,-0.281982,-84.19799,-75.462341,-34.080505,1.070801,-0.518311,-0.259277,-131.80542,-0.350952,155.11322
0.858887,-0.658203,-0.531494,-19.020081,-128.593445,17.189026,1.083496,-0.556641,0.183105,-131.17981,64.117432,175.323471
0.604736,-0.516846,0.517822,9.887695,-49.453732,33.409119,1.220459,-0.530518,0.601318,-135.490417,130.027771,196.121201
0.708984,-0.783691,-0.496338,62.477108,7.003784,15.441894,1.569824,-0.27124,0.883057,-111.54937,146.034241,222.976669
0.594971,-0.494873,0.506104,9.780884,-64.01825,39.360046,2.17749,0.198975,1.031982,-41.694637,93.032829,248.580917
0.512939,-0.759033,0.574463,3.814697,-37.841797,9.666443,2.597656,0.575439,0.966797,36.506653,-25.527952,249.992355
0.508545,-0.762939,0.571045,6.874084,-30.4718,5.935668,2.312256,0.825439,0.843262,91.209404,-183.334335,249.992355
0.518555,-0.748535,0.573486,10.06317,-25.260923,3.715515,1.833252,0.833252,0.64209,105.735771,-249.992355,249.992355
0.529053,-0.7229,0.575684,12.260436,-22.674559,3.059387,1.554443,0.813477,0.464111,86.006157,-249.992355,249.992355
0.519287,-0.698242,0.55835,13.038634,-19.104004,4.112244,1.540527,0.882568,0.47998,57.456966,-248.4207,249.992355
0.496582,-0.682861,0.550781,14.083861,-11.268615,5.851745,0.124756,-1.140137,-0.152832,-15.624999,-26.260374,249.992355
0.483398,-0.65625,0.557129,16.059875,0.396728,6.744384,1.463135,0.919434,0.739502,13.435363,-249.68718,249.992355
0.495361,-0.613037,0.564941,18.470764,13.97705,5.371093,0.815674,0.988525,0.699219,-108.52813,-194.389328,249.992355
0.530273,-0.573242,0.586182,20.851133,26.664732,2.27356,0.898438,1.140869,0.330322,-123.680107,12.21466,249.992355
0.582764,-0.527832,0.623047,22.941587,35.263062,-1.358032,1.140869,1.306152,-0.138672,-76.156616,175.140366,249.992355
0.521973,-0.733154,0.562744,1.342773,-44.219967,14.419555,1.462158,1.174072,-0.530518,0.37384,228.225693,249.992355
0.639893,-0.480713,0.645264,24.215696,37.635803,-4.760742,1.820801,0.787109,-0.652344,62.767025,161.293015,249.992355
0.722656,-0.401855,0.625488,23.689268,24.559019,-8.331299,2.018311,0.347412,-0.48291,99.014275,11.741637,249.992355
0.738525,-0.377686,0.622803,23.551939,15.464782,-9.864807,2.126465,-0.02417,-0.146973,121.109001,-164.459213,249.984726
0.733154,-0.355225,0.634521,25.245665,10.108947,-13.168334,1.914063,-0.4104,0.234863,128.15094,-247.207626,249.992355
0.703369,-0.332764,0.650391,28.755186,10.32257,-17.974854,1.327637,-0.756836,0.655273,109.474174,-246.772751,249.992355
0.6604,-0.306152,0.660645,33.546448,15.960692,-24.940489,0.558105,-0.881104,0.991943,75.050354,-249.992355,249.55748
0.613525,-0.255859,0.662842,38.398743,25.917051,-32.218933,1.091309,0.938721,0.850098,-50.47607,-249.992355,249.992355
0.568848,-0.203613,0.646973,42.587276,37.147522,-36.170959,0.394531,0.070313,0.740723,52.070614,-108.02459,26.93939
0.555908,-0.182129,0.594971,45.387264,45.494076,-36.552429,0.657471,0.380615,1.385742,16.319275,-64.086914,76.271057
0.567627,-0.201904,0.546875,47.012325,49.301144,-35.400391,0.401611,-0.052734,0.743652,44.113155,-116.195671,22.773741
0.559082,-0.265625,0.53125,49.049374,51.017757,-32.676697,0.381104,1.076904,1.520752,96.603386,-105.140678,182.846054
0.688477,-0.4375,0.638428,24.528502,33.424377,-7.263183,0.284424,1.445557,1.378174,199.508652,-177.680954,74.371338
0.543945,-0.696045,0.546387,-0.671387,-46.95892,19.287109,-0.186279,0.89209,1.274658,234.580978,-192.962631,40.27557
0.61084,-0.500977,0.509521,10.040282,-56.167599,35.850525,-0.373047,0.514648,1.14209,193.160995,-169.403061,44.265743
0.566895,-0.637451,0.493896,-3.387451,-44.250484,28.213499,-0.406738,0.154297,1.100098,104.347221,-131.744385,15.243529
0.558594,-0.496582,0.494385,9.529114,-71.975708,44.044491,-0.57959,-0.067871,1.329834,95.115654,-100.044243,10.185241
0.545654,-0.51416,0.482422,9.185791,-77.949524,47.637936,-0.490723,-0.209473,1.453613,147.621155,-107.070915,23.277281
0.537842,-0.532959,0.478027,9.040833,-80.001831,50.270077,-0.371338,-0.310303,1.390137,193.321213,-155.235291,16.647339
0.534424,-0.539551,0.490234,8.705139,-79.566956,52.665707,-0.595215,-0.556885,1.269287,206.83287,-190.139755,11.642455
0.546143,-0.537354,0.50415,7.621765,-78.453064,54.214474,-0.832764,-0.671875,1.158936,196.937546,-200.866684,8.323669
0.55542,-0.513672,0.506348,5.432128,-77.178955,55.90057,0.417725,1.106689,1.631836,17.112732,-15.823363,244.087204
0.561279,-0.666748,0.524902,-2.372742,-46.279903,23.979185,-0.941162,-0.75,1.051758,166.030869,-193.260178,0.793457
0.599609,-0.450684,0.462891,-1.88446,-78.277588,59.539791,-0.913086,-0.646484,0.964111,98.907463,-162.933334,-13.786315
0.637451,-0.431152,0.438477,-6.103515,-81.764214,60.394283,-0.87793,-0.593506,0.928711,71.006775,-140.50293,-11.390685
0.67041,-0.425049,0.439941,-9.33075,-87.844841,60.249325,-0.838379,-0.521729,0.880859,49.781796,-116.279594,-6.530761
0.688232,-0.438965,0.443115,-12.031554,-95.603935,59.341427,-0.789063,-0.421631,0.819092,34.950256,-93.330376,-0.930786
0.575684,-0.482178,0.494385,2.197266,-76.911926,57.884212,-0.734863,-0.331787,0.791504,26.741026,-74.272156,3.349304
0.637207,-0.476563,0.477295,-14.381408,-104.927055,54.962154,-0.665039,-0.259766,0.800049,23.307798,-61.82098,4.53186
0.595947,-0.46167,0.505859,-13.259887,-102.424614,52.696224,-0.604004,-0.221191,0.815186,20.76721,-55.114742,3.837585
0.584961,-0.442871,0.521729,-11.573791,-96.954338,49.743649,-0.579834,-0.205811,0.848145,18.417358,-51.414486,3.265381
0.582031,-0.445801,0.518555,-9.735107,-89.569084,46.379086,-0.572266,-0.208008,0.874268,15.99121,-49.194332,2.006531
0.561279,-0.464355,0.503418,-8.094788,-80.978386,43.472286,-0.569092,-0.211914,0.877686,14.801024,-47.981258,1.037598
0.545898,-0.484619,0.489746,-7.102966,-71.540833,41.374203,-0.933594,-0.700439,1.000488,130.088806,-180.358871,-10.025024
0.544434,-0.493652,0.482178,-6.141662,-61.798092,39.855957,-0.097168,0.680664,1.565186,-49.97253,54.718014,249.992355
0.562012,-0.503174,0.473389,-5.149841,-53.718563,37.994385,0.391846,-0.02417,0.712158,47.561642,-106.849663,25.413511
0.58374,-0.539063,0.466309,-4.707336,-48.049923,34.408569,-1.27124,0.823975,1.343994,96.946709,31.944273,238.34227
0.579346,-0.591309,0.473389,-4.15802,-44.486996,31.059263,-0.801514,0.301514,1.393066,12.33673,53.688046,249.702438
0.679443,-0.465576,0.451416,-14.114379,-102.455132,57.388302,0.206543,-0.235596,0.786621,36.705017,-125.022881,8.537292
0.075684,-0.593018,0.635254,40.206905,89.218132,29.617308,0.055176,-0.300293,0.733643,30.570982,-103.431694,0.740051
0.064697,-0.608643,0.631104,39.665222,89.469902,31.715391,-0.003174,-0.313477,0.65625,23.361204,-64.590454,1.060486
0.048828,-0.630371,0.634766,40.130615,88.302605,33.638,0.030518,-0.360352,0.612549,14.328002,-22.941587,8.239746
0.039551,-0.632813,0.635498,42.999264,86.09771,34.584045,0.097656,-0.48999,0.638184,4.692078,6.065368,12.046813
0.023438,-0.594482,0.613525,45.06683,105.178825,37.757874,0.246826,-0.613281,0.664795,-6.866455,14.060973,-8.43811
0.11084,-0.582031,0.664063,47.286983,87.745659,36.16333,0.33667,-0.419678,0.651367,-15.624999,13.389586,-23.101805
0.092773,-0.567383,0.661377,46.592709,95.802299,37.246704,0.561279,-0.169434,0.675293,-10.208129,-8.392334,-2.784729
0.066895,-0.561523,0.648438,46.493526,103.317253,37.010193,0.783936,0.01001,0.618896,7.896423,-53.421017,32.50885
0.081299,-0.607422,0.649902,46.089169,84.777824,34.90448,0.720947,-0.067139,0.47583,21.812437,-83.244316,59.906002
0.101074,-0.593506,0.648926,41.419979,86.21978,27.549742,0.337646,-0.129395,0.795654,41.084286,-126.731865,18.058777
0.183838,-0.682373,0.613281,41.717525,68.260193,31.440733,0.397949,-0.295898,0.407959,20.553587,-64.178467,68.229675
0.127197,-0.64502,0.657959,43.251034,76.118469,24.986265,0.3396,1.053711,0.652588,-11.634826,-102.279655,-2.693176
0.112305,-0.675781,0.653564,43.434139,74.577332,24.368284,0.576416,0.711182,0.75293,-62.843319,-170.17363,-132.736206
0.090576,-0.688477,0.638916,43.395992,76.568604,25.741575,0.593018,-0.621338,0.779053,-63.07983,-121.910088,-79.360962
0.082275,-0.685791,0.633057,43.098446,80.749504,28.602598,0.15918,0.301025,0.797607,37.261963,-59.04388,55.549618
0.100098,-0.668213,0.626465,42.633053,85.044853,30.838011,-1.124512,1.204834,0.962891,62.652584,18.585205,115.844719
0.147705,-0.651123,0.620117,42.655941,86.311333,31.616209,0.756104,-0.060791,0.739014,-18.920898,-70.304871,-74.157715
0.187988,-0.657227,0.614014,42.144772,84.213249,31.112669,0.652588,-0.422363,0.654541,9.918213,-22.941587,11.947631
0.208008,-0.672363,0.617676,41.15295,79.475403,30.418394,0.219238,-0.265625,0.574707,29.754637,13.534545,93.39904
0.224365,-0.695068,0.613037,39.916992,73.471069,30.006407,0.188477,-0.284912,0.460205,21.598814,-12.748717,85.762016
0.204834,-0.704102,0.608398,39.764404,68.855286,30.3421,-0.131592,0.853271,0.767578,16.090393,-49.507137,23.849485
0.084473,-0.626221,0.615479,44.990536,103.675835,40.443417,0.640625,-0.832764,0.693604,167.938217,-175.613388,-19.592285
0.119629,-0.610352,0.657471,42.503353,81.008904,25.993345,1.220459,-0.810791,0.835449,249.992355,-183.090195,-165.481552
0.125,-0.677246,0.621582,40.824886,120.521538,43.006893,1.162354,-0.86084,0.877197,249.80925,-220.855698,-140.220642
-0.259521,-0.309814,0.469482,117.355339,45.234676,84.350578,1.073242,-0.880127,0.9104,249.992355,-245.445236,-113.876335
-0.028076,-0.706787,0.558105,48.46191,133.781433,54.656979,0.974609,-0.90625,0.924805,249.992355,-249.992355,-90.064995
0.168945,-0.655029,0.606934,43.914791,71.403503,33.378601,0.89502,-0.938721,0.914795,242.538437,-249.992355,-69.740295
-0.811279,-0.156738,0.727783,170.867905,-0.045776,60.386654,0.786865,-0.953613,0.884521,218.383774,-235.153183,-49.652096
-0.551514,-0.10791,0.542236,179.946884,20.980833,71.502686,0.633057,-0.928955,0.85376,193.450912,-206.550583,-33.607483
-0.450195,-0.167236,0.503174,174.423203,28.343199,74.455261,0.54541,-0.879639,0.857422,177.47496,-182.01445,-26.069639
-0.41333,-0.170898,0.550293,166.397079,28.053282,74.84436,1.261963,-0.774414,0.799316,249.992355,-141.906738,-191.795334
-0.392822,-0.098389,0.585205,163.673386,26.786802,70.518494,0.180664,-1.181396,0.297119,77.018738,-123.344414,-24.383543
-0.552734,-0.116699,0.539551,160.865768,36.270142,69.114685,0.162598,-1.025146,0.349609,120.62072,-165.199265,-5.523681
-0.75,-0.281006,0.474609,148.696899,56.312557,72.608948,0.047607,-1.13208,0.275146,104.782097,-157.035828,-8.964539
-0.570801,-0.458496,0.474854,128.837585,63.911434,65.177917,0.112793,-1.170898,0.270264,89.256279,-144.927979,-20.462034
-0.446777,-0.328125,0.6875,138.473511,33.576965,59.600826,0.413086,-1.17041,0.26001,-22.674559,-37.04834,9.635925
0.026367,-0.716064,0.590332,42.884823,133.049011,46.745296,0.220947,-1.258545,0.379883,62.873837,-95.336906,-21.377562
-0.559814,-0.24585,0.510254,153.388977,6.088256,77.758789,0.270264,-1.302734,0.432373,43.609615,-73.760986,-18.203735
-0.30957,-0.29541,0.409424,128.02124,35.369873,86.570732,0.351563,-1.242432,0.534424,27.053831,-62.667843,-14.831542
-0.256836,-0.412842,0.467773,103.744499,54.38232,81.497185,0.41333,-1.231934,0.630859,8.735657,-57.350155,-6.896972
-0.262939,-0.546631,0.48584,85.746758,65.979004,74.562073,0.4104,-1.221436,0.420166,-12.33673,-50.376888,2.304077
-0.318848,-0.516602,0.51123,78.24707,74.798584,68.786621,1.325439,-0.770996,0.760498,247.550949,-99.609367,-219.978317
-0.287598,-0.42041,0.560059,78.285217,82.519524,70.251465,0.60498,-0.843994,0.531494,154.388428,-178.054794,-11.177062
-0.235107,-0.463623,0.535645,70.915222,89.530937,72.052002,1.334229,-0.755859,0.706543,235.115036,-58.517452,-245.567307
-0.175537,-0.479736,0.564209,67.588806,103.393547,67.985535,0.831543,-0.43335,-0.010986,76.713562,40.184017,-249.992355
-0.131104,-0.515381,0.543701,64.682007,113.327019,66.215515,1.237305,-0.767822,0.551025,202.468857,8.300781,-249.832138
-0.073242,-0.567627,0.552246,61.378475,118.682854,64.14032,0.732178,0.310547,-0.375732,-94.795219,-233.993515,-249.992355
-0.052734,-0.63916,0.557129,56.709286,126.304619,60.363766,0.562988,0.315918,-0.48291,-80.848686,-211.189255,-249.992355
-0.450195,-0.296143,0.357422,143.157959,14.869689,89.141838,0.435791,0.318359,-0.55127,-66.230774,-171.028122,-249.992355
0.171875,-0.648926,0.577881,45.272823,76.339722,35.095215,0.331787,0.258057,-0.546143,-53.25317,-121.74987,-249.992355
0.190674,-0.665771,0.544434,45.082088,82.283012,35.255432,0.370605,0.163574,-0.458008,-42.633053,-76.507568,-249.992355
0.219727,-0.694092,0.514404,42.755123,88.340752,34.866333,0.503174,0.078125,-0.309326,-30.250547,-39.1922,-249.992355
0.452637,-0.63623,0.084473,81.527702,129.417419,11.314391,0.660645,0.026611,-0.222656,-12.451171,-14.289855,-249.992355
0.4729,-0.621582,0.073242,87.921135,123.420708,9.735107,0.735107,-0.026611,-0.135742,4.325867,0.007629,-249.992355
0.504883,-0.614502,0.054932,94.696037,110.000603,11.123656,0.67627,-0.105225,-0.080322,16.395569,6.904602,-249.992355
0.566406,-0.650391,0.035645,97.267143,88.912956,12.512206,0.660889,-0.187744,-0.042725,27.976988,7.148742,-249.992355
0.620117,-0.643311,-0.01123,101.745598,67.626953,13.931273,1.283203,-0.752197,0.634033,218.368515,-22.018431,-249.992355
0.585449,-0.594482,-0.01001,106.750481,48.97308,18.295288,0.697754,-0.260498,0.005859,39.56604,6.04248,-249.992355
0.503662,-0.60791,0.025391,104.087822,33.744812,22.78137,0.745117,-0.394043,-0.009277,62.164303,23.651121,-249.992355
0.538818,-0.666748,-0.05249,101.135246,24.444578,25.100706,0.387695,-1.167725,0.233643,-29.33502,-21.461485,14.213561
0.614014,-0.65625,-0.066162,103.86657,15.99121,25.329588,0.919189,-0.464111,0.010986,94.329826,57.617184,-249.992355
0.658447,-0.612549,-0.105957,106.666557,7.873535,24.871824,1.008057,-0.511719,0.052246,113.121025,71.403503,-249.992355
0.399414,-0.651367,0.080811,78.620911,129.66156,14.457702,1.036377,-0.601807,0.119385,128.143311,81.611626,-249.992355
0.698975,-0.638428,-0.149902,103.698723,-1.716614,25.55084,1.04834,-0.695313,0.193115,139.73999,86.364738,-249.992355
0.732178,-0.644043,-0.183594,102.691643,-17.723083,25.657652,1.137939,-0.733154,0.260986,152.275085,82.489006,-249.992355
0.740234,-0.665283,-0.210449,100.33416,-20.523069,23.651121,1.255859,-0.73877,0.340088,165.496811,71.372986,-249.992355
0.729248,-0.671143,-0.205566,98.327629,-20.095823,21.186827,1.268311,-0.751953,0.404297,177.185043,54.77142,-249.992355
0.701172,-0.654785,-0.178467,98.022453,-18.104553,20.439146,1.226318,-0.765869,0.47168,188.903793,34.072876,-249.855026
0.693115,-0.64502,-0.162354,98.342888,-15.342711,20.843504,0.741455,-0.334473,0.021484,50.270077,11.062621,-249.992355
0.710205,-0.6521,-0.18335,97.908012,-12.329101,20.484922,0.378174,-1.159912,0.216553,-32.798767,-6.91986,16.815186
0.712402,-0.665527,-0.228271,96.29821,-8.468628,20.13397,0.385498,-0.91748,0.436523,137.09259,-174.400314,-6.469726
0.710938,-0.686279,-0.281494,92.880241,-3.944397,20.042419,0.355225,-1.130371,0.186279,-34.439087,3.890991,17.189026
0.71167,-0.721924,-0.347412,87.188713,0.091553,19.721985,0.586426,-2.619141,1.048096,6.896972,121.177666,15.655517
0.685791,-0.748535,-0.398193,80.757133,3.860473,21.156309,2.176758,-2.686768,0.358643,36.209106,59.059139,79.055786
0.721924,-0.642578,-0.152344,102.958672,-11.222838,25.779722,1.477295,-1.344482,0.164063,81.260674,-31.044004,105.705254
0.335693,-0.666992,0.096436,78.460693,123.001091,16.937256,0.586426,-0.921387,0.496094,89.698784,-96.969597,102.874748
0.681885,-0.781982,-0.45166,72.135925,6.332397,21.728514,0.073486,-0.893799,0.92041,60.752865,-99.929802,87.326042
0.278076,-0.700439,0.106689,80.070496,91.461174,16.593933,0.032715,-0.876465,1.321533,14.518737,-62.57629,75.09613
0.248047,-0.7229,0.495605,39.390564,93.681328,33.538818,0.008789,-0.781494,1.432129,-30.387877,-21.049498,65.811157
0.261475,-0.741943,0.498535,36.697388,99.594109,31.944273,0.189453,-0.745117,1.484375,-65.826416,-8.918762,48.583981
0.275146,-0.741455,0.5271,35.636902,105.133049,31.387327,0.46167,-0.623047,1.185303,-90.286247,0.030518,44.197079
0.334717,-0.738525,0.567139,35.354614,104.164116,28.602598,0.376221,-0.640137,0.502197,-114.898674,-11.856078,34.667969
0.351807,-0.7146,0.603516,37.437439,99.403374,24.322508,-1.18042,-1.517578,1.014893,5.485534,118.22509,4.310608
0.28833,-0.667236,0.676514,44.372555,96.450798,22.048948,0.300049,-0.672607,0.32251,-125.213615,-12.96234,23.475645
0.299561,-0.677002,0.105469,79.238892,109.619133,17.51709,0.554199,-0.785645,0.168945,-157.600403,-4.40979,21.583555
0.285645,-0.5896,0.657715,63.095089,90.484612,23.53668,0.692383,-0.839111,0.201416,-172.424301,2.807617,27.44293
0.320313,-0.576416,0.627686,71.098328,87.509148,27.19116,0.814941,-0.978516,0.223877,-183.670029,21.621702,35.453796
0.387939,-0.578613,0.593506,77.430725,83.183281,29.182432,0.887695,-1.213867,0.176758,-198.486313,46.394344,53.894039
0.41626,-0.614502,0.543701,80.444328,79.704285,28.663633,1.121338,-1.307617,0.105957,-200.28685,49.194332,79.742432
0.273926,-0.615723,0.700439,54.084774,93.322746,21.575926,1.345703,-1.243408,-0.026855,-184.165939,14.717101,98.869316
0.366455,-0.682861,0.474609,84.144585,81.710808,27.19879,1.385498,-1.034912,-0.199707,-162.384018,-29.563902,118.408195
0.378174,-0.695313,0.451172,87.028496,82.06176,27.366636,1.303711,-0.749756,-0.400391,-145.507813,-49.041744,140.113831
0.419189,-0.700195,0.415039,89.950554,77.9953,26.123045,1.173584,-0.583496,-0.420166,-138.778687,-39.680481,149.95575
0.445068,-0.707031,0.365479,91.155998,70.526123,23.406981,0.325684,-1.08252,0.189209,-35.995483,10.353087,14.953612
0.430176,-0.703369,0.333496,93.345634,63.293453,20.843504,0.367188,-0.71167,0.209961,-138.214111,-9.58252,19.081116
0.418213,-0.702148,0.278809,95.931999,57.79266,18.661499,-0.69458,-0.947021,0.799316,22.445677,40.084839,33.126831
0.408691,-0.722656,0.213623,95.443718,54.901119,17.471313,0.406494,-0.695557,0.684082,-107.76519,-3.700256,40.794369
0.387695,-0.747803,0.171143,91.918938,54.565426,16.654968,0.901367,-0.621338,0.472412,11.848449,-73.860168,39.321899
0.364258,-0.751953,0.135254,87.005608,60.035702,15.441894,0.500977,-0.765137,0.711182,22.506712,-49.392696,32.928467
0.304688,-0.736816,0.111328,82.626335,73.516846,15.373229,0.30835,-0.989014,0.19873,-37.086487,11.146544,12.138366
0.405518,-0.655273,0.502441,82.015984,79.620361,27.137754,0.28418,-0.97583,0.184326,-35.301208,5.088806,10.604857
-0.695557,0.210938,0.782715,-11.627196,-8.865356,-10.620116,0.224854,-0.980469,0.144043,-33.592224,-0.762939,8.903503
-0.69165,0.207764,0.794678,-11.230468,-7.209777,-8.911133,0.209229,-1.005127,0.104736,-34.27887,-1.312256,8.964539
-0.69458,0.208984,0.794189,-9.95636,-5.180358,-6.530761,0.227295,-1.026367,0.12085,-37.864685,3.723144,10.635375
-0.693848,0.210693,0.784668,-8.06427,-2.677917,-4.264832,0.28833,-1.029785,0.166992,-43.075558,10.398864,13.114928
-0.740967,0.21167,0.743652,0.297546,0.549316,1.823425,0.338623,-1.001953,0.186768,-47.546383,14.907836,16.021729
-0.700684,0.191406,0.755615,-4.447937,1.785278,-0.411987,0.340088,-0.975098,0.179443,-50.506588,16.525269,18.52417
-0.719971,0.186279,0.738281,-2.548218,2.609253,1.060486,0.317139,-0.970215,0.149902,-52.12402,13.664245,20.668028
-0.732666,0.19751,0.737061,-0.854492,1.998901,1.396179,0.253906,-0.969971,0.119141,-53.695675,10.185241,22.758482
-0.694092,0.203369,0.768311,-6.286621,-0.076294,-2.410889,0.253174,-0.982178,0.13916,-54.534908,6.500244,26.107786
-0.705811,0.214844,0.76709,-11.894225,-9.147644,-10.864257,0.313477,-1.02124,0.205811,-37.208557,12.924193,13.153075
-0.679932,0.246582,0.765137,3.77655,1.037598,6.92749,0.944824,-0.495605,0.205811,-3.417969,-45.799252,50.811764
-0.726563,0.26416,0.756348,-7.949829,-7.965087,-8.18634,0.180908,-0.95874,0.237061,-56.159969,5.935668,33.348083
-0.725098,0.284668,0.736816,-5.348205,-7.659912,-6.568908,0.249268,-0.932617,0.297607,-56.106564,6.958007,36.346436
-0.724121,0.298096,0.716553,-3.318786,-6.774902,-5.760192,0.342285,-0.884521,0.34082,-51.223751,3.799438,38.894653
-0.747314,0.311768,0.723877,-0.915527,-3.852844,-5.470275,0.351563,-0.902344,0.328613,-44.494625,-0.274658,42.594906
-0.766602,0.323242,0.74707,2.090454,0.213623,-4.905701,0.251709,-0.950928,0.272461,-40.618893,-0.480652,46.882626
-0.756348,0.317383,0.760986,4.722595,3.334045,-3.768921,0.164307,-1.020508,0.161865,-45.410152,11.604308,48.59161
-0.719482,0.291016,0.750488,5.783081,4.768372,-2.731323,0.307617,-0.999512,0.179443,-52.413937,27.870176,48.568722
-0.682617,0.269531,0.73999,5.561828,4.348755,-1.457214,0.586426,-0.798584,0.139648,-48.774715,26.260374,46.463009
-0.666504,0.262207,0.739258,4.53186,3.112793,0.75531,0.879395,-0.572266,0.091064,-28.45001,-3.14331,48.957821
-0.672119,0.260498,0.75,3.982544,2.090454,3.555298,0.21875,-0.984375,0.197998,-54.901119,4.249573,29.792784
-0.729004,0.217529,0.752197,1.052856,-0.938415,2.372742,0.38916,0.578857,0.70459,-60.607906,26.611326,-8.255005
-0.718506,0.233887,0.765137,-10.719298,-8.430481,-10.025024,0.390869,0.572754,0.717041,-61.302181,25.070189,-6.561279
-0.707275,0.217041,0.759521,1.953125,-1.319885,2.944946,0.378906,0.552979,0.73291,-61.515804,25.024412,-4.943848
-0.659668,0.219238,0.788818,3.196716,5.424499,5.447387,0.366455,0.520508,0.731445,-60.577389,25.253294,-3.456115
-0.702148,0.216797,0.759766,3.509521,1.937866,4.905701,0.360107,0.496094,0.673584,-57.53326,31.280516,13.511657
-0.687744,0.218506,0.773438,3.280639,0.701904,10.108947,0.364746,0.506104,0.689697,-56.831356,25.459288,1.586914
-0.739014,0.265625,0.728271,-9.277344,-14.678954,-6.591796,0.366699,0.511963,0.670654,-55.732723,26.321409,6.301879
-0.775879,0.289551,0.73291,-6.67572,-11.436461,-3.547668,0.364746,0.514404,0.664795,-55.946346,28.350828,10.45227
-0.784668,0.321045,0.740479,-3.326416,-8.377075,-0.175476,0.378418,0.572021,0.695801,-60.066219,29.594419,-9.101868
-0.786865,0.344727,0.749268,0.190735,-5.928039,3.211975,0.359863,0.503906,0.711914,-58.631893,25.3067,-1.609802
-0.783691,0.353516,0.756348,3.555298,-3.639221,5.584716,0.381348,0.561768,0.686279,-58.868404,33.416748,-10.154723
-0.769775,0.342529,0.76123,5.928039,-2.02179,7.026672,0.417725,0.579102,0.64917,-61.737057,30.059813,-25.520323
-0.747314,0.323975,0.757568,7.110595,-1.525879,7.644653,0.394531,0.557129,0.683594,-57.579037,36.018372,-17.044067
-0.728271,0.303467,0.74585,7.499694,-1.89209,7.614135,0.408936,0.555664,0.68457,-58.341976,34.835815,-20.660398
-0.728271,0.274414,0.728027,7.095336,-0.953674,7.30133,0.421875,0.563721,0.68042,-59.814449,32.623291,-23.178099
-0.700928,0.214355,0.760742,2.89917,-0.015259,3.959656,0.433105,0.573975,0.671875,-61.035152,30.433653,-24.307249
-0.740479,0.24292,0.728271,5.889892,2.555847,7.064819,0.404053,0.5896,0.626221,-61.56921,30.754087,-26.847837
-0.694092,0.218994,0.776123,4.096985,6.729125,6.065368,0.412109,0.608398,0.596436,-60.241695,31.044004,-28.45764
-0.642334,0.210205,0.787109,2.052307,3.784179,4.386902,0.416016,0.627686,0.573486,-58.235165,31.394957,-29.235838
-0.643066,0.203857,0.786377,1.174927,2.502441,3.387451,0.415039,0.642334,0.567627,-56.52618,32.478333,-28.572081
-0.650879,0.198242,0.795166,0.923157,1.38092,2.89154,0.428467,0.66333,0.580566,-55.099483,33.660889,-26.710508
-0.664063,0.199707,0.789307,0.846863,0.854492,3.089905,0.446045,0.687744,0.60376,-53.611752,33.691406,-24.597166
-0.678955,0.210205,0.780273,0.991821,1.251221,3.684997,0.387939,0.5625,0.682129,-57.846066,35.858154,-13.305663
-0.69165,0.223877,0.775391,1.556396,1.983642,4.272461,0.347168,0.47583,0.696533,-59.761044,34.072876,14.22882
-0.706055,0.235107,0.772217,2.494812,2.731323,4.943848,0.460938,0.675537,0.626221,-52.307125,30.357359,-25.184629
-0.715576,0.23999,0.768799,3.555298,3.135681,5.645751,0.353271,0.436768,0.761719,-66.299438,40.130615,6.362915
-0.709961,0.226074,0.762207,3.860473,2.983093,5.638122,-0.182617,-0.073975,0.497803,-117.477409,152.656555,-23.963926
-0.732666,0.225586,0.752686,4.882813,5.935668,6.752014,-0.307861,-0.134033,0.35791,-129.936218,173.439011,-26.336668
-0.703857,0.1875,0.787598,2.418518,1.060486,13.015746,-0.299561,-0.039551,0.404785,-133.743286,207.374557,-40.931698
-0.69873,0.250732,0.739014,-10.70404,-16.220093,-9.178162,-0.07251,0.103516,0.584473,-126.838676,206.817612,-44.151302
-0.706787,0.152832,0.825439,-0.335693,0.938415,16.448975,0.084229,0.148926,0.631836,-118.591301,187.019333,-40.412899
-1.05957,1.19751,0.809814,117.080681,38.406372,41.198727,0.148926,0.220459,0.632813,-115.135185,167.259201,-35.919189
-1.020996,1.17627,0.590576,128.059387,45.669552,66.398621,0.165283,0.338379,0.64502,-108.108513,153.755188,-29.70886
-1.044678,0.992676,0.435791,116.645805,50.704952,97.251884,0.144287,0.317139,0.618408,-104.827873,144.104004,-30.662535
-1.084961,0.91333,0.365234,113.807671,64.468384,118.370049,0.07666,0.33374,0.608398,-99.57885,150.856018,-43.731686
-1.049316,0.836426,0.301025,118.690483,88.073723,129.936218,0.205811,0.340332,0.633057,-97.328178,152.992249,-51.292416
-0.895264,0.702637,0.129883,123.89373,114.242546,128.234863,0.34668,0.460449,0.727539,-63.270565,36.872864,11.085509
-0.564941,0.570557,-0.070557,123.825066,120.986931,113.952629,0.255859,0.385742,0.712891,-92.666618,147.315979,-46.058651
-0.081543,0.440186,-0.197754,118.09539,96.244804,88.661186,0.363525,0.278076,0.753174,-96.038811,127.586357,-34.889221
0.318359,0.258545,-0.192627,105.560295,47.248837,61.882015,0.402832,0.341553,0.720215,-94.337456,114.936821,-28.099058
0.481201,-0.017334,-0.029541,91.072075,5.348205,25.596617,0.429932,0.426758,0.678467,-89.340202,99.914543,-20.751951
-1.212158,1.073486,1.015381,84.686272,27.992247,28.976439,0.398438,0.489258,0.629395,-83.152763,87.699883,-15.571593
0.280762,-0.261475,0.139648,74.012756,-17.585754,-6.881713,0.354736,0.51416,0.595703,-77.827454,81.863396,-13.85498
-0.452881,-0.323975,0.262207,14.816283,-40.725704,28.800962,0.354736,0.518066,0.616699,-72.731018,79.841614,-13.488769
-0.477051,-0.066162,0.580322,21.77429,-64.369202,34.164429,0.352295,0.549316,0.686768,-65.467834,76.385498,-12.351989
-0.37085,0.069092,0.645508,42.488094,-89.523308,-31.387327,0.428711,0.442383,0.744629,-62.484737,62.919613,-5.569458
-0.930664,0.203613,0.943604,77.568054,10.086059,-130.012512,0.401367,0.396973,0.759766,-65.811157,49.873348,-0.434875
-2.989258,-0.298096,0.572754,15.144347,208.183273,-79.483032,0.371582,0.411133,0.768555,-67.03949,43.655392,3.067016
-4.067871,-0.405518,2.022949,-151.947021,249.992355,42.449947,0.302246,0.28418,0.746826,-94.40612,138.404846,-39.970398
-1.739014,2.836426,6.011719,46.470638,249.992355,79.50592,-0.190674,-0.0354,0.573975,-111.518852,149.57428,-24.322508
0.275391,3.083984,4.801514,248.725876,61.202999,-0.63324,0.459473,0.644531,0.666504,-51.23901,24.314878,-27.297972
-0.342285,0.05249,1.959961,172.523483,-44.509884,4.188538,0.429932,0.567627,0.74707,-51.475521,11.764525,-28.091429
-0.765381,-0.425537,1.099854,145.095825,-28.312681,25.367735,0.955811,0.405029,0.383301,-60.073849,-35.331726,-48.156734
-0.183594,-0.4021,0.153076,42.442318,-31.303404,2.929687,1.046875,0.33374,0.391357,-66.726685,-39.710999,-47.744747
-1.342529,0.948486,1.087402,47.378536,21.743773,15.846251,1.2771,0.280273,0.418701,-73.379517,-71.624756,-45.166012
-0.712402,0.168213,0.807129,1.480102,1.342773,15.296935,1.348389,0.228271,0.406494,-79.826355,-111.41967,-41.854855
-1.171631,0.716797,0.871826,-17.707825,1.548767,-3.65448,1.328857,0.189209,0.367676,-86.357109,-136.062622,-41.168209
-0.696533,0.14624,0.829834,-2.838135,-0.175476,15.640258,1.236084,0.121826,0.361084,-99.304192,-147.30835,-41.259762
-0.715088,0.148926,0.828125,-4.959106,-0.717163,13.183593,1.04834,0.111328,0.344482,-114.204399,-137.115479,-41.481014
-0.730469,0.125,0.814209,-6.980896,1.174927,9.95636,0.949463,0.128174,0.331787,-128.608704,-118.873589,-47.889706
-0.735107,0.080078,0.804199,-9.063721,6.202697,6.065368,0.9646,0.130371,0.340088,-143.188477,-111.335747,-59.188839
-0.733887,0.048828,0.817139,-10.299682,12.916564,1.754761,1.091309,0.12793,0.367188,-155.517578,-122.00164,-70.121765
-0.721924,0.031494,0.856445,-9.788513,18.814087,-2.029419,1.022705,0.440674,0.402832,-55.229183,-43.457027,-61.874386
-1.345947,0.853516,1.015869,10.391234,13.420104,5.821228,1.237793,0.126709,0.362305,-161.987289,-154.090881,-79.910278
-0.666016,0.000488,0.937988,-7.461547,23.483274,-9.361267,1.200195,0.108154,0.286377,-165.786728,-245.307907,-107.673637
-0.617188,-0.002441,0.954834,-6.004333,21.850584,-14.030456,0.949463,0.095459,0.198486,-163.154587,-249.847397,-134.124756
-0.561523,-0.006592,0.948975,-5.401611,16.120911,-20.1416,0.689697,0.053223,0.067383,-164.215073,-249.877914,-166.778549
-0.522705,-0.012451,0.915039,-6.774902,8.262634,-27.763365,0.463623,0.073242,-0.043701,-164.817795,-249.992355,-200.813278
-0.701904,0.014404,0.90332,-8.712769,22.193907,-5.340576,0.42041,0.155029,-0.064941,-160.659775,-244.972214,-232.429489
-0.503418,0.063721,0.84375,-11.039733,-10.864257,-43.220516,0.506348,0.22876,-0.098145,-156.333923,-221.885666,-249.122604
-0.546143,0.115967,0.812988,-14.305114,-16.853333,-48.59161,0.623535,0.311523,-0.146973,-149.673462,-207.084641,-249.992355
-0.614014,0.178711,0.786133,-18.592834,-18.486023,-51.300045,0.760254,0.373779,-0.187744,-138.793945,-207.47374,-249.992355
-0.662109,0.267334,0.748779,-22.247313,-16.433716,-50.788876,0.852051,0.38208,-0.234131,-123.847954,-220.832809,-249.992355
-0.665039,0.371094,0.698242,-25.390623,-13.71765,-47.782894,0.855957,0.341553,-0.298096,-108.757011,-235.275253,-249.992355
-0.651611,0.469482,0.656494,-28.045652,-12.939452,-43.113705,1.307861,0.10791,0.332275,-165.969833,-205.497726,-90.705864
-0.63623,0.540039,0.627686,-30.326841,-12.741088,-37.643433,1.042969,0.474854,0.444336,-53.405758,-43.624874,-81.779472
-0.635742,0.57959,0.625,-32.37915,-11.878966,-32.119751,0.446777,0.606445,0.724121,-50.315853,17.539978,-27.717588
-0.712158,0.61377,0.675781,-32.676697,-10.856627,-25.863646,0.726563,0.568359,0.444092,-55.747982,-23.803709,-94.764702
-0.909668,0.634521,0.751465,-29.846189,-7.141113,-15.945434,0.412598,0.561279,0.727295,-53.1311,9.231567,-29.472349
-0.506104,0.015381,0.881104,-8.666992,-1.251221,-35.835266,0.400879,0.568604,0.6875,-53.497311,9.773254,-30.891417
-0.674316,0.202881,0.790039,-1.296997,-3.959656,4.03595,0.398438,0.602783,0.652588,-52.444454,12.443542,-31.715391
-0.677246,0.202881,0.803711,-3.15094,-4.722595,2.685547,0.397705,0.632813,0.638428,-51.681515,18.501282,-31.867979
-0.680176,0.200684,0.814697,-5.302429,-5.294799,0.823975,0.414551,0.650879,0.620605,-51.963802,26.031492,-31.379698
-0.676025,0.195557,0.82251,-7.827758,-5.958557,-1.190186,0.445801,0.651123,0.603516,-52.185055,30.174253,-30.517576
-0.618164,0.149658,0.862061,-14.328002,-9.44519,-7.446289,0.859131,0.525391,0.469482,-54.939266,-31.425474,-96.527092
-0.641113,0.188477,0.834717,-11.528014,-7.728576,-4.386902,0.509766,0.633301,0.565186,-51.132198,27.709959,-30.227659
-0.635498,0.176758,0.849854,-12.786864,-8.529663,-5.500793,0.508789,0.612305,0.545898,-52.276608,22.40753,-32.104492
-0.624756,0.158447,0.855957,-13.71765,-9.017944,-6.660461,0.5,0.591797,0.539307,-55.091854,17.578125,-33.447266
-0.65918,0.189697,0.824463,-9.95636,-6.782531,-3.067016,0.506348,0.588623,0.517578,-58.204647,13.313293,-33.935547
-0.675781,0.200195,0.777588,-0.015259,-2.967834,4.882813,0.478271,0.638184,0.586182,-51.986691,30.128477,-29.670713
-0.677246,0.171143,0.7854,-4.203796,-0.488281,1.00708,0.504395,0.619629,0.40332,-60.623165,8.178711,-34.0271
-0.667236,0.205811,0.780518,0.785828,-1.831055,5.050659,0.508057,0.609131,0.456543,-60.127254,10.391234,-33.279419
-0.6604,0.200684,0.782715,0.495911,-2.510071,4.295349,0.635986,0.600586,0.38916,-49.98016,-16.136169,-71.128845
-0.668945,0.185547,0.783203,-0.267029,-3.280639,3.822326,0.592773,0.632813,0.364746,-48.522945,-10.383605,-61.164852
-0.692383,0.175781,0.794434,-1.350403,-3.14331,3.52478,0.555664,0.655029,0.324463,-48.439022,-6.04248,-52.772518
-0.71167,0.185303,0.818604,-1.533508,-3.14331,3.448486,0.530762,0.68335,0.29541,-48.927303,-1.960754,-45.555111
-0.714355,0.206787,0.832031,-0.442505,-3.837585,4.135132,0.680664,0.587158,0.416504,-53.192135,-21.224974,-82.756035
-0.704346,0.198242,0.803711,-0.030518,-2.952575,4.196167,0.516846,0.694092,0.293945,-53.268429,4.898071,-35.606384
-0.696289,0.185303,0.788086,-0.526428,-1.548767,3.570556,0.508545,0.679932,0.30249,-56.465145,6.690979,-33.126831
-0.684326,0.180176,0.780762,-1.38092,-0.869751,2.937317,0.499268,0.663818,0.334473,-58.79211,7.17163,-33.39386
-0.678955,0.17334,0.779297,-2.601623,-0.602722,1.937866,0.502197,0.639648,0.370605,-60.241695,7.026672,-34.759521
-0.615723,0.141846,0.863037,-14.587401,-9.628296,-8.079529,0.519287,0.689941,0.288086,-50.956722,1.777649,-40.100098
-0.675293,0.202148,0.777832,0.640869,-2.082825,5.332946,-0.43042,-0.23999,0.929199,7.225036,-15.953063,5.516052
-0.612549,0.134277,0.868652,-14.457702,-9.887695,-8.560181,-0.423828,-0.230225,0.930176,10.032654,-19.256592,6.561279
-0.638428,0.131836,0.848389,-1.968384,-0.946045,-2.998352,-0.421631,-0.219971,0.920898,13.145446,-21.52252,7.369995
-0.594727,0.109619,0.87085,-13.580321,-9.880066,-9.002686,-0.414795,-0.211914,0.908936,15.304564,-22.3999,7.17163
-0.67041,0.172119,0.800781,-5.447387,-0.778198,-0.076294,-0.420898,-0.215088,0.903809,15.220641,-21.202085,6.561279
-0.69751,0.236572,0.765381,5.40924,4.348755,2.89154,-0.444336,-0.230225,0.903809,13.412475,-17.799377,6.805419
-0.705811,0.226074,0.769775,6.515502,5.744934,2.6474,-0.463379,-0.248047,0.888916,10.803222,-12.21466,7.888793
-0.706299,0.21875,0.777832,7.331848,6.950378,2.250671,-0.469238,-0.27002,0.869385,7.240295,-6.309509,8.483887
-0.704102,0.209717,0.789795,7.644653,7.591247,1.953125,-0.479736,-0.289307,0.860107,2.822876,-2.922058,7.102966
-0.681885,0.203125,0.793457,7.308959,7.064819,1.113892,-0.491211,-0.277588,0.868408,-0.335693,-1.914978,5.683898
-0.658691,0.195801,0.786865,6.118774,5.195617,0.114441,-0.392822,-0.209961,0.953369,-7.92694,-2.807617,-10.45227
-0.644287,0.179199,0.782715,4.493713,3.387451,-1.029968,-0.477539,-0.250244,0.87793,-2.929687,1.693725,3.662109
-0.642578,0.16333,0.793213,2.426147,1.930237,-2.250671,-0.462402,-0.237305,0.872314,-2.555847,3.829956,1.319885
-0.656738,0.161621,0.814941,1.213074,0.709534,-2.685547,-0.467773,-0.240967,0.881592,-2.319336,6.896972,-0.427246
-0.606201,0.122559,0.874512,-14.144897,-10.284423,-8.804321,-0.458252,-0.247803,0.894287,-2.01416,10.185241,-1.289368
-0.658691,0.15332,0.824219,0.25177,0.12207,-2.456665,-0.440674,-0.239258,0.904785,-1.159668,11.993407,-2.120972
-0.640625,0.13501,0.838623,-1.319885,-0.12207,-2.799988,-0.419189,-0.21875,0.911865,-0.152588,12.893676,-3.578186
-0.635498,0.126465,0.855713,-2.555847,-1.602173,-3.387451,-0.393555,-0.19751,0.923096,0.640869,12.245177,-5.569458
-0.621582,0.123779,0.859863,-2.967834,-2.5177,-3.845215,-0.384766,-0.188965,0.934814,0.305176,9.628296,-8.010864
-0.601074,0.11499,0.854004,-3.822326,-3.64685,-4.40979,-0.386475,-0.196289,0.943359,-1.678467,5.516052,-10.482787
-0.592529,0.092529,0.840088,-5.531311,-4.722595,-5.439758,-0.394287,-0.202148,0.947998,-4.440308,1.13678,-11.650084
-0.590332,0.082275,0.843262,-7.263183,-5.859375,-6.607055,-0.424805,-0.244629,0.929932,5.439758,-12.229918,5.073547
-0.590088,0.080078,0.8479,-9.002686,-6.622314,-7.606506,-0.495361,-0.269531,0.876465,-2.189636,-0.434875,5.111694
-0.594727,0.083008,0.853516,-10.490417,-7.247924,-8.232117,-0.412842,-0.242676,0.922852,4.081726,-8.491516,5.638122
-0.593506,0.090088,0.858887,-11.779784,-8.071899,-8.590698,-0.42749,-0.185791,0.904297,1.899719,-0.488281,0.88501
-0.592285,0.100098,0.862793,-12.84027,-8.888245,-8.811951,-0.391602,-0.226318,0.900635,2.952575,-3.486633,8.041382
-0.648682,0.140381,0.828613,-0.679016,0.213623,-2.555847,-0.364502,-0.203125,0.949219,-10.040282,-6.301879,-7.331848
-0.69873,0.245117,0.776611,4.150391,2.677917,2.89917,-0.490234,-0.291748,0.892578,-5.310058,5.599975,-8.392334
-0.678223,0.18042,0.814697,-6.134033,-2.494812,-0.999451,-0.471924,-0.27417,0.890625,-6.820678,5.91278,-8.850098
-0.678711,0.180664,0.813965,-6.118774,-3.15094,-1.182556,-0.443848,-0.243652,0.875,-6.210327,6.767272,-9.094238
-0.665283,0.219971,0.79126,4.188538,-0.579834,-0.717163,-0.425049,-0.22876,0.86084,-5.615234,6.67572,-9.483337
-0.668457,0.217773,0.801758,3.913879,-0.968933,-0.488281,-0.42627,-0.217285,0.876953,-6.16455,5.348205,-9.407043
-0.670654,0.209717,0.800781,3.547668,-1.823425,0.007629,-0.431396,-0.20166,0.898682,-6.065368,3.211975,-8.911133
-0.661621,0.19751,0.80249,2.815246,-2.777099,-0.228882,-0.439697,-0.195557,0.913086,-5.432128,1.731872,-7.492065
-0.657715,0.192139,0.79541,1.808166,-3.700256,-0.785828,-0.436523,-0.180176,0.908447,-3.494262,1.075745,-5.844116
-0.665283,0.182129,0.78418,0.419617,-4.226685,-1.25885,-0.428711,-0.165039,0.903564,-0.831604,-0.289917,-4.295349
-0.666504,0.173828,0.77832,-1.13678,-4.051208,-1.983642,-0.402344,-0.23291,0.90918,3.410339,-5.554199,7.019042
-0.674805,0.177002,0.786377,-2.235413,-3.837585,-2.479553,-0.422119,-0.161865,0.911621,1.060486,-1.617432,-2.494812
-0.678223,0.180176,0.800781,-2.853393,-3.379822,-2.975464,-0.423584,-0.176025,0.906006,2.166748,-1.052856,-0.068665
-0.661377,0.182129,0.820801,-3.77655,-3.89862,-4.920959,-0.439941,-0.205566,0.908936,0.411987,0.907898,1.968384
-0.666748,0.230713,0.786621,4.623413,-1.022339,-1.014709,-0.441895,-0.216553,0.910889,-1.220703,2.845764,3.494262
-0.650635,0.175049,0.815918,-5.050659,-4.875183,-6.91986,-0.429688,-0.217041,0.903564,-1.724243,4.188538,4.829407
-0.643311,0.173828,0.814453,-8.31604,-8.522034,-11.489867,-0.42041,-0.221191,0.904297,-1.815796,4.013062,5.744934
-0.655762,0.177002,0.808838,-9.605408,-9.277344,-13.229369,-0.418945,-0.223389,0.906738,-1.533508,2.525329,6.752014
-0.66626,0.187744,0.803223,-10.353087,-9.498596,-14.335631,-0.420166,-0.232422,0.901611,-1.174927,0.984192,7.698059
-0.685547,0.192871,0.79541,-11.032104,-8.964539,-14.801024,-0.418701,-0.23291,0.89624,-0.671387,0.198364,8.56781
-0.695068,0.207031,0.795898,-11.123656,-8.407593,-14.389037,-0.404297,-0.226807,0.897705,0.419617,-0.747681,8.956909
-0.68042,0.22876,0.797119,-10.833739,-9.57489,-13.442992,-0.391113,-0.22168,0.896729,1.945495,-2.006531,8.583069
-0.660645,0.238037,0.785645,-10.986327,-11.619567,-12.855529,-0.421631,-0.169678,0.912842,1.899719,-1.625061,-1.060486
-0.669678,0.241943,0.766846,-11.131286,-13.702392,-12.069701,-0.495117,-0.291504,0.89624,-2.662658,5.744934,-7.011413
-0.676514,0.244629,0.754395,-11.283874,-15.472411,-10.864257,-0.31543,-0.15625,0.937256,-7.972717,-10.643004,-4.173279
-0.673096,0.177246,0.812988,-5.897521,-1.655578,-0.732422,-0.264404,-0.056152,0.953613,0.457764,-25.100706,-1.182556
-0.641357,0.173096,0.815674,-6.713867,-6.828308,-9.33075,-0.398438,-0.55542,-0.064941,-17.631531,81.977837,-81.55822
-0.685059,0.236328,0.797607,4.585266,-1.205444,-1.853943,-0.345703,-0.568848,-0.088867,-20.362852,83.229057,-82.038872
-0.675293,0.186035,0.814941,-3.204345,-3.349304,-3.807068,-0.283447,-0.48999,-0.088623,-31.372068,95.207207,-76.011658
-0.693115,0.225586,0.793213,3.40271,-2.464294,-4.730225,-0.093994,-0.184814,-0.012939,-33.950806,84.739677,-64.025879
-0.696777,0.231445,0.800537,4.142761,-1.602173,-3.250122,-0.044678,-0.003662,0.056641,-35.53009,59.318539,-39.81781
-0.668457,0.192139,0.814209,-4.966736,-3.578186,-1.831055,-0.275879,-0.179688,0.063477,-80.070496,70.838928,-24.116514
-0.657471,0.184082,0.803711,-4.821777,-4.165649,-2.670288,-0.537354,-0.515869,0.225342,-169.326767,144.90509,-27.778624
-0.654297,0.176025,0.800293,-4.997253,-5.012512,-3.64685,-0.546875,-0.426514,0.527588,-222.4655,216.41539,-14.381408
-0.657227,0.171875,0.789307,-5.363464,-5.737304,-4.684448,-0.152588,0.028809,0.844238,-208.663925,208.419785,29.197691
-0.663086,0.171631,0.786133,-5.828857,-5.851745,-5.561828,-0.314941,0.421631,0.612061,-51.330563,91.773979,0.1297
-0.666748,0.176025,0.786133,-6.057739,-5.950927,-6.088256,-0.617676,-0.630859,0.020996,-26.504515,105.934135,-76.286316
-0.664307,0.183838,0.783936,-6.401062,-6.118774,-6.622314,-2.660889,0.47168,1.887939,36.880493,44.174191,35.644531
-0.67041,0.192139,0.785645,-6.736755,-5.714416,-7.110595,-2.356934,-0.857178,4.958496,99.891655,-207.71788,-42.190548
-0.680176,0.203369,0.793457,-6.690979,-5.386352,-7.194519,-1.952637,-1.09668,4.204102,-48.652645,-115.57769,-109.512321
-0.677979,0.207031,0.796387,-6.454467,-5.233764,-7.446289,-0.881104,-0.422607,2.181152,-72.059631,155.517578,-41.91589
-0.677246,0.1875,0.814697,-5.523681,-3.387451,-1.403808,-0.056885,-0.042236,0.996826,-81.398003,184.570297,-30.120848
-0.68042,0.20752,0.791504,-6.004333,-5.332946,-7.957458,-0.157471,-0.115234,0.592773,-93.284599,172.729477,-29.754637
-0.676514,0.205566,0.797119,-6.286621,-5.294799,-7.781982,-0.22998,-0.121826,0.560791,-99.456779,162.132248,-24.04785
-0.673828,0.225098,0.782227,2.5177,-3.074646,-6.004333,-0.277588,-0.111084,0.590088,-101.46331,157.752991,-18.562317
-0.678711,0.233398,0.794922,1.739502,-2.777099,-6.134033,-0.25708,-0.08667,0.593262,-103.042595,155.227661,-17.753601
-0.686768,0.233398,0.80249,0.526428,-2.677917,-6.378173,-0.214844,-0.049561,0.59082,-106.971733,151.504517,-20.668028
-0.688232,0.225098,0.798828,-0.915527,-3.028869,-7.064819,-0.27832,-0.095459,0.9375,-2.76947,-17.01355,-2.182007
-0.680908,0.221436,0.784424,2.838135,-3.059387,-5.622863,-2.728516,0.25293,3.658691,100.044243,-64.041138,36.91864
-0.68335,0.223145,0.800537,-3.532409,-3.921509,-8.155823,-0.916016,-0.799316,0.156006,-36.460876,135.665894,-83.229057
-0.682617,0.224609,0.799072,-4.425049,-4.364014,-8.300781,0.769287,0.478271,1.092285,-152.366638,131.851196,19.500732
-0.681396,0.216797,0.791748,-5.348205,-4.852295,-8.277893,-1.396484,-0.885254,0.585693,-35.163879,110.832207,-116.149895
-0.685303,0.221436,0.800537,-2.410889,-3.479004,-7.781982,-0.275879,-0.040283,0.987793,0.282288,-33.462524,-0.335693
-0.693115,0.164795,0.845215,-14.442443,2.868652,-7.637023,-1.186035,-0.901855,0.394287,-37.117004,145.423889,-101.409904
-0.639404,0.111572,0.859375,-17.76886,5.233764,-6.210327,-0.284424,-0.031738,1.018799,-1.38092,-41.53442,1.609802
-0.629883,0.116943,0.848633,-17.997742,4.310608,-7.995605,-0.29541,-0.03418,1.040771,-1.197815,-50.98724,5.508422
-0.635254,0.114014,0.834229,-18.363953,4.508972,-9.544373,-0.301025,-0.038818,1.041016,1.846313,-62.088009,9.643555
-0.639893,0.116455,0.830078,-18.669128,5.058288,-10.772704,-0.30835,-0.050049,1.018311,6.683349,-73.402405,13.236999
-0.646973,0.117188,0.828857,-18.943787,5.241394,-11.230468,-0.32959,-0.073486,0.984131,11.680602,-83.44268,15.975951
-0.643555,0.094482,0.850098,-17.150879,6.355285,-4.402161,-0.427002,-0.14917,0.890381,20.347593,-97.747795,18.600464
-0.654053,0.125977,0.835938,-18.737793,4.570007,-10.871886,-0.49707,-0.199219,0.854004,23.750303,-100.173943,20.103453
-0.6604,0.143311,0.842041,-17.127991,3.479004,-9.780884,-0.574951,-0.260742,0.814453,25.856016,-96.206657,21.324156
-0.716553,0.1875,0.848389,-10.719298,3.044128,-4.684448,-0.653564,-0.30957,0.771973,25.665281,-84.381096,20.309446
-0.641846,0.197021,0.753662,1.281738,4.264832,3.845215,-0.372314,-0.106689,0.945068,16.311646,-91.300957,17.25769
-0.700928,0.206055,0.814697,-2.731323,4.875183,1.373291,-0.778076,-0.334961,0.71582,25.444029,-44.540401,14.877318
-0.669922,0.200684,0.785156,-0.068665,5.676269,3.364563,-1.362061,-0.783936,0.705322,-15.853881,47.348019,-105.24749
-0.64917,0.193604,0.765137,1.312256,6.103515,4.257202,-0.729248,-0.338623,0.740967,24.642942,-66.268921,18.074036
-0.64917,0.191162,0.759033,1.647949,5.683898,4.356384,-1.05249,-0.563965,1.014893,18.806458,-62.004086,-95.214836
-0.652832,0.186279,0.75415,0.144958,3.631592,2.63977,-0.883057,-0.554932,1.067139,20.599363,-65.177917,-81.085197
-0.690186,0.18457,0.791748,-0.404358,3.189087,1.556396,-0.731689,-0.542969,1.035645,25.032042,-46.615597,-58.143612
-0.715332,0.179688,0.831055,0.160217,2.784729,0.762939,-1.234863,-0.660645,0.889648,10.95581,-21.110533,-96.099846
-0.728516,0.180664,0.849609,1.800537,2.662658,0.411987,-0.697754,-0.372803,0.811768,35.682678,-12.794494,-14.801024
-0.721191,0.16748,0.840576,3.074646,2.845764,-0.12207,-0.725586,-0.290771,0.718994,36.933899,-13.732909,1.342773
-0.651855,0.088623,0.838867,-15.3656,7.141113,-2.876281,-0.770264,-0.296387,0.695557,30.769346,-24.688719,10.06317
-0.716797,0.204834,0.842041,-6.385803,3.700256,-1.441955,-0.681641,-0.495605,0.940186,28.282164,-22.956846,-36.29303
-0.675049,0.085205,0.825684,-13.198852,8.361816,-1.441955,-0.376953,-0.166504,0.943359,2.380371,0.358582,4.524231
-0.700684,0.159668,0.83252,3.845215,2.296448,-1.266479,-0.374756,-0.124023,0.959961,5.226135,-5.66101,5.966186
-0.718506,0.11792,0.825684,-9.788513,7.820129,0.946045,-0.370605,-0.131104,0.952881,4.882813,-4.936218,5.836486
-0.761475,0.049805,0.751221,-16.815186,-2.922058,-19.02771,-0.37085,-0.138672,0.938232,4.53186,-4.119873,5.477905
-0.784668,0.089844,0.772705,-16.212463,-1.365662,-16.777039,-0.372559,-0.143555,0.927002,4.180908,-3.059387,5.187988
-0.791016,0.109131,0.776367,-16.517639,-0.358582,-13.061522,-0.377441,-0.148193,0.919678,4.28009,-2.105713,4.867554
-0.769043,0.119629,0.75708,-17.478943,1.045227,-10.604857,-0.388184,-0.15332,0.919189,4.386902,-1.167297,4.516602
-0.737061,0.12207,0.746826,-19.432068,1.449585,-10.414123,-0.395264,-0.161133,0.92334,4.165649,0.091553,4.440308
-0.726807,0.139648,0.763672,-17.25769,0.442505,-12.054442,-0.388428,-0.166748,0.926025,3.669739,1.220703,4.577637
-0.731201,0.143555,0.751709,-16.387939,0.297546,-11.749267,-0.381104,-0.16626,0.930176,3.112793,1.426697,4.776001
-0.725342,0.145508,0.763672,-16.716003,0.488281,-10.986327,-0.384521,-0.172607,0.969971,1.365662,-1.602173,4.005432
-0.729736,0.158447,0.782959,-15.724181,0.518799,-9.70459,-0.38623,-0.137451,0.953369,4.333496,-7.30133,3.578186
-0.737305,0.170898,0.791504,-14.266967,0.747681,-8.529663,-0.379639,-0.171143,0.93457,-0.900268,-2.250671,4.302979
-0.695313,0.098389,0.824707,-10.925292,8.476257,0.038147,-0.375,-0.163574,0.922363,-0.63324,-2.906799,4.470825
-0.740967,0.175293,0.794678,-12.84027,1.014709,-7.568359,-0.373779,-0.156982,0.919434,0.007629,-3.578186,4.875183
-0.73584,0.176025,0.785889,-10.910033,0.930786,-5.0354,-0.377441,-0.150146,0.92334,0.656128,-3.738403,5.340576
-0.72168,0.166016,0.77417,-10.82611,0.846863,-4.257202,-0.378418,-0.146729,0.932861,1.38092,-4.272461,5.355834
-0.711914,0.155273,0.762207,-11.108397,0.686645,-3.234863,-0.377441,-0.144287,0.946533,2.120972,-5.203247,4.898071
-0.700928,0.138916,0.751953,-11.749267,1.083374,-2.555847,-0.377686,-0.146484,0.959961,2.6474,-6.17218,4.348755
-0.698975,0.125977,0.759521,-11.848449,1.64032,-1.815796,-0.37793,-0.144043,0.95874,3.250122,-6.706237,4.104614
-0.701416,0.117432,0.768799,-11.878966,2.571106,-1.144409,-0.381348,-0.138184,0.953613,3.929138,-7.202148,3.845215
-0.69873,0.110352,0.776123,-11.848449,3.40271,-0.846863,-0.376709,-0.11084,0.957275,6.072998,-6.500244,6.103515
-0.713379,0.102783,0.784424,-11.619567,4.570007,-0.549316,-0.389648,-0.175537,0.970459,-0.007629,-2.525329,4.127502
-0.736328,0.109863,0.804932,-10.894774,6.16455,0.236511,-0.381592,-0.103516,0.953125,7.095336,-7.545471,6.515502
-0.73584,0.121582,0.819336,-9.986877,7.164001,0.892639,-0.380127,-0.149658,0.936279,-6.187438,0.579834,-3.349304
-0.743164,0.181396,0.793457,-11.398314,0.991821,-6.141662,-0.381348,-0.079102,0.960205,10.231017,-10.864257,6.599426
-0.677734,0.153564,0.822266,3.707886,1.411438,-2.845764,-0.38208,-0.139404,0.949463,4.676819,-7.286071,3.64685
-0.755127,0.031006,0.73999,-16.220093,-4.707336,-18.89801,-0.37207,-0.134277,0.933105,-4.135132,-0.167847,-2.990722
-0.654297,0.138916,0.821289,2.326965,0.610352,-4.890442,-0.36499,-0.122803,0.948975,-1.792908,-1.647949,-2.807617
-0.675049,0.140381,0.852539,10.910033,12.474059,16.25061,-0.364258,-0.110596,0.961914,-0.061035,-3.059387,-2.738952
-0.628906,0.133545,0.827393,12.016295,12.275695,15.296935,-0.354736,-0.097412,0.957275,0.968933,-3.593445,-2.983093
-0.590088,0.107422,0.79248,10.688781,12.641906,12.496947,-0.345215,-0.083984,0.960938,1.457214,-4.081726,-3.341675
-0.569824,0.076416,0.790771,7.896423,12.7182,8.857727,-0.347412,-0.083496,0.973145,1.625061,-4.402161,-2.960205
-0.567871,0.057617,0.827637,4.684448,11.787414,5.447387,-0.348633,-0.075928,0.979492,2.258301,-4.943848,-2.281189
-0.576416,0.056396,0.873047,2.372742,10.223388,2.716064,-0.349121,-0.061035,0.977295,3.440857,-6.370544,-1.846313
-0.585449,0.05835,0.895996,0.930786,8.659363,0.75531,-0.342773,-0.055176,0.975098,4.524231,-7.698059,-1.251221
-0.5896,0.058838,0.912598,-0.289917,6.637573,-0.984192,-0.328125,-0.043945,0.964111,6.286621,-8.69751,-0.320435
-0.580566,0.076172,0.92334,-0.862122,3.65448,-2.281189,-0.31543,-0.03125,0.953857,9.132385,-10.612487,0.541687
-0.560547,0.077148,0.897705,-2.128601,0.961304,-3.990173,-0.315186,-0.028076,0.957275,11.619567,-12.756347,1.350403
-0.715576,0.145508,0.862549,8.331299,12.145995,15.594481,-0.387695,-0.162598,0.938965,-7.4234,1.205444,-3.715515
-0.553955,0.064453,0.870605,-4.28009,-0.785828,-6.187438,-0.317627,-0.027832,0.96582,13.47351,-14.007567,1.983642
-0.56543,0.083496,0.856689,-8.209229,-4.53186,-9.33075,-0.325928,-0.030029,0.968506,14.831542,-15.129088,2.822876
-0.577393,0.094482,0.831543,-10.231017,-4.638672,-10.078429,-0.334473,-0.029053,0.968994,16.014099,-15.777587,3.40271
-0.598389,0.119873,0.819092,-11.83319,-4.302979,-10.368346,-0.342773,-0.031494,0.969971,16.563416,-16.197205,4.081726
-0.617188,0.149658,0.8125,-12.237548,-4.142761,-9.658813,-0.356934,-0.031738,0.97583,16.448975,-16.151428,5.027771
-0.641602,0.160889,0.807617,-12.031554,-3.738403,-8.514404,-0.370117,-0.041992,0.972656,15.3656,-14.98413,5.653381
-0.67627,0.178711,0.810791,-10.528563,-3.265381,-6.492614,-0.369629,-0.049805,0.967041,14.35852,-13.771056,6.29425
-0.703613,0.19165,0.814697,-8.117676,-2.334595,-4.127502,-0.371582,-0.057861,0.968018,12.96997,-12.96234,6.530761
-0.727539,0.206543,0.822754,-5.027771,-1.091003,-1.800537,-0.375,-0.070068,0.963379,11.642455,-11.917113,6.576538
-0.730957,0.228027,0.828369,-1.457214,0.030518,0.656128,-0.385986,-0.09375,0.955566,8.331299,-9.20105,6.66809
-0.710449,0.244385,0.806396,1.976013,1.205444,2.403259,-0.373291,-0.138672,0.94043,5.218505,-8.071899,3.562927
-0.552979,0.066895,0.866455,-6.462097,-2.662658,-8.346558,-0.399902,-0.144287,0.929932,19.91272,-18.562317,4.272461
-0.734619,0.148193,0.845947,4.875183,10.658263,13.587951,-0.365967,-0.139404,0.925049,6.92749,-10.330199,3.265381
-0.643066,0.122559,0.825439,0.679016,-0.404358,-6.652832,-0.389893,-0.155029,0.91626,5.439758,-2.723694,-0.37384
-0.687988,0.153809,0.795166,-1.075745,6.179809,8.926392,-0.385742,-0.147705,0.911133,7.164001,-3.532409,0.297546
-0.719482,0.147461,0.817627,1.342773,8.18634,11.184691,-0.388672,-0.142822,0.925293,8.850098,-4.318237,0.862122
-0.630859,0.095215,0.80249,-2.883911,-2.075195,-9.048462,-0.39624,-0.144043,0.936768,9.620667,-4.966736,1.556396
-0.633301,0.096436,0.791748,-4.486084,-3.219604,-9.437561,-0.401123,-0.143555,0.945068,10.185241,-5.928039,2.342224
-0.647705,0.119873,0.775635,-5.485534,-3.791809,-8.850098,-0.39624,-0.141357,0.943848,11.32965,-7.408142,2.845764
-0.66748,0.143799,0.758301,-6.134033,-3.295898,-8.178711,-0.391602,-0.135742,0.939453,13.458251,-10.276793,3.242492
-0.69043,0.159668,0.757568,-6.706237,-2.700805,-7.575988,-0.392334,-0.135498,0.938477,15.99121,-13.893126,3.341675
-0.720459,0.186523,0.774658,-6.652832,-2.479553,-6.637573,-0.397217,-0.142334,0.937744,18.081665,-16.723633,3.746032
-0.746582,0.2146,0.798828,-5.126953,-1.670837,-5.218505,-0.405273,-0.152832,0.930908,21.636961,-19.195557,4.951477
-0.771484,0.221191,0.818604,-2.883911,0.167847,-3.479004,-0.397705,-0.15625,0.924805,4.631042,-1.907349,-0.930786
-0.771484,0.213135,0.818604,-0.579834,2.304077,-1.64032,-0.406982,-0.161133,0.93042,23.147581,-19.165039,5.378723
-0.753662,0.193115,0.807617,0.808716,4.03595,0.015259,-0.43457,-0.195068,0.924805,22.40753,-18.417358,5.142211
-0.636719,0.106689,0.816406,-1.220703,-1.022339,-8.110046,-0.443604,-0.209961,0.92041,21.89636,-17.120361,5.096435
-0.719727,0.185303,0.781982,1.922607,5.340576,2.861023,-0.438477,-0.230957,0.911621,21.026609,-15.724181,5.043029
-0.73877,0.186523,0.799805,1.594543,4.547119,1.739502,-0.432373,-0.244629,0.900635,19.813538,-13.748168,4.875183
-0.666992,0.150391,0.781738,-1.899719,5.722045,6.561279,-0.424561,-0.252197,0.892822,18.684387,-11.253356,4.188538
-0.654785,0.145508,0.765625,-1.068115,5.340576,5.760192,-0.425293,-0.256592,0.887451,16.998291,-8.911133,2.929687
-0.654541,0.152832,0.76123,0.297546,5.1651,5.958557,-0.43457,-0.268799,0.888428,14.282226,-6.477355,0.892639
-0.6604,0.161865,0.775635,1.525879,5.393981,6.385803,-0.461426,-0.287598,0.895996,9.925842,-2.830505,-1.472473
-0.667969,0.154297,0.788086,-2.01416,6.034851,7.43103,-0.488037,-0.303223,0.903564,4.78363,1.487732,-3.189087
-0.693604,0.169189,0.791504,2.067566,6.79779,6.027221,-0.368652,-0.137451,0.931885,5.950927,-9.155273,3.463745
-0.70752,0.172852,0.787842,1.937866,6.942749,5.363464,-0.417236,-0.18042,0.927246,23.178099,-18.974304,5.294799
-0.712646,0.178711,0.784668,1.853943,6.553649,4.585266,-0.405518,-0.155029,0.928711,3.616333,-0.526428,-1.411438
-0.713867,0.178955,0.77832,1.815796,6.034851,3.692627,-0.495117,-0.299316,0.902588,0.442505,4.905701,-4.890442
-0.675537,0.165527,0.791748,2.075195,6.134033,6.385803,-0.417236,-0.161377,0.931641,1.861572,1.609802,-1.853943
-0.469727,-0.08374,0.891846,35.514832,-47.554012,-29.319761,-0.411865,-0.157959,0.934326,2.609253,0.724792,-1.655578
-0.579346,-0.041992,0.922363,51.910397,-20.378111,-7.141113,-0.378662,-0.144775,0.923096,7.713317,-11.138915,2.998352
-0.538818,-0.054199,0.928223,51.399227,-12.21466,-9.19342,-0.387939,-0.152344,0.926514,7.530212,-10.261535,2.937317
-0.451172,-0.058838,0.951904,50.941463,-12.168883,-11.886596,-0.393311,-0.156006,0.927246,7.339477,-9.399414,2.746582
-0.379883,-0.057617,0.974121,51.23901,-21.102903,-13.992309,-0.395752,-0.15625,0.93457,7.453918,-9.300232,2.151489
-0.352783,-0.074219,0.966797,49.751278,-32.661438,-16.319275,-0.393311,-0.15625,0.936035,7.606506,-9.666443,1.289368
-0.367676,-0.080078,0.945068,46.432491,-40.138245,-18.867493,-0.391357,-0.158691,0.933105,7.6828,-9.841919,0.198364
-0.382813,-0.057617,0.93042,42.854305,-45.028683,-21.697996,-0.397705,-0.15625,0.930664,7.339477,-9.773254,-0.679016
-0.392334,-0.048584,0.915039,39.093018,-49.354549,-26.245115,-0.406982,-0.156494,0.927734,7.110595,-9.391785,-1.243591
-0.579102,-0.035156,0.91748,52.12402,-30.456541,-5.66864,-0.414063,-0.157471,0.931152,6.980896,-8.522034,-1.693725
-0.53125,-0.108154,0.885742,24.101255,-41.709896,-21.255491,-0.407959,-0.158203,0.935547,6.515502,-7.087707,-1.861572
-0.559814,-0.111084,0.906738,28.305052,-37.094116,-25.749205,-0.369385,-0.140381,0.924316,7.469177,-11.047362,3.14331
-0.54541,-0.114014,0.905518,26.931761,-38.314819,-23.834227,-0.412842,-0.161133,0.937012,5.607605,-5.477905,-2.311707
-0.535645,-0.112305,0.904053,25.756834,-40.374752,-22.422789,-0.418701,-0.164063,0.932861,4.776001,-4.951477,-2.487183
-0.537598,-0.11377,0.870117,21.781919,-40.199276,-21.240232,-0.41626,-0.169678,0.925293,3.807068,-4.447937,-2.548218
-0.547119,-0.118896,0.874023,19.706726,-37.506104,-21.842955,-0.4104,-0.172852,0.923096,3.280639,-4.104614,-2.616882
-0.557861,-0.107422,0.886719,18.180847,-35.064697,-21.690367,-0.413574,-0.173096,0.924805,3.135681,-3.921509,-2.761841
-0.569824,-0.090332,0.897949,16.921997,-32.211304,-20.858763,-0.424316,-0.173096,0.929443,2.838135,-3.128052,-2.761841
-0.561279,-0.079834,0.907959,16.082764,-29.373167,-20.690916,-0.432861,-0.168701,0.930176,2.296448,-1.869202,-2.479553
-0.549805,-0.076904,0.904785,15.167235,-27.664183,-20.89691,-0.435547,-0.16748,0.924561,1.281738,0.083923,-2.13623
-0.572998,-0.030518,0.914063,52.543636,-36.987305,-4.806519,-0.428955,-0.161621,0.918213,0.724792,2.304077,-1.655578
-0.577881,-0.115479,0.890381,32.234192,-41.259762,-28.907774,-0.422363,-0.155518,0.918457,1.182556,2.6474,-1.708984
-0.585205,-0.028564,0.908203,52.238461,-39.649963,-5.218505,-0.405273,-0.157715,0.938232,6.095886,-6.072998,-2.044678
-0.791748,0.324219,1.226318,47.45483,-93.582146,-46.95129,-0.369141,-0.144531,0.945557,-11.230468,-7.202148,-1.060486
-0.660889,-0.008057,0.878906,50.354,-50.430294,-7.17926,-0.37085,-0.142822,0.976318,-10.31494,-11.802672,-0.671387
-1.020264,0.61499,1.501221,-113.578789,-40.52734,-166.572556,-0.364746,-0.145508,1.008789,-9.19342,-15.701293,-0.030518
-0.474121,0.775879,1.471191,-101.440422,-10.223388,-203.590378,-0.352539,-0.143555,1.013184,-8.148193,-18.432617,1.113892
-0.189697,0.628174,1.390869,-125.602715,-6.889343,-249.992355,-0.318848,-0.07959,0.962402,-3.692627,-28.747557,4.669189
-0.069824,0.378418,1.165771,-159.286499,-163.932785,-216.957077,-0.335449,-0.117188,0.99585,-5.691528,-23.078917,3.562927
-0.181641,0.377686,0.959229,-162.643417,-249.992355,-140.029907,-0.331299,-0.106934,0.976074,-4.692078,-25.772093,3.936767
-0.610107,0.369385,0.843506,-150.642395,-249.961838,-76.408386,-0.326904,-0.092285,0.965332,-3.913879,-27.740477,4.226685
-0.718018,0.431396,0.973633,-121.978752,-249.618515,-39.657593,-0.366943,-0.141357,0.925537,-10.879516,-3.250122,-1.190186
-0.681885,0.525146,1.128906,-78.941345,-249.992355,-31.35681,-0.343018,-0.135254,1.009521,-6.942749,-20.729063,2.578735
-0.672852,0.616211,1.194336,-33.401489,-249.992355,-29.937742,-0.373779,-0.147949,0.909668,-9.918213,-0.610352,-1.052856
-0.722656,0.552246,1.106934,2.296448,-225.456223,-6.66809,-0.352295,-0.134277,0.996582,-0.854492,-6.607055,-3.425598
-0.492676,0.291504,0.892822,17.631531,-191.200241,-1.594543,-0.369873,-0.147217,0.939453,-4.53949,2.418518,-0.511169
-0.348633,0.263428,1.116211,35.766602,-159.698486,-31.028746,-0.362061,-0.142578,0.976318,-2.731323,-0.968933,-1.243591
-0.709717,0.447998,1.494141,58.822628,-132.17926,-47.912594,-0.352295,-0.139648,1.001709,-1.457214,-4.493713,-2.464294
-0.553955,-0.072021,0.905273,14.442443,-26.298521,-21.072386,-0.355469,-0.127197,0.983154,-1.174927,-6.713867,-3.334045
-0.672363,0.170654,0.964355,38.482666,-73.959351,-39.43634,-0.364258,-0.125977,0.96582,-2.098083,-4.470825,-2.029419
-0.535645,0.130371,0.94751,41.740414,-75.340271,-31.745909,-0.360596,-0.124756,0.953369,-2.883911,-2.418518,-0.862122
-0.418945,0.099121,0.944824,46.562191,-87.913506,-26.489256,-0.349854,-0.125732,0.960938,-2.052307,-3.448486,-0.282288
-0.384766,0.056641,0.918701,49.102779,-103.599541,-23.521421,-0.333496,-0.119141,0.957275,-0.450134,-5.935668,0.404358
-0.45459,0.024658,0.898682,49.278255,-112.17498,-21.331785,-0.31958,-0.102783,0.950684,2.288818,-8.094788,1.419067
-0.605713,-0.000244,0.87793,48.309322,-108.184807,-17.13562,-0.312988,-0.071533,0.972412,-4.638672,-28.877256,5.424499
-0.716797,-0.013428,0.866455,46.82159,-93.727104,-13.389586,-0.380859,-0.155518,0.9104,-8.674622,1.785278,-0.75531
-0.750488,-0.004395,0.881836,47.409054,-75.3479,-10.963439,-0.317383,-0.074463,0.990479,-6.721496,-29.136656,6.088256
-0.707031,-0.003906,0.881348,48.950191,-60.699459,-8.842468,-0.274658,-0.189453,0.928223,0.862122,-18.959045,-4.714966
-0.616211,-0.02124,0.894287,51.155087,-42.976376,-6.278991,-0.320313,-0.097168,0.989746,-11.009215,-27.587889,6.370544
-0.564941,-0.063232,0.913574,14.236449,-24.696348,-20.805357,-0.283203,-0.259766,0.959229,15.014647,-35.53772,9.544373
-0.584717,-0.11792,0.897461,29.739378,-37.658691,-27.809141,-0.30835,-0.259521,0.944824,12.504577,-30.380247,7.987976
-0.587646,-0.065186,0.89209,10.910033,-20.042419,-19.348145,-0.291504,-0.23584,0.936035,10.887145,-27.183531,6.973266
-0.679443,0.006104,0.75293,11.001586,-30.326841,-19.462585,-0.290039,-0.224365,0.940186,9.117126,-26.161192,5.638122
-0.699463,-0.008789,0.754395,10.520934,-25.650023,-19.607544,-0.285645,-0.220215,0.970947,6.858825,-25.55847,3.814697
-0.717285,-0.021973,0.759766,10.19287,-20.507811,-20.179747,-0.294678,-0.217773,0.977295,5.180358,-24.909971,1.907349
-0.722656,-0.027344,0.763184,10.116576,-17.364502,-20.851133,-0.305664,-0.213623,0.977295,3.990173,-24.269102,0.221252
-0.724121,-0.0354,0.763428,9.83429,-16.036987,-21.423338,-0.312744,-0.221924,0.97998,2.937317,-23.239134,-1.182556
-0.746094,-0.036377,0.773926,10.108947,-14.945983,-21.179197,-0.317871,-0.22583,0.971436,1.922607,-21.736143,-2.174377
-0.743408,-0.038574,0.773926,10.238647,-14.892577,-20.874022,-0.311768,-0.223389,0.964355,1.464844,-20.233152,-2.799988
-0.738525,-0.037354,0.763428,10.032654,-15.251159,-21.080015,-0.318604,-0.084961,0.997559,-9.002686,-28.610228,6.332397
-0.743408,-0.031738,0.740234,9.239197,-13.099669,-21.842955,-0.300049,-0.214111,0.94873,1.098633,-18.90564,-3.39508
-0.752197,-0.029785,0.722412,7.5531,-8.781433,-21.972654,-0.312256,-0.102295,0.940918,4.623413,-9.246826,2.372742
-0.686279,0.023438,0.764893,10.932921,-32.646179,-19.798279,-0.272217,-0.183594,0.938721,-0.434875,-19.447327,-4.707336
-0.753418,-0.036865,0.71167,4.730225,-3.028869,-21.949766,-0.275391,-0.177002,0.947266,-2.426147,-19.233704,-3.929138
-0.719238,-0.046875,0.751709,-1.319885,-0.167847,-23.979185,-0.273193,-0.175537,0.959229,-4.608154,-19.645691,-2.6474
-0.717773,-0.046387,0.789307,-2.861023,-4.03595,-25.688169,-0.28125,-0.18457,0.969971,-7.56073,-20.919798,-1.098633
-0.775635,-0.02832,0.830322,-2.708435,-7.690429,-25.0473,-0.300293,-0.184326,0.986816,-10.32257,-22.048948,0.617981
-0.804932,-0.01001,0.844971,-2.334595,-10.391234,-23.635862,-0.299316,-0.173096,0.98999,-12.519835,-22.956846,2.250671
-0.799316,-0.009766,0.819824,-3.761291,-12.260436,-22.6593,-0.294189,-0.153076,0.978516,-13.618468,-24.04785,3.532409
-0.799316,-0.00293,0.793945,-5.584716,-12.023925,-21.415709,-0.302002,-0.13623,0.970215,-13.648986,-25.352476,4.684448
-0.783447,0.010254,0.768311,-7.774353,-9.979248,-20.721434,-0.313965,-0.119141,0.973145,-12.7182,-26.588438,5.744934
-0.768066,0.009766,0.747314,-10.353087,-8.132935,-19.966125,-0.284668,-0.200439,0.930664,0.930786,-18.295288,-4.15802
-0.752441,0.016113,0.733643,-12.763976,-6.500244,-19.561768,-0.327148,-0.117432,0.934814,5.645751,-8.506775,3.585815
-0.748047,0.023926,0.731934,-14.678954,-5.607605,-19.119263,-0.375,-0.152344,0.920654,-6.752014,3.692627,-0.335693
-0.739258,-0.049316,0.71875,1.243591,0.762939,-22.499083,-0.349121,-0.158447,0.922363,4.997253,-5.111694,5.180358
-0.686768,0.033691,0.780518,9.399414,-33.935547,-21.209715,-0.300781,0.014648,0.956299,-8.369446,2.929687,-2.716064
-0.576904,-0.060547,0.909424,13.252257,-22.758482,-20.26367,-0.303955,0.020752,0.993164,-5.111694,-0.289917,-2.677917
-0.577148,0.044434,0.824463,3.372192,-34.957886,-23.002623,-0.309082,0.023926,1.011963,-2.128601,-3.463745,-2.845764
-0.601563,-0.063232,0.871826,7.789611,-16.88385,-18.249512,-0.32373,0.011963,1.025146,-0.511169,-6.454467,-2.998352
-0.612549,-0.060791,0.860107,3.967285,-13.450622,-17.14325,-0.33252,-0.001221,1.010986,0.267029,-7.072448,-2.494812
-0.619141,-0.056152,0.866211,0.358582,-10.467528,-15.083312,-0.326172,0.005859,0.980225,3.471374,-7.141113,-1.197815
-0.605713,-0.049072,0.881104,-2.906799,-10.009766,-12.634276,-0.321777,0.00708,0.959473,7.225036,-8.270264,0.183105
-0.57251,-0.060059,0.886963,-6.278991,-11.825561,-10.398864,-0.325928,-0.012451,0.95874,9.109497,-10.131835,1.014709
-0.558838,-0.071289,0.89917,-9.277344,-14.434813,-7.888793,-0.335693,-0.031006,0.947754,10.108947,-10.345458,1.525879
-0.629395,0.040039,0.797363,6.507873,-35.491943,-22.933958,-0.346191,-0.050537,0.931885,10.581969,-9.32312,1.937866
-0.53125,-0.071045,0.91333,-14.152526,-22.247313,-3.379822,-0.357178,-0.075195,0.936279,10.139464,-8.041382,2.059937
-0.502197,-0.05957,0.919434,-15.602111,-26.908873,-2.441406,-0.360352,-0.093994,0.940918,9.254456,-6.446838,1.922607
-0.454834,-0.047363,0.933594,-16.067505,-33.920288,-2.89917,-0.359619,-0.117188,0.950684,8.087158,-5.271911,1.190186
-0.418213,-0.042969,0.948975,-15.518188,-44.05212,-4.364014,-0.361328,-0.140137,0.963379,6.088256,-3.89862,0.442505
-0.550049,-0.074219,0.905273,-12.046813,-18.074036,-5.393981,-0.362793,-0.148926,0.966553,4.081726,-3.120422,-0.587463
-0.480713,-0.034424,0.943848,-12.138366,-60.371395,-8.659363,-0.375732,-0.165527,0.97583,1.663208,-3.295898,-2.174377
-0.55542,-0.030518,0.918701,-10.040282,-56.426998,-10.917663,-0.392822,-0.182373,0.967041,-1.327515,-2.27356,-3.303528
-0.615967,-0.011719,0.889404,-7.797241,-44.754025,-12.634276,-0.403564,-0.18335,0.94458,-3.623962,0.511169,-3.425598
-0.614014,0.003174,0.86377,-6.050109,-32.821655,-14.335631,-0.397217,-0.177734,0.918701,-5.119323,3.005981,-3.608703
-0.571289,-0.005371,0.838867,-4.844666,-25.077818,-16.639709,-0.389893,-0.169678,0.911865,-6.103515,3.814697,-3.761291
-0.55835,-0.014404,0.827393,-3.913879,-22.590635,-17.89856,-0.387695,-0.165283,0.918457,-6.752014,3.387451,-3.974914
-0.549805,-0.009766,0.832275,-2.838135,-24.879454,-19.081116,-0.390137,-0.168701,0.928467,-7.225036,2.540588,-4.089355
-0.553711,-0.01416,0.825439,-2.182007,-28.244017,-20.431517,-0.340576,-0.139404,0.92334,5.355834,-6.431579,4.646301
-0.574707,-0.004395,0.822021,-1.335144,-29.685972,-21.438597,-0.303467,-0.003906,0.920898,-12.298583,6.301879,-2.876281
-0.586426,0.025879,0.828857,0.564575,-31.799314,-21.89636,-0.317139,-0.028564,0.906006,-16.052246,7.942199,-3.555298
-0.430176,-0.037842,0.950928,-14.205932,-54.595943,-6.248474,-0.391846,-0.171143,0.937256,-7.766723,1.861572,-3.990173
0.817383,-0.078857,0.52124,-38.917542,33.081055,53.146358,-0.33667,-0.092041,0.974121,-18.760681,3.028869,-6.057739
0.750488,-0.111572,0.494141,-38.30719,31.677244,56.037899,-0.33374,-0.063477,0.93335,-18.585205,6.324768,-4.760742
0.698242,-0.136719,0.442139,-37.246704,26.542662,58.609005,-0.378906,-0.196533,0.966309,1.869202,-3.562927,4.432678
0.673828,-0.149902,0.411865,-33.64563,18.753052,61.012264,-0.384033,-0.202393,0.982666,-0.022888,-2.777099,3.570556
0.633057,-0.108398,0.421875,-13.96942,7.308959,69.900513,-0.371582,-0.196777,0.981201,-1.281738,-3.02124,2.082825
0.651611,-0.157715,0.40332,-23.361204,4.951477,66.017151,-0.358398,-0.188477,0.976318,-1.13678,-3.639221,0.144958
0.648682,-0.138428,0.417236,-19.454956,2.685547,68.267822,-0.361572,-0.196777,0.970947,-2.655029,-3.005981,-0.617981
0.643311,-0.118408,0.425049,-16.731262,3.669739,69.587708,-0.368652,-0.198242,0.960449,-5.249023,-0.1297,-0.289917
0.657471,-0.160156,0.399658,-28.297422,10.589599,63.407894,-0.364502,-0.188477,0.946045,-6.652832,2.220154,-0.175476
0.880615,-0.046875,0.532959,-39.894104,30.273436,50.018307,-0.356201,-0.180664,0.943359,-7.263183,2.593994,-0.343323
0.9375,0.145508,0.745117,-52.406307,28.930662,-30.319212,-0.348633,-0.170654,0.945068,-7.240295,1.968384,-0.740051
0.968506,-0.001465,0.551025,-42.610165,10.330199,43.258663,-0.349121,-0.164307,0.946045,-7.026672,1.060486,-1.365662
0.998535,0.004639,0.55957,-44.128414,-5.599975,38.925171,-0.361572,-0.180908,0.938477,3.799438,-4.402161,4.966736
1.01709,0.000244,0.564453,-46.096798,-23.391722,32.897949,-0.349854,-0.162842,0.948242,-7.637023,0.50354,-1.899719
1.01416,-0.020996,0.564209,-49.72839,-38.520813,25.382994,-0.347656,-0.161377,0.940674,-8.377075,1.327515,-2.13623
0.967529,-0.030273,0.567871,-53.367611,-44.349667,16.639709,-0.341309,-0.1521,0.921143,-8.18634,2.716064,-2.288818
0.892578,-0.019775,0.566895,-57.106014,-37.078857,7.499694,-0.34082,-0.141113,0.912598,-7.728576,3.14331,-2.471924
0.82959,0.02124,0.567139,-59.982296,-19.882202,-1.174927,-0.346436,-0.141602,0.925781,-7.545471,3.14331,-2.815246
0.827148,0.080566,0.613037,-59.55505,-1.449585,-9.170532,-0.344727,-0.142822,0.939697,-7.965087,4.066467,-3.456115
0.885254,0.123779,0.66748,-58.151241,12.603759,-17.410278,-0.331787,-0.133301,0.958984,-8.613586,5.111694,-4.013062
0.937988,0.141602,0.707275,-56.106564,22.468565,-25.039671,-0.314697,-0.118164,0.9646,-10.284423,5.477905,-4.501343
0.605225,-0.120361,0.421387,-10.0708,12.916564,70.388794,-0.313721,-0.113281,0.979004,-12.947082,4.203796,-5.294799
0.929199,-0.020264,0.541504,-41.145321,22.621153,46.69952,-0.321289,-0.110352,1.000488,-15.151977,2.26593,-6.065368
0.564453,-0.147217,0.421631,-4.959106,18.684387,71.06781,-0.329834,-0.104492,0.999512,-17.189026,1.594543,-6.553649
0.268066,-0.406006,0.65332,35.926819,63.117977,64.186096,-0.162354,0.267578,0.953369,54.000851,19.775391,6.614685
0.514404,-0.184814,0.431152,4.364014,26.420591,71.166992,-0.179199,0.260254,0.942627,55.213924,21.919249,6.355285
0.919922,0.145264,0.783691,-47.164913,31.204222,-34.40094,-0.188965,0.247314,0.928955,57.167049,23.223875,6.91986
0.1604,-0.51709,0.809814,44.990536,-12.687682,3.128052,-0.187256,0.270264,0.910645,60.363766,24.528502,7.537841
0.137207,-0.513428,0.769287,43.251034,-0.946045,7.041931,-0.224121,0.306885,0.877197,69.213867,30.509947,-0.1297
0.11792,-0.49585,0.749268,41.511532,9.498596,12.184142,-0.273193,0.315186,0.870605,60.31036,29.273985,7.774353
0.109375,-0.478271,0.746582,40.710445,16.952515,17.425537,-0.298828,0.329102,0.875,57.083126,26.420591,5.043029
0.098877,-0.464111,0.723633,40.06958,23.254393,23.986814,-0.257324,0.302734,0.882324,59.318539,26.084898,1.38092
0.11084,-0.449219,0.699219,39.306641,29.190062,31.715391,-0.218262,0.302246,0.867432,60.844418,27.45056,8.018494
0.156494,-0.446533,0.692627,39.466858,34.210205,38.391113,-0.165771,0.269043,0.957275,52.192684,17.784119,6.17218
0.209229,-0.457275,0.692627,40.336605,39.344788,42.594906,-0.184814,0.283936,0.966797,44.662472,9.414673,5.271911
0.231689,-0.475586,0.672363,40.367123,45.005795,45.753475,-0.157959,0.273926,0.935059,47.401424,12.5885,4.051208
0.533203,-0.171631,0.42749,-0.106812,23.132322,71.174622,-0.154297,0.272461,0.923828,45.806881,11.718749,3.738403
0.22168,-0.476074,0.64502,39.497375,51.399227,50.60577,-0.157715,0.272949,0.933105,44.631954,11.039733,4.760742
0.229004,-0.426514,0.661377,36.605835,61.340328,60.966488,-0.239258,0.221191,0.947754,34.042358,0.473022,4.623413
0.325195,-0.393311,0.636475,34.27887,61.782833,65.460205,-0.200195,0.293945,0.983154,44.56329,7.347106,4.829407
0.365234,-0.371338,0.617676,31.425474,58.120724,66.02478,-0.194336,0.300293,0.95874,43.914791,6.446838,5.584716
0.385498,-0.341797,0.601318,27.481077,53.474422,67.672729,-0.197998,0.285889,0.956055,42.716976,5.53894,5.66101
0.409668,-0.309082,0.59375,24.032591,47.561642,69.709778,-0.206543,0.270264,0.962402,41.061398,4.020691,5.378723
0.434326,-0.269287,0.585205,21.926878,41.191097,71.311951,-0.213623,0.262207,0.962158,39.176941,1.914978,4.898071
0.443359,-0.233398,0.563232,20.431517,36.148071,72.296143,-0.228027,0.241211,0.956787,36.903381,0.305176,4.577637
0.45459,-0.205566,0.522705,18.173218,32.928467,72.509766,-0.22876,0.385254,0.907715,81.085197,38.291931,0.724792
0.470947,-0.197998,0.479736,14.022826,30.96771,71.975708,-0.156494,0.273438,0.951172,49.987789,14.991759,5.218505
0.489502,-0.195801,0.442383,8.758545,28.915403,71.44928,-0.228271,0.407227,0.899902,83.557121,43.93005,-2.838135
0.213623,-0.457275,0.645508,37.727356,57.304379,56.343075,-0.353516,0.426758,0.756348,150.32196,49.758907,1.586914
0.178467,-0.515381,0.841553,45.303341,-23.773191,0.167847,-0.225342,0.433838,0.86084,85.121147,50.201412,-8.827209
0.940186,0.111328,0.783691,-40.27557,17.166138,-44.30389,-0.243408,0.209961,0.942383,30.830381,1.00708,4.371643
0.915039,0.092041,0.780762,-37.719727,3.761291,-49.530025,-0.320801,0.889893,0.775391,122.154228,-28.19824,6.202697
0.594971,0.240479,0.737549,-82.572929,-153.511047,-89.49279,-0.495361,0.73877,0.723633,123.687737,-44.380184,-16.334534
0.603027,0.227539,0.723389,-96.80175,-172.416672,-108.863823,-0.570557,0.371094,0.72876,105.056755,-46.791073,-39.016724
0.604736,0.220215,0.751221,-106.1325,-182.311996,-134.44519,-0.593506,0.468018,0.769775,80.894463,-46.188351,-31.761168
0.63916,0.296631,0.788574,-114.891045,-179.107651,-174.392685,-0.521973,1.064941,0.707275,87.074272,-24.597166,2.746582
0.633789,0.521484,0.794678,-125.991814,-160.797104,-225.830063,-0.479004,1.445313,0.499512,104.103081,21.949766,3.700256
0.575928,0.829834,0.796143,-136.436462,-129.28772,-249.595627,-0.724365,1.68457,0.440186,125.236504,51.849361,-13.793944
0.55957,1.144043,0.819336,-145.484924,-91.629021,-249.992355,-0.742676,1.593018,0.801025,164.215073,53.176876,2.540588
0.61084,1.422852,0.898926,-149.284363,-58.250423,-249.992355,-0.478027,0.908691,0.862305,173.896774,39.665222,17.578125
0.648193,1.579102,0.960205,-150.657654,-31.715391,-249.992355,-0.233887,0.424561,0.89209,85.067741,46.981808,-5.996704
0.634033,1.623291,1.018311,-153.625488,-7.331848,-249.992355,-0.384033,0.528809,0.794922,168.739304,38.215637,16.372681
0.568115,0.195557,0.753418,-68.984985,-129.135132,-74.272156,-0.316406,0.461914,0.762695,157.661438,45.81451,5.805969
0.612305,1.60498,1.150391,-156.951904,14.907836,-249.992355,-0.376465,0.385986,0.750732,141.235352,55.793758,-1.312256
0.330566,1.381104,1.394775,-155.212402,46.463009,-249.992355,-0.366943,0.362793,0.743164,128.067017,60.714718,-5.081176
0.196533,1.209229,1.478271,-150.505066,48.194881,-249.992355,-0.339844,0.388428,0.768799,114.295952,65.734863,-7.728576
0.155029,1.018066,1.47168,-147.041321,39.840698,-249.992355,-0.300781,0.478516,0.798828,105.735771,68.260193,-9.300232
0.055664,0.834961,1.404541,-146.522522,26.031492,-249.992355,-0.279541,0.554932,0.819824,102.325432,67.16156,-11.146544
-0.149658,0.69043,1.312988,-146.903992,10.2005,-249.992355,-0.258789,0.546387,0.814941,99.929802,65.086365,-12.519835
-0.367676,0.579102,1.265137,-147.254944,-8.262634,-249.832138,-0.255615,0.450928,0.809326,92.231743,62.675472,-11.856078
-0.512695,0.490723,1.255127,-146.80481,-30.85327,-249.336227,-0.242188,0.421387,0.818359,86.540215,58.731075,-11.650084
-0.653564,0.43335,1.292236,-142.776489,-51.589962,-249.992355,-0.22168,0.44873,0.832031,84.922783,54.481503,-11.360168
-0.970947,0.422607,1.378906,-135.383606,-62.362667,-246.810898,-0.331787,0.475342,0.766846,163.566574,42.243954,10.879516
-1.256104,0.462891,1.460938,-127.571098,-58.448788,-196.983322,-0.236816,0.198975,0.940918,27.748106,0.213623,3.860473
0.512695,1.512451,1.274414,-158.317566,34.004211,-249.992355,-0.098389,-0.197266,1.064941,59.097286,11.260985,31.639097
0.537598,0.140381,0.75,-58.654781,-104.835503,-64.041138,-0.219971,0.192383,0.942139,21.240232,-2.861023,2.204895
0.924561,0.135986,0.799072,-42.79327,27.595518,-38.955688,-0.197021,-0.030518,0.977051,62.187191,34.996033,40.824886
0.466064,0.086182,0.71875,-43.960567,-67.375183,-53.260799,-0.186279,-0.05249,0.994385,61.859127,34.957886,44.136044
0.851563,0.08252,0.751221,-37.445068,-6.256103,-54.89349,-0.168457,-0.064697,0.983398,60.554501,33.905029,47.248837
0.781738,0.081543,0.697998,-40.794369,-11.260985,-59.967037,-0.14502,-0.074951,0.97998,60.317989,31.372068,50.056454
0.726807,0.070313,0.679688,-43.876644,-13.458251,-63.941952,-0.123291,-0.086426,0.993652,61.744686,27.8244,52.780148
0.686035,0.056152,0.694336,-45.364376,-14.770507,-66.246033,-0.106201,-0.110596,0.988037,63.163754,25.024412,54.161068
0.649658,0.071777,0.72168,-46.279903,-15.663146,-67.611694,-0.109375,-0.128906,0.984131,65.307617,23.567198,54.084774
0.635498,0.114258,0.753174,-46.432491,-16.76178,-69.664001,-0.11499,-0.141846,0.975098,66.207886,24.703978,51.185604
0.5,0.119873,0.735107,-50.712582,-84.754936,-57.464596,-0.114014,-0.154785,0.979248,66.215515,24.269102,46.211239
0.659912,0.168213,0.752441,-47.363277,-23.460386,-77.384949,-0.098145,-0.18042,1.024902,63.865658,19.119263,38.246155
0.667969,0.114746,0.705566,-49.369808,-32.875061,-83.137505,-0.200439,-0.026855,0.939697,62.408443,32.745361,36.170959
0.651367,0.034912,0.662109,-51.734921,-44.654842,-90.957634,-0.117188,-0.204834,1.053955,53.0014,3.479004,27.084349
0.598633,-0.016602,0.618408,-55.328365,-52.261349,-100.143425,-0.130615,-0.199219,1.016846,44.265743,-9.353638,19.15741
0.641602,0.160645,0.77417,-46.340939,-18.760681,-72.906494,-0.130127,-0.203125,0.98999,40.298458,-14.083861,17.120361
0.410889,0.044434,0.576904,-61.210629,-41.213985,-113.159172,-0.138184,-0.199463,0.961182,37.559509,-17.478943,15.907287
0.374512,0.095215,0.587646,-62.32452,-29.747007,-115.57769,-0.149414,-0.20459,0.943115,34.820557,-19.218445,15.769958
0.367676,0.115234,0.601318,-62.477108,-19.714355,-114.150993,-0.154541,-0.206543,0.936279,31.410215,-20.484922,15.136718
0.369629,0.101074,0.644043,-60.600277,-12.634276,-108.955376,-0.159424,-0.200195,0.947998,28.633116,-23.002623,14.122008
0.368408,0.056396,0.685791,-58.708187,-8.605957,-100.280754,-0.160889,-0.200439,0.975342,26.420591,-27.565001,12.435912
0.3479,0.023926,0.733398,-55.549618,-7.8125,-88.99688,-0.154541,-0.210449,0.983154,23.986814,-32.897949,11.985778
0.314941,0.025146,0.789795,-50.582882,-10.612487,-76.408386,-0.195068,-0.230225,0.981689,21.240232,-36.659241,11.444091
0.306641,0.049561,0.815186,-45.410152,-17.929077,-63.545223,-0.231934,0.192383,0.934814,24.307249,-0.976562,3.204345
0.346436,0.056396,0.820801,-39.550781,-32.241821,-54.336544,-0.124756,-0.20166,1.034912,48.515316,-3.303528,22.6593
0.417969,0.048828,0.765137,-38.726807,-50.064083,-51.681515,-0.226807,-0.010986,0.916504,65.567017,28.442381,33.309937
0.501221,-0.007813,0.580322,-59.059139,-50.430294,-107.88726,-0.235107,-0.240723,0.975586,18.562317,-38.139343,10.040282
0.750977,0.408203,0.994873,-41.114803,-63.217159,41.809078,-0.23999,0.068848,0.939697,69.923401,18.875122,29.106138
0.803955,0.390625,0.990723,-44.822689,-63.644405,50.743099,-0.231689,0.047363,0.921875,68.946838,23.658751,30.906675
0.824707,0.352783,0.960449,-46.417233,-59.577938,59.341427,-0.200684,0.18457,0.986328,15.708922,-10.116576,-1.037598
0.831543,0.314209,0.957275,-45.982357,-48.706051,64.460754,-0.19751,0.196289,0.988037,13.275146,-13.557433,-3.547668
0.729004,0.277832,0.882813,-52.986141,-17.166138,89.721672,-0.192383,0.227295,0.985107,12.275695,-16.88385,-5.882263
0.820068,0.266846,0.956055,-45.06683,-20.469664,71.037292,-0.207275,0.270508,0.974609,12.992858,-18.974304,-7.331848
0.79126,0.267578,0.939697,-46.630856,-11.825561,76.118469,-0.223877,0.306152,0.965576,15.11383,-19.355774,-7.369995
0.756836,0.272949,0.914307,-49.72076,-11.306762,82.366936,-0.230957,0.319092,0.972656,17.26532,-19.866943,-5.897521
0.838379,0.281982,0.963135,-45.3186,-34.034729,67.398071,-0.241455,0.330322,0.986816,18.798828,-20.858763,-3.463745
0.687012,0.419922,0.996094,-36.506653,-62.07275,36.231995,-0.244629,0.360596,0.994629,20.492552,-21.667479,-0.282288
0.15332,0.741699,1.057129,-16.349792,-83.915703,6.462097,-0.247314,0.39209,0.972168,23.513792,-21.667479,3.555298
0.612305,0.447021,0.983154,-29.808043,-60.829159,35.583496,-0.269775,0.405762,0.93457,27.366636,-18.554688,7.362365
0.594971,0.473877,0.977783,-28.388975,-60.287472,36.911011,-0.200928,0.191895,0.966309,18.676758,-6.210327,1.029968
0.575195,0.516846,0.986084,-27.175901,-59.524532,35.758972,-0.290283,0.403076,0.928223,40.840145,-6.721496,12.283324
0.550537,0.570313,0.989746,-25.81024,-59.371944,32.577515,-0.280762,0.340332,0.917969,45.69244,-3.379822,13.824462
0.510742,0.609619,0.987549,-24.147032,-61.050411,29.106138,-0.288086,0.310059,0.916016,51.124569,-0.968933,16.921997
0.47168,0.630371,0.97876,-22.735594,-64.559937,26.039122,-0.292236,0.299072,0.912354,56.129452,1.13678,18.264771
0.437012,0.644043,0.968018,-22.247313,-70.053101,21.553038,-0.292236,0.272949,0.906494,60.775753,3.784179,19.683838
0.398438,0.655273,0.960938,-22.476194,-76.74408,16.159058,-0.290527,0.238281,0.905029,65.032959,6.286621,21.278379
0.327881,0.671631,0.971436,-22.262571,-82.595818,12.123107,-0.270752,0.178223,0.931641,68.412781,8.644104,22.972105
0.244629,0.702637,1.00708,-20.545958,-85.777275,8.903503,-0.255859,0.125244,0.955322,68.969727,9.536743,23.704527
0.726807,0.276611,0.848877,-56.243893,-25.238035,96.542351,-0.253906,0.085449,0.959473,68.283081,11.604308,24.16992
0.636475,0.430664,0.991455,-32.470703,-61.416622,34.439087,-0.253174,0.080078,0.961914,70.114136,14.770507,26.710508
0.74585,0.272217,0.820313,-58.952328,-31.501768,102.088921,-0.299316,0.422119,0.925537,33.721924,-12.496947,10.360717
0.613281,0.020996,0.666016,-39.268494,-29.548643,155.525208,-1.135498,0.651123,-0.136719,71.220398,-51.551815,185.508713
0.760742,0.250977,0.758057,-59.890743,-32.279968,113.098137,0.478027,1.472656,-0.163574,-18.39447,26.43585,64.987183
0.059814,0.783447,1.099121,-9.719849,-73.875427,4.867554,0.519043,1.371338,-0.10498,-33.638,19.187927,50.369259
0.426758,-0.152832,0.643066,-14.945983,-22.02606,156.463623,0.556885,1.319336,-0.056152,-43.632504,10.520934,37.445068
0.429443,-0.139648,0.654053,-16.265869,-20.507811,156.234741,0.658936,1.096436,-0.102295,-68.725586,-31.09741,-13.153075
0.424316,-0.134277,0.652832,-17.539978,-18.692017,157.12738,0.533447,1.236328,-0.032959,-55.076595,-18.89801,7.743835
0.425049,-0.129395,0.642578,-19.485474,-15.785216,158.309937,0.554932,1.206787,-0.057861,-57.250973,-33.172607,0.328064
0.42749,-0.106934,0.636475,-21.247862,-11.848449,159.263611,0.601807,1.174561,-0.090088,-60.05859,-40.679928,-4.867554
0.437744,-0.079346,0.627686,-23.185728,-8.255005,159.744263,0.650635,1.144043,-0.105957,-63.499447,-39.764404,-8.842468
0.456055,-0.05542,0.613281,-25.726316,-6.41632,160.247803,0.547607,1.27417,-0.023193,-51.071163,-2.815246,20.820616
0.475586,-0.037598,0.61084,-28.411863,-7.362365,160.987839,0.436768,1.56543,-0.211182,0.442505,38.520813,87.135307
0.511475,-0.031738,0.626221,-30.921934,-11.085509,161.361679,0.764404,1.671143,0.061279,68.855286,118.60656,200.042709
0.761963,0.264404,0.78833,-60.020443,-33.843994,107.337944,0.354736,1.566895,-0.235107,29.754637,89.74456,124.504082
0.553711,-0.018555,0.649658,-32.707214,-16.235352,161.392197,0.362061,1.618652,-0.194336,40.161129,122.642509,133.773804
0.604248,0.001953,0.669434,-36.254883,-26.504515,158.493042,0.477295,1.719238,-0.093994,53.512569,142.547607,157.920837
0.612305,0.042725,0.670898,-42.617794,-31.10504,152.549744,0.963867,1.528076,0.158447,82.778923,52.299496,229.957565
0.611816,0.071777,0.666016,-46.119686,-31.295774,149.803162,0.781494,1.453857,0.164307,93.170158,-13.420104,240.806564
0.608887,0.099121,0.663086,-49.301144,-30.128477,147.140503,0.427979,1.332031,0.127197,100.921623,-59.257504,245.39183
0.614502,0.126709,0.669678,-51.582333,-27.847288,143.90564,0.031982,1.106689,0.074463,103.889458,-87.814323,246.116623
0.642822,0.146973,0.679443,-53.443905,-25.749205,139.671326,-0.366455,0.883789,-0.041992,98.869316,-97.480766,240.165695
0.675049,0.156738,0.689209,-55.13763,-24.429319,135.383606,-0.787109,0.752441,-0.122803,89.24865,-87.310783,220.542892
0.701904,0.17041,0.704834,-56.251522,-24.67346,130.706787,0.643311,1.041016,-0.085693,-75.35553,-18.455505,-17.13562
0.729736,0.196045,0.7229,-57.456966,-26.496885,125.007622,0.390625,1.584473,-0.233887,17.669678,60.134884,110.229485
0.75,0.229736,0.740723,-58.998104,-29.396055,119.018547,0.613281,0.996094,-0.062744,-81.825249,-4.920959,-19.866943
0.581787,-0.009521,0.666992,-34.103394,-21.881102,160.705551,0.201416,0.755127,0.069824,-86.257927,31.188963,-17.456055
0.402832,-0.18042,0.634277,-12.176513,-22.613523,157.211304,0.528564,0.91333,-0.0354,-91.76635,19.210815,-25.604246
-0.025146,0.835205,1.147949,-0.663757,-54.26025,2.990722,-1.303467,0.622559,-0.118408,45.669552,12.7182,152.984619
-0.134521,0.931152,1.19458,24.734495,7.019042,-1.480102,0.287354,0.747803,0.289063,-40.824886,73.509216,5.599975
0.448242,-0.222168,0.699463,56.396481,-15.60974,-26.969908,0.300049,0.764648,0.302246,-44.464108,66.604614,1.13678
0.452148,-0.230957,0.718018,54.351803,-9.963989,-26.519773,0.301025,0.774902,0.28418,-47.439571,60.852047,-3.425598
0.486084,-0.240234,0.739502,53.38287,-5.355834,-27.19879,0.313721,0.772949,0.26709,-50.582882,53.970333,-7.408142
0.51001,-0.264404,0.751709,52.711483,-1.579285,-27.999876,0.339111,0.770996,0.279541,-54.206844,45.166012,-9.094238
0.515625,-0.283447,0.765381,52.200314,-0.831604,-28.45001,0.343506,0.781006,0.2771,-58.074947,35.591125,-9.399414
0.522705,-0.310059,0.771484,50.704952,-3.890991,-28.32794,0.322266,0.800781,0.252686,-62.278744,27.038572,-10.513305
0.54126,-0.334717,0.786133,48.835751,-7.492065,-28.945921,0.290527,0.820313,0.237305,-67.451477,21.171568,-13.061522
0.553711,-0.345703,0.817871,48.194881,-12.008666,-30.677794,0.257324,0.830811,0.230225,-72.776794,19.317627,-15.61737
0.552979,-0.36377,0.824707,47.348019,-17.974854,-31.806944,0.572754,0.953369,-0.054932,-87.318413,8.285522,-22.888182
0.521973,-0.409912,0.831787,46.524044,-29.808043,-33.729553,0.234619,0.827881,0.22998,-77.949524,21.39282,-16.189575
0.459229,-0.201416,0.672363,58.898922,-20.111082,-28.907774,0.213379,0.782715,0.12207,-84.617607,30.494688,-14.297484
0.466064,-0.429443,0.838867,47.912594,-33.081055,-33.302307,0.19458,0.751221,0.028076,-86.891167,28.83148,-22.987364
0.385986,-0.461914,0.821533,50.468441,-34.40094,-29.914854,0.195801,0.764893,-0.008545,-87.249748,25.199888,-28.259275
0.369385,-0.482666,0.811035,50.682064,-33.27179,-28.610228,0.200195,0.790771,-0.026611,-87.898247,22.3999,-32.424927
0.355713,-0.5,0.807617,49.751278,-32.554626,-26.626585,0.217041,0.817871,-0.0271,-88.439934,21.331785,-33.927917
0.351318,-0.507813,0.814209,47.622677,-32.287598,-24.566648,0.23877,0.830322,-0.007324,-90.049736,22.987364,-33.988953
0.329102,-0.503174,0.832275,45.669552,-33.27179,-22.590635,0.268066,0.839355,-0.000732,-92.666618,27.000425,-34.095764
0.284668,-0.504883,0.842529,44.296261,-35.392761,-18.722534,0.318604,0.841309,-0.007324,-94.955437,30.326841,-33.401489
0.236572,-0.509766,0.859863,43.945309,-36.468506,-13.534545,0.390625,0.851074,-0.018066,-95.687859,30.708311,-31.661985
0.20874,-0.51416,0.869873,44.151302,-35.606384,-8.56781,0.4646,0.875732,-0.025635,-94.612114,26.802061,-28.770445
0.193604,-0.516846,0.85791,44.601437,-31.677244,-3.677368,0.217285,0.810303,0.19165,-82.168571,26.473997,-15.007018
-0.097656,0.888672,1.17749,11.001586,-25.817869,0.473022,-1.220947,0.681152,0.01123,27.656553,74.523926,132.385254
0.409668,-0.445068,0.831787,49.446102,-34.599304,-31.509398,0.264404,0.719238,0.26001,-37.80365,81.230156,10.604857
0.474854,-0.163086,0.642578,61.927792,-19.210815,-31.387327,-0.63501,0.833252,0.293457,20.454405,94.375603,80.596916
0.547607,-0.385498,0.819092,46.32568,-24.398802,-32.554626,0.38208,1.124268,0.016357,61.828609,-2.410889,95.108025
0.43042,-0.025879,0.628662,69.168091,-2.799988,-38.642883,0.236084,1.05127,0.011963,66.703796,-8.460999,110.580437
0.466797,-0.101807,0.623291,65.299988,-12.733459,-34.179688,0.033936,0.998535,-0.049561,74.676514,-0.892639,125.511162
-0.064697,0.975098,1.152588,52.360531,66.612244,-7.598876,-0.181641,0.989014,-0.142578,89.706413,5.92041,132.995605
0.026855,0.959473,1.121826,65.032959,89.172356,-14.953612,-0.373291,0.960693,-0.206543,107.200615,0.816345,132.369995
0.113525,0.936035,1.094482,78.659058,107.017509,-25.817869,-0.571289,0.887451,-0.261963,120.964043,-10.894774,122.299187
0.193604,0.947998,1.079346,91.613762,118.133537,-38.230896,-0.780029,0.833008,-0.314697,137.634277,-15.312194,102.333061
0.253662,0.977539,1.054199,101.692192,119.522087,-47.21069,-0.887695,0.790039,-0.311523,157.150269,-6.072998,83.518974
0.336914,0.981201,1.022949,109.52758,114.707939,-53.474422,-0.844482,0.718506,-0.186523,164.74913,10.528563,77.384949
0.437988,0.925049,0.994629,117.84362,109.52758,-64.750671,-0.797119,0.662842,0.007813,154.083252,23.422239,80.734245
0.44873,0.845215,0.95459,123.725883,110.16082,-79.055786,0.453613,1.131104,0.015381,54.847713,21.102903,84.83123
0.426514,0.812012,0.898682,124.65667,112.724297,-88.806145,-0.797119,0.643311,0.165527,130.302429,31.562803,82.81707
0.398926,0.77002,0.877686,123.00872,108.192436,-92.559807,-0.822021,0.552002,0.300781,84.465019,48.46191,83.69445
-0.125,0.964111,1.179443,39.260864,38.94043,-3.585815,-0.855469,0.550781,0.265137,79.627991,65.498352,81.527702
0.420898,0.571777,0.824707,115.013115,80.200195,-93.795769,-0.844727,0.54126,0.288574,83.854668,87.020866,75.843811
0.394531,0.680908,0.852539,119.61364,95.283501,-93.048088,-0.795654,0.546387,0.321289,91.865532,106.048576,71.716309
0.380859,0.078125,0.593994,77.629089,11.314391,-52.505489,-0.718262,0.5979,0.341064,98.884575,119.262688,66.360474
0.384033,0.129883,0.609863,81.016533,13.648986,-61.19537,-0.654053,0.561523,0.421875,103.4851,120.979301,49.133297
0.388916,0.191162,0.645996,82.557671,15.495299,-68.893433,-0.512451,0.522217,0.449219,103.187553,110.91613,24.757383
0.38501,0.279785,0.664795,84.732048,18.959045,-77.598572,-0.30127,0.671143,0.511963,106.620781,82.916252,17.822266
0.395752,0.028809,0.615967,73.204041,6.591796,-44.616695,-0.150146,0.871826,0.709961,117.477409,40.664669,22.315977
0.42041,0.400146,0.737305,94.223015,36.186218,-94.467155,-0.205811,0.795654,0.854004,119.628899,3.349304,20.492552
0.439209,0.443848,0.772705,101.455681,49.156185,-95.726006,-0.812012,0.604736,0.268799,103.317253,37.910461,83.099358
0.437988,0.491455,0.790771,108.741753,64.598083,-94.696037,0.458984,1.071045,-0.014893,49.674984,55.122372,80.162048
0.388428,0.355225,0.686035,88.798515,26.374815,-87.676994,-0.951416,0.748535,0.172852,20.248411,104.057304,109.725945
0.284424,-0.497559,0.720947,27.221678,8.743286,36.094666,0.329102,1.135742,-0.291504,50.201412,122.642509,70.610046
0.209961,-0.333496,0.893311,32.798767,-1.419067,35.064697,-0.406982,0.930908,0.353027,24.681089,58.616634,51.11694
0.258545,-0.412109,0.82959,32.50885,11.672973,33.477783,-0.307129,0.950684,0.331055,24.482725,19.721985,27.412413
0.259766,-0.466797,0.752441,31.60858,15.197753,34.996033,-0.282227,0.922607,0.320801,17.440796,-4.104614,13.22174
0.267578,-0.456787,0.737305,30.120848,19.248962,36.712646,-0.333008,0.879395,0.287354,6.355285,-10.917663,2.609253
0.309814,-0.450684,0.716064,28.854368,21.697996,35.705566,-0.352783,0.850342,0.264648,-6.813049,-8.682251,-12.161254
0.334717,-0.460938,0.713623,28.495787,22.14813,33.370972,-0.334961,0.864502,0.278076,-18.966675,0.045776,-21.347044
0.293701,-0.414307,0.834229,30.799864,-14.511107,36.094666,0.436768,1.051025,-0.138428,49.827572,92.185966,76.828003
0.313232,-0.480957,0.717773,28.762815,20.202635,32.63092,-0.144775,0.88501,0.343506,-41.999813,11.58142,-37.330627
0.29248,-0.494873,0.715576,28.45764,15.464782,33.866882,-0.047363,0.978027,0.295898,-47.256466,12.329101,-39.016724
0.280029,-0.489746,0.719971,25.390623,1.88446,38.520813,0.005859,1.060303,0.215576,-42.221066,10.101317,-34.790039
0.352783,-0.463623,0.741211,9.414673,-1.449585,42.5415,0.01709,1.084717,0.172363,-33.363342,9.132385,-28.610228
0.294434,-0.458496,0.699219,18.478394,-5.386352,42.518612,-0.26416,0.864502,0.328369,-29.922483,8.171082,-30.303953
0.304443,-0.456055,0.695801,13.85498,-3.410339,43.182369,0.048584,1.059814,0.151367,-25.772093,9.117126,-16.052246
0.314941,-0.457764,0.707275,10.627746,-0.808716,43.121334,0.025635,1.053223,0.153564,-28.663633,9.254456,-24.04022
0.396973,-0.484131,0.767822,8.666992,-5.935668,41.702267,-0.099609,1.241699,-0.461914,25.344847,124.076836,52.261349
0.422119,-0.50708,0.779541,6.996154,-12.886046,41.213985,-0.136475,1.195313,-0.392578,10.757445,91.423027,53.955074
0.429688,-0.517578,0.802002,5.554199,-19.882202,41.206356,-0.030029,1.153809,-0.273193,7.316589,50.971981,53.688046
0.414551,-0.528076,0.806152,4.074097,-25.444029,41.358944,0.046631,1.124512,-0.188721,8.06427,18.676758,40.939327
