ax,ay,az,gx,gy,gz,ax,ay,az,gx,gy,gz
0.297607,0.743896,0.445313,10.612487,42.396542,-6.095886,0.04541,1.824219,-0.035156,245.506271,9.635925,-153.541565
0.298584,0.687744,0.547852,9.017944,40.359493,-10.124206,-0.816162,0.72583,0.091797,249.992355,-61.546322,-181.304916
0.28125,0.85083,0.295654,9.742737,59.974667,-3.463745,-0.632813,1.799561,-0.484619,249.992355,-172.721848,16.647339
0.121094,0.997559,0.043457,5.752563,-33.607483,-5.226135,-0.888428,0.887695,0.104736,249.992355,-58.433529,-204.772934
0.397949,1.447021,-0.437988,154.960632,140.403748,31.448362,2.463135,-1.04248,2.3125,249.992355,151.832581,-206.932053
0.298828,0.944092,0.273438,249.992355,60.630795,181.25914,-0.723389,1.263428,0.205078,249.992355,-40.313717,-247.489914
0.233887,0.9375,0.246582,249.992355,83.854668,169.952377,-0.035889,1.553467,-0.256104,249.992355,55.313107,-118.812553
0.197998,0.978516,0.165527,237.480148,97.854607,149.520874,2.094727,-0.474121,1.585449,249.992355,146.652222,-198.570236
0.18042,1.028564,0.069824,217.330917,105.667107,124.244682,1.929688,-0.118896,1.294189,249.992355,164.115891,-199.78331
0.210205,1.095947,-0.01416,198.127731,111.846916,101.303093,2.147949,0.189453,1.160645,249.992355,155.670166,-237.609848
0.284668,1.156738,-0.087891,181.755051,115.730278,84.892265,1.797607,0.541992,0.915771,249.992355,144.203186,-249.992355
0.342285,1.216309,-0.125,170.242294,119.697563,71.746826,0.73999,0.81958,0.30249,249.992355,149.085999,-249.992355
0.336426,1.302246,-0.200195,160.819992,124.893181,60.447689,-0.066162,0.926514,-0.366211,249.992355,154.10614,-249.992355
0.352295,1.376465,-0.324463,153.831482,131.454468,47.355648,-0.280518,1.116943,-0.527588,249.992355,159.080505,-249.992355
0.35498,1.013916,0.239258,249.778732,32.302856,185.577377,-0.562744,1.45166,-0.413574,249.93132,169.395432,-249.992355
0.718018,2.117188,-0.48877,192.22258,205.940231,-3.372192,-0.841064,1.725098,-0.337402,249.816879,176.47551,-249.992355
0.817871,2.558838,-0.54126,229.553207,230.766281,-12.5885,-0.943604,1.907715,-0.262451,249.992355,181.076035,-249.992355
0.705322,2.689209,-0.588379,249.992355,231.849655,-39.482117,-1.086182,1.982422,-0.220947,248.352036,183.174118,-249.992355
0.633545,2.834961,-0.533691,249.992355,191.444382,-55.572506,-1.16748,1.927246,-0.198486,232.322678,170.41777,-249.992355
0.993408,3.491211,-0.365479,249.992355,133.743286,-38.528442,-1.123779,1.810791,-0.055908,222.450241,140.266418,-249.992355
1.269531,4.2854,-0.381104,249.992355,124.038689,-4.257202,-0.969727,1.696777,0.023682,218.292221,104.698174,-249.992355
0.712158,4.615479,-0.602051,249.877914,131.92749,24.108885,-0.835938,1.577637,0.076416,220.413193,67.619324,-249.992355
-0.185547,4.0979,-0.813477,249.992355,78.384399,35.087585,-0.874756,1.44751,0.09082,240.249619,23.582457,-249.992355
-0.445068,3.445068,-0.875977,249.992355,-14.564513,54.824825,-0.91748,1.312256,0.093506,249.992355,-26.954649,-249.992355
-0.178467,3.136963,-0.869873,244.76622,-64.38446,25.955198,-0.787109,1.314941,0.119629,249.992355,-63.789364,-249.992355
0.500732,1.563965,-0.481689,164.367661,152.694702,13.801574,-0.626465,1.426514,0.175537,249.992355,-72.20459,-249.992355
0.358154,1.114014,0.202881,249.992355,2.89917,190.864548,-0.63623,1.515381,0.244141,249.992355,-58.998104,-249.916061
0.607666,1.766846,-0.452148,176.620468,173.927292,0.37384,-0.706299,1.51709,0.230713,249.992355,-43.907162,-249.847397
0.268311,1.276123,0.259766,249.992355,-52.085873,202.217087,-0.716064,1.419922,0.216309,249.992355,-37.384033,-249.992355
-0.648193,2.199219,-0.862549,249.992355,-117.980949,-14.045714,-0.793213,1.080078,0.158203,249.992355,-50.10223,-228.752121
-2.072754,-3.109863,1.807617,227.691635,-65.307617,47.348019,0.882568,2.310791,-0.408203,249.992355,74.180603,-156.898499
-2.582275,-2.451416,1.272949,249.992355,3.02124,139.11438,-0.588379,2.11084,0.307129,204.223618,76.187134,-249.992355
-2.830078,-1.427734,1.179199,249.992355,25.947569,192.367538,-0.670654,7.999756,-6.303955,-240.844711,167.312607,118.888847
-2.466064,-0.510986,1.388184,249.992355,61.027523,228.996262,-0.944824,2.36792,0.447021,-249.992355,-249.992355,249.992355
-1.375488,0.083252,0.808838,249.992355,93.673698,243.972763,-0.590576,2.124268,0.779785,-249.992355,-249.992355,249.992355
-0.360596,0.42334,0.131104,249.992355,106.811516,249.992355,-0.590576,1.800293,0.675537,-249.992355,-249.259933,249.992355
0.056396,0.725098,-0.207275,249.992355,103.439323,249.992355,-0.229004,1.411621,0.537842,-249.992355,-249.992355,249.992355
0.12915,1.075195,-0.189697,249.992355,87.409966,249.992355,0.14917,1.033936,0.369141,-249.992355,-249.992355,249.992355
0.116943,1.358643,-0.029785,249.992355,65.895081,249.992355,0.508301,0.735352,0.302979,-249.610886,-216.468796,249.992355
0.096924,1.553223,0.013672,249.992355,46.791073,249.992355,0.900879,0.470215,0.42627,-249.595627,-147.666931,249.450668
0.075928,1.648193,-0.027588,249.992355,19.935608,249.862656,1.26709,0.269287,0.728271,-249.992355,-69.519043,249.992355
0.043213,1.621094,-0.08374,249.992355,-20.370481,249.992355,1.689941,0.155273,1.183105,-237.800583,6.286621,249.992355
0.033203,1.594727,-0.097412,249.992355,-67.878723,249.992355,2.742188,-0.201416,2.346436,-121.986382,196.876511,154.998779
0.018066,1.625244,-0.018555,249.992355,-109.886162,242.530807,-1.34082,2.621338,-0.082031,-249.992355,-248.451218,249.992355
0.088623,1.655762,0.062744,249.992355,-137.771606,232.566818,3.60791,-0.601807,2.680908,-57.228085,249.992355,85.250847
0.172363,1.609619,0.088135,249.992355,-145.256042,222.221359,3.523682,-1.347656,3.27124,189.048752,249.984726,-136.985779
0.16626,1.510742,0.105713,249.992355,-135.215759,215.766891,2.980713,-0.935059,2.411133,246.307358,249.992355,-245.605453
0.163086,1.421875,0.118896,249.992355,-117.912285,213.363632,2.61499,-0.483398,1.472168,245.89537,249.80925,-249.992355
0.167969,1.346436,0.246582,249.992355,-103.202812,210.990891,2.405029,-0.156982,1.001709,249.992355,249.114975,-249.992355
0.162354,1.302246,0.363037,249.992355,-93.376152,207.824692,2.498535,0.171875,0.781006,241.203293,249.992355,-249.992355
0.188477,1.300293,0.341797,249.992355,-84.480278,204.513535,2.616455,0.587402,0.89917,224.273666,246.971115,-249.992355
0.227539,1.292236,0.314697,249.992355,-72.319031,203.262314,1.865479,1.164307,0.73584,200.988754,184.165939,-249.992355
0.326416,1.214355,0.218018,249.992355,-26.130674,198.066696,0.730469,1.6521,0.493896,195.640549,133.529663,-249.992355
-1.606201,2.723877,-0.898926,249.992355,-182.449326,46.95892,-0.130615,1.912109,0.400879,199.501022,102.104179,-249.992355
-1.191406,-0.563965,0.501953,-249.992355,-105.613701,-190.093979,-0.703613,5.520996,-1.845215,77.575684,89.553825,-71.342468
0.92627,7.999756,-6.369873,-249.992355,-220.489487,-6.66809,4.074951,-1.157959,3.109131,43.846127,249.992355,13.572692
0.27002,1.980957,0.083984,-249.992355,93.299858,-249.992355,-1.46167,2.838135,-0.364502,-249.992355,-236.633286,249.992355
0.150635,2.549805,0.405762,-249.992355,128.372192,-223.449692,2.152832,0.021729,1.781738,-175.84227,85.678093,220.870956
0.038574,2.532715,0.647461,-249.992355,152.351379,-177.040085,-1.473633,2.868408,-0.169189,-249.992355,-225.791916,249.992355
0.023926,2.316406,0.685791,-249.992355,153.900146,-230.575546,-1.469238,2.925537,-0.291992,-249.992355,-232.284531,249.992355
-0.200928,1.635986,0.8125,-249.992355,124.465935,-249.992355,-2.304199,4.130371,-4.095703,-249.992355,202.17131,152.22168
-0.428223,0.930908,0.693604,-249.992355,87.425224,-249.992355,-1.659668,2.282715,-2.480957,-249.992355,129.646301,158.737183
-0.536133,0.463867,0.314209,-249.992355,59.585567,-249.870285,-0.887939,1.646973,-0.466553,-249.992355,128.417969,168.495163
-0.582031,0.042969,0.143555,-249.992355,37.574768,-249.389633,-0.471924,1.445068,0.159424,-249.992355,156.196594,162.666306
-0.808594,-0.332031,0.296631,-249.748215,25.55847,-249.992355,-0.47998,1.447021,-0.097412,-249.992355,182.929977,167.594894
-1.101318,-0.529053,0.449463,-249.992355,-0.946045,-242.103561,-0.611816,1.495605,-0.512939,-249.992355,201.827988,179.328903
-0.023926,2.439941,-0.051758,-249.992355,79.116821,-249.992355,-0.72876,1.510254,-0.687988,-249.992355,214.302048,196.121201
-1.732422,-0.620117,0.791016,-238.891586,-227.348312,-119.659416,-0.888916,1.512695,-0.497314,-249.992355,228.416428,235.725388
-1.658691,-1.93335,2.168457,-28.32794,-249.992355,-73.600769,-0.905273,1.554443,-0.017822,-249.992355,245.697006,249.992355
-0.621338,-2.72168,2.260986,168.273911,-249.992355,70.4422,-0.847412,1.618408,0.225342,-249.992355,249.488815,249.992355
-0.723633,-2.479004,1.772705,214.347824,-168.601974,88.050835,-1.446533,6.767334,-5.234863,-249.992355,249.992355,175.445541
-1.621582,-1.982178,1.361572,249.992355,-55.114742,49.911495,-0.91333,1.756836,0.140137,-249.992355,249.992355,249.992355
-2.317627,-1.486572,1.214111,249.992355,24.513243,128.128052,-0.854736,1.679688,0.230469,-249.992355,249.992355,249.992355
-2.626953,-0.510254,1.518799,249.992355,93.238823,200.332626,-1.317627,2.371338,0.330566,-249.992355,-181.968674,249.992355
-2.037842,0.366943,1.419922,249.992355,120.948784,230.041489,-1.250488,2.31958,0.422119,-249.992355,-158.218384,249.992355
-0.87915,0.946289,0.983643,249.992355,107.284538,249.389633,-1.196289,2.317383,0.477051,-249.992355,-126.892082,249.992355
-0.1604,1.273438,0.60791,249.992355,71.266174,249.992355,-1.207764,2.286865,0.383057,-249.992355,-78.239441,249.992355
0.472412,6.361084,-2.005615,40.855404,-226.440414,35.072327,-1.423096,2.601563,0.114502,-249.992355,-204.513535,249.992355
-2.31665,-1.016113,1.304688,-197.936996,-248.16893,-95.062248,-1.289551,2.113037,0.065186,-249.992355,82.290642,249.992355
0.141846,3.072998,0.030518,-249.992355,57.640072,-249.290451,-1.211182,1.987549,0.019775,-249.992355,164.573654,249.992355
0.029541,1.518066,0.552979,249.992355,32.249451,249.992355,-1.057129,1.865723,0.037354,-249.992355,228.370651,249.992355
0.422119,2.605469,0.130127,-249.992355,32.470703,-249.992355,-1.268311,2.21875,0.200439,-249.992355,-4.150391,249.992355
0.287842,2.789307,0.087646,-249.992355,40.435787,-249.992355,-0.862305,0.651367,-0.192383,249.992355,-94.490044,-192.413315
1.199951,4.319336,-3.338867,-249.992355,-135.536194,97.518913,-1.056641,2.154297,0.154541,249.992355,1.441955,-249.992355
0.583252,3.390869,-1.341797,-249.992355,-54.977413,165.687546,-1.1521,1.94165,-0.04126,249.992355,-31.524656,-249.992355
0.359131,2.708252,-0.431641,-249.992355,-69.717407,167.922958,-1.085693,1.584961,-0.108887,249.992355,-59.463497,-249.969467
0.246094,1.963623,0.346191,-249.992355,-128.349304,114.356987,-0.925781,1.249268,-0.000977,249.671921,-78.468323,-249.732956
0.250488,1.453857,0.411377,-249.992355,-173.850998,57.563778,-0.797607,0.981445,0.096191,249.694809,-89.637749,-249.992355
0.209961,1.239014,0.171387,-249.992355,-186.035141,11.871337,-0.75415,0.767334,0.146729,249.992355,-91.804497,-249.946579
0.098877,1.197998,0.079834,-249.992355,-182.022079,-12.001037,-0.905762,2.163818,0.365723,249.992355,28.350828,-249.992355
0.052002,1.22583,0.080566,-249.992355,-180.061325,-28.778074,-0.744873,0.635254,0.119873,249.992355,-89.942924,-232.482895
0.073975,1.275879,0.059814,-249.80925,-180.198654,-50.842281,-0.793701,0.607666,-0.012207,249.992355,-89.668266,-212.814316
0.125,1.27002,0.114258,-249.992355,-181.823715,-72.982788,-0.877441,0.752686,-0.334961,249.954208,-104.667656,-170.249924
1.020264,6.593262,-6.494873,-249.992355,-249.992355,35.751343,-1.02417,1.279541,-0.695801,249.992355,-240.028366,-66.986084
0.139404,1.25708,0.177734,-239.425644,-201.614365,-131.576538,-0.896973,1.001709,-0.428467,249.992355,-130.256653,-127.105705
0.172607,1.310547,0.279297,-221.96196,-213.500961,-159.133911,-0.916504,1.103271,-0.510498,247.573837,-152.313232,-107.528679
0.296631,1.335938,0.327881,-213.157639,-221.611008,-194.084152,-0.95874,1.185547,-0.642822,248.863205,-193.061813,-89.767448
0.435303,1.379395,0.386475,-209.342941,-218.376144,-231.246933,-1.0,1.442139,-0.616455,249.992355,-249.992355,-42.808529
0.52417,1.495361,0.32666,-209.701523,-198.928818,-249.42778,-0.889893,1.652344,-0.5,249.992355,-249.93895,-24.887083
0.632568,1.670166,0.199707,-218.261703,-163.49028,-249.992355,-0.824219,1.959229,-0.546631,249.992355,-248.748764,-16.555786
0.74292,1.89209,0.118896,-241.409286,-116.180412,-249.992355,-0.836426,2.376953,-0.572266,249.992355,-249.992355,-13.389586
0.75415,2.099854,0.174316,-249.992355,-65.704346,-249.992355,-0.891846,2.840088,-0.563721,249.992355,-249.992355,-5.561828
0.673828,2.278076,0.219482,-249.992355,-20.63751,-249.992355,-1.04248,3.208984,-0.487793,249.992355,-180.427536,-0.839233
0.536377,2.461426,0.200195,-249.992355,14.617919,-249.984726,-0.796143,2.107178,0.410889,249.992355,29.319761,-249.992355
0.163574,1.196777,0.146973,-249.992355,-190.597519,-101.287834,-0.876465,0.879395,-0.397949,249.992355,-116.34063,-148.544312
2.085449,4.236084,-0.185303,249.992355,168.609604,-47.737118,-0.758545,2.091064,0.242676,249.992355,5.119323,-249.992355
0.30542,1.133545,0.05249,249.832138,121.803276,163.352951,-1.200195,3.548096,-0.380127,249.992355,-105.323784,-17.021179
0.322998,1.063232,0.170166,249.992355,106.170647,189.132675,-1.147217,2.125488,-0.176025,249.04631,-22.178648,-249.992355
0.351563,1.070801,0.210449,249.992355,87.417595,213.14238,1.606934,0.442627,0.986572,-249.992355,-173.660263,249.992355
0.274902,1.664063,0.169189,249.992355,-142.89093,242.607101,2.143066,0.227783,1.517822,-219.474777,-153.907776,249.992355
0.418457,1.412842,0.159424,249.992355,15.708922,238.792404,2.790527,-0.120117,2.199463,-147.865295,-111.404411,199.058517
0.407959,1.517578,0.193848,249.992355,-35.392761,240.028366,3.29126,-0.413574,2.811279,-80.123901,-24.002073,127.197258
0.382813,1.560791,0.199951,249.992355,-82.359306,237.449631,3.76416,-0.573486,3.117676,-1.38855,92.582695,80.444328
0.336914,1.60376,0.185303,249.992355,-118.682854,237.647995,3.855469,-0.532715,3.294678,81.718437,197.082504,7.743835
0.394531,1.22583,0.171875,249.992355,58.906551,229.911789,2.928223,-0.210693,3.143799,148.040771,247.444138,-114.883415
0.308838,1.237061,-0.06665,249.908432,138.664246,139.602661,2.157471,-0.04834,2.475098,213.294968,249.992355,-214.134201
0.605225,1.626953,-0.459717,193.931564,193.35173,56.587215,2.026123,0.002441,1.815918,249.389633,249.710068,-249.259933
0.40625,1.426758,-0.294922,244.316086,165.283188,108.345024,1.990723,0.220703,1.416016,249.992355,249.992355,-249.992355
0.5,1.501709,-0.360352,219.375595,173.049911,91.873161,-0.910645,2.063232,0.000488,249.992355,-20.698545,-249.992355
0.57373,1.564941,-0.399414,199.760422,181.724533,72.013855,2.218994,0.605957,1.20752,249.992355,249.992355,-249.992355
0.648438,1.704834,-0.536133,198.562607,210.594162,42.602535,1.630127,1.441895,0.791748,249.992355,204.94841,-249.992355
0.649902,1.857422,-0.587646,218.18541,233.398422,25.825499,0.560303,1.718506,0.359375,249.855026,177.47496,-249.992355
0.596436,2.083008,-0.622314,244.155869,244.232162,9.750366,-0.199219,1.850342,0.080078,249.992355,166.313156,-249.992355
0.503906,2.390625,-0.614746,249.992355,222.938522,-6.767272,-0.55127,2.008545,-0.064209,249.992355,159.500122,-249.992355
0.593994,2.657227,-0.496826,249.992355,167.419418,-26.100157,-0.81665,2.14917,-0.131104,244.728073,146.66748,-249.992355
1.315186,3.190918,-0.294922,249.992355,128.799438,-40.176388,-1.070313,2.253906,-0.094238,226.737961,129.03595,-249.992355
0.204346,1.745361,0.201904,249.992355,-155.799866,248.176559,-1.208496,2.417236,-0.02124,209.976181,101.837151,-249.992355
0.340088,1.34082,-0.1875,249.992355,154.418945,121.528618,-1.28833,2.582275,-0.00708,201.66777,68.145752,-249.992355
0.147705,1.806885,0.245361,249.992355,-161.201462,249.992355,-1.319092,2.572021,-0.150391,206.947311,32.798767,-249.992355
-0.645264,1.145752,0.802246,249.992355,36.827087,243.63707,-1.295166,2.357178,-0.256348,229.537949,1.434326,-249.992355
0.080322,1.837891,0.287842,249.992355,-158.279419,249.954208,2.202148,1.006592,1.145508,249.992355,239.624008,-249.992355
1.354736,4.832031,-0.338867,249.908432,238.929733,-14.343261,-1.095459,4.044189,-0.332764,249.93132,-49.034115,-32.76062
-1.143555,-0.16748,1.178955,-249.992355,-62.110897,-218.711838,-0.964111,2.269287,0.116211,-249.992355,-249.031052,249.992355
-1.204346,-0.537842,1.693359,-238.151535,-129.554749,-205.512985,-0.52417,4.05835,-0.581787,249.992355,41.610714,-31.288145
-1.224121,-0.903564,2.230225,-132.171631,-192.825302,-178.832993,-1.17749,2.124268,0.313721,-249.992355,-87.6007,249.992355
-1.869873,-1.12793,2.668213,-33.248901,-240.455612,-117.889397,-1.072266,2.172852,0.333496,-249.992355,-115.486137,249.992355
-2.354492,-1.255127,2.952148,51.11694,-249.992355,-48.301693,-1.057129,2.226074,0.27832,-249.992355,-124.221794,249.992355
-1.889404,-1.307617,2.74585,140.975952,-249.992355,9.086609,-1.037354,2.299072,0.125244,-249.992355,-121.490471,249.992355
-1.250244,-1.451172,2.046387,215.385422,-210.601791,53.474422,-0.900391,2.284424,0.019043,-249.992355,-124.305717,249.992355
-1.270752,-1.768555,1.737305,249.992355,-106.407158,68.267822,-0.855469,2.21875,0.069092,-249.992355,-140.968323,249.992355
-1.593018,-1.532471,1.6875,249.992355,-15.350341,101.013176,-0.979736,2.259766,0.032715,-249.992355,-169.883713,249.992355
0.106445,1.822266,0.287109,249.992355,-160.72081,249.992355,-1.147461,2.299805,-0.005127,-249.992355,-216.140732,249.992355
-1.712402,-0.631104,1.561768,249.992355,61.286922,123.657219,-1.279053,2.358398,-0.017334,-249.992355,-248.825058,249.992355
-1.328613,0.687012,1.309082,249.992355,80.718987,212.715134,-1.311768,2.391357,-0.065186,-249.992355,-249.992355,249.992355
-0.228027,1.452393,0.374023,249.992355,-5.91278,249.992355,-1.251221,1.990234,0.35498,-249.992355,-38.894653,249.992355
-0.030273,1.669189,0.196045,249.992355,-39.215088,249.992355,-0.374756,2.042236,0.080811,-249.992355,-249.992355,249.992355
0.009277,1.789063,0.188965,249.992355,-64.941406,249.992355,0.481689,1.022705,0.369629,-249.992355,-207.824692,249.992355
-0.025635,1.847168,0.230225,249.992355,-87.562553,249.992355,0.724609,0.645996,0.516357,-249.992355,-132.240295,249.885544
-0.013916,1.902344,0.274414,249.992355,-110.435478,249.992355,0.989258,0.365967,0.578369,-248.80217,-65.589905,249.351486
0.032715,1.954102,0.290283,249.992355,-130.638123,249.992355,1.371094,0.125244,0.779785,-249.992355,-6.340026,249.992355
0.016846,1.955566,0.267334,249.992355,-142.601013,249.992355,1.945557,-0.202393,1.256348,-249.992355,41.572567,248.634323
0.044189,1.902832,0.289551,249.992355,-150.123596,249.992355,2.497803,-0.564209,1.990234,-187.652573,81.802361,204.200729
0.061279,1.861816,0.288086,249.992355,-154.396057,249.992355,3.054688,-0.795166,2.586182,-104.560844,122.962944,153.625488
-1.755615,0.085205,1.5354,249.992355,92.407219,163.543686,3.619141,-1.067383,2.871094,-23.139952,159.370422,76.263428
0.142578,4.339111,-0.494629,249.992355,181.793198,35.78186,3.547852,-1.568848,3.054932,124.39727,181.732162,-37.841797
-0.809082,0.096436,0.727539,-248.908981,6.362915,-231.025681,2.923096,-1.642822,2.925049,242.423996,179.336533,-157.394409
-0.321533,3.595215,-0.365723,246.368393,-55.084225,43.136593,0.199219,1.509766,0.158447,-249.977097,-249.992355,249.992355
0.799805,1.745117,0.371582,-191.978439,-76.74408,-249.992355,-1.195801,1.804688,0.340088,-249.992355,23.406981,249.992355
0.783936,1.90332,0.247803,-189.300522,-0.823975,-249.992355,-0.867432,4.354004,-0.453125,249.664291,1.708984,-24.92523
0.756836,2.089111,0.141846,-189.155563,84.533684,-249.992355,-1.015381,1.537842,0.221191,-249.992355,142.074585,249.992355
0.726563,2.261719,0.14209,-211.791977,180.397018,-249.992355,0.05957,2.592041,-0.533936,230.255112,204.261765,1.495361
0.69043,2.578125,0.275391,-246.360764,244.567856,-249.992355,0.342041,1.567139,-0.350098,249.992355,249.992355,17.677307
0.584961,2.838379,0.454834,-249.992355,249.992355,-249.664291,0.634521,2.113281,0.059814,249.992355,249.992355,-120.559685
0.310059,2.299316,0.557617,-249.992355,249.694809,-249.992355,-2.406494,5.072754,-1.428223,48.484798,117.828362,-114.181511
0.127441,2.135254,0.620605,-249.992355,249.992355,-249.992355,-3.256104,7.999756,-5.47876,-234.657272,19.363403,107.269279
0.141113,2.260986,0.665771,-249.992355,249.992355,-236.350998,-2.202881,6.821777,-7.191162,-249.992355,79.536438,106.819145
-0.098389,2.366699,0.600098,-249.992355,209.136948,-213.653549,-2.25,3.047119,-3.101318,-249.992355,49.621578,95.283501
0.839355,1.60791,0.457275,-184.715256,-145.904541,-249.992355,-1.226074,1.973145,-0.261963,-249.992355,-0.610352,97.076408
-0.013672,1.755371,0.437012,-249.992355,193.458542,-247.184738,-0.802002,1.714355,0.231445,-249.992355,-12.252807,93.849174
-0.517578,0.639648,0.079346,-249.992355,130.66864,-249.992355,-0.545898,1.493896,0.143555,-249.992355,-14.015197,91.400139
-0.810791,0.298584,-0.151367,-249.992355,68.786621,-249.649033,-0.39502,1.239502,0.037842,-249.992355,5.653381,87.821953
-0.949707,-0.067871,-0.158447,-248.252853,-30.052183,-249.389633,0.147217,3.512207,-0.652832,249.122604,97.43499,-49.293514
-1.192383,-0.510986,0.166016,-249.992355,-170.494064,-249.992355,-0.336426,1.020264,-0.007324,-249.992355,44.975277,89.126579
-1.543945,-1.003174,0.624268,-249.992355,-247.863754,-239.830002,-0.297363,0.882568,0.152832,-249.992355,90.995781,90.011589
-1.605469,-1.480469,1.105957,-168.098434,-248.878464,-151.664734,-0.32251,0.859375,0.282471,-249.992355,135.101318,99.060051
-1.304199,-1.745605,1.449707,-45.31097,-249.43541,-74.897766,-0.341553,0.922119,0.309326,-249.992355,171.264633,116.538994
-0.996094,-1.945313,1.739746,0.495911,-249.992355,-88.928215,-0.394043,1.010986,0.250488,-249.992355,197.692856,138.931274
-1.378174,-2.652832,2.118896,88.85955,-211.975082,-63.591,-0.489014,1.098145,0.122314,-249.992355,214.088425,165.580734
-0.29541,3.961426,-0.369873,249.992355,30.960081,68.092346,-0.650879,1.168945,0.009766,-249.992355,220.657333,197.288498
-0.140381,1.085938,0.330078,-249.961838,170.04393,-249.992355,-0.853271,1.239258,-0.031738,-249.992355,219.139084,236.343369
0.793701,1.42749,0.500977,-172.592148,-202.30101,-249.992355,-0.942871,1.328613,0.023682,-249.992355,206.901535,249.992355
-0.085693,2.554688,0.640625,-249.992355,237.724289,-207.84758,-0.957275,1.438965,0.124268,-249.992355,181.503281,249.992355
0.580322,1.231689,0.279297,-155.670166,-249.992355,-249.587997,-1.106689,1.649658,0.282471,-249.992355,88.043205,249.992355
-0.151855,2.904785,-0.527344,249.992355,-123.89373,-34.645081,-1.007568,1.863525,0.362305,187.789902,46.813961,-249.992355
0.694092,1.303467,0.429932,-160.331726,-243.324265,-249.992355,-0.874512,1.909912,0.37207,185.058578,83.557121,-249.992355
-1.43042,2.959717,-0.906738,249.992355,-155.357361,-19.760132,-0.76416,1.861084,0.355713,190.170273,105.773918,-249.992355
0.078369,5.223145,-1.226807,117.706291,-200.363144,-9.315491,-0.811035,1.842041,0.216309,193.038925,114.784233,-249.992355
1.250244,7.999756,-4.9375,-225.929245,-249.992355,-58.479305,-1.426758,2.441406,-0.007324,165.100082,212.310776,-249.992355
1.682129,7.552734,-5.850342,-249.992355,-235.481247,-24.101255,-1.235596,2.054688,0.048828,177.665695,144.91272,-249.992355
1.344482,5.176514,-2.862793,-249.992355,-72.357178,94.596855,-1.458984,2.226807,0.06958,165.245041,180.458054,-249.992355
0.629395,2.4646,-0.729004,-249.992355,83.328239,160.316467,-1.485352,2.338623,0.104736,156.715393,204.811081,-249.992355
0.348877,1.844727,0.300293,-249.992355,44.56329,144.767761,-1.084473,1.761475,0.252197,199.226364,6.973266,-249.992355
0.0896,1.645264,0.382324,-249.992355,-15.335082,131.637573,-1.001465,1.911377,0.085449,190.444931,121.37603,-249.992355
-0.115479,1.572754,0.232422,-249.992355,-76.576233,111.412041,-0.996826,1.639404,0.119629,209.976181,-29.518126,-249.992355
0.894531,3.577148,-1.880127,-249.992355,52.207943,154.449463,-1.036133,1.230713,-0.096436,221.229538,-174.446091,-249.977097
-0.181396,1.4104,0.019775,-249.786362,-181.022629,38.505554,-1.019531,1.383301,0.098389,228.858932,-88.60778,-249.992355
0.453857,1.138672,0.1875,-166.450485,-249.748215,-234.230026,-0.999268,1.322998,0.105225,228.630051,-116.119377,-249.992355
-0.199219,1.522461,0.085205,-249.992355,-133.605957,74.943542,-1.002197,1.282715,0.053467,225.852951,-144.203186,-249.992355
0.213135,0.976318,0.196533,-189.727768,-249.992355,-166.76329,-1.113525,1.119141,-0.288818,226.066574,-203.094467,-249.511703
0.115967,0.894287,0.248291,-193.519577,-249.992355,-133.308411,-1.226807,0.953613,-0.531982,245.292648,-221.107468,-249.992355
0.051514,0.859619,0.251953,-205.528244,-249.992355,-101.684563,-1.191406,0.806152,-0.747559,249.992355,-227.668747,-249.992355
0.328125,1.056885,0.165527,-182.479843,-249.786362,-201.087936,-1.032959,0.736084,-0.690918,249.992355,-227.737411,-223.09874
0.019775,0.900146,0.2854,-241.310104,-249.992355,-41.381832,-1.020752,0.761475,-0.573486,249.992355,-226.287827,-189.460739
-0.010742,1.009033,0.27002,-249.992355,-244.911179,-13.687133,-1.140381,0.839844,-0.580566,249.992355,-230.384811,-156.318665
-0.101318,1.204834,0.12085,-249.992355,-217.68187,10.787963,-1.317627,2.459473,-0.085693,193.35173,206.817612,-249.992355
0.031006,0.864502,0.228271,-222.908005,-249.992355,-71.777344,-0.970947,1.493652,0.075684,220.642075,-61.416622,-249.992355
0.196045,1.693848,0.300049,249.992355,-39.756775,249.992355,-1.3479,2.35376,-0.179443,229.65239,209.2285,-249.992355
0.495605,2.108398,0.148438,249.992355,-109.321587,249.992355,4.251221,-0.63501,4.724609,249.992355,249.992355,-98.114006
0.600342,2.17041,0.235107,249.992355,-118.171684,249.992355,-1.21875,2.21167,-0.198486,249.992355,217.895493,-249.992355
0.60498,2.128906,0.295654,249.992355,-115.333549,249.992355,-0.069092,2.421631,1.818359,-249.992355,-249.992355,249.992355
0.517334,1.940674,0.33252,249.992355,-106.079094,249.992355,-0.238525,1.492676,1.673828,-249.992355,-249.992355,249.992355
0.359863,1.767578,0.32959,249.992355,-90.057365,249.992355,0.176758,1.022705,0.930664,-249.969467,-230.201706,249.992355
0.193115,1.688477,0.366943,249.992355,-75.431824,249.992355,0.683594,0.796143,0.489502,-249.992355,-201.576218,249.984726
0.103027,1.680908,0.364258,249.992355,-64.277649,249.992355,1.211914,0.623779,0.631348,-249.992355,-175.834641,249.992355
0.086182,1.672607,0.328125,249.992355,-52.742001,249.992355,1.664551,0.463135,0.962646,-248.817429,-144.073486,249.839767
0.126709,1.66626,0.31958,249.992355,-43.952938,249.992355,2.053467,0.307373,1.487793,-249.992355,-107.345573,248.870834
0.266602,1.682617,0.282227,249.992355,-34.797668,249.992355,2.440674,0.220947,2.184082,-249.992355,-65.475464,249.992355
0.351563,1.361816,-0.348389,208.618149,29.273985,89.599602,2.876953,0.117676,2.984619,-203.330978,-25.222776,249.069199
0.427734,1.602539,0.217041,249.992355,-15.388488,249.992355,3.49292,-0.085449,3.836182,-76.324463,29.655455,172.431931
0.470703,1.537842,0.21167,249.992355,-3.318786,249.992355,-1.501221,2.252686,-0.282715,249.992355,216.827377,-249.992355
0.477051,1.574707,0.19751,249.992355,10.215758,247.879013,4.10083,-0.325195,4.470947,59.371944,145.874023,93.963615
0.502197,1.673584,0.105469,249.992355,24.787901,247.41362,-1.240723,0.958252,-0.60791,249.992355,-243.347153,-117.988579
0.541992,1.691895,-0.015869,249.992355,38.505554,241.806015,3.453613,-0.54126,4.014404,249.992355,249.992355,-225.517258
0.60791,1.593262,-0.130371,249.732956,46.806332,210.983261,2.590332,-0.122559,2.844971,249.992355,249.992355,-249.992355
0.520508,1.420654,-0.13916,249.992355,49.438473,163.856491,2.189697,0.370605,2.046387,249.992355,249.992355,-249.992355
0.287109,1.3125,-0.095947,249.992355,48.71368,128.013611,2.264893,0.604736,1.355713,249.992355,249.80162,-249.992355
0.19873,1.302246,-0.183594,239.524826,40.969845,108.955376,1.861816,0.708984,0.736328,249.992355,249.992355,-249.992355
0.358398,2.033447,0.104736,249.992355,-86.60125,249.992355,1.749512,0.867188,0.639404,249.992355,249.992355,-249.992355
0.35083,1.63623,0.25,249.992355,-26.420591,249.954208,1.566406,1.255127,0.773926,249.992355,242.599472,-249.992355
0.355957,2.02124,0.101807,249.992355,-57.632442,249.992355,0.39502,1.768311,0.469238,249.992355,225.784286,-249.992355
0.059082,1.942871,1.328857,-249.992355,19.233704,-135.902405,-0.594971,2.091553,0.059082,249.580368,220.283493,-249.992355
0.342529,1.955322,0.195801,249.992355,22.850035,249.992355,4.416016,-0.484619,4.654541,197.807297,242.584213,33.508301
0.545898,1.426514,-0.457031,177.207932,27.542112,63.659664,-1.227295,1.089844,-0.651367,249.992355,-249.946579,-74.012756
-0.011719,1.154297,1.062988,-249.992355,-10.429381,-164.360031,-0.041504,3.410645,1.278809,-249.992355,-242.355331,249.992355
0.027832,0.892578,0.464355,-249.992355,39.054871,-175.155624,-0.768799,1.378662,-0.545654,249.992355,-249.992355,-23.864744
0.031494,0.733154,-0.088623,-249.984726,70.213318,-207.46611,-1.110107,1.604492,0.55835,-249.992355,249.992355,249.992355
-0.106445,0.690674,-0.359131,-249.992355,64.224243,-216.011032,-1.267578,1.733887,0.613281,-249.992355,249.893173,249.992355
-0.335449,0.485596,-0.265137,-249.992355,19.775391,-223.59465,-1.369873,1.887939,0.589355,-246.749863,183.624252,249.992355
-0.669922,0.18335,0.155029,-249.336227,-63.446041,-229.362473,-1.401123,2.096436,0.573242,-242.11882,90.263359,249.992355
-0.932373,-0.138916,0.735352,-249.04631,-188.171371,-232.666,-1.425537,2.322754,0.615479,-248.680099,-11.863708,249.992355
-1.08667,-0.466064,1.355225,-249.992355,-249.320969,-230.964645,-1.425781,2.529297,0.679932,-249.992355,-109.794609,249.992355
-1.077148,-0.724609,1.971436,-230.125412,-249.969467,-235.763535,-1.382324,2.656982,0.693604,-249.992355,-194.541916,249.992355
-1.22876,-0.978027,2.493896,-100.540154,-249.992355,-221.534714,-1.31543,2.666748,0.678711,-249.992355,-245.231613,249.992355
-2.061768,-1.444824,2.953857,42.053219,-249.992355,-144.943237,-1.282959,2.640869,0.589355,-249.992355,-249.992355,249.992355
-3.22998,-2.155029,3.451416,173.660263,-248.474106,-30.616758,-1.393555,2.744141,0.493652,-249.992355,-249.984726,249.992355
-3.734131,-2.125732,3.436768,233.070358,-249.992355,92.376701,-0.992432,1.463867,0.455078,-249.916061,249.015793,249.992355
-3.047852,-1.162354,2.935303,185.9207,-249.992355,150.802612,-1.493896,2.956787,0.369385,-249.992355,-249.412521,249.992355
-2.086914,-1.378906,2.104004,224.372849,-184.898361,199.470505,-1.480713,2.854492,0.006592,-249.992355,-249.992355,249.992355
-1.640381,-2.615967,1.835449,249.992355,-108.718864,204.940781,-1.434326,2.766357,-0.119385,-249.992355,-220.848068,249.992355
-2.335449,-2.339844,1.050293,249.992355,-65.155029,227.584824,-1.124268,2.488281,-0.018066,-249.992355,-225.662216,249.992355
-2.663086,-0.811768,1.247803,249.992355,59.364315,223.510727,-0.757813,2.240723,0.100342,-249.992355,-249.565109,249.992355
-2.196533,0.130859,1.362061,249.992355,159.934998,239.387497,-0.440674,2.154053,0.309326,-249.992355,-249.778732,249.992355
-1.023193,0.766846,0.967529,249.992355,168.754562,249.992355,-0.39502,1.986572,0.307129,-249.984726,-249.740585,249.992355
0.030029,1.303467,0.454834,249.992355,124.313347,249.992355,-0.162109,1.576416,0.322998,-249.992355,-249.992355,249.977097
0.294922,1.686523,0.255127,249.992355,72.509766,249.992355,0.251221,1.144775,0.475342,-249.992355,-243.164047,249.992355
0.402344,2.05835,0.139648,249.992355,-22.041319,249.992355,0.800293,0.83667,0.555176,-249.259933,-209.213242,249.992355
0.642334,1.447998,-0.500732,158.149719,46.173092,45.608517,1.229736,0.610596,0.651367,-249.992355,-188.072189,248.992905
0.738037,2.632568,0.05957,-249.992355,-72.311401,-241.340622,-1.469971,2.97583,0.200684,-249.992355,-249.992355,249.992355
0.847656,1.57959,-0.644043,173.797592,137.47406,45.669552,-0.875488,1.338623,0.38916,-249.992355,249.877914,249.992355
0.209717,1.303223,0.271973,-249.992355,-199.65361,-113.449089,-1.015625,1.21167,-0.673828,249.992355,-249.824509,-39.138794
0.329834,1.357422,0.12207,-249.992355,-202.003464,-148.94104,-0.548584,1.264893,0.0979,-249.992355,249.984726,240.440353
0.446533,1.481445,0.081055,-249.992355,-186.55394,-178.703293,-0.735352,1.669434,-0.399414,249.992355,-249.992355,-13.84735
0.562744,1.575439,0.099121,-249.992355,-165.061935,-205.848679,-0.847656,2.037598,-0.390869,249.992355,-238.258347,0.37384
0.602539,1.620605,0.120361,-249.992355,-142.173767,-223.258957,-0.929932,2.359619,-0.409424,249.992355,-216.155991,7.888793
0.557861,1.705566,0.157227,-249.992355,-117.683403,-224.121078,-1.020264,2.684814,-0.494873,249.984726,-180.320724,5.073547
0.570068,1.862305,0.351074,-249.992355,-99.403374,-216.461166,-1.041016,3.115479,-0.533936,249.992355,-137.046814,9.757996
0.573975,2.019531,0.500488,-249.992355,-91.110222,-212.165817,-1.039795,3.358887,-0.535156,249.992355,-93.086235,15.960692
0.529053,2.207031,0.439453,-249.992355,-91.76635,-213.661179,-0.736816,1.271729,0.250488,-249.992355,249.992355,249.992355
0.573242,2.428955,0.326904,-249.992355,-91.270439,-222.297653,-0.653076,3.679688,-0.1604,249.992355,20.042419,11.795043
0.029785,1.358887,0.405273,-249.992355,-176.444992,-75.881958,-0.212891,4.030273,0.013184,249.992355,138.748169,39.932251
0.781982,2.818115,-0.171143,-249.992355,-26.550291,-249.565109,0.419189,3.808594,-0.14624,217.68187,231.010422,31.173704
0.492676,2.761475,-0.27124,-249.992355,66.093445,-242.279037,-0.175293,2.490967,-0.043213,201.644882,248.779282,61.538692
0.281494,2.630127,-0.137451,-249.992355,93.666069,-199.630722,-0.920654,3.413086,-0.39917,249.221786,-48.629757,3.723144
0.142334,3.193604,0.177246,-249.992355,121.74987,-204.391464,-0.244873,2.534912,0.185303,249.992355,194.961533,-196.975693
0.023926,2.563965,0.204834,-249.992355,129.486084,-226.913437,-0.226318,1.445068,0.294434,249.992355,249.992355,24.009703
0.101074,2.43457,0.251221,-249.992355,133.346558,-249.992355,-0.234863,1.250488,0.075439,-249.992355,247.642502,161.819443
-0.177002,1.819092,0.210449,-249.992355,146.286011,-229.347214,-0.28833,1.200684,0.206055,-249.992355,207.756027,129.859924
-0.060547,1.371338,0.002686,-249.984726,145.843506,-223.983749,-0.446777,1.172852,0.253418,-249.992355,155.776978,110.939018
-0.021729,1.039795,-0.034668,-249.992355,124.389641,-234.321579,-0.659668,1.314697,-0.07959,-249.992355,121.620171,101.448051
-0.150146,0.774414,0.087646,-249.992355,95.91674,-236.991867,-0.30835,1.271484,0.06543,-249.992355,249.992355,198.440536
0.742432,1.474854,-0.591309,157.516479,84.403984,41.557308,-1.398438,2.827881,-2.870117,-249.992355,80.619804,87.280266
0.671387,2.990479,-0.231201,-249.992355,30.372618,-249.992355,-2.047363,5.939941,-7.422363,-249.992355,194.709763,100.875847
-0.05835,1.434814,0.293945,-249.992355,-143.043518,-48.377987,-3.091064,7.999756,-6.371826,-249.992355,34.584045,109.214775
-0.453613,0.409668,0.32666,-249.542221,61.767574,-236.503586,-3.451416,6.273193,-1.373779,-0.892639,-1.89209,-184.852585
0.252197,1.351807,0.329346,-249.992355,-67.314148,-1.213074,-0.80542,1.767578,-0.791992,-249.992355,87.547295,99.342339
0.084961,1.392578,0.291992,-249.992355,-106.338493,-25.817869,-1.179688,2.665283,-0.029541,172.248825,-6.195068,-249.992355
1.053223,2.085205,-0.555664,240.501389,243.00383,53.62701,-1.235352,2.487061,-0.11499,171.417221,-30.677794,-249.992355
1.015869,2.314941,-0.493652,249.992355,249.992355,31.471251,-1.139893,2.28418,-0.139648,174.880966,-56.465145,-249.992355
0.881348,2.463867,-0.37915,249.992355,249.992355,-12.428283,-0.939453,2.084717,-0.064941,180.526718,-74.775696,-249.992355
1.113281,2.921143,-0.201416,249.992355,220.298752,-40.115356,-0.75,1.947266,0.026367,194.122299,-83.099358,-249.992355
1.344971,4.119141,0.091553,249.992355,198.936447,-23.53668,-0.570557,1.903564,0.126221,208.702072,-84.609978,-249.992355
1.116943,4.826172,-0.026611,249.992355,212.646469,9.475708,-0.478516,1.89624,0.231201,213.01268,-83.991997,-249.992355
0.966064,1.786621,-0.60083,204.254135,198.242172,51.940914,-0.5271,1.833496,0.290527,215.232834,-90.919487,-249.992355
0.226074,4.059814,0.060547,249.992355,105.255119,36.78894,-0.689697,1.727783,0.275391,230.964645,-108.879082,-249.992355
-0.544678,4.002197,-0.034668,249.992355,-33.935547,51.132198,-0.815674,1.643555,0.191895,248.04686,-131.68335,-249.992355
-0.639893,3.559326,-0.19458,245.39183,-165.573105,34.721375,-0.619629,0.86499,-0.44873,249.992355,-105.484001,-38.047791
0.709229,4.414063,-0.091064,249.908432,201.652512,24.16992,-0.807129,1.48584,0.146973,249.992355,-178.657516,-249.916061
0.069824,1.459229,0.313965,-249.992355,16.464233,63.568111,-0.866455,1.384766,0.234619,249.992355,-210.380539,-249.725327
-0.87207,3.184814,-0.897949,249.992355,-249.992355,-7.408142,-0.911865,1.267578,0.333984,249.992355,-241.500839,-249.992355
0.948975,6.411621,-1.685547,20.446775,-211.456284,171.356186,-0.908936,1.169434,0.321045,249.992355,-249.626144,-248.062119
3.899414,7.999756,-6.025146,-237.907394,-157.88269,8.354187,-0.821777,1.09082,0.261475,249.992355,-249.992355,-223.815903
3.527832,7.150635,-7.260498,-249.992355,-212.242111,-52.8717,-0.680176,1.030029,0.160889,249.992355,-249.992355,-194.457993
1.876709,4.043701,-3.140869,-249.992355,44.334408,99.884026,-0.567139,0.980957,0.007324,249.992355,-232.078537,-164.276108
0.716064,2.672119,-0.589844,-249.992355,133.262634,124.793999,-0.503418,0.946289,-0.143555,249.992355,-197.00621,-134.300232
0.258789,1.931885,0.185059,-249.992355,115.83709,125.831596,-0.51416,0.932861,-0.25708,249.992355,-159.118652,-105.110161
0.089355,1.604736,0.459229,-249.992355,65.994263,98.487846,-0.560547,0.912598,-0.369873,249.992355,-126.388542,-74.234009
-0.595215,2.685547,-0.631348,249.992355,-244.575485,-13.427733,-1.233887,2.787354,-0.074463,196.495041,11.390685,-249.992355
0.198975,1.367432,0.23999,-249.992355,-27.458189,31.295774,-0.821045,1.568848,0.138428,249.992355,-153.411865,-249.992355
0.393555,1.797852,0.392578,249.992355,-187.828049,244.697556,-1.398438,2.759277,-0.219482,231.933578,25.970457,-249.992355
0.304932,1.885742,0.413574,249.992355,-196.998581,230.430588,4.25,-1.816895,4.094238,216.674789,244.38475,-206.825241
0.231445,1.941406,0.456787,249.68718,-191.680893,221.71019,-1.099121,2.53125,-0.283936,249.992355,68.481445,-249.992355
0.420898,2.192871,0.394287,249.992355,-144.966125,242.164597,-0.683105,0.850586,-0.478516,249.992355,-103.195183,2.494812
0.243652,1.935547,0.443359,249.992355,-163.49028,218.078598,-0.70752,2.173828,0.251709,-247.009262,-249.992355,249.992355
0.36792,2.029541,0.388428,249.992355,-152.900696,223.640427,-0.406738,2.123047,0.358887,-249.977097,-249.992355,249.992355
0.469482,2.133789,0.387451,249.992355,-149.154663,232.910141,-0.065674,1.744873,0.487305,-249.992355,-249.771103,249.984726
0.196289,1.92749,0.484131,249.992355,-178.298935,218.772873,0.42627,1.290771,0.586182,-249.992355,-249.992355,249.992355
0.498779,1.739014,0.360596,236.343369,-160.598755,249.992355,0.975098,0.872314,0.7146,-248.916611,-249.992355,249.984726
0.003662,1.157227,-0.105713,151.367188,124.389641,89.668266,1.355469,0.460938,0.737549,-249.992355,-240.760788,249.023422
0.538574,1.573486,0.330811,185.157761,-62.568661,249.992355,1.685791,0.062012,1.005371,-249.992355,-219.970688,249.992355
0.540039,1.467773,0.341797,162.85704,-8.995056,249.862656,2.271729,-0.2854,1.503662,-202.148422,-193.801865,249.992355
0.494629,1.37207,0.396973,141.326904,35.438538,249.839767,3.119385,-0.387207,2.192627,-126.937859,-138.298035,198.944077
0.370361,1.320801,0.450684,128.105164,68.908691,249.992355,-1.397461,2.653564,-0.308105,249.992355,45.394894,-249.992355
0.232178,1.341553,0.427734,122.238152,88.23394,245.658859,3.865479,-0.213135,2.881592,-98.480217,-36.132813,140.12146
0.11084,1.394775,0.380371,115.005486,96.221916,218.894943,4.416748,-1.146729,3.751221,53.115841,197.128281,-14.038085
-0.004639,1.401611,0.344971,109.138481,99.678032,182.609543,4.184082,-1.276611,3.501953,249.992355,240.669235,-249.992355
-0.073975,1.354492,0.244629,113.159172,100.982658,143.745422,3.808838,-0.330811,2.141357,249.984726,244.438156,-249.992355
-0.061279,1.272461,0.090332,128.585815,107.963554,111.221306,3.212891,0.332275,1.279785,249.916061,249.992355,-249.992355
0.270996,2.161865,0.330322,249.992355,-130.073547,249.710068,2.93457,0.889404,1.087891,249.992355,249.992355,-249.992355
0.102539,1.050537,-0.31958,181.930527,147.148132,77.522278,2.718994,1.243896,1.054932,249.885544,211.769089,-249.992355
0.55542,1.674316,0.32251,208.793625,-117.149345,249.992355,1.476074,1.448242,0.550781,245.346054,159.973145,-249.992355
0.033936,2.031982,0.244873,249.992355,-100.173943,249.992355,0.343262,1.674316,0.037598,249.43541,132.69043,-249.992355
-3.87915,-2.236084,3.245605,53.749081,-248.443588,-19.172668,-0.099121,1.997559,-0.23584,249.992355,109.664909,-249.992355
-0.090332,1.810303,0.260986,249.992355,-8.94928,249.977097,-0.616455,2.327148,-0.306885,249.702438,90.011589,-249.992355
0.057861,3.679932,0.50708,-249.992355,173.713669,-249.992355,4.361084,-0.353271,3.307129,-64.445496,92.193596,99.121086
0.199463,0.961914,-0.490234,221.847519,168.556198,68.328857,-1.229248,2.182617,0.010254,-235.038742,-247.070297,249.992355
-0.082764,3.312988,0.726807,-249.992355,140.678406,-249.992355,-0.773926,0.935791,-0.485107,249.992355,-114.303581,42.106625
-0.167969,2.588867,0.700439,-249.992355,135.429382,-249.992355,-0.80835,1.345703,-0.510254,249.992355,-143.814087,97.930901
-0.00293,1.745361,0.52124,-249.992355,135.513306,-249.992355,-0.39502,1.388672,0.485352,-249.992355,128.082275,95.481865
0.081787,1.18042,0.175049,-249.984726,120.452873,-249.992355,-0.435547,1.381104,0.502197,-249.992355,123.779289,117.622368
-0.03418,0.892334,-0.073975,-249.977097,91.552727,-249.984726,-0.404297,1.420166,0.538086,-249.992355,107.574455,137.947083
-0.418213,0.551025,-0.156982,-249.992355,55.656429,-249.992355,-0.448486,1.467041,0.581055,-249.992355,84.098808,149.101257
-0.884277,0.104492,0.14624,-249.671921,4.859924,-249.992355,-0.496094,1.520264,0.510986,-249.992355,56.03027,169.517502
-1.268066,-0.343018,0.608887,-248.321518,-66.749573,-249.160751,-0.506836,1.556152,0.446777,-249.992355,35.049438,201.637253
-0.069824,1.918457,0.23584,249.992355,-60.455318,249.893173,-0.525879,1.541748,0.317627,-249.992355,31.723021,240.364059
-1.436035,-0.726563,1.124756,-249.992355,-175.765976,-249.992355,-0.559326,1.496826,0.343506,-249.992355,48.797604,249.992355
-2.034912,-1.328857,2.2854,-125.205986,-249.992355,-214.057907,-0.681885,1.487793,0.491943,-249.992355,71.853638,249.992355
-2.880371,-2.50708,3.259277,150.497437,-249.992355,64.743042,-0.948486,1.935303,0.616211,-249.992355,86.669914,249.992355
-1.76123,-2.512695,2.247803,235.595688,-240.806564,126.426689,-0.291748,1.507324,0.411133,-249.992355,119.285576,83.671562
-2.049072,-2.483398,1.661621,249.992355,-116.035454,184.135422,-0.976563,2.190674,0.63208,-249.992355,88.653557,249.992355
-2.029541,-1.452148,1.280273,249.992355,10.673522,211.944565,-0.861084,2.350098,0.390137,-249.992355,65.872192,249.992355
-2.376953,-0.477051,1.566162,249.992355,115.631096,221.023544,-0.864258,2.459473,0.177734,-249.992355,39.459229,249.992355
-2.063477,0.327881,1.557617,249.992355,164.390549,245.811447,-0.896484,2.679932,-0.05542,-249.992355,13.931273,249.992355
-0.940674,0.93042,0.963135,249.992355,139.625549,249.992355,-0.900879,2.962402,-0.312256,-249.992355,1.068115,249.992355
-0.234619,1.333008,0.443604,249.992355,93.955986,249.992355,-0.77417,3.081787,-0.39209,-249.992355,-2.357483,249.992355
-0.129395,1.615723,0.297119,249.992355,46.035763,249.992355,-0.64502,3.001953,-0.385254,-249.992355,-7.4234,249.992355
-1.557129,-1.060791,1.701172,-245.239243,-246.765121,-249.992355,-0.672363,2.995605,-0.34082,-249.992355,-14.617919,249.992355
0.307861,0.918701,-0.579102,248.580917,192.59642,57.907101,-1.010986,3.474854,0.075684,-249.992355,-48.660275,249.992355
-3.052734,-1.461182,2.561279,-29.640196,-249.55748,-116.760246,-0.748047,3.777344,0.787354,-249.992355,-153.900146,249.992355
0.663818,0.86499,-0.424805,249.992355,249.992355,6.629943,-0.827393,1.115723,-0.519531,249.992355,-130.447388,74.562073
0.10083,1.120117,0.307129,-198.867783,-216.209396,-37.963867,-0.932373,2.289063,0.57251,-249.992355,84.037773,249.992355
0.241455,1.056885,0.305176,-173.858627,-185.9207,-62.69836,-0.317627,1.710205,0.399902,-249.992355,103.851311,77.667236
0.26416,1.066162,0.379883,-169.830307,-152.366638,-86.196892,-0.852295,1.633789,0.58667,-249.992355,83.816521,249.992355
0.258057,1.013916,0.442383,-160.301208,-126.754753,-112.525932,-0.751465,2.232422,0.229004,-249.992355,69.992065,51.383968
0.249268,1.007324,0.465088,-148.498535,-114.19677,-142.623901,-0.489014,1.98584,0.32666,-249.992355,85.533134,68.748474
0.222656,1.041504,0.547363,-139.015198,-117.294304,-163.780197,-0.829346,1.61377,-0.49585,249.992355,-148.193359,110.145561
0.217041,1.001709,0.547363,-139.755249,-127.92205,-177.658066,-0.922119,1.916504,-0.542969,249.992355,-144.828796,111.938469
0.240479,1.008301,0.529785,-157.196045,-139.717102,-192.459091,-0.964355,2.239502,-0.518799,249.992355,-136.688232,107.238762
0.303223,1.021973,0.544189,-174.987778,-152.687073,-219.017014,-0.977783,2.608154,-0.507813,249.969467,-128.089905,98.655693
0.28125,1.114746,0.420166,-186.54631,-158.554077,-249.992355,-1.061279,2.97876,-0.578369,249.992355,-124.465935,88.584892
-0.113281,1.378906,0.390137,-245.071396,-233.100876,-14.259337,-0.97876,3.221191,-0.691895,249.93132,-113.594048,63.83514
0.311768,1.308594,0.351807,-211.486801,-155.899048,-249.992355,-0.672852,3.333008,-0.621338,248.313889,-65.162659,41.435238
0.508301,2.160889,0.222168,-249.992355,-104.042046,-249.992355,0.044922,3.938477,-0.390625,249.992355,139.801025,54.374691
0.593262,2.417969,0.150879,-249.992355,-37.162781,-249.992355,0.446777,4.080322,-0.565918,159.309387,213.684067,-4.127502
0.80542,2.336914,0.157715,-249.992355,49.018856,-249.412521,-0.092773,3.129883,-0.517822,113.548271,241.752609,-4.974365
0.776855,2.374023,0.269043,-249.992355,159.103394,-249.992355,-0.281006,3.541748,-0.413818,249.992355,29.342649,52.650448
0.706787,2.702637,0.448486,-249.992355,241.004929,-249.992355,1.75708,3.443848,-0.276123,249.992355,249.572739,-39.810181
0.61792,2.763672,0.601074,-249.992355,248.489365,-228.13414,-0.949707,2.314453,0.212158,-249.992355,65.185547,29.571531
0.290527,2.789307,0.830566,-249.992355,249.992355,-140.907288,-0.516357,6.319336,-2.310791,147.323608,249.450668,4.478455
-0.525635,2.968018,0.950195,-249.992355,247.116074,-38.124084,-0.748779,7.999756,-7.508545,-218.757614,249.992355,49.064632
-0.684326,2.787842,1.233643,-249.992355,138.86261,-16.479492,-2.499756,6.69873,-5.043213,-249.992355,230.537399,15.899657
0.469971,0.858643,-0.536377,249.992355,231.338486,36.941528,-1.483398,4.576172,-1.491699,-249.992355,144.645691,-9.307861
0.392578,1.705566,0.286865,-245.407089,-142.997742,-249.984726,-1.133057,3.649414,-0.178223,-249.992355,111.67144,-14.129638
-0.274902,1.749023,0.447998,-249.992355,-228.111252,3.662109,-1.036865,3.07666,-0.232178,-249.992355,95.619194,1.426697
0.312256,1.037354,0.499268,-181.732162,-159.614563,-245.429977,-1.01416,2.560059,-0.118408,-249.992355,85.037224,13.59558
-0.274658,1.936768,0.242188,-249.793991,-148.132324,50.430294,-0.055664,1.999512,-0.415527,204.254135,249.992355,45.845028
-0.328125,1.94165,0.323486,-249.43541,-196.525558,21.705626,-0.97583,2.322021,0.202393,-249.992355,72.486877,18.363953
0.694092,1.206787,-0.173828,249.992355,249.977097,-6.858825,-0.984619,2.544189,-0.013184,243.064865,36.03363,-249.992355
0.555664,1.554199,-0.100098,249.992355,249.992355,25.115965,-1.115479,2.711182,0.020752,239.524826,47.065731,-249.992355
0.945557,1.95166,-0.03418,249.992355,249.992355,57.594296,-1.343262,2.887939,0.042725,240.776047,65.681458,-249.992355
1.460449,3.054443,0.024902,249.992355,249.114975,69.969177,-1.481689,3.310059,-0.09082,249.961838,122.222893,-249.992355
1.025879,4.586426,-0.028076,249.977097,249.069199,72.982788,-1.570557,3.276123,-0.099609,249.992355,113.533012,-249.992355
0.26001,4.562012,-0.065186,249.977097,249.992355,49.438473,-1.481445,3.377441,-0.012451,249.885544,125.518791,-249.992355
-1.351074,4.273193,0.405273,249.275192,74.020386,9.223938,-0.946777,2.375977,0.034912,244.628891,33.943176,-249.992355
-0.773438,4.508545,-0.028564,247.520432,-89.714043,-57.983395,-1.498535,3.078125,-0.197754,249.992355,110.595695,-249.992355
-1.530518,3.4104,-0.923096,249.992355,-207.839951,-64.582825,-1.548096,3.083984,-0.062988,249.153122,90.309135,-249.992355
-1.442871,4.375,-0.812988,234.397873,-208.000168,-2.220154,-0.906982,2.246826,0.072021,241.523727,30.197142,-249.992355
-0.325928,3.589844,0.150635,249.992355,222.061142,21.766661,-0.89209,0.581543,-0.634766,249.992355,-249.992355,-207.801804
-0.158691,2.024902,0.327148,-249.992355,-92.224113,82.641594,-1.074463,1.99585,0.081299,222.320541,-20.26367,-249.992355
2.217773,7.388428,-3.108887,-6.462097,-217.880234,-17.021179,-1.205078,1.836426,0.020508,213.760361,-57.762142,-249.992355
0.009277,2.317871,0.513428,-249.992355,-34.698486,118.385307,-1.186768,1.619141,-0.045654,210.632309,-97.31292,-249.992355
0.085938,2.788086,0.5896,-249.992355,31.242369,157.447815,-1.155518,1.388672,-0.076904,215.78978,-137.916565,-249.992355
0.020508,3.285156,0.617676,-249.992355,103.721611,191.230759,-1.138672,1.225342,-0.114014,224.693283,-176.956161,-249.893173
0.201416,3.821045,0.669434,-249.992355,166.51915,207.626328,-1.042725,1.160156,-0.138916,229.660019,-217.033371,-249.93895
0.818115,0.976563,-0.265137,249.992355,249.992355,-14.495849,-0.963623,1.129395,-0.263672,228.958115,-245.407089,-249.992355
1.039551,5.166992,-0.689453,-249.992355,171.668991,147.163391,-0.917725,1.028564,-0.455078,234.680161,-249.992355,-246.292099
1.601318,7.144775,-4.931152,-249.992355,40.351864,75.35553,-0.918701,0.820557,-0.581787,247.932419,-249.992355,-229.461655
1.452148,7.999756,-7.999756,-249.992355,-93.925468,-7.04956,-1.276611,2.830811,-0.167236,249.992355,102.317802,-249.992355
0.516357,4.279297,0.507568,-249.992355,204.292282,203.201279,-0.85791,0.421387,-0.683594,249.992355,-249.992355,-177.177414
0.410889,1.674316,0.266113,229.492172,-249.336227,213.523849,-0.918701,2.122314,0.089111,232.910141,11.505126,-249.992355
-0.033203,2.336182,0.208984,249.992355,-57.044979,249.992355,-0.544434,2.578369,0.167236,249.992355,107.376091,-249.992355
0.192383,2.535645,0.24292,249.992355,-143.501282,249.504074,3.457764,0.065918,3.103516,-186.317429,-101.982109,223.236069
0.445068,2.52832,0.210938,249.732956,-207.313522,229.583725,0.914795,1.623535,0.532715,249.992355,158.714294,-249.992355
0.538086,2.439209,0.202637,249.992355,-243.598923,211.532578,-1.091797,3.359375,-0.468262,-249.992355,4.318237,249.992355
0.426758,2.369385,0.236084,249.992355,-249.992355,202.354416,-0.881348,0.378662,-0.689453,249.992355,-249.992355,-142.776489
0.317139,2.216064,0.30835,237.815842,-249.984726,199.668869,-1.058838,3.317383,-0.14209,-249.992355,-65.353394,249.992355
0.308838,2.010986,0.310791,223.716721,-249.992355,204.093918,-1.246094,3.343994,0.039551,-249.992355,-120.056145,249.992355
0.348633,1.82959,0.27417,222.221359,-249.992355,209.190353,-1.242188,3.633545,0.405273,-249.992355,-221.374496,249.992355
-0.072998,2.084717,0.139893,249.992355,32.577515,249.710068,-0.98877,3.514404,0.783447,-249.992355,-249.992355,249.992355
0.539063,1.108643,-0.037109,188.972458,190.093979,249.992355,-0.420898,3.379883,0.874756,-249.992355,-249.992355,249.992355
0.475586,1.547363,0.348877,245.849594,-249.992355,231.071457,0.020752,2.656494,0.924805,-249.992355,-249.992355,249.992355
0.475342,1.51001,0.359131,244.621262,-219.017014,246.543869,0.436035,1.699219,0.933838,-249.992355,-249.992355,249.992355
0.511475,1.501221,0.309082,237.358078,-159.034729,249.992355,0.873291,1.032227,0.973877,-249.992355,-249.793991,249.992355
0.567383,1.484131,0.220703,228.958115,-98.56414,249.992355,1.304932,0.587158,1.0979,-249.641403,-249.198898,249.992355
0.582275,1.453125,0.128174,224.10582,-38.642883,249.992355,1.727783,0.282959,1.323242,-249.992355,-249.992355,249.481186
0.641846,1.418213,0.04834,219.207748,16.357422,249.992355,2.180908,0.157227,1.740723,-249.992355,-245.864853,249.992355
0.717285,1.383545,0.066162,206.83287,65.986633,249.992355,2.826416,0.208008,2.305664,-236.457809,-180.931076,249.992355
0.72168,1.309326,0.096924,190.948471,114.95208,249.68718,3.972656,-0.639404,4.019287,-76.164246,-27.06146,141.746521
0.641846,1.197754,0.084961,183.738693,159.156799,249.992355,4.381348,-1.367188,4.750244,116.790764,50.163265,-56.678768
0.090332,1.952148,0.145752,249.992355,107.032768,249.954208,4.099854,-1.087891,4.51001,241.180405,122.589104,-207.580551
0.461914,1.590576,0.30542,239.799484,-249.992355,219.306931,3.62793,-0.380371,3.494629,249.992355,188.980087,-173.637375
0.257813,1.833984,0.20166,249.992355,155.555725,249.992355,3.415771,0.265381,2.969238,249.992355,226.234421,-174.804672
0.886963,2.755859,0.091797,-249.992355,127.616875,-248.619064,2.716553,0.760986,2.39917,249.992355,229.919418,-241.401657
-0.980225,0.869385,0.9729,249.992355,168.02977,249.992355,1.970459,1.04834,1.763184,249.992355,207.290634,-249.992355
0.509277,1.045898,-0.244385,194.297775,212.478622,237.266525,1.209473,1.222412,0.9646,249.992355,180.099472,-249.992355
0.788086,3.116211,0.211426,-249.992355,177.001938,-249.992355,1.021729,1.310547,0.460205,249.992355,165.840134,-249.992355
0.666748,3.311035,0.487793,-249.992355,204.170212,-249.992355,0.447998,2.172852,0.495117,249.992355,129.760742,-249.992355
0.387451,3.156006,0.899658,-249.992355,178.543076,-182.067856,-1.017822,3.501953,-0.344971,-249.992355,-34.881592,249.992355
-0.194336,3.180908,1.120117,-249.992355,133.19397,-92.315666,-0.913818,0.476563,-0.722168,249.923691,-249.992355,-110.801689
-0.503174,3.308838,1.136719,-249.992355,75.553894,-104.423515,-0.9104,1.01709,-0.742676,249.992355,-249.992355,-39.802551
0.058594,2.37207,1.020752,-249.992355,-7.820129,-219.360336,-0.007324,1.534912,0.302246,-249.992355,223.739609,79.872131
-0.134521,1.157959,0.411621,-249.984726,-47.721859,-215.927109,-0.046631,1.44458,0.367676,-249.992355,248.908981,121.063225
-0.18335,1.003418,-0.085693,-249.984726,-70.579529,-228.157028,-0.200684,1.354004,0.516113,-249.992355,249.992355,162.406906
-0.397461,0.897217,-0.381836,-249.992355,-93.765251,-248.870834,-0.372314,1.283203,0.614502,-249.992355,249.992355,194.633469
-0.710449,0.559082,-0.187744,-249.610886,-125.900261,-249.992355,-0.575928,1.265625,0.627197,-249.992355,249.542221,216.140732
-1.0979,0.100098,0.37793,-248.626694,-173.110947,-249.755844,-0.814453,1.349121,0.558105,-249.992355,249.992355,238.838181
-1.408447,-0.390137,1.053955,-249.992355,-235.633835,-249.382004,-1.034912,1.554199,0.365723,-249.992355,249.992355,249.992355
-1.722168,-0.845459,1.788574,-241.714462,-249.992355,-249.992355,-1.156738,1.805664,0.240967,-249.992355,230.102524,249.992355
-2.147217,-1.199219,2.554688,-130.874634,-249.961838,-243.75914,-1.175049,2.029053,0.157227,-249.992355,189.224228,249.992355
-2.998291,-1.699463,3.158447,-26.718138,-249.992355,-162.719711,-1.075928,2.216064,0.086914,-249.992355,153.846741,249.992355
-3.937988,-2.363281,3.74585,75.874329,-249.992355,-9.819031,-0.047119,1.601318,0.314453,-249.992355,177.429184,50.765987
-3.19458,-2.281494,3.764648,169.677719,-248.489365,103.683464,-0.917725,2.431885,0.104492,-249.992355,129.920959,249.992355
-1.836914,-2.068359,2.077637,215.164169,-249.320969,105.812065,-0.960205,2.830078,0.335938,-249.992355,110.168449,249.992355
-1.845947,-2.272949,1.619385,249.992355,-249.992355,121.871941,-0.956055,2.76123,0.386719,-249.992355,92.14782,249.992355
-2.259766,-1.755615,1.183594,249.992355,-198.303207,213.699326,-0.868652,2.561279,0.503662,-249.992355,71.968079,249.992355
-2.602295,-0.700928,1.296875,249.992355,-0.465393,243.789658,-0.896484,2.408691,0.592773,-249.992355,51.277157,249.992355
-2.013916,0.171875,1.216309,249.992355,116.722099,249.992355,-1.038574,2.378662,0.482178,-249.992355,23.880003,249.992355
-0.023682,1.463135,0.453857,249.992355,171.859726,249.992355,-1.151855,2.334717,0.192383,-249.511703,-7.644653,249.992355
0.520508,1.014404,-0.418457,186.958298,238.365158,209.98381,-1.140625,2.242676,0.078369,-249.992355,-34.919739,249.992355
1.033691,4.467285,0.340332,249.137863,89.706413,48.545834,-1.034668,2.132324,-0.016113,-249.992355,-59.371944,249.992355
0.553955,1.069824,-0.623047,151.016235,249.992355,169.311508,-0.993164,2.016357,-0.094482,-229.446396,-94.375603,249.992355
0.118652,1.33252,0.280518,-249.992355,75.180054,50.209042,-1.231445,2.082764,-0.103271,-216.300949,-177.955612,249.992355
0.135742,1.315918,0.222168,-249.992355,60.859676,34.507751,-0.880615,2.682617,0.241455,-249.992355,119.827263,249.992355
0.151855,1.288574,0.226563,-249.992355,46.096798,15.472411,-0.15918,1.599609,0.238525,-249.992355,140.869141,36.148071
0.143555,1.339844,0.195068,-249.992355,22.613523,-9.963989,-0.920898,0.713623,-0.75708,249.43541,-249.992355,-78.147888
0.068604,1.508789,0.225586,-249.992355,-11.802672,-28.106688,-0.539307,1.529297,0.402832,-249.992355,135.719299,25.985716
0.047852,1.560791,0.27832,-249.992355,-57.067867,-44.80743,-0.850586,1.331543,-0.657959,249.755844,-249.465927,1.64032
0.121582,1.427979,0.299072,-249.992355,-117.774956,-72.746277,-0.69458,1.64502,-0.603516,213.088974,-249.992355,36.735535
0.190186,1.320801,0.308594,-249.992355,-191.940292,-110.778801,-0.63501,1.951904,-0.60083,177.406296,-249.992355,63.659664
0.237793,1.318115,0.342285,-249.992355,-244.430527,-148.460388,-0.648682,2.287598,-0.606934,156.059265,-224.441513,92.964165
0.53833,1.037354,-0.528809,168.632492,249.992355,188.423141,-0.610107,2.584961,-0.693848,146.492004,-174.262985,123.657219
0.147949,1.377197,0.272217,-249.992355,93.238823,66.078186,-0.493896,2.748779,-0.74585,177.764877,-101.684563,150.924683
0.39624,1.453125,0.362305,-249.992355,-249.992355,-227.12706,-0.315186,1.547363,0.296387,-249.992355,125.579826,25.436399
0.659912,1.643311,0.211182,-249.992355,-249.992355,-249.992355,-0.391846,3.223145,-0.759766,249.992355,134.986877,176.483139
0.715576,1.651367,0.092285,-249.992355,-249.992355,-249.992355,-0.599121,3.402832,-0.51123,248.451218,219.131454,149.07074
0.878662,1.853516,-0.035889,-242.858871,-211.334213,-249.992355,-0.804688,3.85791,-0.189453,249.992355,248.908981,134.82666
0.916504,2.064941,-0.126221,-227.912888,-146.507263,-249.992355,-0.646729,4.383057,0.082031,249.992355,249.992355,143.302917
0.820557,2.384277,-0.087891,-232.688889,-83.839409,-249.992355,-0.336182,2.968262,-0.767578,238.746628,12.229918,175.529465
0.747559,3.206787,0.113525,-249.649033,-38.284302,-249.992355,0.186768,3.118652,0.038086,87.7304,249.992355,81.382744
0.616211,3.067139,0.138184,-249.992355,4.249573,-249.992355,0.001953,1.406494,0.433838,155.723572,249.969467,108.184807
0.724609,2.214355,-0.059082,-249.992355,58.128353,-249.992355,0.45752,0.734131,1.217041,249.992355,249.710068,119.819633
0.796631,2.916748,-0.083008,-249.992355,112.709038,-249.992355,-0.120605,3.075928,0.519531,229.232773,249.992355,-13.504027
0.620361,3.433105,0.169678,-249.992355,149.971008,-249.992355,-1.356934,7.386963,-3.493408,-141.769409,249.992355,-6.912231
0.541504,1.562256,0.320313,-249.855026,-249.29808,-249.404892,1.026123,7.999756,-7.999756,-249.992355,234.30632,-63.415524
0.2229,1.470703,0.315186,-249.992355,116.279594,88.661186,-2.161621,5.022949,-5.591797,-249.992355,249.992355,-1.159668
0.299561,1.362793,0.372314,-249.992355,-249.992355,-185.180649,-1.475098,2.525879,-0.265869,-249.992355,211.540207,30.441282
0.389648,1.717041,0.394775,-249.992355,204.391464,143.836975,-0.962646,1.937012,0.506104,-249.992355,171.981796,32.394409
0.247803,1.579102,0.455811,-249.992355,154.403687,119.117729,-0.721924,1.657715,0.481201,-249.992355,154.281616,30.2124
0.615723,1.047363,-0.693604,145.446777,249.992355,150.83313,0.134277,4.321289,0.04248,187.507614,249.992355,117.874138
0.67749,1.004883,-0.72168,156.295776,249.992355,133.605957,-1.428955,3.183594,-0.276123,249.992355,1.602173,-249.992355
0.664307,1.056152,-0.753174,178.207382,249.977097,119.438164,-1.551025,3.057373,-0.413818,249.992355,13.84735,-249.992355
0.570068,1.183838,-0.709473,212.013229,249.992355,110.069267,-1.517578,3.064941,-0.439209,249.992355,29.541014,-249.992355
0.462402,1.398193,-0.657959,246.040329,249.961838,100.395195,-1.411133,3.055176,-0.231201,249.992355,50.704952,-249.992355
0.465332,2.194824,-0.452881,249.992355,249.992355,50.346371,2.568115,1.674316,1.546143,249.992355,179.36705,-249.992355
0.513916,2.779053,-0.241455,249.992355,249.992355,25.382994,-0.680176,2.656494,-0.030029,249.992355,88.684074,-249.992355
0.909668,3.48999,-0.019287,249.977097,182.159409,10.971068,-0.063232,2.36792,0.183105,249.992355,100.402824,-249.992355
1.325684,4.236816,0.062256,249.992355,120.094292,0.442505,1.221191,2.048828,0.800293,249.992355,124.763481,-249.992355
1.271729,4.654785,0.023438,249.992355,110.084526,14.404296,-1.108154,2.896729,-0.120117,249.992355,71.685791,-249.992355
0.449951,1.735352,-0.598633,249.992355,248.725876,79.444885,-1.350098,3.281494,-0.208496,249.992355,-9.529114,-249.992355
0.307129,3.887695,0.7854,249.992355,-160.491943,41.267391,-0.683838,1.356201,0.090332,249.992355,-249.992355,-249.870285
0.601318,4.195801,0.602783,248.29863,0.152588,67.932129,-1.332275,2.687012,-0.101807,249.992355,-50.270077,-249.992355
0.95459,2.72168,-2.570557,-249.992355,249.992355,158.798218,-1.049805,2.411621,-0.111572,249.992355,-67.207336,-249.992355
-0.028564,7.641357,-7.613525,-249.992355,249.351486,148.742676,-0.853271,2.268066,0.003662,249.992355,-67.03949,-249.992355
6.079834,7.999756,-3.769531,-172.874435,249.893173,167.15239,-0.783203,2.292725,0.10791,249.992355,-60.073849,-249.992355
3.714111,4.767822,-1.042969,240.959152,238.601669,249.992355,-0.742432,2.35083,0.122314,249.992355,-62.507626,-249.992355
0.686035,1.904785,0.086914,-249.992355,248.886093,147.010803,-0.787354,2.24585,0.134033,249.992355,-85.365288,-249.992355
1.227783,1.781738,-0.268799,149.238586,-249.992355,39.451599,-0.936523,2.023926,0.087646,249.992355,-130.973816,-249.992355
-0.02832,3.64917,-0.016846,80.879204,-249.992355,-19.744873,-1.080078,1.793213,-0.01001,249.992355,-181.686386,-249.992355
-0.118408,4.217285,0.615723,226.150497,-242.256149,-15.449523,-1.015381,1.599121,-0.073975,249.992355,-220.054611,-249.992355
1.878418,1.346191,-0.508057,249.992355,-24.223326,205.467209,-0.783936,1.46875,0.005371,249.992355,-243.789658,-249.885544
0.534668,2.624512,0.56543,249.992355,-82.359306,249.992355,2.59082,1.253906,1.484131,249.992355,238.670334,-249.992355
-2.996582,-1.637451,1.766846,249.992355,-203.338608,227.920517,-1.381592,3.061523,-0.104736,249.992355,-27.381895,-249.992355
-2.559814,-0.501221,1.906738,249.992355,-113.349907,247.772202,2.679199,0.617676,1.543457,249.992355,224.410995,-249.992355
-1.449951,0.383057,1.443604,249.992355,-52.398678,249.992355,0.247314,1.233398,0.941406,-249.992355,-249.977097,249.992355
-0.647949,0.91626,1.064453,249.992355,-11.314391,249.992355,2.972168,0.105957,3.599609,249.137863,97.343437,-249.992355
-0.102051,1.496094,0.807373,249.992355,5.325317,249.992355,-0.686523,1.269043,0.07959,249.992355,-249.992355,-249.992355
0.301758,1.959229,0.626709,249.992355,6.240844,249.992355,-1.219238,3.092529,0.520264,-249.992355,-11.322021,249.992355
0.41748,2.167725,0.517822,249.992355,-5.020141,249.992355,-1.171143,3.108398,0.50293,-249.992355,-55.068966,249.992355
0.421387,2.322998,0.481201,249.992355,-29.937742,249.969467,-1.225098,3.214355,0.559814,-249.992355,-90.728752,249.992355
0.506836,2.491211,0.491943,249.992355,-60.661312,249.740585,-1.339844,3.318604,0.623535,-249.93895,-123.626701,249.992355
0.551758,2.708984,0.601318,249.992355,-97.81646,249.992355,-1.43042,3.310059,0.601074,-249.748215,-143.669128,249.992355
0.365479,1.39502,0.13916,249.992355,-2.098083,205.146774,-1.231934,2.945801,0.584473,-249.992355,-161.148056,249.992355
0.553955,2.367188,0.436279,249.992355,-124.008171,204.589828,-0.863037,2.413086,0.587891,-248.825058,-201.850876,249.992355
0.580811,2.204346,0.404053,249.992355,-131.652832,197.608932,-0.776855,2.151855,0.554199,-230.377182,-244.964584,249.992355
0.619873,2.071045,0.368652,249.992355,-139.923096,189.125046,-0.947754,2.405518,0.597168,-211.738571,-249.992355,249.992355
0.533691,1.919678,0.402344,249.992355,-140.182495,183.242783,3.052002,0.325928,2.401611,249.992355,139.389038,-249.992355
0.533447,1.851074,0.37793,249.992355,-130.104065,187.492355,-0.833496,2.750244,0.518311,-229.721054,-249.992355,249.992355
0.630371,1.814941,0.334473,249.992355,-111.618034,195.419296,-0.177734,1.906006,0.668701,-249.984726,-249.992355,249.977097
0.671387,1.749023,0.314209,249.992355,-86.624138,204.109177,0.811035,0.807861,1.020996,-249.992355,-249.992355,249.992355
0.644287,1.651611,0.207764,249.755844,-57.739254,206.787094,1.340576,0.583984,1.111572,-249.267563,-249.992355,249.107346
0.50415,1.510254,0.13501,249.824509,-26.824949,205.83342,1.744141,0.491699,1.265381,-249.992355,-248.878464,249.992355
-2.0896,-2.452148,1.746094,249.992355,-249.992355,184.28801,2.29126,0.338135,1.589844,-249.992355,-249.992355,249.992355
0.625,2.66333,0.573486,249.992355,-110.343925,233.375534,3.184326,0.03833,2.244873,-213.180527,-249.992355,212.905869
-1.544189,-2.323486,2.265869,246.978745,-249.992355,157.714844,3.869629,-0.330566,3.154297,-134.864807,-194.587692,131.164551
0.588135,2.546143,0.492432,249.992355,-117.912285,216.445908,4.314697,-0.607666,3.771484,-29.08325,-93.704216,51.48315
-2.677734,-0.920654,3.484619,34.355164,-249.992355,43.685909,4.389648,-0.685059,4.188965,93.261711,2.075195,-81.573479
0.270996,1.382568,0.158203,241.928085,11.062621,200.736984,3.549561,-0.371826,4.398682,204.406723,67.054749,-224.555954
1.158447,3.424561,0.529053,-249.992355,-42.564388,-249.984726,-0.438477,2.56958,0.494629,-249.992355,-249.992355,249.992355
0.988037,3.348145,0.666504,-249.992355,23.109434,-249.992355,-0.680664,1.184326,-0.007324,249.992355,-249.778732,-246.475204
0.71167,3.15625,0.905029,-249.992355,72.441101,-249.954208,-1.302979,3.102783,0.531738,-249.992355,43.083187,249.992355
0.653809,3.122314,1.222412,-249.992355,80.947868,-248.992905,-0.57373,1.074463,-0.301758,249.984726,-249.992355,-190.269455
0.467285,2.685791,1.226563,-249.992355,87.493889,-249.992355,-0.855225,2.246094,0.40332,-249.992355,199.615463,-2.502441
0.318604,2.556396,1.205322,-249.992355,81.825249,-249.992355,-0.755859,1.978516,0.420898,-249.992355,162.933334,-7.072448
0.080322,2.601074,1.174072,-249.992355,55.534359,-195.793137,-0.705811,1.736328,0.378174,-249.992355,155.349731,0.602722
-0.017578,2.781738,1.153809,-249.992355,34.805298,-168.243393,-0.540039,1.55957,0.386475,-249.992355,156.311035,6.439209
0.008057,2.51001,1.058105,-249.992355,10.261535,-205.558762,-0.32373,1.536865,0.320068,-249.992355,159.934998,13.122558
-2.218506,-1.425781,3.304688,155.731201,-248.878464,133.590698,-0.150391,1.624756,0.263428,-249.992355,160.743698,22.850035
-0.121094,2.065918,0.881104,-249.992355,-15.228271,-204.261765,-0.071045,1.726807,0.268799,-249.992355,162.445053,32.707214
-0.356934,1.205322,0.417236,-249.992355,-27.06146,-172.920212,0.000244,1.718262,0.230469,-249.992355,172.164902,47.71423
-0.268066,0.827881,0.40918,-249.977097,-36.300659,-181.777939,0.041016,1.531982,0.259521,-249.992355,186.065659,57.243343
-0.277344,0.546143,0.465088,-249.992355,-39.749146,-194.160446,-0.163818,1.29126,0.414063,-249.992355,212.562546,71.800232
-0.461914,0.297607,0.593994,-249.992355,-48.515316,-204.0634,-1.325195,2.883301,-0.4646,-249.992355,249.992355,15.73944
-0.774902,0.040771,0.843506,-248.680099,-79.063416,-206.283554,-0.320313,1.169922,0.540283,-249.992355,244.361862,111.030571
-1.12085,-0.262939,1.201172,-249.992355,-146.957397,-197.814926,-0.330078,1.250977,0.559326,-249.992355,249.992355,222.167953
-1.259521,-0.631348,1.63208,-249.992355,-229.812607,-200.111374,-0.610596,1.512451,0.412842,-249.992355,249.992355,249.267563
-1.186768,-1.028076,2.122314,-183.639511,-249.992355,-214.256271,-0.969482,1.839111,0.237549,-249.992355,249.572739,249.992355
-1.584961,-1.403809,2.644287,-62.561031,-249.977097,-199.577316,-1.229248,2.145996,0.086426,-249.992355,249.992355,249.992355
-2.474365,-1.34668,3.142578,10.238647,-249.992355,-97.80883,-1.366699,2.38501,0.070313,-249.992355,249.992355,249.992355
-0.368408,1.704346,0.561768,-249.992355,-18.669128,-173.454269,-1.393555,2.576172,0.102051,-249.992355,233.772263,249.992355
0.121338,1.418457,0.223633,204.223618,21.514891,193.153366,-1.287842,2.807373,0.126465,-249.992355,185.821518,249.992355
0.131836,1.43335,0.187256,159.858704,34.172058,156.715393,-1.157959,3.055664,0.076904,-249.992355,141.334534,249.992355
0.955811,2.018555,-0.001709,-249.992355,68.870544,-249.992355,-1.131836,3.241455,-0.083496,-249.992355,98.678581,249.992355
0.833008,3.106201,0.992188,-249.992355,249.992355,28.778074,-1.138428,3.283447,-0.318359,-249.992355,51.734921,249.992355
0.517578,2.518799,1.172607,-249.992355,249.168381,41.969296,-0.284912,1.146484,0.509033,-249.992355,249.992355,167.617783
0.342773,1.937256,1.221191,-249.992355,221.824631,39.512634,-2.438477,4.70459,-3.75,-249.992355,249.992355,28.739927
0.297119,1.668457,0.86377,-249.992355,195.938095,33.02002,-0.649658,1.109375,-0.140381,249.992355,-249.816879,-224.60936
0.312988,1.496582,0.702637,-249.992355,175.743088,27.259825,0.678955,7.076904,-2.765381,-221.107468,249.946579,101.181023
0.273438,1.368896,0.619141,-249.992355,153.396606,24.787901,-0.489258,1.078857,-0.500732,249.992355,-242.683395,-143.089294
0.205078,1.3125,0.47583,-249.992355,123.741142,22.415159,-0.458984,1.078857,-0.649414,249.992355,-204.330429,-93.360893
0.148682,1.313477,0.409424,-249.992355,87.425224,18.928528,-0.464111,1.076172,-0.705078,249.504074,-164.947495,-56.343075
0.171387,1.371338,0.311279,-249.977097,50.186153,7.286071,-0.5625,1.128906,-0.746826,249.992355,-135.696411,-31.311033
0.203369,1.38623,0.325439,-249.580368,16.441345,-2.76947,-0.749756,1.26709,-0.755859,249.992355,-115.150444,-2.975464
1.403076,3.339111,0.693604,-249.992355,242.149338,10.82611,-0.880859,1.497803,-0.779541,231.002792,-102.050774,35.713196
0.240479,1.30542,0.363037,-249.992355,-11.444091,-13.816833,-0.110352,7.999756,-7.520996,-249.992355,249.084457,-8.94165
0.207764,1.151367,0.392822,-227.24913,-68.511963,-48.72131,-0.924316,2.151855,-0.744873,107.666008,-109.695427,109.306328
0.134521,1.172607,0.380615,-210.647568,-106.231682,-68.29071,-0.813965,2.433594,-0.778564,53.459164,-116.897575,132.484436
0.149658,1.287598,0.401611,-205.780014,-142.593384,-91.331474,-0.796387,2.753174,-0.898926,14.953612,-116.546623,150.611877
0.266357,1.324707,0.440186,-198.760971,-170.66954,-123.222343,-0.862305,2.995605,-1.182373,7.728576,-116.996758,165.672287
0.336182,1.363281,0.442627,-194.442734,-180.847153,-158.676147,-0.944336,1.828125,-0.781006,170.150742,-99.693291,76.385498
0.351563,1.427734,0.433105,-193.885788,-174.186691,-194.297775,-0.364014,3.104736,-1.474365,152.122498,-35.28595,174.362167
0.368408,1.506348,0.41333,-195.091232,-151.290894,-224.220261,-0.163574,3.154053,-1.11084,240.379318,56.373592,168.601974
0.378418,1.5625,0.392578,-193.634018,-117.210381,-243.621811,-0.206787,3.492676,-0.705811,249.114975,149.505615,157.081604
0.461426,1.648193,0.359375,-195.777878,-86.082451,-249.992355,-0.101807,3.846436,-0.384521,249.992355,233.032211,161.888107
0.556152,2.146973,0.273926,-233.139023,-48.522945,-249.969467,0.255371,3.788574,-0.156738,240.966782,249.992355,170.959457
0.240234,1.21875,0.35791,-249.992355,-35.964966,-30.052183,0.424805,3.235596,0.007813,166.816696,249.992355,153.450012
2.092773,3.707275,-1.12793,-249.992355,189.506516,-10.551452,0.157959,2.291992,0.272705,146.629333,249.992355,134.44519
0.631836,2.4021,0.134033,-249.992355,3.570556,-249.992355,0.057373,1.530518,0.515625,197.792038,249.992355,170.997604
5.070068,7.999756,-5.123535,-163.337692,249.992355,52.474972,1.05249,1.766846,0.417969,241.981491,249.984726,182.624802
0.176758,1.412354,0.045166,161.293015,39.123535,128.196716,1.023682,3.827393,-0.094971,48.927303,249.992355,129.936218
0.208496,1.354248,-0.131836,172.8134,49.797054,109.03167,-0.72876,3.115234,-1.468994,50.827023,-100.364677,172.706589
0.31958,1.277588,-0.243896,198.52446,64.544678,104.354851,0.085938,2.158447,0.428223,193.061813,123.474113,-249.992355
0.42749,1.229248,-0.329834,234.481796,89.134209,110.939018,1.424072,1.75293,1.047607,211.776718,111.747734,-249.992355
0.521729,1.206543,-0.397217,249.992355,127.220146,118.904106,2.938721,1.166748,1.438232,227.981552,132.354736,-249.992355
0.583496,1.187988,-0.439697,249.992355,175.102219,124.320976,2.817383,0.634521,1.127441,247.802719,164.146408,-249.992355
1.622559,7.23999,-7.135742,-249.992355,161.537155,-55.984493,4.882568,-0.867432,3.621582,63.423153,-25.985716,-10.108947
0.75708,1.553711,-0.272217,249.992355,249.992355,128.929138,2.526367,0.203857,2.093018,228.729233,164.985641,-249.992355
0.761475,1.875732,-0.030518,249.992355,249.992355,137.664795,2.617432,-0.222412,3.429688,249.992355,141.242981,-249.992355
0.744873,2.131836,0.138916,249.992355,249.969467,159.645081,3.66626,-0.752686,4.04834,200.752243,70.022583,-213.722214
0.907471,2.439697,0.245117,249.992355,249.992355,183.78447,2.236084,0.455566,1.21875,234.664902,174.819931,-249.992355
0.662354,1.280518,-0.427734,249.992355,228.378281,128.02887,-0.452881,2.466797,0.229248,187.43895,142.379761,-249.992355
1.14624,3.055664,0.310547,249.984726,249.885544,192.932114,-1.412842,2.254395,0.337158,100.944511,-59.402462,-249.992355
1.176758,3.861816,0.408936,249.992355,248.374924,198.593124,-1.12207,2.692383,-0.017578,176.330551,190.757736,-249.992355
0.954346,4.295898,0.449707,249.992355,249.992355,208.656296,-1.143799,2.852295,0.111816,149.635315,215.713486,-249.992355
0.620361,4.014648,0.4104,249.496445,249.992355,208.404526,-1.309814,3.014648,0.195313,126.396172,236.404404,-249.992355
0.34375,3.895264,0.457764,249.992355,152.290344,192.085251,-1.46167,3.056152,0.181641,111.366264,244.094833,-249.992355
-0.171875,4.546631,0.385254,249.992355,39.588928,170.600876,-1.545654,2.936768,0.148682,109.161369,239.181503,-249.992355
-0.29248,4.988037,0.185547,231.422409,-40.122986,137.145996,-1.497559,2.750488,0.191162,113.647453,223.449692,-249.992355
0.482666,3.598389,-0.266113,208.145126,-120.483391,150.405884,-1.348633,2.620605,0.32251,112.43438,193.893417,-249.992355
0.533691,2.682129,0.412842,249.992355,-23.925779,242.797836,-1.233643,2.541748,0.48877,101.158134,150.924683,-249.992355
2.056396,5.419189,0.262695,240.264877,216.659531,249.992355,-1.213867,2.499023,0.535156,89.546196,95.375053,-249.992355
0.055908,1.445068,0.229004,173.156723,30.364988,180.427536,-1.296875,2.438965,0.445801,87.745659,25.81024,-249.992355
-0.186279,1.304443,1.00415,249.992355,-95.893852,138.85498,4.700684,-0.60083,3.335693,-22.514341,-131.835938,115.997307
-0.738037,0.800049,1.543945,249.992355,-36.987305,114.158623,-0.915527,2.589111,0.070068,191.398605,166.336044,-249.992355
-1.667236,0.161621,2.365967,249.992355,1.548767,82.489006,4.209961,-0.489014,2.969238,-85.395805,-233.634933,144.248962
-2.243408,-0.612793,2.536133,249.992355,-15.579223,64.979553,-1.278564,3.210205,0.361328,-249.992355,-103.820793,249.992355
-2.702881,-0.407471,3.479248,-73.59314,-249.282822,-99.647514,2.257813,-0.03125,1.799805,-198.791489,-249.320969,249.992355
-0.787598,-3.818848,2.725586,249.992355,-168.40361,84.671013,-1.445313,2.028809,0.2854,123.245232,-157.600403,-249.992355
-0.943848,-2.202637,3.521973,158.782959,-240.890488,114.646904,-0.324219,1.320557,0.388916,-249.992355,249.984726,150.07782
-2.293213,-0.530273,3.780762,-49.781796,-249.992355,36.758423,-0.685303,1.615479,0.305176,-249.992355,249.992355,216.903671
-1.965332,-2.118164,2.019287,249.992355,-80.085754,54.939266,-1.152832,2.047607,-0.001221,-249.992355,249.992355,249.290451
0.056152,1.736816,0.830811,249.992355,-149.093628,139.030457,-1.550537,2.556396,-0.312988,-249.992355,249.084457,249.992355
0.956299,2.255127,0.718994,249.992355,-249.992355,206.8405,-1.708496,3.131836,-0.421631,-249.992355,249.992355,249.992355
0.250244,2.36377,0.786865,249.992355,-243.00383,140.480042,-1.678467,3.581299,-0.22168,-249.992355,249.992355,249.992355
0.236328,2.427002,0.737305,249.992355,-249.992355,153.289795,-1.450439,3.823242,0.203125,-249.992355,202.835068,249.992355
0.221191,2.46167,0.703857,249.992355,-249.992355,159.301758,-1.250977,3.884521,0.62085,-249.992355,141.197205,249.992355
0.316162,2.534668,0.737305,249.992355,-249.992355,155.105591,-1.098145,3.80835,0.72583,-249.992355,79.681396,249.992355
0.450195,2.591064,0.705811,249.992355,-249.992355,143.539429,3.376953,-0.315674,2.283203,-135.84137,-249.992355,212.501511
0.483887,2.542725,0.634277,249.992355,-249.984726,142.303467,-1.161865,3.642822,0.647217,-249.992355,26.580809,249.992355
0.485107,2.439697,0.671875,249.992355,-249.992355,145.812988,-1.369873,3.474121,0.32373,-249.992355,-62.507626,249.992355
0.480469,2.357666,0.793701,249.992355,-249.977097,149.879456,-1.2146,2.637207,0.447266,-249.992355,-176.513657,249.992355
0.567627,2.311279,0.847168,249.992355,-249.092087,160.774216,-1.420898,2.873047,0.660645,-249.992355,-243.995651,249.992355
0.774414,2.271484,0.804932,249.992355,-249.992355,178.176865,-1.420166,3.815186,0.935791,-249.992355,-249.992355,249.992355
-2.249023,-0.997803,3.048584,-10.429381,-249.664291,-189.781174,-0.849609,3.669922,0.976807,-249.984726,-249.992355,249.992355
0.236572,2.148193,0.820557,249.992355,-199.592575,133.918762,-0.133057,2.437256,1.102051,-249.992355,-249.992355,249.977097
-1.040527,-1.544678,3.002197,-67.527771,-249.992355,-247.474655,0.458496,1.498047,1.310303,-249.992355,-249.984726,249.992355
0.224609,3.814453,1.235352,-249.992355,207.130417,-222.625717,0.971191,0.954102,1.36377,-248.977646,-249.992355,249.992355
-1.001709,-0.510498,2.01709,-249.992355,-223.274216,-233.741745,1.362549,0.556885,1.317139,-249.992355,-249.992355,249.084457
1.070801,2.171875,0.605713,249.671921,-200.759872,241.729721,1.664063,0.253906,1.483643,-249.992355,-249.465927,249.992355
0.144775,1.772217,0.324219,-249.992355,-223.175034,-61.843868,-1.26709,3.512939,0.452637,-249.992355,-21.263121,249.992355
0.245361,1.729248,0.32666,-249.992355,-247.253403,-107.780449,0.018799,1.235596,0.185303,-249.992355,249.992355,90.667717
0.257813,1.753174,0.331543,-249.992355,-249.992355,-154.35791,-1.322266,1.853027,0.289795,143.180847,-236.236557,-249.992355
0.270508,1.848633,0.329834,-249.992355,-249.908432,-213.523849,-1.158936,1.625,0.308838,188.034042,-249.992355,-249.984726
0.26123,1.979736,0.328369,-249.992355,-249.221786,-248.596176,0.512695,5.546387,-0.418945,-18.997192,249.694809,176.788315
0.313965,2.077881,0.273926,-249.992355,-249.992355,-249.992355,-0.485352,7.999756,-5.286133,-246.734604,249.275192,199.508652
0.581299,2.082031,0.185791,-249.992355,-249.984726,-249.984726,-2.561523,7.135742,-6.298096,-249.992355,249.992355,95.184319
1.056396,2.599365,0.205811,-249.992355,-196.76207,-249.992355,-1.857422,3.453613,-0.957764,-249.992355,242.156967,12.985229
1.509766,3.552246,0.272705,-249.992355,-108.955376,-249.992355,-1.079346,2.322266,1.029541,-249.992355,182.594284,3.456115
-0.611328,-1.324219,2.609375,-227.035507,-248.016342,-249.992355,-0.686279,1.959229,0.902832,-249.992355,161.125168,-18.554688
1.551758,3.470947,0.276367,-249.992355,22.331236,-249.30571,-0.413818,1.767578,0.59668,-249.992355,157.76825,-34.805298
0.810547,3.840332,0.9021,-249.992355,204.147324,-249.992355,-0.071777,1.717285,0.338135,-249.992355,160.575867,-25.161741
0.115479,3.443359,1.422852,-249.992355,139.610291,-154.701233,0.219238,1.671631,0.275879,-249.992355,189.865097,-4.623413
0.000732,3.141357,1.246582,-249.992355,71.525574,-110.870354,0.134521,1.463135,0.514648,-249.992355,249.992355,36.4151
-0.183594,3.232666,0.98877,-249.992355,48.011776,-146.026611,1.376221,2.241211,1.601074,249.992355,249.992355,230.926498
0.004395,2.811035,0.80249,-249.992355,25.512693,-229.01152,0.008057,1.386719,0.620361,-249.992355,249.992355,89.50042
-0.324463,2.111328,0.696045,-249.977097,4.623413,-181.495651,-0.383057,1.343506,0.80957,-249.992355,249.984726,190.70433
-0.301514,1.842773,0.582275,-249.992355,-24.787901,-197.921738,-0.66333,1.406006,0.780029,-249.992355,249.992355,236.213669
-0.527832,1.4104,0.678467,-249.992355,-67.504883,-227.165207,-1.008789,1.591309,0.659668,-249.992355,249.992355,249.992355
-0.878662,0.897217,1.033691,-249.17601,-124.130241,-225.158676,-1.37793,1.95166,0.494385,-249.992355,249.55748,249.992355
-1.140625,0.289307,1.523438,-248.390182,-178.98558,-213.912949,-1.600586,2.378174,0.392578,-249.992355,249.755844,249.992355
1.38208,3.716064,0.59668,-249.992355,140.686035,-249.992355,-1.588135,2.717285,0.361572,-249.992355,249.992355,249.992355
1.109619,2.009277,0.511719,249.992355,-135.765076,249.992355,-1.428955,2.915771,0.375,-249.992355,235.176071,249.992355
0.028809,1.757568,0.25415,-249.992355,-171.607956,-14.167785,-1.328857,2.979004,0.478027,-249.992355,171.241745,249.992355
0.558838,1.791016,0.509277,236.755356,-31.707762,249.992355,-1.345703,3.035889,0.584717,-249.992355,106.559746,249.992355
4.682861,7.999756,-5.432861,-190.727219,249.992355,196.304306,-1.195557,1.722656,0.330811,162.399277,-249.992355,-249.992355
-0.029297,7.336914,-7.713379,-249.992355,249.984726,247.764572,-0.134033,1.351807,0.797119,-249.992355,249.992355,139.663696
1.544434,3.303467,-1.10376,-249.992355,249.992355,246.681198,1.127441,0.880371,1.415039,249.992355,249.992355,194.831833
0.745117,2.671631,1.071045,-249.992355,249.900803,249.755844,0.289063,1.574951,0.380615,-249.992355,235.496506,9.078979
0.463623,2.509033,0.958252,-249.992355,249.267563,249.923691,0.499756,1.975342,0.693359,81.245415,249.992355,109.680168
0.347412,2.19873,0.663818,-249.916061,249.992355,249.992355,0.469482,0.979492,1.13208,168.708786,249.992355,128.456116
0.174805,1.745117,0.564453,-249.336227,249.55748,241.607651,-1.183105,1.290283,0.00708,247.024521,-249.992355,-249.992355
-0.01709,1.437012,0.386475,-249.992355,201.095566,209.472641,-1.198486,1.056152,-0.11084,249.992355,-249.992355,-249.43541
-0.128174,1.428711,0.216553,-249.954208,144.569397,182.594284,-1.13623,0.838867,-0.175049,249.992355,-249.992355,-249.992355
-0.111328,1.560547,0.272461,-209.876999,87.173454,148.574829,-1.040039,0.737305,-0.221191,249.992355,-249.992355,-249.992355
3.327881,5.490479,-0.795654,206.237778,248.153671,248.764023,-0.859619,0.781982,-0.326172,249.992355,-249.633774,-227.783188
-0.121582,1.747559,0.343018,-192.176804,29.670713,93.284599,-0.600098,0.893311,-0.474609,249.977097,-249.443039,-171.363815
-0.133057,1.460938,0.629639,-183.464035,-106.292717,-9.590149,-0.485596,1.0271,-0.624512,249.992355,-249.992355,-125.610344
-0.047852,1.319824,0.695801,-190.887436,-174.896225,-55.381771,-0.697266,1.180664,-0.739502,249.992355,-239.082321,-81.581108
0.054199,1.342285,0.681152,-230.445847,-232.688889,-105.590813,-1.040283,1.383545,-0.800293,249.160751,-176.567062,-32.669067
0.164307,1.451904,0.712891,-249.992355,-249.992355,-161.331161,-1.253662,1.664795,-0.810059,249.992355,-140.449524,16.159058
0.234131,1.606689,0.681885,-249.992355,-249.877914,-220.092758,-1.156494,1.480225,0.161377,220.870956,-249.992355,-249.992355
0.358887,1.678467,0.513916,-249.992355,-249.221786,-249.30571,-1.587402,2.326904,-1.028076,217.29277,-146.003723,91.186516
0.444092,1.748535,0.486084,-249.992355,-249.992355,-249.992355,-1.44458,1.971924,-0.889404,249.992355,-129.867554,59.890743
0.51001,1.910156,0.435059,-249.992355,-248.840317,-249.992355,0.395996,3.609375,-0.57666,240.516647,197.280869,61.134335
0.727051,2.151367,0.338623,-249.992355,-193.466171,-249.992355,0.124756,3.227295,-0.93042,249.992355,59.219357,52.841183
1.077393,2.699219,0.362793,-249.992355,-117.103569,-249.992355,0.179443,2.726563,-1.212891,246.78038,-64.033508,72.029114
-0.157959,1.680908,0.508057,-190.391525,-36.300659,37.078857,0.031006,2.718018,-1.427246,195.869431,-170.097336,86.067192
0.683838,2.254883,0.618896,249.992355,107.734673,249.603256,0.626953,3.03833,0.022705,132.263184,249.992355,94.375603
0.902832,1.870605,0.485596,249.992355,-77.415466,249.992355,-1.205322,2.889648,-1.172363,63.049313,-249.992355,93.261711
-0.468018,4.251953,0.410156,170.089706,-49.926754,118.530266,-1.647705,2.858887,-1.063721,65.879822,-243.835434,106.773369
0.420654,1.811523,0.448486,205.07048,-5.249023,249.992355,-1.685547,2.672607,-1.083252,126.7929,-197.395309,106.857292
0.379883,1.823242,0.370117,179.214462,11.840819,249.656662,-0.5271,2.865967,-1.393311,111.2976,-249.992355,84.648125
0.347656,1.750244,0.273682,168.41124,27.839659,249.992355,2.912109,-0.867432,3.554932,236.57225,170.562729,-249.992355
0.330566,1.627686,0.119873,175.621017,46.70715,249.992355,0.905029,0.729492,0.776611,-249.481186,-214.637741,249.656662
0.333252,1.542969,-0.081787,187.141403,68.450928,235.511765,1.30835,0.348145,0.969482,-249.885544,-179.679855,249.992355
0.318359,1.479248,-0.202637,197.898849,93.52874,204.368576,1.791748,0.069092,1.314209,-249.992355,-151.702881,240.074142
0.130615,2.962646,-0.031738,162.73497,-58.616634,168.899521,2.376465,-0.075684,1.832275,-231.66655,-121.986382,186.828598
0.463379,1.386963,-0.433838,247.062668,140.563965,157.783508,2.81958,-0.154053,2.436768,-163.803085,-89.355461,136.985779
0.553955,1.394531,-0.554932,249.992355,163.74968,141.777039,3.220947,-0.287842,2.932129,-100.097649,-41.824337,91.712944
0.640869,1.430176,-0.653076,249.992355,205.131516,131.752014,0.521729,1.19043,0.5271,-249.992355,-249.992355,249.67955
0.851807,1.471924,-0.617676,249.992355,245.567307,123.001091,3.654785,-0.606934,3.402588,-30.708311,25.276182,10.765075
0.361816,1.419678,-0.30542,222.610458,118.827812,178.794846,3.547363,-0.97168,3.807617,103.782646,98.930351,-141.799927
1.246338,1.843506,-0.216309,249.992355,249.992355,141.059875,2.595459,-0.357666,2.786865,249.992355,236.396774,-238.555893
1.298584,2.138916,0.133301,249.992355,249.984726,171.157822,-0.20459,1.727051,-0.051758,236.778244,200.66832,-249.992355
1.239502,2.49292,0.380615,249.992355,249.977097,195.129379,2.164307,1.079834,1.368408,249.992355,249.786362,-249.992355
1.192139,2.783203,0.516113,249.992355,249.992355,209.304794,1.465332,1.291992,0.79541,249.824509,249.992355,-249.992355
1.200928,3.060303,0.604736,249.969467,249.702438,228.233322,0.551025,1.467285,0.285645,236.274704,241.859421,-249.992355
1.07251,3.570557,0.532227,249.992355,248.283371,247.627243,-0.72998,2.009766,-0.104736,248.512253,157.88269,-249.992355
0.706299,3.935059,0.519775,249.992355,249.992355,249.992355,-1.229248,2.269775,-0.001953,249.67955,118.659966,-249.992355
0.396729,3.735107,0.569092,248.336777,246.582016,244.781479,-1.464111,2.46582,0.108398,249.992355,82.023613,-249.992355
-0.038086,3.780273,0.62793,249.992355,128.02887,197.540268,-1.360352,2.643555,0.101807,249.992355,56.762691,-249.992355
-0.523682,4.375,0.672607,249.992355,19.454956,144.340515,-1.205322,2.730469,0.057129,232.635483,52.360531,-249.992355
1.104004,1.610352,-0.454834,249.992355,249.992355,121.398918,-1.262695,2.668701,-0.014648,226.974472,54.77142,-249.992355
-1.580322,-1.878174,1.768555,76.667786,-249.992355,60.592648,0.173828,1.740479,0.443359,-249.992355,-249.992355,249.992355
-1.907471,-1.405029,1.972656,28.137205,-249.107346,22.78137,2.625488,0.284424,2.231689,249.969467,249.992355,-200.820908
-2.169434,-1.4646,1.965332,16.471863,-249.526962,-76.385498,-0.292236,2.290283,0.455078,-249.984726,-249.374374,249.992355
-1.901611,-1.508057,1.884033,-25.154112,-249.992355,-197.677597,-1.400391,2.56665,-0.054199,236.854538,46.455379,-249.992355
-0.598877,0.721191,0.339844,-249.038681,-34.477234,-249.992355,-0.875732,2.380371,0.471191,-249.992355,-249.992355,249.992355
-1.263184,-0.541748,1.189453,-208.007797,-230.979904,-249.992355,-0.316162,1.093262,0.068359,-249.992355,28.167723,29.762266
-0.940674,-0.108643,0.864746,-249.992355,-157.180786,-249.229416,-0.238037,1.212891,-0.058105,-249.992355,90.385429,49.621578
-0.758057,0.298584,0.577637,-249.992355,-88.096611,-249.977097,-0.125732,1.38916,-0.127441,-249.992355,154.563904,82.458488
-1.592529,-1.04248,1.55127,-119.285576,-249.992355,-249.992355,-0.100586,1.551025,-0.268555,-249.992355,218.116745,101.020805
-1.499023,-2.388428,1.414063,185.203537,-236.709579,101.242058,-0.422363,1.607422,-0.460205,-249.992355,248.245224,124.732964
0.15918,2.117432,0.023682,249.992355,45.295712,249.992355,-0.871338,1.60498,-0.064941,-249.992355,249.992355,172.843918
-2.348145,-1.616943,0.345703,249.885544,-104.064934,208.091721,-0.978271,1.719482,0.293945,-249.992355,249.992355,221.252426
-2.579346,-0.54541,0.731689,249.992355,-5.455017,236.305222,-1.080322,1.907471,0.159668,-249.992355,235.107407,248.67247
-1.698975,0.233643,0.797363,248.054489,83.648674,249.824509,-1.2146,2.111816,-0.030029,-249.992355,188.766464,249.992355
-0.642334,0.737305,0.616455,237.220749,136.482239,249.992355,-1.269531,2.311279,-0.070068,-249.992355,133.628845,249.992355
-0.018066,1.171875,0.334473,235.458359,161.636337,249.992355,-0.624023,2.372314,0.583008,-249.992355,-249.954208,249.992355
0.182373,1.563477,0.224365,245.948776,165.306076,249.992355,-1.199463,2.51709,0.002441,-249.992355,78.521729,249.992355
0.229004,1.764893,0.254395,249.992355,160.865768,249.992355,-1.058105,2.85791,0.341309,-249.992355,22.125242,249.992355
0.209717,1.858887,0.198975,249.992355,150.817871,249.992355,-0.995605,2.872559,0.536621,-249.992355,14.450072,249.992355
0.155762,1.988525,0.13623,249.992355,127.55584,249.816879,-0.97168,2.829834,0.717529,-249.992355,4.348755,249.992355
0.149414,2.085205,0.083252,249.992355,90.713493,249.908432,-1.084473,2.912109,0.708008,-249.992355,-12.832641,249.992355
-0.467773,1.156738,0.200928,-249.992355,17.990112,-249.984726,-1.220703,3.089355,0.374268,-249.992355,-47.218319,249.992355
-1.711182,-2.308838,1.084473,248.451218,-154.403687,162.681564,-1.227539,3.051758,-0.033691,-249.992355,-90.171806,249.992355
-0.359131,1.534424,0.244629,-249.992355,64.315796,-249.992355,-1.012207,2.826416,-0.152588,-249.992355,-131.011963,249.992355
0.727295,1.685791,0.688232,-249.992355,-112.976067,-249.992355,-0.767334,2.606201,-0.108398,-249.992355,-165.75621,249.992355
-0.249512,1.927734,0.655029,-249.992355,129.364014,-249.992355,-0.701416,2.406494,0.0,-249.992355,-204.139694,249.992355
0.189209,2.078125,-0.011963,249.992355,-2.601623,243.720993,-0.84375,2.375244,0.157227,-249.992355,-244.453415,249.992355
-0.000244,1.857666,0.468262,-249.969467,-222.625717,46.417233,-1.139648,2.70752,0.20166,-249.992355,40.222164,249.992355
0.083984,1.732666,0.34668,-249.626144,-248.634323,-1.960754,-1.353271,2.419434,0.033203,233.650192,27.793882,-249.992355
0.055664,1.550293,0.426758,-249.992355,-249.992355,-40.969845,2.433105,0.801514,1.757568,249.778732,249.748215,-235.969528
0.019775,1.301514,0.512451,-249.992355,-249.992355,-69.274902,-0.93042,1.941406,0.241943,220.405563,-11.589049,-249.992355
0.037842,1.25293,0.515625,-228.805527,-249.992355,-102.859489,-0.217773,3.537109,-0.738037,249.18364,-124.618523,76.667786
0.056885,1.392822,0.473633,-219.06279,-249.992355,-138.366699,0.220703,3.305908,-0.64917,249.992355,-45.906063,80.207825
0.177734,1.512207,0.506348,-221.214279,-249.755844,-173.805222,0.469971,3.310547,-0.591797,249.992355,59.272762,86.410515
0.299316,1.518311,0.637207,-217.819199,-249.992355,-205.718979,1.098877,3.14502,-0.635742,200.241074,193.458542,88.584892
0.351074,1.507813,0.684082,-220.024094,-249.992355,-236.221298,1.655029,2.720947,-0.565674,174.45372,249.992355,80.589287
-0.30249,1.835938,0.373535,-249.977097,104.881279,-249.992355,1.704346,2.944336,-0.571045,142.425537,249.992355,115.486137
0.408203,1.547119,0.730469,-229.52269,-238.182053,-249.839767,1.858887,4.651367,-1.196533,-72.547913,249.992355,126.785271
0.601563,1.623779,0.725586,-249.992355,-165.847763,-249.992355,1.441162,6.08374,-2.655029,-247.474655,249.992355,23.323057
0.905273,2.006104,0.615234,-249.992355,-57.243343,-249.992355,-0.086914,4.858398,-1.731201,-249.992355,249.992355,43.113705
0.991211,2.578125,0.638916,-249.992355,1.861572,-249.992355,-0.323975,3.883789,-1.056885,-249.992355,249.992355,10.57434
0.888428,3.167236,0.708984,-249.992355,60.775753,-249.992355,-0.802979,3.085449,-0.726807,-249.992355,249.67955,-25.489805
0.82251,2.676025,0.680664,-249.992355,121.887199,-249.565109,-0.814209,2.669922,-0.596436,-249.992355,249.992355,-34.790039
0.661621,2.660156,0.795654,-249.992355,156.341553,-249.992355,-0.602051,2.44751,-0.447021,-249.992355,249.992355,-30.059813
0.362549,2.700684,0.871582,-249.992355,172.149643,-249.992355,-0.416504,2.327637,-0.553711,-249.992355,232.597336,-12.390136
0.036621,2.689697,0.923584,-249.992355,172.233566,-230.65947,-0.13501,2.182129,-0.668213,-249.992355,203.857407,-3.356933
-0.190186,2.76709,0.925537,-249.992355,158.378601,-227.111801,-0.073486,1.949951,-0.420654,-249.992355,170.196518,-9.124756
-0.12085,2.574463,0.747803,-249.992355,152.290344,-246.543869,-0.340332,1.705078,-0.091309,-249.992355,144.187927,-9.338379
0.5,1.618896,0.739258,-245.353683,-209.808334,-249.992355,-0.542725,1.394043,0.081299,-249.992355,115.592949,-17.379761
-0.048096,2.023682,0.574951,-249.992355,-170.249924,93.223564,-0.486328,1.130615,0.227295,-249.992355,81.748955,-42.266842
0.182861,1.737061,0.056152,249.992355,-74.47052,196.449265,-0.183838,1.103271,0.215332,-249.992355,74.760437,-53.1311
0.199219,1.561523,0.10376,249.992355,-90.766899,182.418808,0.175293,1.17334,0.045166,-249.992355,116.950981,-31.318663
1.033691,3.943359,0.134277,249.969467,220.664963,165.855392,0.456299,1.207275,-0.056152,-249.992355,200.988754,3.623962
0.85376,3.993896,0.195313,249.923691,175.498947,210.304245,0.408447,1.214355,-0.029053,-249.992355,248.527512,41.435238
0.603027,3.89209,0.169678,249.992355,109.565727,240.814194,-0.636475,3.71875,-0.816162,249.908432,-174.293503,86.502068
0.777588,4.072998,-0.032959,249.191269,66.665649,206.96257,-0.888428,3.60498,-0.860107,249.992355,-186.157211,106.559746
1.182861,3.405273,-0.371826,244.697556,92.041008,148.071289,-1.129639,2.169678,0.226807,222.267136,6.736755,-249.992355
0.976074,3.104004,-0.429688,249.992355,204.925522,210.075363,-0.8479,3.022949,-0.775635,226.585373,-132.667542,125.114433
2.13916,4.58252,-0.875977,243.469223,249.992355,249.992355,-0.811523,1.692871,0.094971,248.207077,-50.415035,-249.992355
2.958984,6.619141,-3.008301,-102.828972,249.992355,235.855087,-0.876465,1.590088,0.078369,249.992355,-77.125549,-249.992355
0.775879,6.588623,-4.37793,-249.992355,249.992355,231.925949,-0.949219,1.538574,0.10498,249.992355,-109.451286,-249.992355
0.876709,3.063477,-1.759521,-249.992355,249.984726,105.49926,-0.983643,1.504639,0.158936,249.992355,-147.766113,-249.992355
1.28833,3.493408,0.084473,249.992355,213.500961,107.048027,-0.974365,1.4646,0.158936,249.992355,-182.212814,-249.984726
0.641113,2.69873,-1.029053,-249.992355,249.992355,121.520988,-0.875,1.388428,0.084961,249.992355,-204.101547,-249.847397
0.467529,2.391113,-0.48584,-249.992355,249.412521,149.124146,-0.782471,1.27002,-0.001465,249.992355,-212.234482,-249.992355
0.303955,2.23291,-0.374756,-249.992355,249.992355,168.266281,-0.766846,1.121582,-0.095215,249.992355,-214.3936,-249.992355
0.242676,1.94751,-0.245117,-249.992355,249.992355,169.891342,-0.768799,0.959961,-0.1604,249.992355,-221.252426,-240.73027
0.148193,1.675049,-0.237305,-249.992355,220.870956,150.260925,-0.76416,0.826172,-0.168701,249.992355,-231.025681,-229.76683
0.053467,1.559326,-0.397949,-249.992355,166.816696,135.597229,-0.936768,3.312256,-0.849609,245.437607,-166.717514,120.315544
0.134521,1.530518,-0.400146,-249.992355,104.11834,111.465446,-0.835449,1.798096,0.175537,233.261093,-28.335569,-249.992355
0.114746,1.536377,-0.254395,-249.992355,40.863033,84.564201,-0.770508,0.744141,-0.27124,249.992355,-234.245285,-195.770248
0.025146,1.576416,-0.07959,-249.992355,-25.741575,57.487484,-0.775391,0.820313,-0.388672,249.992355,-228.225693,-170.555099
0.006348,1.667236,0.091309,-249.992355,-101.486198,26.092527,-0.770264,0.968994,-0.483398,249.992355,-221.336349,-143.943787
0.223633,1.946533,-0.002686,249.992355,-45.31097,217.29277,-0.725586,1.164063,-0.589844,249.992355,-212.081894,-115.852348
0.622314,2.544922,-0.717041,-249.992355,249.992355,136.71875,-0.695313,1.374268,-0.741699,249.969467,-198.738083,-82.68737
1.35083,3.23999,0.204102,249.992355,203.262314,66.810608,-0.723145,1.619873,-0.841797,249.763474,-181.678757,-42.640682
1.462891,4.458984,-3.950684,-249.992355,249.992355,113.243095,-0.721436,1.877686,-0.782471,249.992355,-160.797104,2.082825
0.891357,2.540771,0.170654,249.992355,227.699265,32.287598,-0.597656,2.153564,-0.620605,249.900803,-133.506775,46.859737
1.135254,2.932373,0.255371,249.992355,216.201767,46.211239,-0.569824,2.461914,-0.568604,234.519943,-105.682365,86.631767
0.32251,1.358154,0.094238,249.992355,-81.039421,168.685898,-0.708252,2.766602,-0.66626,221.435532,-103.538506,114.967339
0.388672,1.285645,0.093994,249.992355,-60.508724,168.365463,-0.772949,0.748047,-0.199951,249.992355,-236.099228,-215.744003
0.412109,1.219482,0.107666,249.992355,-38.650513,169.433578,0.448242,1.100586,0.819092,-249.992355,-249.992355,249.992355
0.414307,1.163574,0.125732,249.992355,-18.486023,169.868454,0.136475,1.594238,1.012695,-249.984726,-249.824509,249.984726
0.39917,1.157715,0.129639,249.992355,4.333496,168.182358,-0.10376,2.189941,1.054688,-249.992355,-249.496445,249.992355
0.389648,1.171143,0.103516,249.992355,29.167173,164.360031,-0.499756,2.627686,1.142578,-249.992355,-249.992355,249.992355
0.326416,1.126953,0.127686,249.992355,53.817745,161.109909,-0.94458,2.819092,0.158203,-249.992355,-94.589226,249.992355
0.256836,1.062256,0.126953,249.992355,77.064514,152.992249,-1.181641,3.056641,0.381104,-249.992355,-163.185104,249.992355
0.217285,1.037842,0.051025,249.992355,100.669853,135.871887,-1.133057,2.686035,0.19751,-249.992355,-102.615349,249.992355
0.188721,0.998291,-0.022705,249.992355,124.084465,116.195671,-0.95459,2.630615,0.19751,-249.992355,-93.215935,249.992355
0.243408,1.44165,0.119873,249.992355,-92.460625,173.110947,0.767334,0.786865,0.638184,-249.771103,-232.589706,249.992355
0.157227,0.985596,-0.174561,249.992355,138.519287,80.116272,-0.859619,3.026123,0.856934,-249.992355,-241.699203,249.992355
0.172119,0.966797,-0.095703,249.992355,138.214111,97.412102,1.202637,0.519531,0.726074,-248.863205,-162.582382,249.031052
0.846436,2.145508,-0.022705,249.992355,193.801865,11.894225,4.877441,-0.69751,4.568115,173.561081,225.456223,-128.40271
0.797363,1.910156,-0.110596,249.992355,170.608505,11.70349,3.176758,-0.160889,2.69165,-162.094101,-20.042419,197.929367
0.737793,1.6604,-0.168945,249.992355,150.398254,11.932372,4.035645,-0.5271,3.543945,-55.335995,24.497984,110.229485
0.695557,1.478271,-0.210449,249.992355,131.851196,14.35852,4.838867,-0.759521,4.211426,48.355099,117.889397,7.377624
0.836914,2.321289,0.06665,249.992355,217.1707,18.501282,4.050293,-0.356445,4.067627,247.344955,249.992355,-216.758713
0.473389,1.227539,-0.135986,249.992355,112.251274,26.30615,3.26123,0.158447,3.180176,249.755844,249.992355,-238.418564
0.31543,1.118896,-0.17041,249.992355,118.003838,41.824337,2.721436,0.675781,2.227295,249.992355,249.656662,-249.992355
0.190674,1.042969,-0.22998,249.992355,129.432678,62.57629,2.062744,1.022461,1.303223,248.756393,249.992355,-249.992355
0.609131,1.359863,-0.20874,249.992355,117.736809,19.035339,1.644043,1.268799,0.769287,233.825668,249.992355,-249.992355
-0.890381,0.49292,0.177246,-248.344406,-27.023314,-249.992355,1.052002,1.479248,0.447021,245.620712,236.183151,-249.992355
0.254395,2.646973,0.82666,-249.992355,204.032883,-108.940117,-1.051514,2.908203,-0.108154,-249.992355,-98.396294,249.992355
-0.015869,2.52417,0.94165,-249.992355,127.334587,-88.508598,2.411621,0.100586,1.722412,-246.452316,-48.110958,249.992355
-0.047607,2.324219,0.906982,-249.992355,100.151054,-147.285461,-1.320801,2.945313,-0.336182,-249.992355,-81.924431,249.992355
0.165771,1.906494,0.724121,-249.992355,98.876945,-235.847458,-0.420166,1.280762,0.477051,-249.992355,137.878418,113.143913
-0.285645,1.451172,0.363037,-249.969467,113.403313,-219.94017,-1.702148,2.720215,0.278564,-249.992355,49.919125,249.992355
0.593506,2.584473,0.728027,-249.992355,249.992355,-165.191635,0.218506,7.025391,-2.318848,-54.51202,238.929733,11.543273
-0.427979,1.135742,0.089111,-249.992355,98.701469,-239.234909,1.445068,7.999756,-7.675293,-249.992355,248.161301,62.370296
-0.677002,0.772705,-0.046631,-249.992355,48.332211,-249.992355,-2.798096,6.459473,-5.999512,-249.992355,249.992355,103.324883
-0.948975,0.18457,0.525879,-249.992355,-127.54821,-248.863205,-2.486084,4.472412,-3.262695,-249.992355,140.380859,55.465694
-2.003174,-2.007324,2.557861,130.92041,-248.855576,113.105766,-1.660156,3.844238,-1.070068,-249.992355,25.016783,15.86914
-1.175049,-0.7229,1.523682,-173.782333,-249.992355,-249.992355,-1.133301,3.774658,-0.083252,-249.992355,-26.657103,24.208067
-2.065186,-1.245361,2.148193,-36.155701,-249.984726,-204.078659,-0.668945,3.312256,0.170166,-249.992355,-31.822203,49.942013
-2.966309,-1.346924,2.696289,26.672361,-249.992355,-60.447689,-0.22998,2.444336,0.169189,-249.992355,-26.496885,65.734863
-2.641602,-1.309814,2.89209,42.320248,-249.862656,54.855343,-0.121338,1.732178,-0.027344,-249.992355,-12.794494,57.167049
-1.905273,-2.442383,1.966064,234.123215,-249.992355,134.338379,-0.440674,1.32959,-0.166016,-249.992355,17.951965,72.563171
-2.530029,-2.337158,1.316162,249.992355,-249.824509,193.969711,-1.628906,2.871826,-0.169189,-249.992355,-28.152464,249.992355
-3.095703,-1.647217,0.637939,249.992355,-173.744186,242.134079,-0.457275,1.200684,0.378174,-249.992355,57.395931,85.777275
-2.861328,-0.500244,1.033936,249.992355,-70.1828,249.992355,0.162109,1.631592,0.125,249.992355,219.024643,-249.992355
-1.997803,0.365723,0.893799,249.992355,15.571593,249.992355,-0.506348,1.403564,0.410889,-249.992355,166.458115,144.081116
0.927979,2.771484,0.869385,-249.992355,249.992355,-236.465439,-0.614746,1.521973,0.261719,-249.992355,190.544113,193.420395
-0.93335,-0.206787,0.959229,-249.992355,-227.996811,-249.992355,-0.708984,1.607178,0.117188,-249.992355,212.234482,241.256699
1.018799,2.743896,0.713379,-249.992355,232.9254,-249.992355,-0.796143,1.699219,0.082031,-249.992355,226.913437,249.992355
-0.779785,0.937256,0.605225,249.992355,53.939816,249.992355,-0.899658,1.853516,0.259766,-249.992355,232.894882,249.992355
0.909424,2.775146,0.435303,-249.992355,69.824219,-249.565109,-1.047852,2.079834,0.453369,-249.992355,230.987534,249.992355
2.5271,7.426025,-3.065186,-17.730713,-213.020309,-44.265743,-1.154785,2.297852,0.589844,-249.992355,217.193588,249.992355
1.405762,7.999756,-7.999756,-249.992355,-187.553391,-37.498474,-1.228271,2.471436,0.671387,-249.992355,182.548508,249.992355
2.48877,5.590088,-3.968262,-249.992355,-150.474548,53.535458,-1.453125,2.592773,0.612305,-249.992355,125.373833,249.992355
0.979492,4.250732,0.003418,-249.992355,14.053344,102.806084,-0.421387,1.201172,0.443115,-249.992355,100.761406,94.871513
0.304932,3.789307,0.473389,-249.992355,41.831966,130.92041,-0.609375,1.936035,-0.018799,249.992355,208.511337,-249.992355
0.184082,3.336426,0.611328,-249.992355,12.115478,133.552551,1.724121,0.283203,1.019775,-249.992355,-95.008842,249.992355
0.191162,2.923584,0.804688,-249.992355,-41.473385,99.769585,-1.437744,2.293457,-0.111816,249.992355,142.692566,-249.992355
0.019287,2.168457,1.091797,-249.992355,-98.57177,52.513119,-0.769775,1.25,-0.72876,228.500351,-218.536362,22.689817
-0.123535,1.55957,0.973389,-249.992355,-145.568848,17.219543,-0.713623,1.351563,-0.660889,235.343918,-245.803818,33.630371
-0.003906,1.33252,0.555176,-249.847397,-179.23735,-20.51544,-0.753906,1.513672,-0.527588,244.705185,-249.992355,41.40472
0.838135,2.912842,0.553223,-249.992355,156.532288,-249.481186,-0.794678,1.749512,-0.443115,249.824509,-249.061569,51.101681
0.078125,1.256348,0.338135,-249.862656,-198.8983,-60.333248,-0.82959,2.026367,-0.4021,249.992355,-223.625168,53.405758
-0.635742,3.259521,0.387207,249.992355,-249.992355,19.767761,-0.825928,2.338135,-0.410645,249.992355,-177.787766,45.471188
0.116211,1.320801,0.46875,-224.929794,-211.776718,-143.562317,-0.796875,2.676514,-0.497803,249.992355,-134.33075,41.66412
0.272461,1.255859,0.518555,-218.643173,-216.133102,-172.714218,-0.907715,3.438477,-0.482178,249.992355,-114.372246,41.648861
0.36792,1.261475,0.605713,-216.346725,-216.590866,-207.702621,-0.756836,4.38208,-0.484375,249.954208,-105.072014,13.839721
0.412598,1.356689,0.59375,-231.246933,-211.425766,-242.202744,-0.490234,4.210938,-0.571777,249.992355,-80.390923,-26.473997
0.427246,1.531982,0.551025,-248.847946,-197.89122,-249.992355,-0.847412,1.161133,-0.725342,227.210983,-182.945236,-3.456115
0.477051,1.708008,0.576904,-249.992355,-181.51091,-249.992355,-0.287109,3.621338,-0.497314,249.992355,-34.27124,-41.526791
0.577881,2.0354,0.465088,-249.992355,-113.204948,-249.984726,0.387451,2.587891,-0.435303,249.992355,123.199455,-36.079407
0.695068,2.192383,0.409912,-249.992355,-59.593197,-249.992355,0.744385,2.309814,-0.307373,249.992355,224.060043,-56.999203
0.8396,2.381348,0.357422,-249.992355,1.564026,-249.992355,1.248291,3.321289,-0.065674,162.544235,249.992355,-81.260674
0.00415,1.311523,0.29248,-249.992355,-205.497726,-92.445366,-1.28125,5.871338,-2.806885,-110.626213,245.903,63.018795
0.10498,1.371582,0.324463,249.992355,59.783932,249.992355,-1.467285,7.999756,-7.387939,-249.992355,249.992355,157.241821
-0.008545,1.401855,0.377441,-245.14769,-205.978378,-119.331352,-3.218506,6.188965,-6.108643,-249.992355,201.660141,94.085686
0.306885,1.760254,0.240479,249.992355,62.782284,249.992355,-1.918701,3.891846,-3.19458,-249.992355,-7.04956,46.585079
0.874023,1.478516,-0.321777,210.662827,176.47551,-45.402523,-0.971436,2.468018,-0.706543,-249.992355,-83.175652,52.787777
0.93042,1.612061,-0.329834,233.901962,203.857407,-49.575802,-0.528809,1.733154,0.303467,-249.992355,-71.380615,42.022701
0.938477,1.815918,-0.265381,249.237045,238.929733,-59.875484,-1.107666,2.168213,-0.026367,249.992355,179.718002,-249.992355
0.866943,2.187012,-0.158447,249.992355,249.992355,-70.533752,0.347412,3.162842,-0.458008,247.886642,31.051634,-48.667904
0.781738,2.566406,0.002686,249.992355,249.992355,-78.544617,-0.8396,1.046875,-0.729492,237.121567,-164.619431,-40.130615
0.882568,2.775635,0.147461,249.992355,240.280136,-83.541862,-0.407959,1.235107,0.311035,-249.992355,-27.664183,30.46417
1.138428,3.299805,0.22876,249.992355,240.432724,-63.522335,-0.791992,0.840332,-0.712402,249.992355,-171.615585,-108.222954
0.938477,4.393066,0.296875,249.992355,233.467087,-7.80487,-0.818604,0.931641,-0.762451,249.992355,-163.421616,-74.996948
0.241455,4.533447,0.100586,249.908432,166.152939,33.866882,-1.562012,2.61792,-0.215576,249.900803,74.264526,-249.992355
-0.124023,3.70752,0.081543,249.992355,74.317932,21.568296,-1.580811,2.685303,-0.195068,249.992355,67.176819,-249.992355
0.824463,1.404053,-0.300293,195.182785,160.423279,-36.476135,-1.616455,2.615967,-0.080811,249.992355,65.338135,-249.992355
-0.659668,3.63916,0.145264,249.992355,4.188538,8.766174,-1.583984,2.445801,0.080322,245.681747,50.086971,-249.992355
-0.427979,2.76001,-0.755127,249.992355,-105.392448,1.00708,-1.440674,2.244629,0.158936,240.707382,21.804808,-249.992355
-1.798584,3.185059,-1.194824,249.992355,-177.970871,-26.275633,-1.169434,2.083984,0.161133,243.148788,-5.630493,-249.992355
-0.0271,6.728027,-1.537842,44.197079,-217.521652,19.40155,-0.921875,1.999268,0.129395,248.107895,-10.223388,-249.992355
1.715332,7.999756,-5.615234,-236.106857,-129.592896,-33.729553,-0.826904,1.926758,0.114258,249.992355,-2.151489,-249.992355
0.769043,6.641846,-6.794189,-249.992355,-124.450676,130.493164,-0.943848,1.825195,0.109619,249.992355,-0.907898,-249.992355
0.60791,3.941895,-3.63501,-249.992355,4.981995,224.716171,-1.04834,1.666748,0.104004,249.992355,-18.714905,-249.992355
0.298828,3.102051,-0.811035,-249.992355,31.631468,222.953781,-1.594482,2.440918,-0.193604,249.992355,103.675835,-249.992355
0.119141,2.493896,0.480469,-249.992355,-28.938292,182.174667,-1.081299,1.529785,0.072998,249.992355,-47.5769,-249.992355
-0.068359,2.230713,0.668945,-249.992355,-103.134148,137.634277,-1.00415,1.449951,0.053955,249.992355,-75.904846,-249.900803
0.311035,1.62793,0.256592,249.992355,63.133236,249.992355,-0.91333,1.37207,-0.003174,249.992355,-104.446404,-249.992355
-0.479736,3.491699,0.070557,245.475754,-32.150269,38.543701,-0.895996,1.23291,-0.057373,249.992355,-132.377625,-249.992355
0.757568,1.377686,-0.344727,197.471603,154.35791,-12.641906,-0.9104,1.050781,-0.080566,249.992355,-158.210754,-244.216904
0.507813,1.842041,0.54126,-249.992355,-154.792786,-249.992355,-0.938477,0.883545,-0.123779,249.992355,-178.047165,-235.671982
0.461914,1.181152,-0.36499,228.050217,167.27446,55.877682,-0.899414,0.756592,-0.164063,249.992355,-190.872177,-224.990829
0.337402,1.906494,0.165527,249.855026,55.320736,249.992355,-0.788818,0.692383,-0.228516,249.992355,-197.120651,-210.777267
0.27417,1.958008,0.105225,249.908432,38.520813,249.992355,-0.705078,0.683105,-0.338135,249.992355,-197.051987,-190.849289
0.303955,2.000732,0.091064,249.992355,16.014099,249.992355,-0.672119,0.706787,-0.447266,249.977097,-192.146286,-166.038498
0.335938,2.015381,0.141602,245.170578,-8.018494,249.992355,-0.719482,0.759521,-0.575195,249.778732,-183.074936,-138.885498
0.342285,1.973877,0.206055,222.732529,-30.357359,249.992355,-0.892578,2.530518,0.250732,-249.992355,-173.57634,249.992355
0.30542,1.92041,0.262207,204.910263,-47.935482,249.992355,-1.016602,2.499756,0.442871,-249.992355,-129.547119,249.992355
0.30957,1.865723,0.258057,196.479782,-62.812801,249.992355,-1.103516,2.420654,0.619385,-249.992355,-56.800838,249.992355
0.329834,1.770996,0.193115,191.490158,-74.226379,249.992355,-1.081543,2.306396,0.639404,-249.992355,29.014585,249.992355
0.322998,1.651855,0.148926,189.842209,-75.759888,249.992355,-0.892822,1.705811,0.070801,-249.992355,249.992355,249.992355
0.361816,1.538086,0.150391,196.998581,-65.200806,249.992355,-0.99292,2.001221,0.443359,-249.992355,176.612839,249.992355
0.462158,1.487549,0.135254,209.465012,-42.282101,249.992355,-0.947266,1.846924,0.35376,-249.992355,229.309067,249.992355
0.330566,1.855713,0.208252,249.992355,60.745235,249.992355,-0.906494,1.749512,0.206299,-249.992355,249.992355,249.992355
0.457031,1.393799,0.152344,228.546127,33.02002,249.992355,-1.021729,2.162842,0.55127,-249.992355,109.02404,249.992355
0.476563,1.350098,0.142578,238.311752,72.257996,249.992355,-0.759277,2.506348,0.137695,-249.992355,-196.296677,249.992355
0.499268,1.335938,0.09375,246.261581,112.442009,249.992355,-0.820801,1.807373,0.391602,-249.992355,-184.829697,249.992355
0.52124,1.330322,0.0354,249.18364,153.541565,249.732956,-0.779297,2.422607,0.374268,-249.992355,-195.518478,249.992355
0.531738,1.299561,-0.014893,249.877914,190.597519,249.893173,-0.812256,2.254883,0.438232,-249.992355,-183.677658,249.992355
0.498047,1.221436,-0.075439,249.992355,216.29332,249.992355,-0.787109,1.851563,0.424561,-249.992355,-174.758896,249.992355
0.423096,1.142334,-0.13208,249.908432,226.509079,240.760788,0.986816,-0.059082,1.23999,-249.992355,-139.579773,249.992355
0.614258,1.293457,-0.385254,213.195786,157.12738,21.240232,-0.875732,2.291992,0.454346,-249.992355,-210.11351,249.992355
0.406006,1.066406,-0.127197,244.926437,221.45079,197.906479,-0.595947,2.553711,0.450684,-249.992355,-238.037094,249.984726
0.40625,1.054688,-0.161621,242.088303,205.169662,144.996643,-0.026611,2.11377,0.494873,-249.992355,-249.992355,249.992355
0.388672,1.111572,-0.280029,237.617477,184.379562,95.077507,0.288086,1.391113,0.746094,-249.992355,-249.992355,249.992355
0.483887,1.449219,0.128906,219.863876,-7.476806,249.992355,0.480469,0.82251,0.877686,-249.740585,-230.453476,249.465927
0.47583,1.668457,0.349854,-249.992355,-111.839287,-249.992355,0.676758,0.346191,1.064941,-249.30571,-189.07164,249.992355
0.437744,1.697266,0.42041,-249.992355,-142.318726,-249.992355,-0.862793,1.644531,0.14209,-249.992355,249.511703,240.959152
0.378906,1.591064,0.397217,-249.992355,-157.531738,-249.465927,-0.711182,2.444092,0.234619,-249.992355,-202.331528,249.992355
0.357178,1.37793,0.370361,-243.011459,-156.288147,-234.703049,-0.685059,1.569092,0.216797,-249.992355,249.992355,190.162643
0.237549,1.157471,0.417725,-249.992355,-76.461792,-118.331902,-1.636963,7.67041,-3.912109,-156.288147,247.474655,68.664551
0.310547,1.175781,0.474854,-228.050217,-126.068108,-173.927292,-0.253662,1.34668,0.229248,-249.992355,249.984726,106.605522
0.217041,1.174072,0.44751,-242.813095,-103.309624,-151.313782,1.405762,-0.35376,1.301025,-243.720993,-87.493889,230.415329
0.177734,1.161621,0.437744,-249.992355,-84.617607,-132.804871,-1.105469,1.784912,-0.158936,249.992355,-211.769089,12.168883
0.534668,1.64917,0.212891,-249.992355,-76.61438,-249.992355,-1.141602,2.162842,-0.266846,249.992355,-203.369125,18.981934
0.36377,1.227783,0.416504,-227.432236,-145.080566,-204.132065,-1.101318,2.446289,-0.407715,249.992355,-182.311996,19.523621
0.599609,1.802734,0.158203,-249.992355,-36.621094,-249.992355,-1.072266,2.776855,-0.464355,249.992355,-152.97699,8.590698
-0.113037,2.210938,0.388672,-249.992355,107.170097,-249.992355,-1.114502,3.446533,-0.408203,249.80925,-128.883362,-22.697447
0.717529,1.64624,0.343994,-249.992355,113.273613,-249.992355,-0.943848,4.033936,-0.322754,249.160751,-111.572258,-44.609066
0.469971,1.761719,0.264893,-249.992355,118.400566,-249.710068,-0.655029,3.870361,-0.126221,249.992355,-84.785454,-38.421631
0.29541,2.020264,0.296631,-249.992355,121.780388,-248.901352,-0.086426,3.596436,0.095703,246.696457,-33.01239,-41.778561
0.237061,2.457031,0.275879,-249.992355,126.930229,-249.992355,0.338135,3.126465,0.057861,194.786057,103.85894,-18.363953
-0.408936,2.121582,0.24292,-249.992355,88.378899,-249.992355,-0.433838,1.476563,0.254639,-249.992355,249.992355,141.281128
-0.500488,1.715088,0.22168,-249.984726,61.851498,-249.992355,0.69043,2.152344,0.084473,227.134689,236.717209,48.156734
-0.443848,1.175781,0.222656,-249.992355,28.144835,-249.992355,-0.227783,4.586914,-0.424316,181.556686,249.992355,-11.795043
-0.472656,0.683594,0.301025,-249.80925,-9.70459,-249.992355,-1.311523,7.654541,-6.962891,-249.992355,178.115829,19.645691
-0.549561,0.292236,0.435303,-248.817429,-39.611816,-249.80162,-2.153564,4.209961,-3.938721,-249.992355,113.258354,-3.616333
0.285645,1.157715,0.293701,-249.832138,-76.36261,-103.500359,-1.214355,3.202881,-1.536621,-249.992355,61.775204,9.925842
0.601807,2.290527,0.253906,-249.992355,18.569946,-249.992355,-0.693115,2.949219,-0.440918,-249.992355,55.335995,26.374815
0.299316,1.138916,0.254395,-249.992355,-83.015434,-81.93206,-0.556885,2.610107,-0.439697,-249.992355,49.301144,31.539915
2.801514,7.999756,-6.064941,-223.953232,-118.286125,-170.852646,-0.54126,1.915039,-0.446289,-249.992355,66.15448,31.074522
0.279785,1.205078,0.591553,-249.992355,-85.456841,-31.372068,-0.484131,1.349365,-0.200684,-249.992355,111.022942,35.331726
0.999023,1.262939,0.330322,249.992355,222.267136,130.386353,-0.288086,1.169678,0.114746,-249.992355,179.87822,46.722408
1.103516,1.572754,0.481689,249.992355,249.076828,139.663696,-0.179443,1.224609,0.198242,-249.992355,240.150436,72.052002
1.147705,1.936035,0.565186,249.992355,249.992355,134.20105,1.049072,2.37207,0.310791,249.992355,248.79454,11.657714
1.289795,2.476807,0.682129,249.992355,249.977097,123.924248,1.966309,-0.501953,1.392334,-186.149582,-36.720276,163.551315
1.30835,3.364502,0.870117,249.992355,249.55748,118.362419,-0.563232,0.943115,-0.464111,249.992355,-248.832687,-25.886534
1.106445,4.165527,1.087646,249.916061,249.992355,133.872986,2.740234,-0.55957,1.750732,-121.604912,34.40094,88.760368
0.920166,3.957275,1.081787,249.992355,249.992355,179.923996,-0.821533,1.199951,-0.125,249.992355,-112.876884,-249.992355
0.5271,3.848145,0.89624,249.992355,224.662766,231.91069,-0.707031,1.134033,-0.176758,249.992355,-110.198967,-247.085556
-0.114258,4.094482,0.44751,246.803268,154.685974,222.732529,-0.588135,1.133789,-0.232666,242.027267,-94.039909,-228.713974
-0.316406,3.300781,-0.206543,247.711166,-1.693725,95.390312,-0.552002,1.130371,-0.296143,226.470932,-72.349548,-208.60289
0.313721,1.130859,0.418701,-249.992355,-90.995781,-55.404659,-0.57251,1.113525,-0.412598,216.873154,-54.847713,-189.430222
-1.101318,3.574707,-0.396973,249.992355,-99.487297,135.177612,-0.57373,1.08667,-0.612793,213.287338,-50.300594,-168.357834
-0.506836,-0.049561,0.598389,-249.992355,-56.465145,-249.343857,-0.535156,0.98877,-0.831543,216.049179,-63.644405,-145.16449
2.042725,6.718994,-5.856689,-249.992355,-175.865158,-139.73999,-0.604736,0.808838,-0.931152,235.374435,-98.930351,-116.333
2.489746,4.364014,-2.096924,-249.992355,1.350403,-35.087585,-0.689209,0.697021,-0.802734,249.847397,-158.340454,-80.993645
1.666504,3.341553,-0.284424,-249.992355,134.735107,33.828735,-0.654053,0.755615,-0.615234,249.992355,-222.358688,-47.729488
1.041016,2.915039,0.584717,-249.992355,179.252609,66.947937,-0.869629,1.310791,-0.064209,249.80925,-100.471489,-249.870285
0.675049,2.669678,0.710449,-249.992355,167.251572,83.94622,-0.495117,1.190186,-0.370117,249.992355,-249.992355,-14.579772
0.497559,2.373047,0.666748,-249.992355,113.342278,79.658508,-0.705566,1.747314,-0.50708,249.992355,-217.811569,17.921448
0.432373,2.010742,0.677979,-249.992355,42.991634,44.754025,-0.855469,1.942871,-0.579102,249.992355,-168.937668,36.026001
0.354736,1.647705,0.643066,-249.992355,-17.707825,7.598876,-1.096924,2.251709,-0.647705,249.992355,-132.591248,38.337708
0.254883,1.385254,0.668213,-249.992355,-60.035702,-14.35089,-1.227783,2.819336,-0.610352,249.847397,-115.58532,14.915465
1.576904,6.863281,-1.387695,144.470215,-140.830994,122.917168,-1.061035,3.395752,-0.397705,249.908432,-101.242058,0.419617
-0.513672,-0.391357,0.787598,-248.16893,-68.443298,-249.992355,-0.557617,3.864014,-0.351318,249.992355,-85.792534,-9.819031
0.684326,2.166504,0.304932,-249.992355,81.855766,-249.984726,0.339355,3.741943,-0.406494,244.811996,-59.745785,-43.853756
-1.942383,-0.926514,1.026123,-122.63488,-117.782585,-170.455917,0.551514,2.44165,-0.380859,233.92485,26.611326,-51.071163
0.220215,1.525391,0.371826,191.398605,13.122558,203.55986,0.744629,1.316162,-0.191895,249.992355,141.899109,-90.774529
0.174316,1.547363,0.307373,172.828659,15.060424,177.47496,2.479736,-0.498779,1.556396,-149.131775,9.895325,110.809319
0.149658,1.521484,0.251709,162.422165,16.769409,153.053284,-0.561279,1.473877,-0.423096,249.992355,-249.992355,-1.029968
0.144775,1.439697,0.144775,154.953003,23.010252,133.087158,-0.861328,1.405518,0.001221,249.992355,-77.209473,-249.900803
0.189941,1.334473,-0.022949,148.773193,37.92572,114.883415,1.279053,3.124756,0.42749,249.992355,184.295639,-127.632133
0.287598,1.230957,-0.217285,148.384094,63.224789,96.588127,-1.100586,1.523926,0.080078,249.992355,-3.608703,-249.992355
0.397217,1.133789,-0.412109,157.096863,98.358147,79.978943,-0.917725,1.456299,0.07251,249.992355,-44.647213,-249.992355
0.471191,1.043701,-0.572754,178.977951,142.112732,66.27655,2.967041,-1.650879,2.437256,50.971981,-38.734436,-64.476013
0.544434,0.965332,-0.62793,220.542892,193.969711,55.419918,2.759766,-1.947754,2.566895,220.474228,-48.240658,-208.709702
0.680176,0.97876,-0.578613,248.878464,241.157516,46.844479,2.268799,-1.230225,2.302734,249.992355,20.072937,-249.992355
0.301514,1.48877,0.407959,216.346725,10.620116,229.324326,1.836914,-0.422363,1.849365,249.992355,120.971672,-249.633774
0.80835,1.10498,-0.439697,249.992355,249.992355,38.124084,1.62915,-0.059814,1.218262,249.992355,184.79155,-247.627243
0.584717,1.572021,-0.255371,249.992355,249.992355,36.888123,1.838135,0.239502,1.009277,249.992355,187.698349,-249.992355
0.458984,1.821045,-0.148926,249.992355,249.992355,36.262512,2.019531,0.692871,1.338379,249.992355,134.20105,-249.992355
0.648438,2.439697,-0.037842,249.992355,228.721603,33.576965,1.106934,1.184326,1.098877,249.992355,90.797417,-249.992355
0.833984,3.671143,-0.019531,249.992355,203.788742,38.581848,-0.262939,1.640869,0.30127,249.992355,78.300476,-249.992355
0.619141,4.546143,-0.217041,249.992355,195.846542,44.265743,-1.021484,1.89624,-0.097656,249.992355,78.948975,-249.992355
