ax,ay,az,gx,gy,gz,ax,ay,az,gx,gy,gz
0.121826,1.038574,0.583008,-237.197861,-129.142761,-91.903679,-0.431885,1.533447,0.307129,-249.992355,5.981445,249.694809
0.110107,1.29248,0.641602,-249.992355,-249.755844,-60.470577,-0.471191,1.498291,0.433594,-249.992355,4.402161,239.158615
0.063721,1.279785,0.532227,-249.992355,-212.936386,-72.395325,-0.45752,1.49707,0.517822,-249.992355,5.0354,218.635544
0.10791,1.277832,0.559082,-249.710068,-245.506271,-66.757202,-0.394531,1.490723,0.546875,-249.992355,2.845764,201.522812
0.143066,1.258057,0.616455,-249.992355,-249.992355,-62.744137,-0.548584,1.318848,0.54834,-249.992355,-49.636837,141.235352
0.110107,1.254883,0.413086,-249.992355,-38.696289,-103.134148,-0.386963,1.309814,0.533691,-249.992355,-26.535032,169.204697
0.073975,1.151611,0.567139,-249.992355,-170.074448,-79.421997,-0.397217,1.251709,0.543701,-249.992355,-45.516964,154.960632
0.061035,1.36499,0.313477,-249.992355,-40.481564,-111.099236,-0.457031,1.265137,0.550781,-249.992355,-54.145809,145.744324
-0.171143,0.839111,-0.071533,-249.42778,13.885497,-184.28038,-0.380615,1.410645,0.536377,-249.992355,-7.690429,186.126694
-0.060303,1.886719,0.164795,-249.992355,-60.646053,-147.148132,-0.502197,1.584473,0.253662,-249.992355,11.245727,249.992355
-0.070557,2.167969,0.120605,-249.992355,-75.332642,-153.945923,0.166504,0.127441,0.283691,-249.656662,1.861572,249.778732
-0.001953,2.328613,0.141602,-249.992355,-92.689507,-167.724594,-0.582764,1.782959,0.353516,-249.992355,12.573241,249.992355
-0.054443,2.316895,0.192627,-249.992355,-107.63549,-196.273788,-0.62793,1.858643,0.398926,-249.992355,11.291503,249.992355
-0.139648,2.240967,0.211182,-249.992355,-116.317741,-230.65947,-0.530273,1.89209,0.424316,-249.992355,13.114928,249.992355
-0.192627,2.217773,0.072998,-249.992355,-107.063286,-249.618515,-0.321045,1.963623,0.418701,-249.992355,18.623352,249.992355
0.000244,2.002441,-0.053467,-249.992355,-82.427971,-247.978195,-0.305908,2.087891,0.306641,-249.992355,30.2124,249.992355
0.19165,1.577881,-0.094727,-249.992355,-52.74963,-241.905197,-0.291016,2.106445,0.26416,-249.992355,37.605286,249.992355
0.251465,1.292236,-0.229004,-249.992355,-20.76721,-249.992355,-0.128418,1.95166,0.204102,-249.992355,28.861998,249.992355
-0.041748,1.168945,-0.310791,-249.839767,7.904052,-217.315659,-0.013672,1.514404,-0.096924,-249.992355,2.738952,249.992355
0.036865,1.366211,0.662598,-249.992355,-249.847397,-56.579586,-0.00415,0.912109,0.01709,-249.992355,-14.015197,249.992355
-0.003174,1.580322,0.232178,-249.992355,-49.629208,-129.890442,-0.012695,0.431396,0.146729,-249.870285,-12.046813,249.992355
-0.000244,1.427246,0.727051,-249.992355,-249.992355,-46.401974,-0.697998,1.400635,0.508789,-249.992355,-32.569885,139.503479
1.24585,1.120117,-0.133301,249.992355,-24.192808,-60.661312,-0.564697,1.676025,0.289551,-249.992355,14.343261,249.992355
0.145508,1.818604,0.89502,-249.992355,-228.26384,-18.280029,-0.76709,1.479248,0.412842,-249.992355,-15.243529,132.659912
1.438477,1.32373,-0.209229,249.992355,30.22003,-61.729427,-2.706543,2.775146,-0.43042,237.068161,-226.814255,-227.973923
1.480469,1.52124,-0.185303,249.992355,121.856682,-52.223202,-0.736084,1.615479,0.045898,-249.992355,-3.639221,102.004997
1.577637,1.799072,-0.122559,249.992355,223.731979,-46.57745,0.422607,-0.118164,0.318115,-249.992355,23.002623,249.992355
1.784424,2.168213,-0.098633,249.992355,249.992355,-38.726807,-0.707275,1.028076,-0.305908,249.992355,-249.992355,-69.847107
1.590576,2.481689,-0.094971,249.992355,249.992355,-33.638,-0.711426,1.29126,-0.116699,249.992355,-249.992355,-74.172974
1.416016,2.908691,-0.155518,249.992355,247.810349,-31.959532,-0.820313,1.630371,-0.011475,249.992355,-249.488815,-81.611626
1.220459,3.502197,-0.213379,249.992355,249.992355,-6.126403,-0.94458,2.103027,0.123291,249.992355,-249.992355,-92.224113
0.329346,4.026855,-0.436768,249.923691,249.992355,14.457702,-1.107422,2.807861,0.158203,249.977097,-249.992355,-104.026787
-0.407715,4.389893,-0.558594,249.992355,156.37207,-36.16333,-1.163818,3.641602,0.048584,249.992355,-229.438766,-106.246941
-0.377686,4.30249,-0.461182,249.992355,-0.343323,-115.440361,-0.95459,4.000732,0.139404,249.992355,-183.15123,-121.6278
0.059814,1.542236,0.838135,-249.992355,-247.344955,-33.477783,-0.531738,3.978027,0.344482,248.718246,-138.305664,-151.649475
-0.681641,3.823242,-0.39209,247.108444,-138.877869,-129.684448,0.02832,4.229004,0.383301,249.992355,-76.919556,-170.066818
-1.283203,3.014893,-0.695068,249.992355,-249.992355,-195.289597,-0.731445,1.529785,0.248779,-249.992355,-4.692078,118.446342
-1.940918,4.764648,-0.860352,154.098511,-249.992355,-249.992355,0.445313,4.617432,0.093994,249.992355,-6.828308,-149.513245
-1.844238,7.047852,-1.896729,-205.398544,-249.992355,-236.503586,-0.65332,2.587646,-0.441406,184.921249,-53.115841,-142.311096
0.475098,5.764648,-2.529541,-249.992355,-249.992355,-65.940857,-3.66748,5.913086,-1.36499,45.967098,-249.992355,-165.931686
1.122559,4.601318,-2.103516,-249.992355,-249.954208,10.95581,2.35376,7.999756,-6.577148,-233.215317,-249.992355,-225.479111
0.860352,3.805664,-0.881592,-249.992355,-249.603256,45.509335,-0.310547,5.543701,-6.06665,-249.992355,-155.265808,-31.692503
0.53418,3.09082,-0.070801,-249.992355,-249.992355,57.28149,-0.86084,3.325195,-2.113037,-249.992355,-82.031242,18.707275
0.594482,2.695068,0.002686,-249.992355,-249.992355,39.56604,-1.024414,2.942871,-0.750488,-249.992355,-69.633484,23.124693
0.535645,2.43042,0.446533,-249.992355,-226.280197,11.154174,-0.965576,2.599365,-0.242432,-249.992355,-58.120724,43.937679
0.258301,2.159668,0.88208,-249.992355,-215.003952,-2.922058,-0.888672,2.275146,0.018555,-249.992355,-40.336605,60.836788
-1.266846,3.255615,-0.521484,247.993454,-239.639267,-129.592896,-0.82959,1.983154,0.010254,-249.992355,-24.154661,74.798584
-0.367676,0.497803,0.239258,-249.992355,1.075745,-169.311508,-0.749756,1.758545,-0.031982,-249.992355,-12.7182,87.303154
-1.034424,6.062744,-1.99585,-168.266281,-249.710068,-162.437424,0.259766,4.010498,-0.236816,188.529953,38.818359,-117.08831
-1.039551,-0.004395,0.759277,-200.813278,-71.70105,-96.321098,0.70166,-0.274658,0.409424,-246.643051,57.739254,249.992355
0.382813,1.20459,0.260742,226.692184,3.234863,213.684067,-0.722412,0.834473,-0.380127,249.992355,-249.992355,-71.266174
0.46582,1.185791,0.271973,221.420273,-12.428283,192.909225,1.398193,-0.513916,0.905029,-185.020432,151.229858,214.889511
0.51001,1.18042,0.232422,217.407211,-17.814636,169.929489,-0.696289,1.261963,-0.191406,249.992355,-114.334099,-194.969162
0.500244,1.163086,0.141846,217.895493,-11.589049,149.261475,-0.657715,0.982422,-0.167725,249.992355,-130.172729,-189.910873
0.489746,1.09375,0.071533,223.190292,0.747681,128.448486,-0.646484,0.745117,-0.154297,249.992355,-145.988464,-185.905441
0.51416,1.013672,0.01416,232.841476,18.218994,106.666557,-0.593994,0.589844,-0.102295,249.992355,-165.122971,-173.805222
0.543701,0.97168,-0.063477,243.858322,41.511532,86.196892,-0.508545,0.557617,-0.138428,249.992355,-187.68309,-153.327942
0.563721,0.976807,-0.150635,249.717697,70.487976,64.941406,-0.433105,0.624756,-0.240234,249.992355,-210.166916,-134.063721
0.587402,0.963379,-0.182617,249.992355,101.814262,42.938229,-0.366455,0.729492,-0.326172,249.992355,-232.513412,-121.620171
0.635254,0.925293,-0.211914,249.992355,156.852722,11.688231,-0.299316,0.825928,-0.311279,249.992355,-248.451218,-114.578239
0.343018,1.283691,0.206055,226.806625,21.507261,232.406601,-0.23877,0.914307,-0.244629,249.992355,-249.992355,-113.334648
0.684326,0.926514,-0.226074,249.992355,181.365952,7.446289,-0.238281,0.979004,-0.278564,249.992355,-249.992355,-114.883415
0.824463,1.422852,-0.160645,249.992355,234.603867,8.712769,-0.711914,1.486328,-0.204102,249.992355,-99.258415,-206.146225
0.831055,1.924072,-0.209473,249.969467,249.877914,11.650084,-0.331299,1.048584,-0.316162,249.992355,-249.992355,-117.942802
0.651123,2.439209,-0.345703,249.992355,249.992355,11.146544,-0.371826,1.439697,-0.300537,249.992355,-249.992355,-132.461548
0.311035,2.920898,-0.501709,249.992355,232.818588,-0.244141,-0.446533,1.76416,-0.289307,249.992355,-249.992355,-150.550842
0.002441,3.081299,-0.568604,248.809799,172.538742,-30.433653,-0.527832,2.144043,-0.133057,249.992355,-249.992355,-175.491318
-0.270996,3.126221,-0.663574,249.992355,76.583862,-59.669491,-0.559082,2.608887,-0.050781,249.969467,-249.977097,-198.379501
-0.739258,3.286621,-0.9375,249.992355,-110.244743,-84.945671,-0.555176,3.093018,-0.039063,249.992355,-249.992355,-208.930954
-1.585205,3.324219,-1.336182,200.317368,-244.247421,-110.931389,-0.533691,3.337402,0.003662,249.992355,-249.992355,-213.188156
-2.164795,4.33374,-1.687988,53.12347,-249.992355,-146.942139,-0.409668,3.325439,-0.006592,248.756393,-248.886093,-214.187607
-0.75415,0.220703,0.541016,-246.635422,-31.135557,-134.437561,-0.211914,3.404785,-0.15332,249.641403,-249.992355,-184.562668
0.751953,1.028809,-0.186279,249.992355,205.146774,7.606506,-0.054199,3.873779,-0.395264,249.992355,-249.992355,-112.899773
0.336426,1.392578,0.134033,217.346176,36.697388,249.839767,0.258545,4.538086,-0.839111,206.527695,-203.865036,-37.002563
0.608398,0.939453,-0.185303,249.992355,130.737305,23.780821,-0.381592,1.195313,-0.312256,249.992355,-249.992355,-122.367851
0.333252,1.421631,0.095703,175.7202,48.72131,249.732956,-0.661133,1.545654,-0.087891,249.992355,-85.830681,-222.740158
0.326172,1.442139,0.09668,197.532639,45.768734,249.992355,1.017578,-0.352295,0.650879,-216.781601,106.819145,239.738449
-0.867188,-0.549561,0.946045,-86.479179,-106.422417,-31.784056,-0.701172,1.503906,-0.05957,249.992355,-65.200806,-249.992355
-0.869629,-1.071777,0.950195,5.432128,-87.776176,-14.572143,1.55542,-0.869873,1.177246,-125.183098,179.61882,160.652145
-1.086914,-1.21875,0.83374,102.699272,-83.137505,5.218505,1.458008,-1.248535,1.397949,-28.45764,203.30809,67.581177
-1.176025,-0.823486,0.778076,148.872375,-85.830681,38.246155,1.431885,-1.348877,1.219482,47.096249,235.687241,-12.123107
-1.174316,-0.331055,0.758789,136.672974,-69.076538,74.012756,1.468506,-1.23999,0.960693,94.978325,249.992355,-43.891903
-0.987305,0.044678,0.728271,117.050163,-46.432491,116.256706,1.477295,-0.991943,0.937256,176.841721,249.68718,-76.210022
-0.595703,0.250977,0.654297,122.398369,-32.546997,154.47998,1.519531,-0.636963,0.972168,237.670883,249.748215,-131.149292
-0.391602,0.323975,0.565674,139.312744,-23.971556,188.056931,-0.660645,1.513916,-0.037354,249.992355,-73.684692,-243.858322
-0.356934,0.425537,0.422607,144.485474,-19.126892,220.039352,0.754883,0.06543,0.542969,195.411667,239.73082,-184.951767
-0.422852,0.568604,0.335938,136.749268,-11.146544,244.827255,0.536377,0.309814,0.398438,183.799728,190.544113,-228.38591
-1.048096,-0.199219,0.871826,-149.635315,-101.989738,-62.797543,0.234375,0.55835,0.170166,165.138229,151.016235,-249.229416
-0.384766,0.886963,0.244629,131.118774,15.281676,249.992355,-0.056641,0.756836,-0.010498,160.797104,126.090996,-249.992355
-0.455078,0.711426,0.311523,130.195618,2.63977,249.992355,1.11792,-0.26001,0.804199,215.042099,249.992355,-157.997131
0.279297,1.514893,0.169922,151.626587,40.328976,249.992355,-0.577148,0.97998,-0.009033,181.541428,97.55706,-249.992355
0.199463,1.623291,0.230225,149.032593,36.78894,249.992355,-0.369385,0.887695,-0.048096,168.53331,110.382072,-249.992355
0.149658,1.671143,0.241211,145.805359,38.520813,249.992355,-0.720215,1.552734,-0.055908,249.992355,-56.037899,-249.824509
0.127441,1.623047,0.2146,144.088745,42.572018,249.992355,-0.734619,1.515869,-0.080566,249.992355,-43.914791,-249.992355
0.32959,1.423584,0.112793,159.164429,46.379086,249.961838,-0.725098,1.471436,-0.083496,246.078476,-27.70233,-249.992355
0.05957,1.394043,0.201416,138.969421,39.245605,249.992355,-0.729004,1.472412,-0.072021,222.610458,-9.933472,-249.992355
-0.080322,1.254395,0.207275,138.900757,32.00531,249.992355,-0.704346,1.530273,-0.055664,249.992355,-61.401363,-249.977097
-0.245605,1.084717,0.202148,135.925293,24.345396,249.992355,-0.712402,1.39502,0.139404,189.216599,31.974791,-249.992355
0.121582,1.504639,0.203857,141.296387,43.67065,249.992355,-0.676514,1.283203,0.238037,185.523972,52.398678,-249.992355
-0.064941,2.029297,-0.041992,-249.992355,-98.808281,13.816833,-0.639893,1.184814,0.177002,187.828049,68.16864,-249.992355
2.859375,4.572754,-5.053223,-84.373466,-188.453659,7.835388,-0.619873,1.087891,0.051758,189.346298,81.93969,-249.992355
2.029785,4.363037,-4.049805,-119.316093,-12.344359,89.393608,-0.726563,1.468262,-0.006104,200.065598,9.963989,-249.992355
1.572998,3.899414,-2.621582,-189.735397,85.220329,131.599426,-0.399902,6.881592,-3.91748,-214.668259,118.553154,16.067505
1.078857,3.394531,-1.522217,-244.873032,138.61084,140.266418,-0.65332,5.428467,-5.318604,-249.992355,122.856133,37.452698
0.393066,3.022705,-0.692871,-249.992355,144.035339,149.978638,-0.921143,4.019531,-4.688721,-249.992355,57.182308,28.228758
-0.12085,2.700439,-0.161133,-249.992355,104.86602,147.354126,-0.790039,3.643066,-2.920166,-249.992355,39.611816,41.038509
2.862793,5.089111,-4.74292,-74.890137,-249.992355,-61.210629,-0.985352,3.482178,-1.458984,-249.992355,22.468565,46.95129
-0.41333,2.473145,-0.05957,-249.992355,42.503353,113.243095,-1.060547,3.122803,-0.967773,-249.992355,-23.765562,44.776913
-0.300781,2.364746,-0.199707,-249.992355,-31.021116,58.830257,-1.058838,2.670654,-0.562744,-249.992355,-66.085815,42.083736
0.020508,1.622803,0.193848,-249.992355,-150.146484,-18.241882,-0.869385,2.270752,-0.185303,-249.992355,-81.42852,36.582947
0.075439,1.191406,0.287109,-249.992355,-175.07933,-52.726742,-0.663574,1.923096,-0.102783,-249.992355,-70.663452,30.395506
-0.032715,1.317383,0.265625,-249.992355,-205.207809,-54.115292,-0.600342,1.635254,0.008789,-249.992355,-46.554562,31.791685
-0.037109,1.317871,0.2854,-249.992355,-205.58165,-55.458065,-0.822754,1.691895,0.529297,-249.992355,-41.877743,155.021667
0.012939,1.276367,0.299805,-249.992355,-191.734299,-54.306026,-0.638428,1.408447,0.202148,-249.992355,-20.050049,50.506588
0.059326,1.112061,0.272461,-249.824509,-157.058716,-55.793758,-0.673096,1.321533,0.28125,-249.992355,-26.840208,58.280941
-0.003418,1.05835,0.247559,-249.992355,-140.518188,-59.104916,-0.69751,1.234863,0.395508,-249.992355,-38.17749,59.112545
-0.024658,1.062744,0.233643,-249.992355,-130.813599,-61.836239,-0.677002,1.200684,0.450684,-249.992355,-53.565975,52.803036
-0.008545,1.167969,0.238525,-240.852341,-129.28772,-64.941406,-0.656006,1.215332,0.436279,-249.992355,-70.281982,49.194332
0.048828,1.269043,0.265869,-225.547775,-134.887695,-66.848755,-0.617188,1.274414,0.393799,-249.992355,-81.291191,60.478207
0.133301,1.343506,0.299316,-219.207748,-142.089844,-74.005127,-0.591797,1.324707,0.36377,-249.992355,-83.847038,80.070496
0.901855,5.326172,-3.39502,35.240173,-249.992355,-85.258476,-0.661865,1.331787,0.395752,-249.992355,-80.589287,97.663872
0.023926,1.388916,0.265137,-249.992355,-185.966476,-42.930599,-0.748047,1.391602,0.416016,-249.992355,-73.738098,116.271965
-0.365479,5.287598,-2.182129,210.571274,-248.321518,-99.517815,-0.794678,1.52417,0.490967,-249.992355,-61.172482,133.857727
0.163818,1.418457,0.338135,-233.062729,-147.392273,-91.194145,0.098877,4.935059,-1.60083,67.03949,144.729614,-11.184691
-0.229736,4.587891,-1.465088,249.267563,-6.477355,-61.088558,-0.627686,1.482178,0.181396,-249.992355,-24.971006,40.107727
0.278809,1.553223,-0.091553,249.992355,148.834229,249.992355,0.820801,4.018066,-1.230225,249.992355,64.224243,1.670837
0.347412,1.525879,-0.083496,249.992355,143.371582,249.992355,-0.815186,0.951904,-0.083496,249.992355,-243.911728,-99.678032
0.470947,1.489258,-0.055664,249.992355,144.081116,247.001633,0.271973,4.682129,-0.678467,247.001633,-216.728195,-39.413452
0.519775,1.439941,-0.030029,249.992355,150.901794,236.854538,-0.827637,1.86792,0.543701,-249.992355,-16.113281,182.701096
0.533447,1.449463,-0.016357,249.992355,153.98407,225.051865,-0.984131,1.79248,0.174805,249.992355,21.263121,-249.992355
0.525146,1.436523,-0.062744,249.992355,142.044067,206.619247,-1.069336,1.755127,0.010742,249.992355,-12.428283,-249.954208
0.483154,1.378906,-0.156738,249.992355,113.227837,183.814987,-1.10376,1.578369,-0.070068,249.992355,-45.845028,-249.900803
0.506104,1.248535,-0.185303,249.992355,69.625854,155.044556,-1.067627,1.318604,-0.044922,249.992355,-69.717407,-249.992355
0.556641,1.086426,-0.095947,249.992355,17.13562,122.535698,-0.951172,1.097656,0.041748,249.992355,-82.862846,-248.779282
0.593262,0.991455,-0.076172,249.992355,-32.356262,90.614311,-0.842529,0.968018,0.090088,249.992355,-89.584343,-237.472519
-0.51001,5.332764,-1.662354,249.992355,-226.005539,-97.084038,-0.762695,0.930908,0.05249,249.992355,-95.16143,-220.69548
0.651123,0.938232,-0.08374,249.839767,-75.6073,55.747982,-0.752441,0.935547,-0.063232,249.992355,-105.712883,-199.851974
0.800049,1.094727,-0.05542,249.992355,-137.695313,2.525329,-0.836914,0.923096,-0.18457,249.992355,-125.083916,-179.031357
0.935791,1.251953,-0.050781,244.491562,-151.916504,-8.110046,0.603027,4.412842,-1.017578,249.992355,-75.248718,-15.090941
1.064697,1.299072,-0.030518,223.876938,-129.699707,-11.528014,-0.920654,0.88208,-0.209961,249.992355,-152.145386,-159.042358
1.27002,1.272949,0.009033,210.24321,-57.647701,4.859924,-0.877197,0.873047,-0.109863,249.992355,-215.087875,-119.758598
1.59082,1.372803,-0.048096,212.318405,70.266724,35.110474,-0.764404,1.123779,-0.082764,249.992355,-249.992355,-89.950554
1.713135,1.664795,-0.129395,231.811508,212.63121,57.327267,-0.776855,1.398682,-0.087646,249.992355,-249.992355,-92.834465
1.494141,2.05542,-0.188721,249.122604,249.198898,62.744137,-0.843262,1.715576,-0.093018,249.992355,-249.992355,-95.390312
1.090576,2.461182,-0.309326,249.992355,247.322067,60.096737,-0.903564,2.055908,-0.08252,249.992355,-249.977097,-90.171806
0.665771,2.994141,-0.618408,249.992355,249.992355,43.67828,-0.947754,2.450439,-0.11377,249.992355,-249.992355,-80.642693
0.235107,3.681641,-1.080566,248.817429,232.566818,-4.455566,-0.937012,3.067627,-0.144531,249.992355,-249.992355,-66.444397
0.707764,0.947021,-0.061279,249.961838,-110.076897,23.597715,-0.769287,3.769775,-0.238525,249.946579,-249.031052,-56.976315
0.202393,1.439453,0.355469,-249.092087,-147.438049,-113.029472,-0.570557,4.147949,-0.388428,249.992355,-249.626144,-57.350155
0.288818,1.468018,0.29541,-249.992355,-136.024475,-132.797241,-0.308594,4.415527,-0.473145,249.908432,-249.992355,-54.595943
0.368408,1.580078,0.174805,-249.992355,-107.917778,-142.448425,-0.912109,0.855713,-0.14917,249.992355,-183.601364,-140.045166
0.175781,1.449707,0.043213,147.407532,-35.27832,249.992355,-0.960205,1.79834,0.23877,249.992355,50.193783,-249.992355
0.200195,1.568115,0.073975,134.025574,-26.123045,249.992355,-0.855713,1.922363,0.498291,-249.992355,10.169982,204.902634
0.225342,1.653564,0.145508,120.62072,-18.356323,249.992355,-0.901611,2.05542,0.155762,-249.992355,40.153503,248.03923
0.276855,1.654053,0.185059,110.725395,-7.286071,249.992355,-1.373047,2.143799,0.00708,220.283493,249.992355,-249.992355
0.343506,1.605225,0.145264,98.617546,12.20703,249.992355,-1.465576,2.120605,-0.022461,218.833908,247.901901,-249.992355
0.368652,1.570313,0.137451,79.650879,41.763302,249.992355,-1.498535,2.022217,-0.084473,227.470383,238.21257,-249.992355
0.361816,1.565186,0.151367,61.477657,74.21875,249.992355,-1.494141,1.905762,-0.064697,230.4077,217.765793,-249.992355
0.370361,1.573975,0.14502,54.054256,103.553764,249.992355,-1.481201,1.781006,0.012695,221.443161,182.029709,-249.992355
0.391113,1.513916,0.143799,61.660763,129.66156,249.992355,-1.358154,1.627197,0.05835,208.564743,135.124207,-249.992355
0.451904,1.299316,0.11792,100.799553,171.17308,249.992355,-1.134766,1.457275,0.085938,205.619797,86.730949,-249.992355
0.441406,1.240967,0.078125,126.319878,182.022079,249.587997,-0.964355,1.359375,0.004639,208.000168,43.586727,-249.992355
0.390625,1.186523,-0.004639,157.936096,177.688583,249.992355,-0.915039,1.301514,-0.080811,201.454147,7.110595,-249.908432
0.297119,1.119629,-0.096191,201.652512,155.769348,249.992355,-0.896729,1.093506,-0.027344,174.896225,-55.122372,-249.992355
0.267334,1.057617,-0.151367,243.118271,124.633781,228.286728,-1.251709,2.085449,-0.0271,235.183701,249.992355,-249.992355
0.348389,0.969727,-0.15918,249.992355,94.810478,194.168076,-0.888428,0.938477,0.033447,171.501144,-87.135307,-245.246872
0.478027,0.86792,-0.140137,249.992355,72.113037,150.985718,-0.798096,0.609375,-0.003418,201.103195,-135.231018,-223.892197
0.570801,0.81958,-0.127686,249.992355,51.49078,100.921623,-0.695801,0.488525,-0.094238,224.296555,-153.274536,-204.238876
0.577637,0.836182,-0.136963,249.992355,24.92523,55.572506,-0.572998,0.43335,-0.203369,242.423996,-172.103867,-182.449326
0.577637,0.900391,-0.159424,249.992355,-8.972168,17.471313,-0.47998,0.443848,-0.274902,249.725327,-188.514694,-160.659775
0.773193,0.967285,-0.162109,249.992355,-41.91589,-16.288757,-0.485352,0.496826,-0.334961,249.992355,-199.562057,-138.282776
1.063721,1.006836,-0.10376,249.992355,-53.047176,-45.379635,-0.518066,0.571289,-0.372559,249.992355,-215.263351,-118.698112
0.167236,1.354248,0.045898,152.305603,-50.155636,249.992355,-0.562256,0.645996,-0.402588,249.992355,-242.050156,-105.537407
0.035889,1.269531,0.048096,147.438049,-64.712524,249.992355,-0.627441,0.673584,-0.385742,249.992355,-249.992355,-93.345634
0.423828,1.388184,0.137695,79.658508,152.793884,249.992355,-0.687988,0.713135,-0.367188,249.992355,-249.992355,-79.26178
-0.601318,0.77832,0.089355,126.716606,-78.071594,238.365158,-0.904053,1.952881,0.305664,-249.992355,29.602049,228.088364
-0.232178,1.096191,0.062744,137.641907,-74.516296,249.992355,-0.862793,0.76709,0.045166,180.961594,-114.845268,-237.243637
0.320557,1.861572,-0.034668,-249.992355,-23.590086,-138.877869,-1.101563,1.972412,-0.053711,245.590195,249.93895,-249.992355
0.178467,1.983643,0.02124,-249.992355,2.6474,-146.133423,-0.928711,1.21875,-0.075195,187.355026,-23.376463,-249.992355
-0.047607,2.031494,0.140381,-249.992355,18.333435,-155.708313,-0.316895,1.547119,-0.089844,238.456711,249.992355,-249.992355
-0.27002,1.786133,0.182617,-249.992355,23.269651,-157.142639,-0.884766,2.104492,0.162109,-249.992355,44.731136,249.992355
-0.177734,1.689941,0.241455,-249.992355,22.53723,-179.512009,-0.802002,1.810303,-0.122314,241.48558,249.992355,-249.992355
-0.085449,1.666748,0.347412,-249.977097,14.98413,-217.529282,-0.911621,2.327148,0.331787,-249.992355,43.685909,249.992355
-0.204346,1.602783,0.382568,-249.992355,10.589599,-217.277512,-0.828857,2.844727,0.524902,-249.992355,39.649963,249.992355
-0.304199,1.433838,0.343262,-249.93895,6.492614,-210.525497,-0.560303,2.903076,0.74585,-249.992355,32.562256,249.992355
-0.341064,1.00708,0.422119,-248.649582,4.615784,-214.416489,-0.370117,2.376465,0.912109,-249.992355,19.790649,249.992355
-0.416016,0.419922,0.717285,-249.992355,-2.059937,-208.457932,-0.199951,1.688721,0.986816,-249.984726,11.039733,249.992355
0.38208,1.74292,0.033936,-249.992355,-65.1474,-141.090393,0.149414,0.497803,0.825439,-249.992355,-9.155273,249.778732
-1.175537,0.349365,0.204834,117.103569,-81.413261,190.292343,0.270508,0.085205,0.770752,-249.313339,-7.858276,249.992355
-0.89209,-0.598389,1.25708,-175.819382,-62.866207,-184.074387,0.47998,-0.213867,0.843994,-249.992355,5.393981,249.992355
-1.43042,-1.023193,1.489746,-92.987053,-134.941101,-159.118652,0.833984,-0.404053,1.059814,-249.992355,24.681089,240.364059
-1.553711,-1.110352,1.578613,-36.888123,-203.529343,-109.497063,0.025391,1.044678,0.907715,-249.992355,-0.648498,249.992355
-0.995605,-0.916504,1.291748,5.645751,-240.188583,-48.08807,1.791992,-0.600586,1.67334,-158.355713,59.860226,243.743881
-0.540771,-0.828613,1.143555,57.266232,-239.143356,-23.353575,0.233154,1.198975,0.244141,249.114975,249.992355,-249.992355
-0.744629,-0.910156,0.841553,119.73571,-216.758713,-13.450622,1.26709,-0.523438,1.350586,-220.359787,41.969296,233.886703
-1.257324,-0.876953,0.455811,148.864746,-189.659103,30.052183,1.759521,0.427246,0.996582,249.832138,249.992355,-161.315903
-1.610596,-0.613525,0.381836,128.730774,-153.320313,84.938042,1.541748,-0.12085,1.231201,249.954208,249.992355,-98.197929
-1.574463,-0.127686,0.353027,112.815849,-110.099785,132.835388,1.545898,-0.880615,1.810547,249.992355,249.992355,-105.346672
-0.507813,-0.125,0.999512,-249.992355,-18.280029,-198.944077,1.120361,0.813232,0.758057,249.992355,249.992355,-241.23381
1.286621,2.328125,0.034668,249.992355,243.720993,44.486996,1.943848,-1.550293,2.785645,169.136032,140.335083,-24.429319
1.096436,2.012207,0.058105,249.992355,169.441208,28.869627,2.601807,-1.302734,2.661377,2.510071,67.855835,115.44799
0.924805,1.697754,0.129639,249.992355,60.020443,3.738403,2.513672,-0.855957,2.12085,-90.774529,66.459656,220.359787
0.811768,1.441162,0.092285,249.992355,-28.694151,-21.682737,1.601318,-1.43457,2.265869,249.771103,238.34227,-90.705864
0.142578,0.891113,0.0354,249.992355,-131.439209,-11.32965,-0.550049,3.344482,-0.461182,249.992355,-249.992355,-25.894163
0.729736,1.061523,0.097168,245.231613,-147.04895,-50.437923,-0.509766,0.802246,-0.161133,249.992355,-76.10321,-84.388725
0.587646,0.956055,0.064209,244.361862,-168.968185,-43.136593,-0.521729,0.994141,-0.169189,249.992355,-91.606133,-73.127747
0.3479,0.895996,0.021484,247.91716,-162.422165,-27.236937,-0.600586,1.201904,-0.191895,249.992355,-111.747734,-62.309261
1.260986,2.681641,0.084717,249.992355,249.992355,47.653194,-0.657959,1.427246,-0.189941,249.992355,-140.022278,-53.176876
0.766846,1.213867,0.090576,249.450668,-97.633354,-42.030331,-0.734863,1.665527,-0.216064,249.992355,-186.561569,-48.278805
1.044189,3.078369,0.081055,249.992355,249.877914,37.528992,-0.829102,1.881104,-0.243652,249.992355,-238.250717,-47.096249
-0.991699,3.334473,-0.703125,249.992355,-186.408981,-34.492493,-0.845703,2.125,-0.230713,249.992355,-249.992355,-47.439571
0.76001,4.244629,0.215088,249.916061,249.992355,28.167723,-0.790771,2.482422,-0.273926,249.992355,-249.992355,-45.272823
0.559814,4.893799,0.119873,249.992355,249.992355,75.401306,-0.658447,2.900391,-0.328125,249.992355,-249.29808,-39.131165
0.146484,4.723389,-0.321533,249.641403,176.078781,68.862915,-0.442627,3.816162,-0.560791,249.992355,-249.992355,-13.84735
-0.476074,4.052979,-0.530273,244.773849,23.941038,14.762877,-0.618408,2.683594,-2.343262,-249.992355,105.171196,11.627196
-1.637207,4.272949,-1.55835,249.992355,-249.458298,-84.129326,-0.099121,3.90625,-0.358643,249.992355,-131.721497,0.053406
-0.949463,6.73877,-2.761475,-58.074947,-248.489365,-174.629196,0.080322,4.179688,-0.423828,249.992355,-19.706726,8.155823
1.025879,7.313721,-4.180176,-249.992355,-249.992355,-137.008667,0.268311,4.143555,-0.73877,248.573288,91.735832,17.066956
1.916504,5.159424,-3.551514,-249.992355,-236.82402,-55.480953,0.15332,3.372314,-0.803223,249.992355,119.956963,19.851685
1.514404,4.167236,-2.261963,-249.992355,-115.051262,0.221252,-0.115234,3.09375,-1.178223,249.992355,49.09515,6.088256
0.842041,3.289307,-1.367676,-249.992355,-62.019344,33.432007,-0.067871,4.650879,-2.557373,144.02771,44.425961,-31.135557
0.872314,3.508545,0.113037,249.977097,248.908981,17.311096,0.451416,6.796143,-4.549072,-174.934372,107.986443,-80.79528
0.069092,0.887939,0.05127,249.992355,-82.420341,10.871886,0.16626,5.78125,-5.973389,-249.992355,98.983757,-31.234739
-0.37915,-0.084229,0.609131,118.431084,-26.626585,31.60095,-0.760498,3.601807,-4.098633,-249.992355,119.956963,21.057127
0.189453,0.818848,0.069824,249.992355,26.908873,65.895081,-0.506104,0.645752,-0.136475,249.992355,-67.504883,-98.350517
0.31543,2.608643,-0.428223,-249.992355,-75.012207,31.639097,-0.257568,3.987793,-0.505615,249.969467,-223.892197,-5.073547
-0.396484,0.119629,0.398682,133.201599,-29.441832,41.175838,-0.48999,0.549316,-0.066162,249.992355,-61.43951,-111.732475
-0.459961,0.291504,0.312256,153.190613,-38.452148,53.88641,0.621582,-0.042725,0.719482,191.101059,60.661312,20.698545
-0.437256,0.452393,0.305908,166.671738,-54.840084,65.727234,-0.461182,0.53418,0.040039,249.992355,-47.531124,-124.588005
-0.36499,0.582764,0.334473,170.310959,-73.959351,73.738098,-0.826172,2.529297,-1.487305,-249.992355,78.735352,6.179809
-0.277344,0.695557,0.303467,165.901169,-90.324394,82.839958,0.511719,0.126953,0.374023,183.380112,106.018059,5.455017
-0.187744,0.796387,0.262695,161.071762,-98.045341,94.764702,0.295898,0.185791,0.230469,202.522263,159.355164,-13.320922
-0.066406,0.872559,0.234131,163.11644,-94.398491,106.895439,0.159424,0.244873,0.315674,237.20549,195.571884,-37.773132
0.065918,0.889893,0.227051,173.645004,-80.871574,116.4627,0.035889,0.392334,0.43457,249.839767,209.625229,-62.438961
0.155273,0.866943,0.223633,189.147934,-62.019344,124.977104,0.019775,0.599365,0.392334,249.992355,198.371872,-82.260124
0.11377,0.859375,0.053955,249.946579,-24.780272,40.084839,0.053711,0.804688,0.197754,246.566757,171.752914,-100.708
0.118652,0.885254,0.201904,202.583298,-37.811279,134.506226,-0.067139,0.940186,0.070801,231.124863,150.466919,-119.903557
0.147217,0.978271,0.206787,229.057297,23.41461,167.922958,-0.28418,0.989746,0.044922,226.966843,137.001038,-138.595581
0.178223,1.018799,0.202393,234.161362,54.13055,176.948532,-0.373047,0.974121,0.006836,235.5728,119.964592,-153.526306
0.101563,1.030762,0.206787,239.006027,82.809441,180.534348,-0.394287,0.959961,-0.023193,246.810898,102.249138,-161.880478
0.020752,1.056152,0.218262,243.087753,104.042046,178.87114,-0.391846,0.973389,-0.023926,249.992355,90.766899,-162.094101
-0.004395,1.090088,0.23999,247.062668,113.822929,171.165451,-0.359375,1.015869,-0.003906,249.916061,86.563103,-163.627609
-0.007324,1.093262,0.207275,249.961838,116.271965,159.339905,-0.36084,1.106445,0.010986,249.984726,82.328789,-166.320786
0.077637,1.044434,0.109131,249.992355,115.32592,145.507813,-0.40332,1.221191,-0.002686,249.992355,73.524475,-159.767151
0.231201,0.937012,0.096436,249.992355,106.719963,127.265923,-0.456055,1.294189,-0.022217,247.123703,60.035702,-150.360107
0.282227,0.82959,0.115479,249.992355,91.308586,105.758659,-0.500488,1.278809,-0.052002,237.853989,41.78619,-147.277832
0.253174,0.786865,0.109863,249.992355,65.818787,85.83831,-0.560547,1.17041,-0.057617,235.801682,19.561768,-144.271851
0.062988,0.932129,0.202393,216.91893,-7.438659,151.039124,-0.591797,1.035156,-0.040771,240.676865,-3.761291,-139.350891
0.090088,2.185791,-0.068604,-249.992355,-94.932549,24.612425,-0.569824,0.916748,-0.043945,247.863754,-22.178648,-136.59668
-0.466797,-0.287354,0.780029,107.177727,-27.511595,20.523069,-0.52832,0.804443,-0.022217,249.992355,-33.52356,-134.521484
0.372559,2.060059,-0.304932,-249.992355,-76.507568,3.684997,-0.500488,0.692139,0.023193,249.992355,-39.81781,-130.714417
-0.757813,-0.352783,1.448486,-249.992355,51.536556,-89.294426,-0.476318,0.602783,0.04834,249.992355,-43.067928,-127.494804
-1.228271,-0.727539,1.612305,-222.648605,1.823425,-71.800232,-0.468018,0.510254,-0.001221,249.992355,-54.618832,-120.277397
-1.337646,-1.000977,1.797852,-143.684387,-72.792053,-58.578487,-1.076416,2.480225,-1.523193,-249.992355,30.479429,3.173828
-0.855225,-1.0979,1.786865,-58.79974,-151.71814,-43.838497,-1.183105,2.224609,-1.419922,-249.992355,-15.701293,0.62561
-0.485596,-1.01416,1.553711,25.634764,-189.20134,-28.526304,-1.120361,1.840332,-0.701904,-249.992355,-36.254883,2.250671
-0.562256,-0.765625,1.330078,91.110222,-192.34465,-18.714905,0.553955,-0.203125,1.394287,-249.923691,-81.222527,220.085129
-0.720703,-0.537598,1.112793,138.198853,-205.917343,13.526916,1.087646,-0.43042,1.558105,-249.992355,-64.323425,176.803574
-0.874268,-0.259521,1.066895,156.013489,-213.432297,62.499996,1.631104,-0.559814,1.798584,-234.207138,-41.748043,165.428146
-1.070557,0.049316,1.025635,144.454956,-195.083603,103.317253,1.895508,-0.558838,2.057617,-178.901657,-11.627196,189.109787
-1.063965,0.332764,0.837158,141.952515,-162.963852,140.907288,2.123291,-0.575195,2.248779,-137.10022,16.00647,187.087997
-0.427734,0.05957,1.235107,-249.992355,69.007874,-102.874748,2.164307,-0.929688,2.455322,-73.974609,34.240723,101.066582
-0.723633,0.607178,0.533936,139.732361,-136.199951,172.996506,1.666748,-1.404297,2.718018,85.914604,84.373466,-30.632017
-0.191162,1.073242,0.234131,151.390076,-97.228996,233.978256,1.294922,-1.425781,2.552979,235.046371,175.399765,-105.842583
-0.034668,1.304688,0.145996,156.967163,-77.758789,249.404892,1.32251,-0.903076,2.079346,249.992355,240.020737,-121.459953
0.052246,1.490723,0.067383,168.045029,-52.818295,249.992355,1.121826,-0.339844,1.279785,249.992355,249.992355,-95.596306
0.123779,1.570068,-0.002197,188.392624,-25.535582,249.992355,0.192871,0.160156,1.401611,-249.55748,-88.203423,249.992355
0.220215,1.555908,-0.049561,208.885178,2.883911,249.992355,1.281738,0.024902,0.859131,249.992355,249.992355,-124.671928
0.315918,1.527344,-0.041016,231.369003,34.858704,249.992355,0.855469,0.87915,0.86792,249.992355,249.992355,-242.782578
0.376221,1.506592,-0.005615,248.085007,73.539734,249.992355,0.034912,1.244141,0.405273,249.992355,249.992355,-249.992355
0.36084,1.521484,0.01123,249.992355,112.777702,249.992355,-0.567139,1.51123,0.142822,249.992355,249.992355,-249.992355
0.308105,1.544189,-0.013672,249.992355,141.090393,249.992355,-0.760254,1.700439,0.047607,249.992355,249.992355,-249.992355
0.265381,1.568604,-0.060059,249.992355,152.107239,249.916061,-0.791504,1.766846,0.033203,249.992355,249.572739,-249.992355
-0.443115,0.832275,0.35498,141.975403,-113.418571,202.667221,-0.768066,1.788818,0.008545,249.992355,249.992355,-249.992355
-0.212646,0.605957,0.994141,-249.29808,64.559937,-111.732475,-0.849854,1.897705,-0.074463,249.992355,249.992355,-249.992355
0.203369,2.035645,-0.175293,-249.992355,-94.16198,17.730713,-1.162109,2.046143,0.006592,249.992355,230.514511,-249.992355
-0.223633,1.789307,0.666016,-249.992355,42.533871,-161.987289,-1.445068,2.13208,0.151367,249.992355,177.955612,-249.992355
0.384277,1.972168,-0.169922,-249.992355,-58.982845,-10.482787,-1.413086,2.101074,0.17334,249.992355,120.719902,-249.992355
0.38501,1.720459,0.19165,-249.992355,-51.132198,-18.432617,1.290283,0.407715,0.960938,249.992355,249.992355,-192.34465
0.317139,1.472168,0.390869,-249.992355,-50.712582,-12.390136,0.066406,0.66748,1.557129,-249.992355,-80.512993,249.992355
0.111328,1.324219,0.435059,-249.992355,-55.717464,-1.197815,-1.144775,1.93457,0.188477,249.992355,78.804016,-249.992355
-0.078125,1.317383,0.300049,-249.992355,-61.431881,2.853393,-0.077637,2.084229,1.209229,-249.992355,-23.880003,249.992355
-0.154541,1.394531,0.182617,-249.992355,-67.91687,-2.983093,-0.923828,1.54126,-0.054932,-249.992355,-35.316467,-1.533508
-0.182129,1.256348,0.788574,-249.992355,54.489132,-125.480644,-0.762939,1.446533,0.102539,-249.992355,-37.918091,-2.113342
-0.104004,1.406494,0.218994,-249.992355,-80.368034,-27.740477,-0.763672,1.492676,0.05957,-249.992355,-50.201412,4.150391
-0.125732,1.367188,0.299805,-249.992355,-94.688408,-42.503353,-0.813477,1.583252,-0.068359,-249.992355,-59.364315,23.712156
-0.100342,1.303223,0.391357,-249.992355,-116.638176,-59.791561,-0.71875,1.641846,-0.124268,-249.992355,-63.20953,45.921322
-0.035156,1.24292,0.513184,-249.992355,-140.380859,-77.201843,-0.62085,1.640381,0.089355,-249.992355,-58.319088,66.291809
-0.118896,1.441406,0.190674,-249.992355,-73.860168,-14.320373,-0.09082,1.294434,1.398438,-249.992355,-61.06567,249.404892
0.175781,1.373047,0.458008,-249.992355,-177.902206,-116.233818,-0.613525,1.728027,0.447266,-249.992355,-32.409668,97.854607
0.083496,1.248779,0.564453,-249.992355,-163.848862,-96.824638,-0.62207,1.746094,0.461914,-249.992355,-18.615723,111.92321
-0.270996,1.986328,0.22168,-249.992355,40.359493,-162.940964,-0.617676,1.733398,0.442627,-249.992355,-7.087707,126.457207
-0.125732,1.974365,0.197754,-249.992355,26.092527,-143.577576,-0.632324,1.804932,0.339844,-249.992355,1.991272,142.700195
0.078369,2.060303,0.11499,-249.992355,14.572143,-146.186829,-0.593994,1.664063,0.364258,-249.992355,-47.027584,82.695
0.156494,2.020996,0.013672,-249.992355,-3.883362,-152.313232,-0.803711,2.296143,0.134277,-249.992355,4.737854,187.026962
-0.165283,2.11377,0.517578,-249.984726,40.832516,-191.780075,-0.835205,2.601074,0.223145,-249.992355,0.267029,210.899338
0.479736,1.980225,0.088867,-249.992355,-88.48571,-156.517029,-0.822998,2.641113,0.384033,-249.992355,-4.104614,225.73851
0.436035,1.864502,0.184814,-249.992355,-129.470825,-152.290344,-0.806396,2.419434,0.567871,-249.992355,-10.337829,227.729782
0.339844,1.713623,0.301758,-249.992355,-161.643967,-146.842957,-0.840088,2.270264,0.787354,-249.992355,-8.209229,228.668198
0.264404,1.560791,0.365967,-249.992355,-178.123459,-133.621216,-0.757324,2.259277,0.847168,-249.992355,-1.487732,232.971176
0.361816,2.0,0.030273,-249.992355,-43.060299,-160.308838,-0.629883,2.243652,0.780762,-249.992355,8.033752,236.679062
-0.079102,0.996338,0.481689,236.312851,-62.080379,69.320679,-0.499023,2.767334,0.747559,-249.992355,22.003172,247.230515
0.01123,1.141357,0.53418,235.412582,-55.183407,76.187134,-0.365967,3.200195,0.691162,-249.992355,29.548643,249.984726
0.112793,1.169434,0.506836,247.047409,-49.293514,77.705383,-0.195801,2.819824,0.925293,-249.992355,13.664245,249.992355
0.121826,1.115967,0.500977,249.992355,-39.283752,85.014336,-0.731201,1.990967,0.210938,-249.992355,7.598876,163.635239
0.143311,1.073975,0.513672,249.992355,-25.886534,93.719475,-0.616699,1.449951,0.440918,230.056747,153.72467,-208.991989
0.14209,1.09375,0.503174,249.992355,-12.08496,99.586479,-0.522949,1.554443,0.421387,227.783188,166.51915,-219.581589
0.120605,1.157715,0.502686,249.992355,-1.197815,103.973381,-0.477295,1.459717,0.448486,243.621811,173.56871,-234.30632
0.112061,1.226563,0.473633,249.992355,3.929138,104.972832,-0.432861,1.296387,0.458984,249.992355,177.467331,-248.146042
0.11377,1.244629,0.434082,249.992355,3.440857,103.240959,-0.230469,1.077881,0.120361,248.702988,225.036606,-212.25737
0.123779,1.197266,0.407959,249.992355,-1.861572,97.801201,-0.414307,1.13501,0.378174,249.832138,188.217148,-249.885544
0.360596,1.101074,0.153564,171.020493,-235.130295,1.335144,-0.424561,1.097656,0.341309,249.992355,203.796371,-249.839767
0.173828,1.206787,0.343506,249.992355,-19.889832,84.58709,-0.373779,1.07959,0.219971,249.992355,218.360886,-240.035995
0.114502,1.341553,0.307861,249.992355,-32.25708,79.544067,-0.403076,1.188232,0.427002,249.992355,180.084213,-249.992355
0.03833,1.502197,0.27832,249.992355,-53.733822,82.778923,-0.708252,1.282715,0.550293,244.583115,135.696411,-200.851425
0.032227,1.533936,0.265625,249.992355,-81.459038,80.184937,-0.677734,0.792236,0.093994,247.962936,-79.360962,-124.534599
0.074951,1.375488,0.263428,249.992355,-110.710136,65.856934,-0.722412,1.32959,0.450439,235.214218,87.020866,-193.771347
0.12915,1.179443,0.295654,249.54985,-144.180298,47.248837,-0.697266,1.37207,0.31958,218.994125,64.201355,-195.533737
0.13623,1.060303,0.327393,249.992355,-181.022629,31.387327,-0.682617,1.303955,0.221191,214.797958,43.289181,-200.897202
0.106689,1.005615,0.301758,249.992355,-214.492783,23.03314,-0.686768,1.155029,0.174072,221.031174,24.978636,-204.429611
0.131592,1.002441,0.250488,228.347763,-238.960251,18.669128,-0.665771,1.015625,0.240723,233.520493,15.563964,-201.942429
0.226318,1.046875,0.197266,194.038376,-246.238693,11.215209,-0.663086,0.918213,0.333008,245.361313,11.520385,-189.002975
-0.118652,0.773438,0.443359,246.643051,-68.328857,58.113094,-0.690674,0.83252,0.36377,249.992355,5.073547,-168.968185
0.157959,1.149414,0.383545,249.992355,-10.688781,91.835014,-0.694336,0.778564,0.320313,249.214157,-5.836486,-149.627686
-0.147705,0.592041,0.462646,249.992355,-70.594788,46.989437,-0.658447,0.760986,0.242188,243.354782,-23.559568,-136.779785
-0.418213,-0.311279,0.574463,-249.992355,249.992355,94.840996,-0.641357,0.768066,0.16333,241.23381,-49.026485,-129.119873
-0.151611,0.317627,0.57666,246.368393,-53.344723,34.545898,-0.087891,1.022705,0.142578,248.443588,227.439865,-185.867294
0.527588,1.112305,0.147705,168.182358,-206.321701,0.076294,-0.726563,1.253174,0.601074,248.191818,113.204948,-195.49559
0.535156,1.360107,0.541992,-233.352646,-47.035213,-249.992355,-0.046387,0.867676,0.228027,249.992355,232.772812,-168.472275
0.44165,1.48291,0.433105,-224.380478,-32.806396,-249.992355,0.387939,-0.618896,0.674561,-178.977951,-194.465622,44.410702
0.341064,1.664551,0.319092,-222.557053,-22.506712,-249.992355,0.557129,0.38501,0.529785,249.961838,219.055161,-135.810852
0.256592,1.733887,0.283447,-225.250229,-9.811401,-249.793991,-0.737305,0.854736,0.040039,249.992355,-115.928642,-121.116631
0.192139,1.623047,0.307617,-224.922165,9.780884,-249.488815,-0.432373,2.145264,0.209229,-249.992355,-20.492552,204.284653
0.221436,1.676025,0.393066,-241.073593,37.414551,-249.992355,-0.480469,2.150391,0.109619,-249.992355,-25.329588,201.080307
0.182129,1.965088,0.477295,-249.992355,84.175102,-244.674667,-0.425781,2.030029,0.049805,-249.992355,-36.277771,193.283066
0.179443,2.042236,0.504639,-249.984726,151.062012,-197.319016,-0.300781,1.869873,0.154541,-249.992355,-37.42218,175.811752
0.312744,1.678955,0.531006,-249.992355,221.015915,-144.53125,-0.162842,1.724121,0.331055,-249.992355,-28.19824,170.280441
-0.12915,0.461914,0.515869,249.992355,-67.817688,38.291931,-0.131836,1.529297,0.436523,-249.992355,-17.845154,198.028549
0.236816,1.097656,0.389893,-249.992355,249.992355,-77.392578,-0.112793,1.245361,0.648438,-249.992355,-18.844604,213.561996
-0.228516,0.134033,0.307861,-249.992355,249.984726,60.31036,-0.136475,0.875,0.782715,-249.992355,-37.17041,211.051926
-0.570557,-0.732178,0.895752,-219.734177,249.992355,114.898674,-0.087402,0.536133,0.685547,-249.748215,-66.093445,187.171921
-0.698975,-1.166016,1.302734,-140.25116,249.252304,123.329155,0.076904,0.633545,0.325439,249.992355,234.05455,-156.723022
-0.773682,-1.556396,1.616211,-52.810665,249.992355,118.820183,0.01123,0.256592,0.546143,-249.206528,-98.297112,148.742676
-0.798584,-1.800537,1.679688,70.037842,249.992355,100.471489,0.197266,-0.395996,0.560059,-244.308456,-169.28862,67.268372
-0.772217,-1.60791,1.407959,189.002975,221.733078,67.024231,0.625977,-0.718994,0.826416,-115.402214,-203.704819,52.467342
-0.727783,-1.046143,0.942871,239.456161,139.755249,36.705017,0.825684,-0.804688,1.044678,-63.690182,-206.939682,61.401363
-0.634766,-0.459961,0.684082,236.671432,73.135376,24.612425,0.844482,-0.969482,1.283936,-3.738403,-197.00621,32.531738
-0.449219,-0.071777,0.590088,224.594101,19.851685,26.786802,0.929443,-1.170898,1.424805,88.951103,-159.553528,-33.088684
-0.265869,0.154297,0.584717,230.300888,-23.078917,31.768797,1.074219,-1.194092,1.403564,193.168625,-91.964714,-81.748955
0.020752,0.663818,0.270996,-249.244675,249.992355,-4.699707,0.978271,-0.925781,1.142334,246.52861,0.442505,-79.490662
0.452637,1.331543,0.594971,-245.231613,-57.319637,-249.992355,0.828369,-0.621338,0.7854,249.992355,96.641533,-72.479248
0.931152,1.199463,0.200684,235.755905,-44.960018,76.98822,0.939697,-0.312988,0.638184,249.992355,164.62706,-80.963127
1.348633,1.391602,0.273438,249.992355,104.988091,131.736755,1.019043,0.052246,0.69458,249.992355,193.046555,-100.051872
-0.109863,1.094971,0.465088,-249.992355,-107.353203,-56.40411,0.079346,-0.0625,0.502441,-249.992355,-132.453918,108.406059
-0.099609,1.011719,0.411865,-249.992355,-111.564629,-78.071594,-0.783691,0.97876,0.034424,249.992355,-164.382919,-116.722099
-0.027832,0.955322,0.403564,-249.992355,-121.955864,-97.427361,-0.86499,1.181641,0.030518,249.992355,-221.83989,-114.19677
-0.051025,0.988037,0.480957,-249.992355,-141.326904,-110.099785,-1.000488,1.462891,-0.016357,249.992355,-249.374374,-113.739006
-0.136963,1.164795,0.549316,-249.992355,-174.568161,-116.859428,-0.161865,1.470703,0.486572,-249.992355,15.884398,24.452208
-0.146729,1.349854,0.547363,-249.992355,-213.462814,-131.332397,-0.220703,1.506104,0.479736,-249.992355,55.236813,53.337093
-0.061035,1.347412,0.482666,-249.992355,-238.128647,-164.863571,-0.31665,1.399658,0.468018,-249.992355,81.977837,78.186035
0.056152,1.264893,0.420166,-249.992355,-231.66655,-202.918991,-0.461182,1.325195,0.422119,-249.992355,99.143974,104.515068
0.164307,1.225342,0.320313,-249.992355,-192.634567,-226.982101,-0.522705,1.407959,0.323975,-249.992355,106.910698,125.91552
0.181885,1.412109,0.047363,-249.992355,-68.069458,-217.498764,-0.57373,1.582275,0.238037,-249.992355,103.668205,141.38031
-0.112061,1.111572,0.525879,-249.992355,-103.317253,-36.300659,-0.589111,1.740723,0.303467,-249.992355,99.838249,160.15625
0.135986,1.820557,0.145508,-249.977097,-9.117126,-196.105942,-0.450928,1.8125,0.413818,-249.992355,100.46386,177.970871
-0.119629,1.727539,0.299072,-249.839767,56.129452,-138.931274,-0.342285,1.776123,0.538818,-249.992355,102.828972,191.192612
-0.20459,0.968994,0.577637,-248.527512,60.18829,-79.780579,-0.344971,1.896973,0.549805,-249.992355,101.913445,235.69487
-0.166748,0.355469,0.712158,-249.992355,63.407894,-58.517452,-0.118408,1.310059,0.482422,-249.992355,-26.969908,-3.105163
-0.293945,-0.274414,0.925537,-249.992355,75.668335,-48.820492,-0.34375,1.888916,0.598877,-249.977097,81.626884,248.764023
-0.563477,-0.751709,1.183594,-157.463074,89.576714,-35.690308,-0.179199,1.139404,0.891602,-249.992355,-0.404358,249.992355
-0.922363,-0.987061,1.447021,-60.829159,80.612175,-17.570496,-0.057129,0.62207,0.978271,-248.886093,-41.16058,222.930893
-1.028564,-0.960449,1.56543,15.838622,40.344234,-4.516602,0.010742,0.178467,0.958252,-249.992355,-74.546814,173.355087
-0.881592,-0.771484,1.420898,73.432922,0.38147,-2.151489,0.142578,-0.183594,0.999512,-249.992355,-103.805534,143.028259
-0.62915,-0.511475,1.041504,97.679131,-22.590635,6.599426,0.393799,-0.530029,1.176025,-196.960434,-123.275749,119.758598
0.675781,1.13501,0.153564,191.711411,-147.857666,25.520323,0.660156,-0.880859,1.37915,-101.882927,-127.365105,89.332573
0.046143,2.180176,0.168213,-249.992355,36.361694,-180.953964,0.803955,-1.066162,1.481201,3.097534,-109.573357,49.438473
-0.164063,1.079346,0.519775,-249.992355,-97.534172,-20.957945,0.750977,-0.963623,1.503906,99.983208,-69.656372,22.850035
0.192139,1.251953,0.178711,-249.992355,-133.529663,-230.041489,0.610352,-0.661133,1.391602,163.49791,-17.929077,20.278929
-0.073242,1.086426,0.604736,-249.992355,-71.708679,-16.395569,0.582031,-0.321533,1.109863,192.543015,25.367735,25.329588
-0.17334,1.037842,0.545166,-249.992355,-87.120049,-15.953063,-0.347412,1.589844,0.654541,-249.992355,42.755123,249.992355
1.453125,2.05957,0.421631,249.992355,249.992355,181.320175,-0.202881,1.152344,0.490234,-249.992355,-61.828609,-23.574827
1.091309,2.397461,0.355957,249.992355,249.740585,169.761642,-0.354248,1.77417,0.577637,-249.992355,105.140678,211.936935
0.736572,3.166016,0.427002,249.885544,247.093185,149.971008,-0.400635,1.120605,0.487061,-249.992355,-93.215935,-39.230347
0.546143,4.955078,0.399658,249.992355,249.992355,150.604248,-0.321777,1.088379,0.497559,-249.992355,-83.686821,-35.171509
0.124023,5.992188,-0.13208,249.992355,249.992355,130.577087,-0.817383,2.182861,-0.481934,249.992355,-249.992355,-78.704834
-0.516846,5.414551,-0.359619,244.064316,58.372494,23.048399,-0.748779,2.596924,-0.672852,249.992355,-249.992355,-42.716976
-1.362305,4.378174,-0.539063,249.992355,-195.915207,-167.694077,-0.903076,3.156494,-0.640381,249.93132,-240.364059,-36.216736
-1.699463,5.338623,-1.417236,249.992355,-247.970566,-190.605148,-0.76416,3.857666,-0.373779,249.992355,-198.944077,-90.011589
0.835205,7.924561,-2.943115,-28.442381,-249.992355,-204.452499,-0.632324,4.545654,-0.518311,249.992355,-140.907288,-114.94445
2.52417,7.999756,-6.387207,-249.992355,-249.992355,-218.994125,-0.299805,5.192871,-0.880371,247.421249,-72.257996,-105.148308
1.590576,1.716797,0.384766,249.992355,233.230576,167.137131,-0.441162,4.590332,-1.107422,247.657761,29.319761,-60.119625
1.589844,4.503662,-1.397217,-249.992355,-26.481627,-15.205382,-0.002686,3.570801,-1.151855,249.992355,100.563042,-23.902891
2.508301,5.806396,-4.505615,-249.992355,-168.960556,-81.573479,-0.956055,5.142822,-1.403076,166.992172,37.101746,-12.748717
-0.075439,1.554443,0.809326,-249.992355,0.167847,13.023376,-0.989746,7.999756,-4.70166,-194.152817,-9.506226,37.940979
-0.104736,1.90918,0.854248,-249.992355,61.424252,32.333374,-1.035156,1.808838,-0.19165,249.992355,-249.740585,-103.836052
0.004639,2.065918,0.857178,-249.992355,121.322624,39.237976,-1.006592,4.509277,-4.40625,-249.992355,116.333,53.283688
0.238281,2.107666,0.875488,-249.992355,155.525208,38.444519,-0.119873,6.76416,-6.979492,-249.992355,138.565063,65.742493
-0.011963,1.250977,0.651123,-249.992355,-44.952389,-7.80487,-0.631348,1.387451,0.250732,-249.992355,-105.529778,-31.60095
0.641357,2.741699,0.669189,-249.992355,144.767761,38.192749,-0.665771,1.781738,-0.046875,-249.992355,-108.833305,-17.616272
0.806885,3.300781,0.353516,-249.992355,105.552666,33.630371,-0.767578,2.202637,-0.188965,-249.992355,-103.187553,-6.66809
1.231201,3.80835,-0.02832,-249.992355,41.40472,18.432617,-0.831543,2.448975,-0.199219,-249.992355,-84.213249,1.152039
0.500977,2.311768,0.814453,-249.992355,159.492493,36.468506,-0.509521,1.198242,0.467041,-249.992355,-99.746696,-38.101196
-0.838623,-0.434082,0.442139,238.227829,-58.654781,11.444091,-1.131348,2.642578,-0.585938,-249.992355,-37.086487,30.006407
-0.460693,-0.079102,0.973633,-249.992355,249.992355,-25.993345,-1.200928,3.012451,-1.312988,-249.992355,-1.564026,32.989502
-0.500977,-0.394775,1.044189,-229.331955,248.93187,5.859375,-1.146484,3.601074,-2.312988,-249.992355,55.908199,41.740414
-0.73999,-0.773193,1.283691,-165.25267,249.992355,38.612366,-0.951172,2.522949,-0.223633,-249.992355,-59.379574,18.478394
-0.928467,-1.251709,1.551758,-81.321709,249.992355,38.94043,0.442383,-0.624268,0.686768,249.992355,45.005795,-134.437561
-0.899658,-1.467285,1.526855,3.059387,204.353317,27.587889,0.623047,-0.447021,0.699219,-160.774216,-119.056694,115.974419
-0.711182,-1.292969,1.342041,78.2547,115.768425,17.463684,0.989014,-0.614746,0.815918,-95.146172,-112.472527,76.339722
-0.487793,0.274902,0.85376,-249.992355,249.992355,-48.110958,1.275391,-0.659912,1.043701,-33.493042,-91.560356,61.027523
-0.620117,-1.037598,0.94043,158.653259,42.236324,3.883362,1.329834,-0.60376,1.190674,18.501282,-75.935364,56.068417
-0.686768,-0.780518,0.581299,225.631699,-14.892577,-1.617432,1.124023,-0.514648,1.166748,54.176327,-77.232361,41.763302
-0.872803,-0.105469,0.53833,225.410446,-97.000114,37.330627,0.760254,-0.548584,1.03418,92.475883,-78.163147,3.280639
-0.28125,0.989258,0.472412,222.473129,-175.025925,134.757996,0.316162,-0.205322,0.651367,-230.834946,-106.033318,165.168747
-0.359375,0.360352,0.480957,230.0186,-158.340454,85.502617,0.613037,-0.662842,0.960938,160.209656,-65.910339,-68.374634
-0.238281,0.563965,0.39917,227.989182,-171.134933,102.310173,0.555176,-0.72876,0.860352,234.992966,-25.405882,-124.465935
-0.223389,0.775879,0.426514,223.59465,-173.477158,118.537895,0.568604,-0.352783,0.505127,249.992355,118.087761,-145.629883
-0.359131,1.193604,0.509033,236.289963,-177.368149,152.084351,-0.47583,1.182129,0.078613,249.992355,222.862228,-249.992355
-0.335205,1.282715,0.511475,249.29808,-172.836288,166.557297,0.644043,0.438477,0.615479,249.992355,191.543564,-186.111435
-0.184082,1.268311,0.45459,249.992355,-155.944824,178.176865,0.182861,0.779297,0.400879,249.992355,216.705307,-224.037155
-0.021729,1.232422,0.407471,249.992355,-127.037041,189.842209,-0.137207,1.025635,0.170654,249.992355,224.166855,-246.620163
0.061768,1.275146,0.381836,249.992355,-91.529839,201.332077,-0.707275,1.251465,0.181396,249.992355,216.880783,-249.992355
0.061523,1.379395,0.394287,249.992355,-56.266781,211.814865,-0.716797,1.314941,0.296631,249.992355,203.536972,-249.992355
-0.47998,0.79126,0.616699,-249.465927,249.885544,-84.533684,-0.74585,1.404297,0.274414,249.992355,191.261276,-249.992355
-0.65332,0.140137,0.593262,225.349411,-131.706238,64.64386,-0.799561,1.469482,0.194824,249.992355,175.903305,-249.992355
-0.352295,1.453857,0.407715,-249.992355,240.875229,-144.424438,-0.851807,1.509277,0.188721,249.992355,164.054855,-249.992355
0.080566,1.409424,0.416748,249.992355,-31.089781,219.230637,-0.759277,1.553223,0.218018,249.992355,161.056503,-249.908432
0.075195,2.085693,0.650146,-249.984726,186.653122,-198.303207,0.111084,0.045654,0.59668,-249.992355,-84.922783,210.952744
1.046387,2.699219,-0.272461,-249.992355,110.939018,-71.739197,0.785645,0.03125,0.500244,249.992355,162.811264,-158.195496
0.714111,2.140381,0.069824,-249.992355,78.567505,-80.398552,0.037842,0.296875,0.630371,-249.900803,-64.544678,249.443039
0.354736,1.736084,0.38623,-249.992355,31.684874,-86.006157,-1.134277,2.651367,-1.047119,-249.992355,70.831299,112.487785
0.203613,1.582764,0.421875,-249.992355,-13.183593,-100.013725,0.158691,0.971436,0.884277,-249.992355,-22.377012,249.42778
0.155518,1.547852,0.249756,-249.992355,-47.348019,-121.520988,-0.590576,1.583984,0.266602,249.977097,160.97258,-249.992355
0.168701,1.458008,0.246338,-249.992355,-73.448181,-144.096375,-1.065186,1.958984,-0.373779,-249.992355,42.137142,115.066521
0.23999,1.317871,0.327148,-249.977097,-94.024651,-169.601425,-0.844727,1.621094,0.004883,-249.992355,30.326841,108.245842
0.263184,1.243408,0.394043,-249.839767,-108.833305,-192.924484,-0.72998,1.583252,0.039307,-249.992355,16.052246,105.522148
0.259766,1.246582,0.488037,-249.992355,-119.773857,-213.882431,-0.69165,1.644531,-0.061523,-249.992355,-5.195617,112.945549
0.284668,1.267334,0.574951,-249.93132,-127.159111,-239.341721,-0.609131,1.611084,-0.20752,-249.992355,-23.376463,124.26757
-0.015869,2.094238,0.54248,-249.992355,213.058456,-187.446579,-0.469482,1.496826,-0.197754,-249.992355,-31.867979,130.874634
0.314453,1.320801,0.535645,-240.051254,-126.678459,-249.992355,-0.466797,1.404053,0.091064,-249.992355,-24.017332,144.180298
0.362061,1.516846,0.515381,-222.373947,-109.008781,-249.992355,-0.46875,1.467285,0.45166,-249.992355,-0.556946,162.689194
0.385498,1.596191,0.48877,-215.28624,-96.099846,-249.992355,-0.432129,1.623535,0.468018,-249.992355,22.644041,175.292953
0.398438,1.753906,0.467285,-222.251877,-81.977837,-249.992355,-0.409424,1.787598,0.394043,-249.992355,34.637451,185.005173
0.375244,1.922119,0.501465,-242.965683,-66.162109,-249.992355,-0.397461,1.977295,0.338135,-249.992355,36.705017,200.210556
0.344971,1.942139,0.490479,-249.992355,-40.496822,-249.992355,-0.363037,2.108154,0.334717,-249.992355,30.85327,222.061142
0.354736,1.892334,0.43042,-249.992355,-1.647949,-249.992355,-0.391846,2.073486,0.355225,-249.992355,20.103453,245.658859
0.330811,1.975342,0.36499,-249.992355,41.603085,-249.694809,-0.414307,1.885498,0.427734,-249.992355,4.501343,249.992355
0.298096,1.98291,0.392822,-249.992355,81.611626,-249.664291,-0.531494,1.674316,0.601074,-249.992355,-6.881713,249.992355
0.187744,1.884277,0.47876,-249.992355,122.993462,-249.992355,-0.569824,1.633301,0.689941,-249.992355,-16.815186,249.992355
0.088623,1.824463,0.595459,-249.992355,160.858139,-240.364059,-0.535889,1.733887,0.621094,-249.992355,-26.115416,249.992355
0.335938,1.404541,0.494629,-231.864914,-119.873039,-249.992355,-0.438232,1.885254,0.554443,-249.992355,-32.371521,249.992355
0.14502,1.35083,0.412598,249.992355,-12.649535,220.565781,-0.244385,2.131104,0.515381,-249.992355,-28.648375,249.992355
1.16626,3.103027,-0.485107,-249.992355,109.680168,-63.3316,-0.088867,2.238281,0.584717,-249.992355,-10.108947,249.992355
0.281982,1.219727,0.26123,249.992355,41.000362,201.370224,-0.015869,1.94458,0.650146,-249.984726,3.234863,249.992355
-0.835693,6.650635,-1.149902,59.165951,-247.215256,-155.067444,0.086914,1.449707,0.797607,-249.992355,-1.686096,249.916061
5.511719,7.999756,-4.47583,-213.050827,-249.992355,-202.209457,0.079102,0.599121,0.764404,-249.458298,-45.494076,249.992355
4.505615,7.44751,-7.468018,-249.992355,-249.992355,-249.992355,-0.586426,1.580811,0.317627,249.900803,154.556274,-249.992355
2.169678,4.372559,-2.944092,-249.992355,-118.522636,-194.725021,-0.336914,2.0354,0.341309,-249.992355,-27.542112,200.759872
1.398682,3.552734,-0.375977,-249.992355,4.112244,-139.11438,-0.88623,1.419922,0.164795,249.595627,101.745598,-238.34227
1.048096,3.166504,0.593506,-249.992355,46.19598,-116.477959,0.588135,5.101318,-1.662842,152.877808,15.632628,1.983642
0.756348,2.820801,0.783691,-249.992355,56.587215,-107.864372,0.825439,7.725342,-4.492676,-201.034531,167.564377,115.341179
0.465332,2.374023,0.697998,-249.992355,55.221554,-115.394585,-0.249756,6.606689,-5.397705,-249.992355,249.992355,150.039673
0.207031,2.019775,0.673584,-249.992355,48.324581,-123.413078,-1.706055,4.739014,-4.056885,-249.992355,188.041672,142.63916
0.168213,1.775146,0.720459,-249.992355,36.743164,-125.106804,-1.600586,3.819336,-1.977051,-249.992355,62.57629,120.674126
-2.543213,4.004883,-0.35498,249.992355,-249.992355,-235.549911,-1.307861,3.318604,-0.860596,-249.992355,5.714416,102.272026
0.282471,1.555908,0.82373,-249.992355,24.772642,-129.348755,-0.908691,2.786621,-0.578857,-249.992355,0.808716,91.796867
0.068359,1.324219,0.733643,-249.992355,0.205994,-126.144402,-0.56958,2.123047,-0.38623,-249.992355,6.851196,74.645996
0.005127,1.268555,0.746338,-249.992355,-25.535582,-136.314392,-0.535645,1.66333,-0.333008,-249.992355,13.389586,62.69836
0.021973,1.272949,0.69165,-249.992355,-47.294613,-155.86853,-0.723633,1.439941,-0.148438,-249.992355,7.087707,73.829651
0.116211,1.299805,0.651367,-249.992355,-60.737606,-176.284775,0.12915,2.841553,-0.845703,249.992355,-60.93597,-70.205688
0.225586,1.301025,0.626709,-249.992355,-64.071655,-192.253098,-0.804932,1.486816,0.162598,-249.992355,-15.182494,81.642143
0.303955,1.254639,0.607178,-249.992355,-59.738155,-204.460129,-0.799561,1.441162,0.447754,-249.992355,-75.531006,84.869377
0.334961,1.200439,0.625488,-249.992355,-54.901119,-215.797409,-0.782715,1.490234,0.453125,-249.992355,-99.655144,83.488457
0.314209,1.211914,0.630615,-249.885544,-53.894039,-223.999008,-0.783691,1.614014,0.436035,-249.992355,-123.489372,89.042656
0.320313,1.27832,0.593018,-249.992355,-58.052059,-233.215317,-0.765869,1.712646,0.377686,-249.992355,-145.843506,103.195183
0.330078,1.330322,0.602295,-249.992355,-60.737606,-245.079025,-0.713867,1.725342,0.289307,-249.992355,-153.297424,126.16729
0.209717,1.40625,0.807617,-249.992355,16.616821,-128.433228,-0.594238,1.689941,0.320313,-249.992355,-138.786316,147.468567
-1.208008,3.133789,0.189209,249.992355,-147.140503,-33.653259,-0.419434,1.624756,0.472412,-249.992355,-111.625664,161.910995
0.211182,1.279297,0.327881,249.992355,10.253905,213.874802,-0.332275,1.66626,0.531006,-249.992355,-77.896118,176.773056
-0.021729,4.084473,0.806641,249.992355,249.992355,207.771286,-0.300293,1.853516,0.472656,-249.992355,-46.882626,189.987167
0.327393,1.254883,0.24707,249.992355,72.174072,186.744675,-0.739502,1.520264,0.255127,249.992355,136.230469,-245.552048
0.353027,1.278809,0.227295,249.992355,97.282402,174.392685,-0.835938,1.476563,0.344238,-249.992355,-46.058651,87.181084
0.384766,1.229736,0.224365,249.992355,111.358635,164.985641,-0.552002,2.644531,-0.650146,248.397812,-112.243645,-118.926994
0.382324,1.20166,0.23291,249.992355,111.534111,155.914307,-0.598877,1.462891,-0.368896,-249.992355,14.533996,63.758846
0.312744,1.099365,0.211914,249.954208,93.955986,139.282227,-0.683105,3.947754,-0.024658,249.992355,-160.354614,-86.875908
0.200684,1.033691,0.170654,249.382004,51.986691,116.020195,-0.522705,3.522949,-0.37085,247.116074,-153.129578,-143.2724
0.075684,1.137207,-0.030029,249.992355,-70.327759,59.608456,-1.094482,1.172119,0.024902,242.797836,3.715515,-233.726486
0.110596,1.113281,-0.037354,214.53093,-122.047417,25.665281,-0.999268,1.050293,-0.021729,245.094284,-33.424377,-227.478012
0.250488,1.010986,-0.047607,181.617722,-143.951416,1.968384,-0.798096,0.96167,-0.080078,244.926437,-54.084774,-219.902023
0.52832,0.897705,-0.047607,170.242294,-137.428284,-11.596679,-0.680176,0.868896,-0.129883,246.009811,-63.995358,-209.724411
0.11499,1.067139,0.073486,249.992355,-7.186889,90.873711,-0.666016,0.753906,-0.124268,249.504074,-73.921204,-198.310837
0.656738,0.866943,0.175049,186.584457,-54.161068,-9.941101,-0.703857,0.650146,-0.120117,249.992355,-86.959831,-189.414963
0.717285,0.83252,0.06665,174.621567,-106.910698,-17.63916,-0.735596,0.588867,-0.154053,249.992355,-99.990837,-181.579575
0.899414,4.237061,0.687012,249.923691,248.062119,167.892441,-0.695313,0.578613,-0.229248,249.992355,-111.083977,-171.379074
1.029297,3.128174,0.46875,249.992355,249.992355,169.586166,-0.605957,0.610352,-0.302979,249.992355,-121.017448,-158.874512
1.062744,2.38208,0.468506,249.992355,249.992355,202.629074,-0.540527,0.69165,-0.364014,249.992355,-129.440308,-143.547058
1.100342,2.054443,0.424316,249.992355,249.961838,197.654709,-1.016602,1.30835,0.091797,243.247971,52.795406,-235.94664
0.390381,4.502441,0.930908,249.992355,249.992355,206.230148,-0.5354,0.973389,-0.307129,249.992355,-153.015137,-111.305229
0.675781,1.400879,0.207764,249.847397,159.645081,98.770134,-0.512451,0.817871,-0.369873,249.992355,-138.778687,-127.04467
0.565674,1.122314,0.208496,236.236557,77.888489,50.651546,-1.146484,4.012451,-0.194824,249.923691,-155.479431,25.329588
0.57251,0.973389,0.19751,206.634506,8.407593,12.680053,-0.879883,3.300293,-0.290771,249.992355,-180.641159,28.038023
0.938477,1.759766,0.273193,249.992355,229.949936,151.176453,-0.697266,2.673584,-0.249756,249.992355,-229.164108,12.344359
-0.467529,3.402832,0.618164,246.047958,130.516052,154.403687,-0.696533,2.327393,-0.10376,249.992355,-249.992355,-19.775391
0.477295,2.542236,0.339111,-249.992355,249.992355,-108.314507,-1.057129,4.10498,0.039551,249.992355,-157.844543,-10.276793
0.144287,1.413086,0.575439,-222.96904,-152.900696,-173.82811,-0.762451,1.737061,0.067871,249.992355,-240.966782,-82.244865
0.206299,1.328857,0.609863,-242.62999,-119.636528,-184.318527,-0.686768,1.442383,-0.056152,249.992355,-209.243759,-94.520561
0.163574,1.290283,0.644775,-249.992355,-92.14782,-187.339767,-0.588135,1.181885,-0.17334,249.992355,-176.025375,-101.005547
0.060059,1.465332,0.585449,-249.992355,-76.759338,-203.590378,-0.743164,2.04834,0.054443,249.992355,-249.992355,-55.892941
0.093262,1.918945,0.588623,-249.992355,-51.99432,-230.842575,-0.666748,3.133545,0.242432,-249.992355,-140.792847,249.992355
0.333252,2.068848,0.592773,-249.992355,2.075195,-249.67955,-0.618408,2.419922,-0.055908,-249.992355,169.227585,249.992355
0.79834,2.17627,0.605225,-249.992355,89.096062,-249.992355,-0.735352,2.456055,-0.166748,-249.992355,132.6828,249.992355
0.8396,2.434082,0.520996,-249.992355,195.602402,-204.002365,-0.862061,2.476074,-0.27832,-249.992355,85.899345,249.992355
0.741455,2.557129,0.327393,-249.992355,247.642502,-161.407455,-1.045166,2.589844,-0.257813,-249.992355,40.565487,249.992355
-0.741455,-0.617188,2.067627,-27.404783,-249.542221,-180.313095,-1.144287,2.932617,-0.020752,-249.992355,4.585266,249.992355
-0.425049,2.138428,0.525635,-249.992355,157.165527,-70.358276,-1.126465,3.101563,0.143555,-249.992355,-29.777525,249.992355
-0.131104,1.695068,0.30957,-249.992355,127.983086,-102.066032,-0.728027,2.393799,0.106201,-249.992355,204.3228,249.992355
0.045898,1.181152,0.079102,-249.969467,120.841972,-148.605347,-1.156494,3.122314,0.080322,-249.992355,-63.644405,249.992355
-0.200928,0.780762,-0.149902,-249.992355,116.546623,-133.651733,-0.967041,3.145996,0.064941,-249.992355,-97.541801,249.992355
-0.378662,0.728516,-0.248779,-249.992355,79.627991,-127.861015,-0.459717,3.018066,0.470459,-249.992355,-188.995346,249.992355
-0.594238,0.604492,-0.029785,-248.382553,8.766174,-134.552002,0.345459,0.568115,-0.024902,-249.17601,-205.32988,249.969467
-0.691162,0.421631,0.375244,-249.992355,-80.970757,-138.023376,-0.160645,1.578369,0.659912,-249.977097,-247.947678,249.992355
-0.538086,0.109131,0.889648,-249.992355,-167.297348,-157.676697,-0.204102,1.080322,0.453369,-249.992355,-249.992355,249.977097
-0.362793,-0.243652,1.493652,-177.322372,-227.920517,-186.790451,0.030029,0.775391,0.148926,-249.992355,-245.39946,249.992355
0.079346,1.526611,0.646729,-208.953842,-183.792099,-155.776978,0.630127,0.437988,0.195801,-249.763474,-155.052185,248.93187
0.088379,2.496582,0.489014,-249.992355,249.992355,-75.180054,0.980957,0.41748,0.628174,-249.992355,-96.244804,249.992355
0.049805,1.71582,0.572266,-205.848679,-202.42308,-137.405396,1.394043,0.219727,1.311768,-221.19902,-31.341551,249.992355
0.250244,4.095703,-2.266357,-249.992355,237.525925,40.962215,2.044434,-0.053223,2.052246,-103.034966,32.676697,189.773544
0.075439,1.620117,0.266846,-205.261215,-223.716721,-115.364067,2.723877,0.254883,2.560303,-1.579285,95.832817,91.812126
0.895996,1.35498,-0.762695,249.992355,10.620116,-4.722595,2.785156,0.015137,3.066162,108.64257,132.347107,-11.543273
0.890137,1.77417,-0.85791,249.992355,51.834103,29.075621,-0.87207,2.376465,0.234375,-249.992355,236.518845,239.105209
0.971191,2.374756,-0.982666,249.984726,94.299309,64.094543,-0.266113,2.400635,0.666016,-249.992355,-226.959213,249.992355
1.253418,3.417969,-1.039063,249.870285,154.083252,75.950623,-0.875488,2.323242,0.133545,-249.992355,249.992355,205.497726
1.216553,4.22876,-0.876465,249.992355,191.528305,96.443169,2.713623,-0.536133,3.477539,232.810959,132.034302,-139.656067
0.82251,4.365723,-0.380615,249.992355,198.852524,126.930229,-0.273926,2.086426,-0.599609,-249.992355,249.671921,137.802124
0.609375,4.54541,-0.208496,242.980942,208.60289,83.641045,-1.097168,2.062012,-0.779541,249.992355,-181.098923,32.150269
1.083252,4.485352,-0.67334,249.992355,235.992416,55.534359,-1.005615,2.571045,-0.775146,249.992355,-160.346985,6.782531
2.017822,5.764893,-1.991699,249.992355,249.992355,40.290829,-0.947021,3.509521,-0.623047,249.969467,-138.237,-23.712156
1.363037,7.955566,-4.097656,-85.639946,223.693832,-61.775204,-0.883545,4.463379,-0.516357,249.908432,-119.621269,-50.781246
0.043945,1.780029,0.377197,-205.482468,-212.63121,-126.090996,-0.603516,4.66333,-0.536621,249.992355,-104.713432,-108.505241
1.589111,7.999756,-5.427246,-249.992355,107.017509,-142.242432,-0.359131,4.168701,-0.407715,249.366745,-91.50695,-148.597717
0.195801,4.809082,-4.141846,-249.992355,189.422592,-2.029419,-0.263672,3.142822,-0.240234,244.14061,-91.857903,-90.080254
-1.706787,-0.820068,2.465576,97.81646,-249.992355,-101.272575,0.246094,2.582764,-0.334473,249.992355,-72.929382,-40.565487
-0.040039,3.434082,-1.11792,-249.992355,243.431076,63.507076,0.530273,3.902344,-0.888428,249.992355,57.380672,18.89801
-0.31543,2.841309,-0.255859,-249.992355,197.845444,61.56921,0.63916,7.041016,-3.462646,-103.706352,222.08403,171.264633
-0.34375,2.408203,0.033936,-249.992355,104.431145,31.364439,-0.630127,2.246094,-0.423828,-249.992355,249.992355,167.671188
-0.29541,2.154053,0.050049,-249.893173,-7.598876,-13.107299,-0.384521,7.740967,-5.36792,-249.992355,249.992355,232.460007
-0.295166,2.004883,-0.012207,-249.641403,-108.01696,-45.875546,-1.361328,4.16626,-4.359863,-249.992355,40.878292,74.699402
-0.156982,1.737793,0.188232,-249.992355,-183.486923,-70.121765,-0.834717,3.546387,-2.37085,-249.992355,-75.706482,43.136593
0.007324,1.535889,0.247314,-247.741684,-223.213181,-89.828484,-0.48999,3.065186,-1.309082,-249.992355,-145.294189,36.201477
0.082275,1.505371,0.199951,-220.458969,-231.193527,-102.378838,-0.380371,2.4104,-0.848145,-249.992355,-156.75354,32.905579
0.227051,6.066162,-5.802246,-249.992355,113.56353,-61.744686,-0.215088,1.629883,-0.691162,-249.992355,-105.064384,26.222227
-2.175781,-1.116455,2.607422,178.886398,-249.855026,17.326355,-0.157471,1.187012,-0.171387,-249.992355,-6.111145,20.63751
-0.316406,2.46875,0.634277,-249.992355,220.779404,-69.969177,-0.029297,1.212891,0.240967,-249.992355,97.671501,34.606934
-1.279541,-1.206787,2.384766,239.814743,-248.596176,47.096249,0.107666,1.434082,0.274414,-249.992355,184.799179,56.320187
0.479492,1.229004,0.003174,213.233932,51.765438,142.379761,0.045166,1.65332,0.125732,-249.992355,240.531906,78.926086
0.483887,1.243408,-0.105713,219.337448,67.245483,124.740593,-0.120117,1.850586,-0.271973,-249.992355,249.992355,112.747185
0.499512,1.313965,-0.180664,222.434982,77.278137,111.518852,-1.606689,5.780518,-5.557861,-249.992355,209.960922,142.959595
0.568604,1.412842,-0.25,226.142868,90.415947,105.75103,2.751465,-0.271484,3.291992,249.992355,172.485336,-205.047592
0.768799,1.538818,-0.341064,241.325363,123.832695,111.450188,-1.07251,1.684814,-0.690918,249.992355,-201.156601,42.755123
1.123047,1.612061,-0.362549,249.992355,187.355026,123.77166,2.5354,-0.178223,2.179932,249.992355,249.992355,-248.634323
1.335693,1.719482,-0.353516,249.992355,243.736252,136.161804,-0.723389,0.88916,-0.294434,249.992355,-169.395432,-118.865959
1.275879,1.944092,-0.297119,249.992355,249.267563,141.021729,-0.760498,0.933594,-0.309814,249.992355,-201.530441,-91.705315
1.209473,2.41748,-0.203125,249.992355,249.992355,130.981445,-0.739502,1.047607,-0.320068,249.992355,-240.959152,-71.342468
0.724365,4.157471,-0.005859,249.946579,221.801743,134.628296,-0.751465,1.220947,-0.323975,249.992355,-249.992355,-61.988827
0.430176,1.282959,0.09668,213.432297,37.956238,163.627609,-0.806396,1.411621,-0.287598,249.992355,-249.923691,-57.334896
0.563232,4.225586,-0.142578,249.992355,145.812988,140.289307,-0.824707,1.64209,-0.364746,249.992355,-249.710068,-51.246639
0.220947,4.396729,0.037354,245.079025,-38.391113,90.469353,-0.773438,1.885742,-0.494629,249.992355,-249.992355,-46.455379
0.141113,4.44165,-0.415771,249.992355,-172.256454,0.686645,-0.800049,2.140381,-0.555664,249.992355,-248.466476,-40.596004
0.602783,5.092285,-1.087158,217.002853,-248.558029,-35.003662,-0.914551,2.892822,-0.587402,249.992355,-226.11998,-27.641294
2.217529,7.515625,-2.319824,-150.650024,-249.992355,-104.141228,-0.822998,4.170166,-0.554199,249.954208,-197.174057,-36.712646
3.046143,7.477295,-3.717529,-249.992355,-213.256821,-185.935959,-0.632324,0.886963,-0.215576,249.992355,-157.76825,-141.540527
2.618652,4.833984,-4.003174,-249.992355,-141.265869,-140.50293,-0.472656,4.386475,-0.391113,249.992355,-160.865768,-83.091728
2.496094,3.745605,-3.427734,-249.992355,-26.473997,-102.989189,0.503418,3.672852,-0.037354,247.924789,-97.221367,-123.855583
2.015137,3.261475,-1.929932,-249.992355,41.244503,-74.325562,0.515137,3.813721,-0.236816,249.992355,-41.244503,-73.997498
1.492676,3.280518,-0.950195,-249.992355,79.360962,-66.398621,0.250977,3.800781,-0.703857,249.992355,-25.024412,-52.734371
-0.004883,-1.337891,1.795898,249.992355,-249.992355,-7.8125,0.544922,4.729492,-1.300537,167.27446,-5.867004,-30.136106
0.479004,4.070313,0.044189,248.504623,72.57843,140.625,0.799805,7.032959,-3.44043,-142.921448,90.324394,10.086059
0.340332,1.366455,0.194824,226.089462,31.837461,188.682541,1.184082,6.128418,-5.272217,-249.992355,207.626328,44.326778
1.086914,3.327148,-0.067627,249.954208,249.992355,122.459404,-0.213135,3.864014,-4.007324,-249.992355,249.992355,89.378349
0.288574,1.35083,0.313721,249.992355,33.287048,236.900314,-0.578857,3.779053,-2.669189,-249.992355,229.148849,92.544548
0.2771,1.383545,0.273682,246.185287,31.585691,214.843735,-0.805176,3.823975,-1.675781,-249.992355,188.072189,109.733574
-1.81958,-1.286377,0.956055,249.992355,-164.520248,58.41827,-1.058838,3.421631,-1.212891,-249.992355,131.515503,113.647453
-2.345703,-0.209717,1.533203,249.992355,-78.544617,138.633728,-0.022217,3.730469,-0.112305,249.992355,-135.070801,-127.258293
-1.942139,0.437012,1.549072,249.992355,-30.563353,210.647568,-0.600342,0.902588,-0.121582,249.992355,-161.735519,-157.943726
-1.012207,0.850342,1.044922,249.992355,-25.80261,248.077377,2.668701,-0.16748,2.662354,249.992355,241.928085,-217.575058
-0.33374,1.170654,0.592041,249.992355,-36.636353,249.992355,-0.77417,1.050049,0.01416,249.992355,-188.674911,-199.302658
-0.051514,1.371582,0.404053,249.992355,-48.126217,249.992355,2.100586,0.20459,1.50415,249.992355,249.610886,-249.992355
0.019287,1.493408,0.39209,249.992355,-57.113644,249.992355,1.738525,0.669189,0.9104,249.992355,249.992355,-249.992355
0.008057,1.612305,0.380859,249.992355,-69.282532,249.992355,1.681152,1.210693,0.830078,249.992355,249.992355,-249.992355
-0.054199,1.795898,0.383301,249.725327,-90.2481,249.992355,0.782227,1.737793,0.610596,249.992355,234.664902,-249.992355
-0.078857,1.966064,0.391846,249.992355,-123.062126,249.984726,-0.474121,2.004883,0.272949,249.900803,207.427963,-249.992355
-0.061523,2.07666,0.349365,249.992355,-155.441284,249.984726,-1.070801,2.199707,0.077637,249.93132,192.878708,-249.992355
-0.473633,-1.952637,1.512451,249.992355,-249.992355,-11.650084,-0.673828,0.953369,-0.052979,249.992355,-175.094589,-175.384506
0.3396,1.346436,0.353027,249.855026,26.733397,249.992355,-1.278076,2.509033,0.060547,246.688828,150.115967,-249.992355
0.160889,1.996582,0.258545,224.136337,-185.928329,249.534592,-1.341064,2.560791,0.10498,233.055099,113.388054,-249.992355
0.253906,1.897949,0.275635,222.099289,-180.786118,247.932419,-1.404053,2.543457,0.126221,228.75975,65.391541,-249.992355
0.30835,1.769775,0.27124,229.866013,-166.145309,248.901352,-1.401611,2.443604,0.131104,232.467636,22.880552,-249.992355
0.379639,1.644531,0.244873,245.193466,-148.06366,249.885544,-1.204102,2.365967,0.030273,249.992355,174.240097,-249.992355
0.430176,1.587158,0.255615,249.992355,-124.549858,249.992355,-1.086426,2.117676,0.166992,247.077927,-12.451171,-249.992355
0.465332,1.533203,0.303223,249.992355,-93.978874,249.992355,-1.00415,2.034668,0.22583,248.268112,-20.172117,-249.992355
0.468262,1.462891,0.369141,249.992355,-59.127804,249.984726,-1.023193,1.928711,0.219482,249.694809,-44.525143,-249.992355
0.437012,1.421631,0.38623,249.992355,-23.773191,249.793991,-1.072266,1.733398,0.173096,249.992355,-79.742432,-249.992355
0.38916,1.373291,0.375732,249.877914,6.568908,249.992355,-0.994629,1.544678,0.137695,249.992355,-107.055656,-249.992355
0.028564,2.083984,0.296631,235.595688,-177.917465,249.992355,-0.842529,1.432617,0.15625,249.992355,-123.90136,-249.916061
0.359375,3.317871,-0.929688,-249.992355,67.436218,84.777824,-0.818115,1.371338,0.251709,249.992355,-137.901306,-249.763474
0.070068,4.832031,-1.79541,-249.992355,38.856506,42.350765,-0.883301,1.325195,0.284668,249.992355,-156.135559,-249.992355
0.374512,6.926025,-4.798584,-249.992355,-68.061829,-12.519835,-0.909424,1.25708,0.236816,249.992355,-176.139816,-248.085007
1.044922,7.999756,-6.418457,-249.992355,-98.56414,-74.050903,-0.859375,1.162354,0.138184,249.992355,-189.483627,-226.333603
-0.407959,4.345947,0.576416,249.992355,157.63092,241.37114,-1.265869,2.267334,0.13623,241.126999,-2.868652,-249.992355
-1.625732,4.573975,-1.091553,249.992355,160.797104,117.988579,-0.687744,2.990967,-2.154297,-249.992355,88.073723,18.302917
0.402588,4.164307,-0.070801,249.992355,147.384644,65.704346,-0.844482,3.71875,-3.367676,-249.992355,158.462524,38.078308
-0.184814,4.737305,0.529541,244.194016,112.693779,183.311447,-0.645508,5.155029,-4.612793,-249.992355,237.976059,72.357178
0.429199,2.579346,-0.424805,-249.992355,46.554562,80.200195,0.452881,7.572754,-5.543457,-249.992355,249.992355,109.947197
-0.594238,7.537354,-2.69458,9.132385,49.415585,112.075798,0.480713,3.407959,-0.478516,248.123154,-200.599655,-163.940414
0.142334,2.185059,-0.266113,-249.992355,1.930237,60.272213,1.119629,5.093994,-1.088135,204.391464,139.892578,2.571106
-0.147949,1.493896,0.517578,-205.474838,-102.47802,-59.509274,1.317383,3.535889,-0.60498,249.992355,42.579647,-72.738647
-0.144775,1.776367,0.016602,-249.671921,-96.031181,-7.92694,0.9104,3.275879,-0.611816,244.865402,-87.699883,-144.950867
0.082764,1.528809,0.145996,-249.992355,-125.221245,-42.846676,0.860596,7.895508,-3.87793,-186.782822,230.857834,79.734802
0.139648,1.342041,0.33667,-249.992355,-128.738403,-57.868954,-0.440918,2.436768,-1.393311,-249.992355,25.070189,6.553649
-0.043457,1.408691,0.486572,-237.815842,-114.341728,-56.167599,-0.915039,1.789307,0.564453,-249.992355,249.992355,219.261154
-0.206543,1.544434,0.509033,-186.241135,-88.684074,-72.303772,-0.614258,1.3396,-0.523926,-249.992355,-19.020081,-17.066956
-0.185547,1.723389,0.454834,-186.767563,-68.061829,-87.280266,-0.434082,1.207764,-0.136475,-249.992355,-4.547119,-24.307249
-0.068604,1.899902,0.429688,-212.020859,-47.637936,-95.191948,-0.13623,1.334961,-0.001709,-249.992355,21.560667,-25.009153
0.059814,1.922363,0.538086,-244.583115,-28.488157,-95.069878,0.103516,1.489502,-0.009033,-249.992355,49.766537,-0.534058
0.11499,2.04126,0.560547,-249.992355,-6.103515,-101.104729,0.154053,1.54248,-0.07251,-249.992355,89.035027,31.112669
0.106201,2.197754,0.529053,-249.992355,11.947631,-88.508598,0.04541,1.482178,0.033447,-249.992355,151.992798,60.302731
-0.195557,1.952881,-0.084717,-249.992355,-46.424862,30.189512,-0.020752,1.384277,0.350342,-249.992355,227.203354,99.456779
0.286865,4.484375,0.380615,249.992355,221.557602,202.194199,0.008789,1.353516,0.595215,-249.992355,249.992355,130.485535
0.242432,2.466797,0.523193,-249.992355,27.755735,-52.230831,-0.200195,1.414063,0.615723,-249.992355,248.748764,153.72467
1.081299,3.257324,0.297363,249.992355,85.365288,74.378967,-0.55957,1.574463,0.634033,-249.992355,249.992355,179.824814
0.104248,1.678467,0.409424,249.992355,-47.195431,187.072739,-0.293701,3.823486,-0.528809,249.992355,-237.373337,-123.802177
0.14502,1.626465,0.365967,249.992355,-38.665771,179.306015,-0.537842,1.836914,-0.998535,-249.992355,-12.031554,-8.522034
0.18457,1.544189,0.332031,249.992355,-27.6947,172.126755,-0.744873,4.429932,-0.60376,249.954208,-231.430038,-56.083675
0.186768,1.494141,0.309326,249.992355,-15.274047,165.51207,-0.555664,1.082275,-0.138428,249.992355,-139.99176,-98.983757
0.20752,1.483643,0.298096,249.992355,0.1297,159.095764,-0.824463,2.597656,-0.707275,249.992355,-167.778,37.04834
0.243652,1.500732,0.281738,249.992355,21.232603,153.4729,-1.16333,2.048828,0.382813,-249.992355,186.065659,247.726425
0.271973,1.496582,0.276855,249.992355,47.882076,150.505066,-1.284912,2.56665,0.129395,249.992355,-37.124634,-249.992355
0.297119,1.483887,0.285645,249.992355,76.35498,149.627686,-1.082764,2.397217,0.156494,249.992355,-65.193176,-249.992355
0.307861,1.462891,0.317383,249.992355,98.800652,143.760681,-1.088623,2.208984,-0.072754,249.992355,-72.372437,-249.992355
0.261475,1.410156,0.345459,249.992355,113.136284,129.173279,-1.206055,1.990479,-0.197998,249.992355,-69.641113,-249.992355
0.990967,4.328125,0.319092,249.870285,190.055832,132.461548,-1.19873,1.706299,-0.158691,249.992355,-75.027466,-249.755844
0.210449,1.368896,0.331543,249.992355,119.720451,107.315056,-1.057129,1.456055,0.008301,249.992355,-91.712944,-249.992355
0.141846,1.3396,0.150879,249.511703,122.947685,66.345215,-0.871582,1.35498,0.099609,249.992355,-114.410393,-249.992355
0.085693,1.384521,0.046387,249.992355,118.141167,50.758358,-0.793701,1.352539,0.121094,249.992355,-134.086609,-238.876328
0.075684,1.485596,-0.024902,249.992355,106.826775,27.06146,-0.849609,1.428711,0.154297,249.992355,-148.292542,-213.77562
0.030518,1.619629,-0.05957,225.334152,92.926018,-2.853393,-1.039551,3.762207,-0.677246,249.93895,-204.254135,16.12854
-0.030273,1.661377,-0.020264,195.12175,77.133179,-25.123594,-0.871094,1.479736,0.077637,249.992355,-155.693054,-182.807907
0.031738,1.658447,-0.0271,195.472702,63.819881,-34.614563,-0.63623,1.227539,-0.166992,249.992355,-150.8255,-120.056145
0.206299,1.75,-0.202881,224.60173,62.385555,-31.120298,-0.558105,1.007568,-0.137451,249.992355,-130.699158,-82.649223
0.373779,1.898926,-0.269531,248.733505,66.627502,-22.178648,-0.575439,1.000977,-0.203369,249.992355,-131.706238,-60.531612
0.467773,1.979736,-0.16626,249.992355,56.503292,-6.629943,-0.547119,1.036133,-0.296875,249.992355,-147.285461,-29.060362
0.675537,2.296631,0.042969,249.992355,42.907711,25.80261,-0.52832,1.10083,-0.350098,249.992355,-168.945297,1.800537
0.18335,1.344971,0.260498,249.992355,122.947685,84.152214,-0.584717,1.215332,-0.368896,249.992355,-182.174667,20.126341
0.067627,1.699951,0.433594,249.992355,-50.918575,195.663437,-0.640137,1.366699,-0.383301,249.992355,-186.477646,30.242918
0.543945,2.960449,0.575195,-249.992355,55.183407,-40.336605,-0.681641,1.57251,-0.464844,249.992355,-187.362656,45.768734
-0.139893,3.400635,1.007324,-249.992355,102.630608,-26.519773,-0.66748,1.857178,-0.646729,249.992355,-177.963242,62.873837
0.103516,1.704346,0.283203,73.0896,84.426872,249.992355,-0.619873,2.078857,-0.726563,249.992355,-160.804733,55.335995
0.100342,1.69165,0.269043,67.176819,106.674187,249.839767,-0.77002,1.398926,-0.093994,249.992355,-157.058716,-149.81842
0.110596,1.665283,0.258301,59.036251,123.207085,249.992355,-1.221924,2.323975,0.025635,-249.992355,80.307007,249.992355
0.140137,1.579834,0.209229,59.158321,139.633179,249.992355,-1.128906,2.602051,-0.296875,-249.992355,-10.2005,249.992355
0.155029,1.494385,0.14209,71.029663,157.875061,244.26268,-0.967773,2.811279,-0.400146,-249.992355,-67.726135,249.992355
0.137451,1.452148,0.08252,90.011589,178.939804,224.9832,-0.798828,1.906982,0.435547,130.996704,130.737305,-249.992355
0.138916,1.410156,0.015869,113.288872,200.080856,206.283554,-0.895264,1.947021,0.441162,123.977654,93.139641,-249.992355
0.170654,1.357178,-0.04126,140.060425,218.68132,189.140305,-1.088379,1.903564,0.302246,128.982544,56.922909,-249.992355
0.207275,1.313965,-0.09668,168.716415,236.381516,169.92186,-1.178467,1.865723,0.167725,139.595032,21.217344,-249.992355
0.214844,1.305908,-0.134521,195.87706,248.603806,148.06366,-1.116943,1.793457,0.138672,147.598267,-16.044617,-249.992355
0.224121,1.317627,-0.14917,217.582687,249.763474,126.968376,-1.052734,1.624756,0.12915,152.397156,-57.197567,-249.992355
0.188965,1.327148,-0.184082,233.505234,249.992355,108.177177,-1.05957,1.416016,0.185791,163.291916,-101.028435,-249.992355
0.102539,1.311768,-0.24292,241.500839,247.131332,92.308037,-1.046631,1.236572,0.253174,181.045517,-139.755249,-249.992355
0.025391,1.270264,-0.309326,242.988571,220.512375,79.017639,-1.002441,1.103027,0.272949,199.554428,-170.845016,-249.885544
-0.012695,1.224609,-0.390137,238.708481,184.02861,67.253113,-0.929199,1.006836,0.27002,215.629562,-196.105942,-249.862656
-0.030518,1.230957,-0.482178,220.664963,145.935059,53.352352,-0.73291,1.770752,0.309326,140.983582,167.320236,-249.992355
-0.012451,1.254639,-0.549561,195.281967,108.215324,27.832029,-0.84082,0.943359,0.24707,231.262192,-219.871506,-249.992355
-0.001709,1.161865,-0.604248,193.916306,66.581726,-2.456665,-0.912842,0.904297,0.071045,249.992355,-249.855026,-222.686752
-0.004883,0.979004,-0.661621,232.376083,19.065857,-23.277281,-0.944824,0.865479,0.013916,249.992355,-249.992355,-183.959946
0.174561,0.865967,-0.669922,249.992355,-23.460386,-28.442381,-0.691895,0.8125,-0.07373,249.992355,-249.008163,-146.095276
0.595215,0.971924,-0.702881,249.992355,-26.580809,-20.988462,-0.431152,0.787842,-0.221924,249.992355,-236.747726,-132.614136
0.11084,1.698242,0.321533,70.358276,50.85754,249.992355,-0.514893,0.805908,-0.384277,249.992355,-225.059494,-127.410881
0.070557,1.65625,0.395752,60.348507,4.91333,249.992355,-0.645264,0.869873,-0.533203,249.992355,-229.698166,-94.635002
0.492188,3.256836,0.765381,-249.992355,94.703667,-45.56274,-0.554688,0.927246,-0.628662,249.992355,-246.52861,-44.151302
-0.042236,1.465088,0.598145,59.80682,-116.317741,249.992355,-0.554932,0.906006,-0.57373,249.992355,-249.793991,-3.913879
0.057617,1.592285,0.506348,52.742001,-53.138729,249.992355,-0.721436,0.939941,-0.533691,249.992355,-249.992355,18.859863
-0.5271,3.384766,1.246094,-249.992355,64.811707,-30.22003,-0.862305,1.109619,-0.599609,249.992355,-246.749863,30.84564
-0.270508,2.672852,1.154541,-249.992355,20.683287,-59.921261,-0.821289,0.921875,0.166992,245.445236,-242.103561,-246.391281
-0.043701,1.808105,0.86377,-249.992355,-4.570007,-70.266724,-0.495361,1.647217,0.160645,149.353027,198.844894,-249.992355
-0.012695,1.345459,0.337646,-249.961838,-1.716614,-65.26947,-0.973389,1.359131,-0.635498,249.992355,-223.190292,38.986206
0.157715,1.410889,-0.077148,-249.992355,16.677856,-116.073601,0.619873,1.312988,0.286621,163.085922,249.992355,-249.992355
-0.12793,1.029785,-0.17334,-249.992355,36.643982,-103.507988,-0.793213,2.980713,-0.191406,-249.992355,-79.666138,249.992355
-0.541016,0.668213,0.061523,-249.992355,12.825011,-75.126648,-0.550049,3.050049,0.167236,-249.992355,-69.114685,249.992355
-0.443359,0.516357,0.515137,-249.992355,-15.594481,-84.556572,-0.327393,2.925049,0.48999,-249.992355,-59.219357,249.992355
-0.24292,0.100586,1.067383,-190.20079,-26.618956,-95.260612,-0.095947,2.521729,0.771729,-249.992355,-63.911434,249.992355
-0.308838,-0.279785,1.612061,-7.904052,-24.307249,-91.270439,-0.15918,1.995361,0.793457,-249.992355,-85.510246,249.992355
-0.411865,0.843506,-0.255859,-248.451218,38.909912,-65.284729,-0.43335,1.612061,0.5271,-249.984726,-110.191338,249.984726
-1.162109,0.025879,2.185303,142.494202,-195.396408,-3.684997,-0.009277,1.517822,0.179443,155.349731,228.652939,-249.992355
-1.311279,-0.920654,2.382324,178.558334,-249.992355,33.508301,-0.304932,1.122803,-0.176514,-249.992355,-170.707687,249.992355
-1.177734,-1.656006,2.291748,244.163498,-249.992355,15.998839,0.057129,0.918457,-0.080811,-249.29808,-190.96373,249.221786
-0.345947,1.242188,0.591064,88.531487,-178.451523,249.992355,0.412598,0.797119,0.211914,-249.534592,-196.731552,249.992355
-1.074219,-1.436035,1.681152,249.984726,-249.992355,-20.797728,0.691895,0.592041,0.692139,-249.992355,-176.414474,249.992355
-1.122314,-0.83252,1.109863,249.038681,-249.992355,-1.266479,-0.510498,1.383301,0.071777,-249.992355,-140.213013,249.992355
-1.174805,-0.223389,0.85376,249.992355,-249.618515,76.721191,1.713867,-0.269043,1.843506,-125.968925,-10.345458,159.187317
-1.083008,0.180664,0.981445,249.992355,-249.732956,143.013,1.960938,0.018311,2.237549,-65.597534,108.02459,128.417969
-0.878174,0.541504,0.914063,199.470505,-249.992355,199.790939,1.531494,0.140137,2.310303,-1.701355,200.53862,67.100525
-0.681152,0.937012,0.678711,137.916565,-237.258896,244.781479,1.184326,-0.528076,1.952148,110.977165,245.971664,-38.360596
-0.646973,0.035156,2.020264,124.244682,-73.410034,-54.817196,1.450439,-1.133057,1.304199,197.738632,249.992355,-140.830994
0.536133,1.709229,0.469727,249.992355,-21.949766,93.666069,1.494873,-1.010986,0.981445,244.102463,249.992355,-168.815598
0.433105,1.773193,0.610596,249.992355,-57.380672,93.597404,1.42627,-0.475586,1.023926,249.992355,249.992355,-151.893616
0.304688,1.805664,0.695068,249.992355,-75.675964,106.269829,1.682617,0.012207,0.814941,232.666,249.992355,-176.34581
0.202637,2.025146,0.665039,249.992355,-88.050835,176.635727,1.746826,0.511963,0.756836,210.700974,249.587997,-243.00383
0.118652,1.840576,0.773682,249.992355,-71.350098,136.543274,1.237549,0.949219,0.529297,191.246017,249.992355,-249.992355
0.157471,1.874023,0.74292,249.992355,-71.151733,147.735596,1.103027,0.130615,1.277344,-226.707443,-113.830559,212.394699
0.186768,1.956299,0.701904,249.992355,-75.950623,161.59819,-0.678467,1.202393,-0.044189,249.992355,-147.079468,-109.924309
0.581055,1.604004,0.354492,249.992355,21.675108,100.913994,-0.752441,1.276611,0.051025,249.992355,-138.99231,-131.385803
0.15918,1.842285,0.766602,249.992355,-76.126099,124.2752,-0.807373,1.390381,0.074219,249.992355,-128.631592,-147.705078
0.56543,1.527832,0.285645,249.992355,61.614986,109.825127,-0.885254,1.503174,0.159424,249.992355,-113.235466,-160.003662
0.360596,4.685791,0.187256,248.252853,50.651546,8.529663,-1.229004,2.10791,0.029785,249.992355,4.272461,-249.992355
0.592773,1.621094,0.117432,249.992355,109.497063,125.045769,-1.063477,1.66626,0.233398,249.992355,-61.95068,-208.396896
0.636475,1.702637,0.082764,249.992355,126.449577,134.231567,-1.082031,1.784668,0.216553,249.992355,-35.797119,-238.693222
0.726807,1.756836,0.094971,249.992355,144.874573,145.988464,-1.114014,1.932373,0.131592,249.992355,-16.410828,-249.992355
0.877441,1.883789,0.109863,249.992355,168.899521,156.585693,-0.999268,1.579102,0.247803,249.992355,-90.270988,-179.176315
0.894287,2.224365,-0.032471,249.992355,194.137558,172.409042,-0.626465,1.132813,-0.188721,249.992355,-155.769348,-86.746208
0.670654,2.754883,-0.130371,249.992355,211.807236,192.153915,-0.571777,4.235352,-0.266357,249.992355,-137.382507,-197.784409
0.601318,3.327148,-0.228271,249.908432,231.811508,186.698898,-0.655029,0.991699,-0.384521,249.992355,-175.529465,-37.277222
0.345703,3.755615,-0.20752,249.992355,241.439804,169.059738,-0.647705,0.956299,-0.427002,249.992355,-178.047165,-20.492552
-0.440674,4.166748,0.14502,249.992355,206.756577,209.060654,-0.623291,0.994385,-0.458252,249.992355,-166.397079,-13.687133
-0.249756,5.080566,0.445313,246.383652,138.496399,151.519775,-0.626709,1.126953,-0.55127,249.992355,-136.627197,-11.871337
0.205078,2.079834,0.630127,249.992355,-106.0028,189.788803,-0.702637,1.34082,-0.783691,249.992355,-95.642082,-9.567261
0.556152,1.532471,0.188965,249.992355,91.453545,117.675774,-0.759033,1.587891,-1.004395,249.992355,-62.004086,-9.300232
0.191895,2.13208,0.605225,249.992355,-120.903008,198.699936,-0.765381,1.815186,-1.077148,249.992355,-47.401424,-22.895811
-0.680176,-0.562988,1.650879,249.992355,-186.080917,115.20385,-0.870117,2.368652,-1.033447,249.992355,-48.019405,-67.703247
0.08252,2.260986,0.541016,249.992355,-116.271965,213.546738,-1.07666,3.656494,-0.914551,249.992355,-60.173031,-134.544373
-0.30957,2.078857,0.516357,-249.992355,229.65239,16.769409,-1.039307,4.620361,-0.709229,249.908432,-90.888969,-181.243881
-0.090576,4.356445,-0.580566,249.992355,-5.020141,51.933285,-1.391846,2.315918,-0.070801,249.992355,40.184017,-249.725327
-0.320801,1.058594,0.700928,-249.992355,166.252121,2.128601,-0.626709,1.055664,-0.30249,249.992355,-166.320786,-61.492916
-0.255615,0.683838,0.823486,-249.992355,139.480591,9.414673,-1.470459,2.554932,-0.150391,249.992355,83.526604,-249.992355
-0.133057,0.362549,1.032715,-249.450668,111.762993,15.1062,2.513428,0.244141,3.424561,249.374374,237.762436,-143.852234
-0.162109,0.059814,1.273193,-248.847946,75.164795,17.738342,-1.253418,2.876953,-0.229736,249.992355,103.446953,-249.992355
-0.26123,-0.242676,1.522705,-249.992355,23.15521,15.815734,-0.000977,3.541016,-0.002441,249.992355,-176.72728,-213.233932
-0.141602,-0.672607,1.968262,-235.038742,-37.834167,-5.363464,-0.508301,2.757813,0.362305,-249.992355,-249.618515,249.992355
-0.060791,-1.144531,2.576172,-115.478508,-105.598442,-12.313842,-0.30542,2.115234,0.519287,-249.992355,-249.992355,249.992355
-0.19458,-1.22876,3.02417,-0.289917,-178.405746,5.828857,-0.161377,1.540527,0.660645,-249.977097,-249.992355,249.992355
-0.040039,-1.215332,3.064209,91.400139,-241.317734,-10.993957,0.068848,1.167969,0.910156,-249.992355,-230.27037,249.839767
0.01001,-1.578857,2.591064,182.853683,-249.282822,6.050109,0.5625,0.887939,1.050293,-249.992355,-216.697678,249.221786
-0.16626,-1.402344,1.901367,246.116623,-249.992355,57.167049,1.147705,0.705322,1.134521,-249.069199,-221.58049,249.992355
-0.292725,-0.711914,1.627441,249.992355,-244.544968,99.815361,1.802979,0.476563,1.582275,-249.992355,-227.355942,247.558578
-0.931885,-0.243408,1.611816,249.992355,-145.294189,123.321526,2.550537,0.134766,2.493652,-249.992355,-214.858994,190.429672
-0.871094,0.250732,1.362305,249.992355,-134.95636,125.465385,3.239746,0.083008,3.505371,-214.187607,-160.652145,116.722099
-0.763428,0.851807,1.07666,249.992355,-155.677795,131.378174,-1.444824,2.737549,-0.105713,249.992355,111.518852,-249.992355
-0.649902,1.380615,0.912842,249.992355,-190.422043,132.362366,3.135498,0.4104,4.330322,-79.559326,-72.555542,17.26532
-0.439209,1.809814,0.776123,249.992355,-218.353256,139.930725,2.421387,-0.144043,4.084473,240.394577,122.924797,-180.587753
-0.067383,2.140137,0.641846,249.992355,-219.070419,157.348633,2.758057,0.710449,3.062988,249.992355,249.992355,-199.218735
0.220703,2.446777,0.571289,249.992355,-187.370285,178.543076,2.193604,1.086182,2.352539,249.992355,249.282822,-248.306259
0.21582,2.561523,0.555908,249.992355,-145.233154,199.073776,1.005615,1.39209,1.345215,249.992355,249.992355,-249.992355
0.095459,2.410889,0.534668,249.992355,-118.293755,212.89061,-0.138428,1.703369,0.534668,249.992355,249.992355,-249.992355
0.164063,2.160889,0.588135,249.992355,-124.298088,206.397995,-0.792969,2.040527,0.088867,249.992355,223.167404,-249.992355
-0.321045,1.53418,0.594971,-249.984726,196.296677,4.40979,-1.192627,2.355469,-0.164063,249.992355,144.65332,-249.992355
0.624268,7.040039,-1.771973,126.853935,-11.421203,77.438354,-1.558594,2.608887,-0.487061,249.992355,84.091179,-249.992355
-0.270752,7.191162,-4.067871,-249.992355,-62.736507,-24.642942,-1.641602,2.807861,-0.68335,249.992355,59.92889,-249.992355
-0.272461,2.614746,0.969971,-249.992355,150.413513,-109.649651,-1.400879,2.896729,-0.536621,249.992355,75.98877,-249.992355
-0.460693,2.205566,0.851074,-249.984726,134.376526,-97.045891,2.564209,0.494873,4.487305,111.816399,2.151489,-111.831657
-0.495605,1.367432,1.104736,-249.992355,116.905205,-103.767387,0.151367,3.247803,-0.102051,245.765671,-205.245956,-200.462326
-0.429443,0.73291,1.187012,-249.992355,107.650749,-126.396172,0.158203,3.389893,-0.441162,249.992355,-224.151596,-130.371094
-0.332764,0.25708,1.293701,-249.336227,106.75811,-153.98407,-1.342285,2.583252,-0.155518,249.992355,-9.742737,-249.992355
-0.209961,-0.143066,1.470215,-249.992355,93.01757,-180.778488,-0.918701,2.9646,0.635986,-249.992355,-249.992355,249.992355
-0.422607,-0.463867,1.69873,-249.992355,47.996517,-177.871689,-0.45166,2.642822,0.331787,-249.992355,-249.984726,249.992355
-0.99707,-0.852295,1.990723,-224.906906,-43.640133,-139.907837,-0.554199,1.810059,0.304688,-249.992355,-249.992355,249.992355
-1.373535,-1.52417,2.344727,-125.190727,-182.441696,-98.335258,-0.407715,1.23999,0.193848,-249.969467,-249.763474,249.992355
0.020752,-1.822266,1.952881,155.387878,-249.992355,-92.346184,0.229492,1.030029,0.103027,-249.992355,-248.878464,249.717697
0.206543,2.491455,0.915527,-249.992355,151.611328,-103.393547,0.854248,0.861816,0.332275,-249.908432,-249.992355,249.633774
0.141602,-1.416016,1.667236,242.24852,-249.992355,-83.305351,1.312256,0.616455,0.951416,-248.237595,-246.398911,249.992355
-0.946533,-0.602539,1.102783,249.992355,-70.304871,84.70916,1.847412,0.401123,1.838623,-249.992355,-154.541016,241.279587
-1.256592,-0.09668,1.10376,249.992355,1.365662,134.811401,2.742432,0.362061,2.953857,-249.992355,21.438597,178.283676
-1.328369,0.429688,1.219238,249.992355,25.871275,167.846664,3.27002,0.532715,3.990723,-141.021729,205.474838,35.736084
-1.109619,0.977295,1.272461,249.992355,20.553587,192.459091,-1.218506,2.984619,0.663818,-249.992355,-249.992355,249.992355
-0.601074,1.39502,1.049072,249.992355,-2.922058,210.845932,2.573242,0.722412,4.436035,60.974117,249.992355,-176.780685
-0.23291,1.578125,0.75,249.992355,-27.397154,217.941269,2.277344,-0.008545,2.756348,249.992355,249.786362,-249.992355
-0.055664,1.636475,0.59082,249.992355,-41.625973,217.689499,2.611572,0.008057,2.423584,249.992355,249.404892,-249.992355
0.031006,1.671143,0.512451,249.992355,-48.309322,211.807236,3.148193,1.000732,2.581787,249.992355,249.992355,-249.992355
0.042236,1.703613,0.461426,249.992355,-50.827023,203.735336,2.072998,1.635986,1.996094,249.992355,244.972214,-249.992355
1.289551,7.999756,-4.496338,-232.566818,-24.383543,-60.295101,0.237793,1.949951,0.908447,249.992355,196.044907,-249.992355
-0.43457,-1.027588,1.162598,249.992355,-181.869492,3.135681,-0.621582,2.209229,0.406982,249.992355,143.814087,-249.992355
0.124023,2.013916,0.709229,-249.992355,149.452209,-43.266293,-1.172852,2.452881,0.05957,249.992355,84.724419,-249.992355
-0.939453,-1.980957,2.335449,13.252257,-247.253403,-77.659607,-1.420166,2.612793,-0.19458,249.992355,37.353516,-249.992355
0.305908,2.805176,0.485352,-249.992355,109.268181,-108.963005,-1.427979,2.530029,-0.297119,249.992355,12.893676,-249.992355
0.105225,2.256348,0.6875,-249.992355,141.105652,-63.140865,-1.318115,2.487061,-0.334229,249.992355,2.975464,-249.992355
0.403076,5.002441,-1.165283,-249.992355,69.747925,36.819458,2.043701,0.479492,3.76416,227.722153,249.992355,-249.992355
0.13916,4.080322,-0.631104,-249.992355,103.744499,60.211178,-0.925293,3.000732,0.547363,-249.992355,-221.359238,249.992355
-0.073975,3.245605,-0.412109,-249.992355,104.911797,65.437317,0.718994,4.174072,-0.92749,249.992355,-165.557846,-23.399351
-0.070801,2.584717,-0.171875,-249.992355,79.627991,44.105526,-0.697021,3.072754,0.35376,-249.992355,-109.016411,249.992355
-0.074707,1.828369,0.040283,-249.992355,51.971432,14.007567,1.544922,5.808105,-2.02417,64.758301,53.398129,47.348019
-0.145752,1.483887,-0.101074,-249.992355,27.816771,-14.244079,0.74585,6.919189,-3.20166,-221.809372,240.776047,48.828121
-0.276611,1.548828,-0.015381,-249.893173,-9.735107,-19.996643,-0.216309,6.214844,-3.706299,-249.992355,249.992355,63.20953
-0.265137,1.556152,0.289551,-249.992355,-64.025879,-21.682737,0.167969,4.876709,-3.288818,-249.992355,174.728378,69.717407
-0.233887,1.488281,0.231934,-249.992355,-107.070915,-34.980774,0.033691,3.831299,-2.702393,-249.992355,98.846428,48.179623
-0.119629,1.408936,0.15918,-245.918259,-138.702393,-53.146358,-0.352051,2.688232,-2.236572,-249.992355,40.90881,23.704527
0.090576,5.732422,-2.398926,-249.992355,11.413573,2.693176,-0.721191,3.050293,0.416748,-249.992355,-145.91217,249.992355
-0.072998,1.451416,0.237793,-231.140121,-171.821579,-90.240471,-0.385498,1.104736,-0.750732,-249.992355,14.289855,-3.242492
-0.068848,1.352539,0.170654,-236.95372,-157.249451,-74.72229,-0.35083,0.875244,-0.6604,-249.992355,28.106688,3.120422
0.872559,2.491211,0.509033,-249.992355,-76.965332,-142.120361,-0.223633,0.910156,-0.70752,-248.779282,55.14526,33.752441
0.716309,2.220703,0.564697,-249.992355,-176.162704,-143.730164,0.011475,1.072754,-0.724854,-249.832138,102.157585,77.964783
0.387451,2.010498,0.542969,-249.992355,-247.146591,-139.091492,-0.442627,1.737305,-1.451172,-249.977097,14.739989,7.453918
0.187988,1.89917,0.52832,-249.992355,-249.992355,-135.787964,-0.133301,1.465576,-0.615479,-249.992355,231.109604,159.286499
0.611816,2.78418,0.371582,-249.992355,29.899595,-127.517693,0.098633,1.280762,-0.755859,-249.992355,169.319138,114.830009
0.024902,1.82373,0.584961,-249.992355,-248.222336,-108.6502,-1.187256,3.279541,0.289795,-249.992355,-70.495605,249.992355
-0.026123,1.645508,0.550049,-245.605453,-228.157028,-90.019218,-1.262695,3.154541,0.180176,-249.992355,-24.383543,249.992355
-0.07666,1.562988,0.436279,-229.179367,-195.533737,-86.410515,-1.281006,2.912842,-0.016357,-249.992355,38.146973,249.992355
0.105713,1.898926,0.554688,-249.992355,-249.092087,-126.54113,-1.444824,2.76123,-0.15918,-249.992355,106.117241,249.992355
-0.778809,0.119141,1.320313,249.992355,-247.772202,72.792053,-0.894775,3.199219,0.2854,-249.992355,-96.443169,249.992355
-0.51416,-1.153564,2.584229,-200.492844,-188.102707,-15.396117,-1.443848,2.534424,-0.205322,-249.992355,228.286728,249.992355
-0.386963,-1.581055,3.544189,-107.429497,-247.634872,-40.046692,-1.14209,2.3125,-0.107422,-249.992355,249.992355,249.992355
0.064453,-1.560303,3.413818,-32.394409,-249.992355,-70.259094,-0.774414,2.000244,-0.009277,-249.992355,249.992355,241.607651
0.047852,-1.581543,2.969727,52.047726,-210.006699,-72.380066,-0.458496,1.679932,-0.168945,-249.992355,249.465927,207.756027
-0.405762,-1.580322,2.743896,197.998032,-175.140366,-97.419731,-1.547363,2.665283,-0.255615,-249.992355,169.92186,249.992355
-0.292725,-0.557617,1.628906,-249.992355,-105.606071,-15.1062,2.23584,-0.064453,2.748291,-211.288437,-198.471054,69.770813
-0.786377,-1.076904,2.291748,249.992355,-180.38176,-66.520691,2.624268,-0.074707,3.350098,-144.020081,-165.801987,20.774839
-0.88208,-0.574219,1.779297,249.992355,-217.330917,10.765075,2.429688,-0.101807,3.350342,-30.769346,-95.5429,10.932921
-0.791992,0.632568,1.230225,249.992355,-249.992355,104.301445,2.103271,-0.182617,3.079102,65.330505,11.497497,-60.348507
0.269531,2.280273,0.864258,249.992355,-249.504074,178.886398,1.707031,0.051025,2.31958,40.344234,131.55365,-104.637138
-0.605713,1.500488,1.001953,249.992355,-249.992355,113.601677,1.650635,0.119141,1.914551,126.335136,230.567917,-150.169373
-0.362061,1.817871,0.858398,249.992355,-249.992355,129.570007,1.599609,0.049072,1.861572,233.619675,249.992355,-206.21489
-0.147705,2.039307,0.749512,249.992355,-249.992355,146.55304,1.364014,0.593994,1.755127,249.992355,218.719467,-246.978745
0.066895,2.188965,0.741699,249.992355,-249.946579,159.553528,0.719727,1.147217,1.072998,249.992355,122.024529,-249.992355
0.453857,2.356934,0.921631,249.992355,-249.992355,193.664536,-0.165771,1.518311,0.334961,249.992355,65.452576,-249.992355
0.426025,2.129639,0.973145,249.992355,-249.992355,198.600754,-0.631592,1.602539,0.420898,249.992355,23.03314,-203.376755
0.328125,1.881348,0.979248,249.992355,-218.742355,201.904282,-1.117676,1.850098,-0.108887,249.992355,23.513792,-249.992355
0.300781,1.735107,0.963379,249.992355,-186.668381,203.773483,-1.266602,1.941895,-0.226563,249.992355,-7.186889,-249.992355
0.344482,1.654297,0.914063,249.992355,-161.193832,206.886276,-1.20459,1.880371,-0.324951,249.992355,-34.896851,-249.992355
-0.093262,-0.114502,1.237061,-249.992355,-47.370907,21.087645,-1.010986,1.879395,-0.337158,249.992355,-46.07391,-249.992355
-0.720703,1.066895,1.119385,249.992355,-249.992355,105.583183,-0.755615,2.002686,-0.266846,249.992355,-34.309387,-249.992355
-0.04834,0.263916,1.074707,-248.908981,-0.236511,59.669491,-0.630127,1.985352,-0.104248,249.992355,-2.89917,-249.992355
0.398438,1.663818,0.838623,249.992355,-135.818481,213.096603,-0.65918,2.01416,0.020264,249.992355,27.732847,-249.587997
-0.056641,1.072754,0.908447,-249.992355,52.436825,71.975708,-0.759277,2.142822,0.033691,249.992355,45.806881,-249.992355
0.231689,2.211914,0.573975,-249.992355,57.624813,83.641045,-0.797607,2.077148,0.086914,249.992355,52.467342,-249.992355
0.039063,2.076904,0.625,-249.992355,2.27356,76.278687,-0.70166,1.816162,0.289307,249.992355,45.69244,-228.500351
0.102051,1.95752,0.587158,-249.992355,-41.389462,61.080929,1.678223,0.075195,1.94458,-249.992355,-194.900497,148.590088
0.167969,1.887939,0.681885,-249.992355,-69.816589,42.045589,-0.740234,1.73584,0.006836,249.992355,43.121334,-249.992355
0.191406,1.780029,0.768311,-249.992355,-86.830132,26.824949,1.225586,0.321045,1.277588,-249.992355,-175.575241,193.725571
0.2146,1.645264,0.684082,-249.992355,-94.108574,15.068053,-1.204346,2.51123,0.016602,-249.992355,84.541313,249.992355
0.234375,1.556885,0.63916,-249.992355,-94.741814,-2.960205,0.431641,0.83252,0.758545,-249.984726,-175.399765,243.37767
0.23584,1.552246,0.608643,-249.992355,-91.567986,-22.033689,-0.677002,1.476807,0.375977,249.992355,-7.041931,-191.696152
0.195068,1.630859,0.561768,-249.992355,-85.601799,-38.43689,-0.685303,1.682617,-0.789795,-249.992355,-249.992355,-92.613213
0.133545,1.734619,0.496338,-249.992355,-83.717339,-49.186703,-0.335693,1.633301,-0.541992,-249.992355,-209.541306,-106.071465
-0.078857,0.649658,0.967041,-249.992355,35.774231,72.311401,-0.174561,1.627686,-0.255859,-249.992355,-113.349907,-99.281303
0.171387,1.73584,0.464111,-249.992355,-80.947868,-51.780697,-0.224609,1.632813,-0.062744,-249.992355,6.866455,-69.046021
0.275146,2.101074,0.549316,-249.992355,-52.787777,-18.203735,-0.35083,1.695068,-0.100586,-249.992355,124.542229,-29.891966
0.201172,2.748779,0.669189,-249.992355,-29.45709,1.434326,-0.583252,1.830566,-0.215576,-249.992355,219.413742,12.145995
0.317383,2.386963,0.561279,-249.992355,-6.240844,4.508972,-0.886719,2.018066,-0.220947,-249.992355,249.832138,54.313656
0.221924,2.001709,0.425781,-249.992355,8.865356,54.222103,-1.211426,2.253174,-0.058105,-249.992355,249.092087,100.913994
0.117676,2.008545,0.248291,-249.992355,42.617794,114.868156,-1.298096,2.372559,0.159668,-249.992355,249.992355,165.847763
0.205322,2.193115,0.416748,-249.992355,71.632385,106.575005,-0.947021,2.332764,0.363525,-249.992355,247.825607,229.667648
0.084717,2.128174,0.634277,-249.992355,70.94574,81.977837,-0.717285,2.255127,0.423828,-249.992355,184.318527,249.992355
-0.14917,2.155029,0.719971,-249.992355,59.516903,95.153801,-0.926514,2.324707,0.200684,-249.992355,125.366203,249.992355
-0.103271,1.79541,0.868652,-249.992355,52.177425,96.794121,-1.400146,2.655029,0.072021,-249.992355,50.209042,249.992355
-0.05835,1.503174,0.913574,-249.977097,52.345272,84.869377,-1.404785,2.785645,0.147705,-249.992355,7.820129,249.992355
0.25293,1.684082,0.466064,-249.992355,-68.946838,-42.030331,-1.47876,2.886963,0.318115,-249.992355,-35.057068,249.992355
0.425293,1.681641,0.796631,249.984726,-106.048576,225.570663,-1.571045,2.884277,0.532715,-249.992355,-67.382813,249.992355
0.468262,1.674561,0.740234,249.977097,-72.517395,237.892136,-1.383057,2.79248,0.789063,-249.992355,-116.134636,249.992355
0.498291,1.643555,0.680664,249.992355,-35.766602,241.691574,-1.066162,2.62793,1.037354,-249.992355,-202.438339,249.992355
1.822754,3.095215,-0.620361,-249.992355,-7.17163,-234.497055,-0.770264,2.402832,1.076904,-249.992355,-248.062119,249.992355
1.544678,2.466553,-0.07959,-249.992355,80.856316,-216.346725,-0.215088,2.099854,0.92041,-249.992355,-249.992355,249.816879
1.162354,1.974854,0.280762,-249.992355,179.206833,-161.697372,0.171631,1.564697,0.719727,-249.984726,-249.992355,249.992355
0.74292,1.655762,0.513672,-249.992355,243.797287,-105.522148,0.30249,1.142578,0.727539,-249.992355,-217.185959,249.992355
0.237793,1.548584,0.57251,-249.992355,249.992355,-79.124451,0.744629,0.570313,0.888916,-249.282822,-161.415085,220.588669
0.009277,1.653564,0.546387,-249.992355,225.730881,-80.078125,-0.742432,1.366211,0.264893,249.992355,-36.895752,-187.17955
0.027588,1.704346,0.540283,-249.992355,154.067993,-96.412651,-0.833008,3.080078,-0.253174,249.008163,-134.750366,-59.783932
-0.087402,1.592773,0.563477,-249.992355,101.852409,-101.081841,-0.69458,1.161133,0.085205,249.992355,-68.92395,-162.506088
-0.082275,1.45752,0.517334,-249.992355,74.104309,-91.148369,-1.335449,1.790527,-1.304932,-249.992355,-9.803772,92.559807
0.089355,1.468262,0.402344,-249.992355,60.729977,-89.263908,-1.261475,1.239014,-0.638916,-249.992355,-74.478149,60.623165
1.734375,3.360596,-1.036865,-249.992355,-73.524475,-230.239853,-0.890381,0.969971,-0.180664,-249.992355,-92.407219,29.006956
0.085693,1.619141,0.416504,-249.992355,57.067867,-96.855156,-0.486084,1.054199,0.141602,-249.992355,-52.474972,31.463621
0.025146,1.637939,0.641846,-249.992355,9.902954,-106.285088,-0.114014,1.30249,0.020508,-249.992355,15.693664,67.016602
0.107422,1.652588,0.679932,-249.992355,-8.94165,-90.034477,-0.044922,1.518066,-0.305664,-249.992355,90.049736,119.621269
0.353271,2.361572,0.702393,-249.992355,19.15741,-77.362061,-0.342773,1.676025,-0.250244,-249.992355,157.775879,174.278244
0.461426,2.762939,0.733154,-249.992355,115.592949,-67.634583,-0.755859,1.876465,-0.039063,-249.992355,206.611618,230.91124
0.633545,2.099121,0.584961,-249.992355,221.282944,-35.118103,-0.910156,2.163818,0.158203,-249.992355,229.553207,249.992355
0.47583,2.197266,0.307617,-249.992355,249.992355,6.179809,-0.743652,1.255615,0.146484,249.992355,-59.066769,-177.711472
0.384277,2.182373,0.258057,-249.992355,249.992355,17.791748,-1.131104,2.202148,-1.880371,-249.992355,80.223083,113.510124
0.126465,2.025635,0.164795,-249.992355,249.992355,26.542662,-1.128662,2.574707,0.348389,-249.992355,222.557053,249.992355
-0.013428,2.064453,0.203857,-249.992355,249.55748,4.753113,-1.594971,2.682617,0.452881,-249.992355,112.007133,249.992355
-0.190918,2.139893,0.35791,-249.992355,249.992355,7.667541,-1.751221,2.922607,0.359863,-249.992355,-7.011413,249.992355
0.02417,1.693848,0.55127,-249.992355,39.924622,-103.86657,-1.788574,3.198486,0.267822,-249.992355,-147.323608,249.992355
1.308838,3.193115,-1.43457,-249.992355,-115.936272,-219.032272,-1.608887,3.286133,0.37793,-249.992355,-239.47905,249.992355
-0.350342,2.333252,0.473389,-249.992355,249.992355,20.942686,-1.218994,3.354492,0.393066,-249.992355,-249.992355,249.992355
1.535645,4.269531,-3.163818,-249.992355,-132.461548,-144.950867,-0.915039,3.522949,0.505859,-249.992355,-249.992355,249.992355
0.503906,1.585938,0.665283,249.671921,-2.27356,237.71666,-0.874023,3.463379,0.754395,-249.992355,-249.992355,249.992355
0.527344,1.537109,0.617432,247.802719,23.086546,230.1483,-1.070557,3.087402,0.973877,-249.992355,-249.992355,249.992355
0.55957,1.519775,0.483154,247.650131,43.388363,218.986496,-1.061768,2.907959,1.077148,-249.992355,-249.992355,249.992355
0.591064,1.460693,0.359619,248.733505,58.090206,205.352768,-0.76123,2.893311,0.812744,-249.992355,-249.992355,249.992355
0.578857,1.397461,0.27832,249.961838,69.221497,195.953354,-1.363281,2.608643,0.469238,-249.992355,188.461288,249.992355
0.550293,1.406006,0.191895,249.984726,80.276489,190.246567,-1.103271,2.389893,-2.481201,-249.992355,183.952316,129.226685
1.168945,3.443604,-2.145752,-249.992355,-134.674072,-189.430222,-0.95166,2.418945,0.231689,-249.992355,232.681259,249.992355
0.583496,1.598145,0.021484,249.992355,95.245354,154.808044,-0.695313,3.814209,-4.2146,-249.992355,249.992355,186.744675
0.654053,1.771484,0.018555,249.641403,111.770622,146.034241,-1.204102,2.849609,-3.245361,-249.992355,249.992355,146.209717
0.690186,2.038818,0.021729,246.696457,138.931274,145.324707,-0.691406,1.125977,0.053955,249.992355,-69.259644,-144.134521
0.557617,2.258057,-0.007813,249.290451,160.675034,140.075684,-0.678467,1.15918,-0.022705,249.992355,-71.212769,-123.863213
0.567139,1.500244,0.070068,249.954208,87.882988,175.704941,-0.65918,1.272461,-0.111328,249.992355,-79.50592,-105.270378
0.62207,2.820801,-0.292236,249.992355,117.248528,126.205437,-0.651123,1.431152,-0.246826,249.992355,-92.430107,-85.823051
0.509277,3.645264,-0.31958,249.992355,56.617733,104.820244,-0.604736,1.555908,-0.385254,249.992355,-102.294914,-63.018795
0.216553,4.428711,-0.398193,248.725876,-22.254942,79.696655,-0.501465,1.615723,-0.332031,249.992355,-96.42028,-36.209106
0.357666,4.725098,-0.423584,249.855026,-83.145134,66.635132,-0.46582,1.811279,-0.114502,249.93132,-82.405083,-15.853881
1.2229,5.041016,-0.640381,249.992355,-53.771969,91.720573,-0.630371,2.046143,-0.169678,249.992355,-86.929314,-21.331785
1.636475,4.989746,-1.355469,204.658493,59.883114,146.30127,-0.696777,2.344971,-0.279297,249.603256,-93.360893,-30.334471
2.051758,5.44751,-2.352783,67.634583,117.286674,107.13958,-0.768799,2.699707,-0.272705,245.376572,-109.901421,-42.854305
2.3396,6.594238,-4.027832,18.035889,59.730526,-31.143187,-0.389893,1.678711,-0.191162,249.977097,-85.060112,-18.15033
1.882568,7.072266,-5.789063,-99.235527,-55.465694,-89.431755,-0.688477,3.464844,-0.364014,249.992355,-151.344299,-73.852539
1.76709,5.713623,-4.821289,-235.32103,-111.503593,-103.454582,1.20874,7.252441,-4.667725,-200.477585,249.05394,210.693344
0.515381,2.464844,-0.170166,249.969467,155.029297,134.880066,1.181641,6.619629,-3.215576,91.178886,142.089844,49.758907
-0.05127,2.858643,0.599365,-249.992355,90.270988,-117.462151,0.682617,4.123291,-1.515869,249.992355,-77.682495,-53.924557
0.058594,2.738525,0.637451,-249.992355,58.700558,-120.971672,0.388184,3.147949,-0.552246,249.992355,-188.156113,-103.294365
0.045898,2.036865,0.527344,-249.992355,23.460386,-120.36895,0.661865,5.604004,-4.952881,-249.992355,248.687729,236.038193
0.042236,1.691406,0.499023,-249.992355,6.622314,-129.341125,-0.69873,4.275879,-0.4375,249.992355,-165.00853,-103.248589
0.003174,1.708984,0.65918,-249.992355,-95.588676,-124.793999,-0.69751,4.179688,-0.438232,249.992355,-151.832581,-101.394646
0.016113,1.529297,0.626709,-249.992355,-19.714355,-133.346558,-0.472412,3.838623,-0.473145,249.916061,-155.609131,-91.903679
0.045166,1.474121,0.725586,-249.992355,-42.816158,-131.607056,0.066406,3.77124,-0.495361,246.192917,-197.219833,-115.638725
0.043457,1.544434,0.756104,-249.992355,-69.602966,-127.395622,-1.046387,3.029297,0.077393,-249.992355,42.510983,249.992355
0.021484,1.597412,0.5354,-249.992355,-3.982544,-133.06427,-0.264893,1.668213,0.117188,-249.992355,-16.677856,72.822571
-0.319336,2.69165,0.461182,-249.992355,91.873161,-107.162468,-0.405762,1.739502,0.129639,-249.992355,32.936096,85.647575
-0.438721,-1.428711,2.0896,-178.321823,49.987789,-77.575684,-0.554199,1.964844,0.189209,-249.992355,75.935364,98.968498
0.001953,2.1604,0.466797,-249.992355,95.16906,-93.048088,-0.577637,2.263428,0.165283,-249.992355,107.170097,123.046867
0.118408,2.264648,0.698486,-249.992355,136.894226,-80.665581,-0.555176,2.498047,0.108398,-249.992355,128.082275,158.836365
0.078125,2.768555,0.810791,-249.992355,171.226486,-56.556698,-0.511475,2.666748,0.048828,-249.992355,138.48877,193.222031
-0.18457,2.56665,0.89209,-249.992355,174.209579,-22.521971,-0.550781,2.766846,0.128906,-249.992355,142.295837,221.572861
-0.269775,1.875488,1.088867,-249.977097,141.38031,12.397765,-0.692627,2.820313,0.215332,-249.992355,129.676819,244.964584
-0.209229,1.249023,1.280273,-249.992355,98.617546,22.018431,-0.89502,2.891846,0.12085,-249.992355,95.451347,249.992355
-0.195068,0.644287,1.304443,-249.93132,66.604614,17.662048,-1.097656,2.968262,0.114258,-249.992355,-26.863096,249.992355
-0.233643,0.080322,1.402344,-248.702988,55.534359,5.943298,2.012207,-0.38623,2.665039,-244.857773,-154.037476,188.796982
-0.292236,-0.525635,1.573975,-249.992355,59.776302,-25.794981,-0.869873,3.141846,0.543945,-249.992355,-108.909599,249.992355
-0.352295,-1.113281,1.864014,-249.992355,67.741394,-66.215515,-0.611816,3.125732,0.944092,-249.992355,-105.270378,249.992355
0.003662,1.662354,0.493408,-249.992355,-120.292656,-121.086113,-0.349365,2.582031,1.136963,-249.992355,-114.898674,249.992355
-0.299072,2.338379,0.458252,-249.992355,79.162598,-90.156548,-0.284424,1.77832,1.150391,-249.992355,-138.496399,249.740585
0.017822,1.490723,0.481201,-249.992355,-141.441345,-111.694328,-0.06958,1.077881,1.356201,-249.992355,-154.693604,249.992355
0.582031,7.235596,-6.177002,-249.992355,73.814392,-33.52356,0.140625,0.619141,1.276367,-249.992355,-168.960556,249.992355
-0.071777,1.571045,0.719238,-249.992355,-171.867355,-90.621941,0.499512,0.325195,1.318848,-249.755844,-173.110947,239.181503
-0.503418,-1.525391,2.310791,-117.492668,-9.300232,-65.490723,1.049072,0.097656,1.565186,-249.130234,-170.738205,214.584335
-0.190186,1.815186,0.131348,210.655197,77.835083,38.772583,1.656006,-0.137695,1.951172,-249.992355,-162.033066,198.90593
0.443359,2.078369,0.247314,222.991928,-9.117126,32.76825,-0.253174,1.604248,0.183838,-249.992355,-57.624813,46.020504
0.929932,2.48584,0.084961,248.702988,-16.532898,55.221554,-1.05249,2.868408,0.258301,-249.992355,-86.776726,249.992355
0.956299,3.026855,0.0354,249.984726,34.866333,58.662411,-0.266357,1.474365,0.200684,-249.992355,-77.514648,19.294739
0.367188,3.672607,0.223633,249.923691,127.479546,61.813351,2.127197,-0.871582,3.456787,-160.430908,-139.503479,128.791809
-0.078613,4.640869,0.623291,249.992355,125.122063,90.62957,-0.391846,1.364746,0.124512,-249.992355,-53.909298,6.431579
0.001953,5.031006,0.572998,249.80162,91.979973,142.326355,-0.593262,1.52832,-0.323242,249.992355,-133.834839,-4.753113
0.491943,4.947998,0.559814,245.429977,141.059875,180.50383,-0.719482,1.856445,-0.32373,249.992355,-159.591675,-22.315977
0.683105,4.749268,-0.036377,249.992355,147.338867,108.604424,-0.820557,2.228027,-0.343506,249.992355,-202.232346,-43.609615
-0.008545,1.451904,0.578125,-249.992355,-160.140991,-100.173943,-0.85376,2.677246,-0.402344,249.992355,-243.034348,-63.995358
-0.432617,4.963135,-1.10791,249.992355,43.029781,-4.40979,-0.793213,3.317383,-0.4021,249.992355,-249.710068,-82.916252
2.407471,7.999756,-4.785889,-237.991318,-24.681089,-223.670944,-0.668945,4.032959,-0.314941,249.969467,-249.664291,-87.783806
0.101807,4.86377,-2.92334,-249.992355,152.633667,38.154602,-0.467285,4.367188,-0.207275,249.93132,-249.992355,-91.217033
0.123779,4.107178,-0.943604,-249.992355,142.14325,71.937561,-0.333984,4.45752,-0.336426,249.992355,-240.959152,-94.566338
0.009033,3.595215,-0.140869,-249.992355,89.271538,91.575615,-0.019531,4.395996,-0.400146,249.206528,-189.743027,-79.589844
-0.230713,3.013916,0.256592,-249.992355,18.165588,91.964714,0.337158,3.930176,-0.507813,244.949326,-123.802177,-40.466305
-0.15332,2.669922,0.151855,-249.992355,-55.046078,68.855286,0.584717,3.699463,-0.992676,249.992355,-40.817257,-0.320435
-0.002197,2.585938,0.134521,-249.992355,-104.61425,20.13397,0.962158,4.850098,-1.88208,243.072495,45.639034,23.590086
-0.092285,2.503662,0.329834,-249.992355,-124.771111,-26.535032,1.08252,6.589844,-3.813232,-84.365837,156.257629,52.024837
-0.127441,2.263916,0.685303,-249.992355,-147.003174,-63.308712,1.100586,6.030762,-5.087891,-243.926987,239.021286,86.700432
-0.125244,1.86499,0.890137,-249.992355,-168.090805,-81.565849,0.392578,4.903564,-4.665771,-249.992355,248.725876,92.163078
0.089111,7.281006,-1.766113,-7.965087,-71.556091,-98.800652,0.088867,4.13208,-3.513184,-249.992355,249.992355,85.876457
-0.15332,-1.872803,2.620605,-61.561581,-92.582695,-77.949524,-0.099121,3.57666,-2.424316,-249.992355,232.505783,68.717957
-0.057129,1.956543,0.226074,200.027451,24.131773,25.260923,-0.273438,3.240479,-1.751221,-249.992355,191.993698,48.248287
0.162109,-2.44043,2.320557,235.916122,-148.010254,-78.468323,-0.648193,2.82666,-1.501709,-249.992355,144.500732,47.45483
0.112793,1.219482,-0.34668,192.72612,49.46899,-42.785641,-0.870361,2.240234,-0.923584,-249.992355,94.795219,59.631344
0.148682,1.255859,-0.426758,197.120651,27.94647,-53.283688,-0.728027,1.745361,-0.114258,-249.992355,39.962769,45.646664
0.248291,1.37207,-0.437256,202.255234,14.434813,-60.119625,-0.624756,1.52124,0.117676,-249.992355,-6.050109,25.741575
0.386475,1.447021,-0.412354,223.945602,28.755186,-66.490173,-0.50708,1.429688,0.081299,-249.992355,-34.698486,15.602111
0.585693,1.502686,-0.477539,248.565659,98.82354,-69.885254,-0.32373,1.374512,0.179688,-249.992355,-71.258545,6.271362
0.791504,1.712402,-0.530273,249.992355,211.616501,-65.544128,2.181641,-1.619629,4.004639,5.424499,-109.359734,4.394531
0.796143,2.197754,-0.568115,249.992355,249.992355,-51.300045,-0.82959,1.810303,-0.85791,-249.992355,-249.992355,-83.511345
0.425293,2.811279,-0.695801,249.977097,248.710617,-57.197567,1.732422,-1.349609,3.575439,249.992355,109.207146,-89.508049
-0.230713,3.397705,-0.7771,249.893173,248.634323,-94.123833,-0.970215,0.977539,-0.436279,242.263779,130.081177,7.8125
-0.76123,4.178711,-0.892578,249.992355,249.992355,-120.880119,-1.130859,1.032959,-0.53833,235.130295,92.338554,10.627746
0.172119,1.291016,-0.226563,193.98497,69.892883,-24.009703,-1.229736,1.138672,-0.636475,224.937424,28.053282,33.546448
-1.268311,5.208984,-1.153809,249.740585,209.259018,-124.938957,-1.279541,1.303223,-0.707031,207.984909,-68.824768,63.240047
-2.077393,4.506104,-0.805908,249.992355,-184.570297,-202.148422,-1.359131,1.514404,-0.718506,194.168076,-192.802414,79.017639
-2.842773,4.742432,-2.383789,249.992355,-247.169479,-249.992355,-1.437988,1.740479,-0.750732,194.091782,-249.420151,82.138054
-2.029541,7.758057,-6.677734,-86.738579,-249.992355,-143.287659,-1.465332,1.971191,-0.808594,211.738571,-249.992355,85.418694
0.013184,7.999756,-7.999756,-210.517868,-247.29155,3.768921,-1.226807,2.33374,-0.813232,241.516098,-249.992355,85.731499
-0.121582,5.782471,-6.604248,-216.934189,-76.141357,38.475037,-0.886475,2.724365,-0.95874,249.992355,-249.336227,103.60717
0.032959,4.403076,-2.63501,-249.580368,3.784179,81.016533,-0.519775,3.097412,-1.232422,249.954208,-248.893723,150.642395
0.365479,4.260986,-1.016846,-249.992355,28.167723,111.312859,-0.811768,0.974609,-0.343262,248.817429,136.566162,17.181396
0.493164,4.322998,-0.194336,-249.992355,55.221554,111.80114,0.053223,3.851563,-1.29834,249.908432,-249.992355,141.540527
0.244873,3.94873,0.101807,-249.992355,98.129265,101.760857,0.541016,3.783203,-1.703613,248.847946,-101.34124,84.793083
0.180664,3.264404,0.411865,-249.992355,125.625603,93.482964,1.462158,2.798096,-2.091553,243.194565,61.027523,48.744198
-1.578369,5.532227,-1.036621,243.63707,-4.28009,-120.178215,1.676514,2.946289,-1.832275,249.992355,221.992477,74.546814
0.244385,1.414307,-0.099121,208.72496,87.295525,3.738403,2.07666,5.778076,-2.202148,237.701401,249.511703,135.444641
0.364014,2.562256,0.527588,-249.992355,107.986443,84.785454,1.854248,7.956543,-5.66333,-173.179611,247.436508,56.106564
0.191895,1.619385,0.089844,249.992355,132.041931,62.553402,-1.000244,6.323486,-7.999756,-249.992355,249.992355,46.501156
0.23291,1.538574,0.006104,233.962997,107.322685,34.492493,-1.972656,4.26001,-6.356934,-249.992355,243.347153,-8.728027
