ax,ay,az,gx,gy,gz,ax,ay,az,gx,gy,gz
-0.782471,1.971924,-0.600586,228.126511,117.927544,191.955551,3.25708,-4.603516,0.115967,1.312256,-163.513168,-244.171127
-0.72998,1.882813,-0.564941,228.919968,87.501518,209.793076,3.499023,-4.942383,-0.131836,4.707336,-118.247978,-237.33519
-0.706299,1.843018,-0.48999,229.347214,61.202999,228.408798,3.285156,-4.481445,-0.455811,-6.92749,-111.618034,-227.149948
-0.693359,1.833984,-0.477783,230.171188,40.664669,245.719894,1.8125,-2.759033,0.087402,86.364738,-138.99231,249.992355
-0.706299,1.832275,-0.493896,230.712875,27.542112,249.992355,2.336182,-3.46875,-0.26416,124.923698,-89.912407,249.992355
-0.770752,1.845215,-0.522461,229.614243,14.457702,249.992355,2.58667,-4.208008,-0.359619,179.557785,2.922058,249.992355
-0.882324,1.922363,-0.571777,219.749435,-11.45172,249.992355,2.625488,-4.632813,-0.095459,231.468185,102.012627,249.992355
-0.984619,2.011475,-0.615234,204.742416,-49.171444,249.992355,2.493164,-4.543701,0.366211,249.992355,163.711533,249.992355
-1.028076,2.085938,-0.653076,199.272141,-84.518425,249.992355,2.272949,-3.825684,0.886719,245.857224,150.016785,249.992355
-0.974121,1.878174,-0.624756,222.259506,191.780075,164.741501,2.094482,-3.089844,1.098389,192.085251,85.510246,249.992355
-1.011963,2.239502,-0.651367,196.899399,-112.236015,249.992355,1.99585,-2.916016,0.885254,171.394333,68.115234,249.992355
-1.006348,2.624268,-0.601807,194.885239,-136.581421,249.992355,1.679199,-2.846924,0.545898,152.633667,117.042534,249.992355
-0.967285,2.85791,-0.601318,184.257492,-124.809258,249.992355,0.642334,-1.807617,0.388428,42.976376,182.044968,249.992355
-1.004639,3.01123,-0.642578,173.263535,-109.207146,249.992355,1.356689,-2.411377,0.347656,82.260124,-107.017509,249.992355
-1.019043,3.065918,-0.730469,161.071762,-111.640923,249.992355,0.130859,-1.401123,0.293701,-0.228882,201.820358,249.992355
-0.976563,3.226318,-0.72998,156.517029,-119.895927,249.992355,-0.659912,-0.584717,0.158203,-22.460936,244.117722,249.992355
-0.939209,3.468994,-0.617432,117.980949,-125.671379,249.992355,-1.040527,-0.071533,0.208984,-17.524719,249.992355,249.992355
-0.747559,3.448242,-0.506348,78.460693,-121.37603,249.992355,-1.457764,0.253906,0.40918,-16.601563,249.992355,249.992355
-0.59082,3.432129,-0.474365,61.523434,-106.315605,249.992355,-1.760742,0.128662,0.682861,-17.608643,249.443039,249.992355
-0.332764,3.498779,-0.515137,45.501705,-74.798584,249.992355,-1.966553,-0.22168,0.935547,-17.417908,249.992355,249.992355
-0.215088,3.101074,-0.558838,30.426023,-45.738216,249.992355,-2.197021,-0.524658,1.12793,-16.914368,249.992355,249.992355
-0.990479,2.439453,-0.616455,194.534286,-130.241394,249.992355,-2.25708,-0.787842,1.157227,-11.116027,223.648056,249.992355
-1.071289,1.814941,-0.571289,212.234482,234.428391,157.196045,-2.061768,-0.94165,1.082031,-8.979797,186.225876,249.992355
-0.313477,2.417236,-0.529785,35.919189,-39.176941,249.992355,-1.938721,-0.968994,0.96167,-14.640807,165.367111,249.778732
-1.47168,1.630859,-0.262207,191.963181,249.992355,149.452209,-2.009766,-0.899902,0.798828,-17.39502,151.260376,249.137863
-1.825439,1.641846,-0.889404,-59.18121,45.867916,-249.992355,-0.296143,-1.041992,0.195801,-18.371582,220.436081,249.992355
-2.006348,1.372803,-0.910156,-60.508724,3.326416,-249.992355,1.151611,-2.150391,0.407471,96.565239,-12.176513,249.992355
-2.23584,1.374268,-0.826904,-49.285885,-74.59259,-249.984726,1.150879,-2.374512,0.439941,100.814812,159.538269,249.992355
-2.674561,1.571777,-0.465332,-34.355164,-176.940903,-249.992355,1.107178,-1.66626,0.280029,120.674126,144.515991,249.992355
-3.137695,1.61792,-0.346191,5.310058,-246.124252,-249.870285,1.090088,-1.859863,0.329102,110.565178,83.396904,249.992355
-3.445557,1.710449,-0.222656,67.497253,-249.992355,-249.18364,2.86792,-4.550049,-0.773682,32.730103,-88.569633,-179.534897
-1.217529,1.725098,-0.430908,203.475937,249.992355,153.625488,3.145996,-4.703613,-0.865723,16.387939,-14.808654,-197.364792
-3.098633,2.698242,0.459717,185.501083,-249.992355,-248.764023,2.15918,-3.637695,-0.555176,7.56073,-132.797241,-199.66124
-3.109619,3.301514,0.892822,222.534164,-249.992355,-192.932114,0.982178,-2.955322,-0.682617,62.797543,-247.833237,-73.387146
-3.436523,3.780273,1.173584,241.584763,-198.448166,-130.378723,3.652832,-1.569092,-2.085938,91.125481,-249.992355,33.988953
-3.981201,4.218262,1.359863,235.94664,-121.734612,-77.308655,6.552979,-0.391846,-3.16748,131.309509,-212.043747,76.431274
-3.327393,2.088623,0.052979,131.454468,-248.825058,-249.992355,4.224121,0.427246,-2.284668,140.24353,-9.803772,147.918701
-4.198242,4.547363,1.28125,189.903244,3.860473,41.084286,2.820557,0.663086,-1.35498,145.881653,22.094725,217.666611
-4.536865,4.427246,1.056396,125.66375,92.819206,94.268791,2.437256,0.335205,-0.80127,150.588989,14.266967,247.825607
-4.55542,4.187744,0.761475,81.30645,146.194458,127.082817,2.316406,-0.267822,-0.392822,150.787354,8.911133,249.992355
-4.221191,4.074219,0.398438,68.412781,194.11467,160.934433,2.87793,-3.75415,-0.616943,-16.00647,-143.531799,-197.486862
-3.899658,4.260254,0.009033,75.012207,238.990768,175.20903,1.865234,-1.009033,0.076416,135.543823,-32.875061,249.992355
-3.4729,3.85791,-0.294189,106.521599,249.992355,169.906601,2.088135,-0.730225,-0.166992,144.935608,-9.757996,249.992355
-2.921631,2.604492,-0.388916,141.441345,249.992355,170.860275,1.495605,-1.611328,0.021729,134.742737,173.362717,249.992355
-2.475586,1.683105,-0.213379,160.415649,249.992355,167.137131,1.680664,-1.584473,-0.010254,131.256104,132.408142,249.992355
-2.17334,1.450928,0.001221,166.114792,249.992355,154.876709,1.76123,-1.689209,0.122803,132.118225,83.610527,249.992355
-1.827637,1.515625,-0.038574,177.894577,249.603256,147.575378,1.809082,-1.815674,0.237793,132.514954,48.072811,249.992355
-4.227539,4.5354,1.401611,225.48674,-75.6073,-27.809141,1.240967,-1.603271,0.179932,130.4245,175.353989,249.992355
1.056152,0.811279,-0.491699,-91.072075,-128.036499,-249.992355,1.934082,-1.641846,0.270264,128.547668,4.302979,249.992355
1.789795,0.442627,-0.355957,-90.774529,-100.311272,-249.992355,1.85083,-1.484375,0.308838,129.699707,-19.111633,249.992355
2.160156,0.271729,-0.441162,-101.448051,-94.192497,-243.293747,1.802734,-1.247559,0.285889,129.226685,-36.79657,249.992355
2.787598,0.760986,-0.821777,-103.713982,-114.227287,-177.024826,1.907715,-1.778809,0.278076,129.333496,24.322508,249.992355
4.598145,1.511475,0.00708,103.652946,52.467342,218.788132,2.12085,-3.09668,0.734619,-39.299011,-249.992355,-249.992355
3.965088,1.672363,-0.912354,-46.57745,8.041382,-19.104004,0.947266,-1.830078,0.559326,-201.850876,-249.992355,-249.992355
4.359863,1.438477,-0.70874,2.342224,63.407894,47.5769,1.245605,-1.996094,0.468262,-199.501022,-249.992355,-249.992355
4.572266,1.571045,-0.358398,43.197628,70.861816,140.792847,1.470215,-2.196533,0.479248,-189.735397,-249.992355,-249.992355
3.480225,1.551758,-0.945313,-90.644829,-79.536438,-82.18383,1.65918,-2.380615,0.483154,-174.354538,-249.992355,-249.992355
0.421631,1.124756,-0.588379,-116.447441,-164.87883,-249.992355,1.787354,-2.50293,0.480713,-157.226563,-249.992355,-249.992355
-1.492188,1.904541,-0.978027,-23.742674,-249.992355,-249.992355,1.906982,-2.612549,0.536377,-135.780334,-249.992355,-249.992355
-0.495361,1.16333,-0.644531,-149.82605,-249.649033,-249.992355,0.432617,-1.713135,0.83252,-196.403488,-249.992355,-249.992355
-1.026123,1.260742,-0.64624,-143.287659,-249.992355,-249.992355,1.979004,-2.7771,0.611816,-107.963554,-249.992355,-249.992355
-1.369141,1.333984,-0.694336,-129.837036,-249.992355,-249.992355,2.036865,-2.986572,0.652588,-74.371338,-249.992355,-249.992355
-1.478516,1.392334,-0.703125,-112.419121,-249.992355,-249.992355,2.126709,-3.087646,0.814209,-8.056641,-249.992355,-249.992355
-1.499756,1.491455,-0.700928,-93.811028,-249.992355,-249.992355,1.622314,-2.558105,0.658691,42.480465,-249.992355,-249.992355
-1.501953,1.564209,-0.73584,-75.798035,-249.992355,-249.992355,1.958496,-2.769531,0.872314,19.851685,-249.992355,-249.992355
-1.469971,1.609375,-0.769287,-58.013912,-249.992355,-249.992355,1.757813,-2.664063,0.832764,26.725767,-249.984726,-249.992355
-1.409668,1.686768,-0.780762,-44.929501,-249.992355,-249.992355,1.663086,-2.61084,0.769043,34.172058,-249.374374,-249.992355
-1.404053,1.775391,-0.79541,-36.056519,-249.992355,-249.992355,1.592773,-2.487793,0.537842,51.322933,-249.992355,-249.992355
-1.469238,1.860596,-0.87085,-28.442381,-249.992355,-249.992355,1.538574,-2.359619,0.434326,54.916378,-215.614304,-249.992355
4.537842,1.459961,0.306641,165.046677,25.856016,249.992355,1.4729,-2.131348,0.354004,50.025936,-161.758408,-249.992355
0.040771,1.161133,-0.608887,-141.624451,-221.19902,-249.992355,1.470947,-1.832764,0.306396,39.176941,-105.285637,-249.992355
4.097656,1.468262,0.418945,209.693893,-19.920349,249.992355,1.498047,-1.47583,0.279541,24.894712,-49.308773,-249.992355
-1.49707,3.203613,-0.678955,102.966301,249.992355,249.992355,1.52832,-1.096436,0.275879,4.226685,3.486633,-249.992355
2.01123,1.662109,0.081543,249.992355,-144.851685,249.992355,-0.245605,-1.626221,1.287109,-185.821518,-249.992355,-249.992355
-1.437744,1.869385,-1.043945,-18.379211,-249.992355,-249.992355,2.088623,-2.936523,0.849854,11.314391,-249.992355,-249.992355
-1.090332,2.133301,-0.714844,170.562729,-95.321648,249.992355,-0.785645,-1.453369,1.343262,-174.743637,-248.138412,-249.992355
-1.085449,2.21582,-0.806641,148.841858,-113.945,249.992355,1.494629,-3.495361,0.178223,211.891159,237.129196,249.992355
-1.170166,2.343994,-0.84668,122.276299,-137.931824,249.992355,-0.97998,-0.980957,1.147217,-127.204887,-229.820236,-243.50737
-1.127686,2.516602,-0.854004,93.826286,-143.211365,249.992355,1.506836,-0.849121,0.331787,-20.828245,44.677731,-249.992355
-1.004639,2.723877,-0.836426,68.183899,-112.586967,249.992355,1.371826,-3.524414,0.33667,242.744431,245.52153,249.992355
-0.904053,2.949707,-0.806396,47.180172,-50.903316,249.992355,1.095703,-3.462158,0.427734,249.992355,249.992355,249.992355
-0.876709,3.130371,-0.791992,30.014036,28.57971,249.992355,0.71167,-3.031982,0.435791,249.992355,249.702438,249.992355
-0.855469,3.194092,-0.852295,23.773191,116.256706,249.992355,0.558838,-2.393311,0.588623,249.992355,249.992355,249.992355
-0.866211,3.20166,-0.922363,28.282164,201.126083,249.992355,0.566895,-1.866211,0.752686,249.992355,249.992355,249.992355
3.205811,1.484863,0.294189,236.183151,-86.868279,249.282822,0.352539,-1.522705,0.768066,249.992355,237.236008,249.984726
-0.977051,3.192383,-0.95874,40.992733,247.146591,249.992355,-0.0979,-1.304932,0.701172,249.992355,204.658493,249.992355
-1.294434,3.134277,-0.78125,91.186516,249.984726,249.992355,-0.618896,-1.189697,0.600342,249.740585,161.880478,249.992355
-1.445557,3.21167,-0.655518,123.306267,249.992355,249.992355,-1.206543,-0.990967,0.602783,249.992355,110.443108,249.55748
-1.298096,2.958496,-0.567871,163.848862,249.397263,249.992355,-1.847412,-0.58667,0.757568,249.992355,66.558838,249.641403
-1.142578,2.666504,-0.50708,190.734848,248.985275,249.992355,-2.502686,-0.180908,0.983643,238.861069,54.328915,249.992355
-1.104248,2.304443,-0.522705,237.342819,249.992355,249.992355,-3.185303,0.023926,1.280273,220.527634,72.570801,235.702499
-1.394043,2.179688,-0.638672,249.992355,232.528671,249.992355,-3.908203,0.013672,1.68335,206.245407,95.184319,166.633591
-1.476318,2.091064,-0.650635,249.992355,107.971184,249.992355,-4.480469,-0.125244,2.170166,176.002487,108.02459,109.458916
-1.089355,1.989502,-0.531006,249.977097,-20.294188,249.992355,-4.671631,-0.469971,2.754883,131.645203,112.335197,76.202393
-0.286865,1.960449,-0.371094,249.786362,-112.525932,249.984726,-4.695068,-0.880859,3.270752,91.087334,52.513119,67.169189
0.775635,1.835205,-0.165527,249.992355,-156.829834,249.992355,-4.611328,-1.204346,3.547852,50.308224,-113.731377,91.064445
-1.150146,3.159668,-0.927979,64.933777,249.992355,249.992355,-4.280273,-1.426025,3.485107,5.317688,-241.317734,74.325562
-1.409912,1.892578,-1.092773,-11.772155,-249.992355,-249.992355,-3.532471,-1.34668,3.024414,-43.708797,-249.984726,-8.987427
-1.477539,1.947754,-1.153809,-0.480652,-249.992355,-249.992355,-2.319336,-1.026855,2.251953,-79.956055,-249.610886,-78.933716
-1.576172,1.982422,-1.159424,17.616272,-249.992355,-249.992355,-1.395996,-0.762451,1.427246,-87.203972,-249.992355,-122.550957
-2.153564,3.693604,-0.685547,191.154465,249.992355,167.671188,-1.042236,-0.782959,0.948486,-99.96032,-249.992355,-187.370285
-1.868408,3.025391,-0.504395,213.851913,249.992355,152.786255,-0.879639,-1.212891,1.150146,-155.670166,-230.209335,-249.992355
-1.616211,2.595703,-0.383057,218.18541,221.95433,156.570435,1.431641,-0.790039,0.345459,-40.718075,62.561031,-249.992355
-1.434326,2.3396,-0.348633,208.290085,173.980698,169.189438,-1.328125,-0.754883,0.366455,81.016533,23.338316,249.137863
-1.288086,2.011963,-0.396973,201.210007,115.493767,185.485825,1.384033,-1.039551,0.192139,-58.586117,22.102354,-249.992355
-1.150635,1.817139,-0.40332,199.172958,57.777401,213.043198,0.617188,-2.04541,0.290527,233.131393,247.840866,249.992355
-1.019043,1.744629,-0.491211,193.98497,4.653931,242.866501,0.65918,-2.127197,0.298828,244.201645,249.992355,249.992355
-0.908936,1.716309,-0.560791,180.740341,-42.312618,249.992355,0.658203,-2.21167,0.340332,249.839767,247.360214,249.992355
-0.770264,1.685547,-0.582031,164.283737,-79.658508,249.992355,0.621826,-2.289063,0.430664,249.992355,210.960373,249.992355
-0.644043,1.657227,-0.606201,148.4375,-107.734673,249.992355,0.602295,-2.369385,0.573975,249.992355,145.378113,249.992355
-2.585449,3.995361,-0.739502,161.788925,249.504074,171.539291,0.5896,-2.486084,0.672852,249.992355,61.859127,249.992355
-0.62207,1.674805,-0.583984,131.896973,-128.547668,249.992355,0.631104,-2.637451,0.692383,249.992355,-26.428221,249.992355
-0.678955,1.809326,-0.487061,95.42083,-146.751404,249.992355,0.698975,-2.769531,0.666992,249.992355,-103.469841,249.992355
-0.668701,1.891357,-0.465088,72.937012,-136.932373,249.992355,0.799072,-2.833252,0.587402,249.992355,-158.691406,249.992355
-0.6521,1.963623,-0.499023,49.247738,-107.902519,249.992355,1.150635,-2.924316,0.435059,249.992355,-191.711411,249.992355
-0.67334,2.029053,-0.579834,28.907774,-71.151733,249.992355,0.580078,-2.016113,0.258057,224.906906,239.21965,249.992355
-0.647461,2.08374,-0.716309,14.404296,-36.468506,249.992355,1.305176,-3.092285,0.389404,249.992355,-159.767151,249.992355
-0.536377,2.153076,-0.852295,6.790161,3.669739,249.992355,1.160156,-3.300293,0.294922,249.992355,-79.269409,249.992355
-0.472412,2.247559,-0.94043,5.294799,45.539852,249.992355,0.868164,-3.171143,0.287842,249.954208,-62.294003,249.992355
-0.40918,2.298584,-0.964844,4.096985,77.415466,249.992355,0.500244,-2.86792,0.268066,249.511703,-70.030212,249.992355
-0.376709,2.329346,-0.904297,-1.037598,105.697624,249.992355,0.223877,-2.479248,0.29126,249.992355,-86.517326,249.992355
-0.440186,2.356689,-0.7771,-4.043579,136.650085,249.992355,0.242432,-2.042969,0.330811,249.992355,-87.715141,249.992355
-0.651611,1.732422,-0.534912,114.31884,-141.624451,249.992355,0.259766,-1.657471,0.39502,219.573959,-70.114136,249.992355
-3.37207,4.193115,-0.334473,137.634277,248.725876,179.290756,0.044922,-1.378906,0.401367,182.449326,-41.511532,249.984726
-0.521729,2.339111,-0.651367,-2.243042,172.18779,249.992355,-0.333496,-1.153809,0.40625,147.521973,-12.001037,249.992355
-4.502441,4.428955,0.306641,106.964104,120.574944,230.934128,-0.833984,-0.9646,0.402588,115.119926,8.155823,249.992355
-1.504883,1.972656,-1.052246,35.797119,-249.992355,-249.992355,1.388672,-0.854248,0.296875,-54.779049,51.307674,-249.992355
-1.283203,1.930176,-0.896973,51.269527,-249.992355,-249.992355,1.318848,-3.254883,0.330078,249.992355,-115.661613,249.992355
-1.067139,1.939209,-0.80127,66.03241,-249.877914,-249.992355,0.562012,-2.051025,0.258789,218.406662,233.184799,249.992355
-0.91333,1.966064,-0.724854,80.314629,-249.313339,-249.992355,0.976563,-2.852783,0.490723,249.992355,-191.238388,249.992355
-0.757324,2.038574,-0.645264,87.280266,-249.992355,-249.992355,0.648193,-2.146729,0.294678,201.957687,230.857834,249.992355
-0.737305,2.064453,-0.589111,81.93206,-248.466476,-249.992355,0.592773,-2.122559,0.27124,210.731491,230.506882,249.992355
-4.261475,4.415771,0.186768,116.989128,207.389816,214.767441,1.854248,-1.577637,-0.102539,-39.039612,-19.294739,-249.816879
-1.191406,1.962402,-0.710205,58.662411,-166.419968,-249.992355,2.296875,-1.873535,-0.204102,-33.958435,5.714416,-249.572739
-1.526611,1.754639,-0.705322,57.434078,-150.543213,-249.992355,2.660889,-2.312744,-0.354492,-34.080505,43.579098,-249.992355
-1.708252,1.473633,-0.673584,67.024231,-146.598816,-249.984726,2.908936,-2.787354,-0.623047,-42.8009,56.304928,-245.101913
-2.102295,1.389404,-0.409668,69.404602,-143.852234,-249.992355,3.304199,-3.270752,-1.064209,-39.230347,54.229733,-209.396347
-0.888916,2.014893,-0.635498,69.68689,-202.05687,-249.992355,3.498535,-4.093018,-1.644531,-0.328064,51.353451,-198.989853
-3.059082,1.289551,0.173584,99.777214,-178.337082,-249.336227,3.12793,-4.477295,-2.144287,17.250061,-83.732597,-145.28656
-3.319336,1.479248,0.494629,122.703545,-191.673264,-249.992355,4.216553,-4.109619,-2.691162,59.989925,-249.984726,-45.715328
-3.517334,1.801758,0.726807,139.99176,-192.314133,-249.992355,6.085205,-3.566162,-3.534668,119.636528,-187.156662,28.717039
-3.863281,2.253906,0.888916,137.817383,-190.025314,-223.197922,5.357666,-3.42334,-2.827393,142.814636,-124.443047,117.828362
-4.432861,2.763916,1.07373,135.620117,-188.293442,-156.62384,1.533691,-1.307373,0.011475,-50.659176,-9.45282,-249.992355
-4.916748,3.303467,1.023682,137.22229,-171.516403,-86.47155,5.108887,-3.957275,-1.540283,170.532211,-205.001816,247.566208
-4.910156,3.64917,0.807617,134.719849,-112.144463,-7.728576,4.931885,-3.624268,-2.028809,162.643417,-177.98613,199.836716
-4.999756,4.00415,0.500244,133.285522,-54.733273,72.761536,0.870117,-2.179688,0.360596,187.713608,247.718796,249.992355
-4.87915,4.357178,0.201904,120.269768,-27.94647,141.921997,1.116455,-2.241211,0.400146,184.547409,249.992355,249.992355
-4.485596,4.442871,0.230469,113.639824,30.792234,195.327744,1.525879,-2.175537,0.333008,183.036789,246.971115,249.992355
-2.67749,1.279541,-0.097412,80.589287,-157.203674,-249.992355,2.060303,-2.09668,0.115967,182.991013,223.373398,249.992355
3.180664,1.57959,-0.655518,25.161741,-46.531673,-48.423763,0.736572,-2.119141,0.324219,192.695602,237.236008,249.992355
3.392822,1.508545,-0.526611,76.61438,-11.108397,21.911619,3.644775,-2.393555,-0.546387,183.914169,88.760368,249.992355
3.423828,1.453857,-0.372314,125.373833,16.868591,79.948425,4.601563,-3.11792,-1.028076,183.418259,-14.373778,249.992355
3.659424,1.373779,-0.188232,166.702255,40.374752,128.77655,5.185059,-3.810303,-1.293213,177.680954,-133.522034,249.992355
0.867188,1.519287,0.041016,249.847397,-188.529953,249.382004,2.730713,-2.098877,-0.128174,182.449326,169.242844,249.992355
4.157471,1.164551,0.299805,232.620224,11.375426,207.862839,0.387939,-1.343262,0.804932,-249.992355,-249.992355,-249.992355
3.255615,1.238525,0.293945,248.771652,-80.352776,249.05394,-2.845459,-0.359863,2.543945,-44.410702,-249.992355,-57.655331
1.968994,1.407715,0.170898,249.992355,-169.181808,249.992355,-2.21582,-0.436279,2.219238,-105.033867,-220.329269,-60.69183
4.156982,1.255859,0.088623,202.590927,49.369808,167.243942,-1.425049,-0.58374,1.468018,-122.482292,-154.22821,-86.418144
2.848633,1.533936,-0.71875,-13.984679,-92.658989,-116.256706,-0.990723,-0.659912,0.808594,-118.431084,-65.460205,-134.979248
-1.290771,1.39917,-0.643311,-155.174255,-249.992355,-249.992355,-0.881592,-0.54126,0.843994,-166.778549,-22.6593,-171.42485
2.242188,0.464844,-0.385742,-73.799133,-106.475822,-237.274155,-1.057129,-0.608398,1.107422,-233.184799,-66.238403,-201.637253
1.84082,0.338623,-0.362305,-72.967529,-98.1903,-249.992355,-3.071045,-0.246826,2.726563,23.620604,-242.347702,-3.982544
1.290039,0.626221,-0.42041,-83.82415,-85.33477,-249.992355,-0.770508,-0.882813,1.167725,-249.992355,-174.82756,-237.96843
0.934082,0.91333,-0.399658,-114.257805,-81.634514,-249.992355,-0.194336,-1.105225,1.033203,-249.992355,-246.643051,-249.992355
0.500488,1.072266,-0.427979,-144.378662,-94.825737,-249.992355,0.830811,-1.618164,0.584961,-249.992355,-249.992355,-249.992355
0.054688,1.184326,-0.478271,-167.854294,-119.338982,-249.992355,1.861084,-2.318848,0.440674,-249.847397,-249.992355,-249.992355
-0.296387,1.266846,-0.468994,-181.091293,-155.944824,-249.992355,1.408691,-2.054932,0.51416,-249.992355,-249.992355,-249.992355
-0.717529,1.363281,-0.53833,-185.028061,-195.869431,-249.992355,1.635742,-2.20752,0.509521,-249.992355,-249.992355,-249.992355
-1.078125,1.421143,-0.587158,-182.464584,-231.254562,-249.992355,1.808838,-2.28833,0.492432,-249.900803,-249.992355,-249.992355
-1.244141,1.416016,-0.615479,-172.088608,-249.198898,-249.992355,1.912354,-2.338379,0.389648,-249.992355,-249.992355,-249.992355
0.010254,1.586914,-0.064941,249.946579,-134.132385,249.900803,1.933594,-2.343262,0.365479,-247.131332,-249.992355,-249.992355
2.506836,1.093994,-0.654541,-50.247189,-114.479057,-181.594833,1.856201,-2.3396,0.388916,-228.691086,-249.992355,-249.992355
-0.663818,1.569336,-0.104492,249.992355,-36.78894,249.992355,1.776123,-2.338379,0.415527,-211.685165,-249.992355,-249.992355
-1.043213,2.727783,-0.740234,15.579223,245.056137,249.992355,1.667969,-2.364746,0.445068,-195.526108,-249.992355,-249.992355
-1.586182,1.388184,-0.274414,249.992355,184.432968,249.992355,1.578613,-2.471924,0.441162,-176.101669,-249.992355,-249.992355
-1.297363,1.412842,-0.635986,-134.399414,-249.992355,-249.992355,-3.561035,-0.168457,2.924316,81.954948,-164.00145,72.097778
-1.613525,1.501709,-0.658691,163.61998,98.335258,249.992355,1.14917,-1.858398,0.514404,-249.992355,-249.992355,-249.992355
-1.585205,1.511719,-0.699707,155.906677,10.116576,249.992355,-3.917969,-0.001953,2.891602,124.099724,-56.251522,81.80999
-1.436768,1.676025,-0.632813,150.375366,-58.4259,249.992355,1.619385,-2.56665,0.407715,-155.776978,-249.992355,-249.992355
-1.245361,1.812256,-0.554199,143.478394,-87.47863,249.992355,-3.551758,0.345459,2.05835,203.05632,52.032467,70.93811
-1.071045,1.943848,-0.55127,124.298088,-82.298271,249.992355,0.664795,-1.918945,0.648682,129.653931,111.640923,249.992355
-0.980957,2.056885,-0.621338,100.906364,-64.38446,249.992355,0.6604,-2.035156,0.631104,128.250122,86.204521,249.992355
-0.943115,2.111084,-0.742432,82.572929,-39.68811,249.992355,0.712891,-2.109863,0.546143,131.752014,74.241638,249.992355
-0.962646,2.192871,-0.856689,68.54248,-10.848998,249.992355,0.807373,-2.149902,0.425049,140.441895,80.780022,249.992355
-1.02124,2.289063,-0.904297,54.069515,21.217344,249.992355,0.904053,-2.194336,0.315186,156.509399,104.23278,249.992355
-1.250244,1.520996,-0.157471,249.992355,73.234558,249.992355,0.956055,-2.260498,0.255615,180.404648,136.650085,249.992355
-1.060303,2.420654,-0.893799,39.31427,61.248775,249.992355,0.923096,-2.332764,0.236816,209.251389,168.075546,249.992355
-1.018311,2.674561,-0.799805,16.273499,190.238937,249.992355,0.8396,-2.38623,0.248779,238.334641,197.799667,249.992355
-1.104492,2.706055,-0.637939,23.704527,249.992355,249.992355,0.708008,-2.414307,0.301758,249.992355,223.930344,249.992355
-1.227295,2.693115,-0.582031,38.391113,249.992355,249.992355,0.533691,-2.371826,0.382813,249.992355,243.415817,249.992355
-1.431885,2.768555,-0.615967,51.055904,249.992355,249.992355,-3.833984,0.258789,2.558594,161.705002,15.655517,52.734371
-1.502686,2.722168,-0.635498,63.858028,249.969467,249.992355,0.401611,-2.189209,0.484863,249.992355,249.778732,249.992355
-1.366211,2.55127,-0.691895,75.454712,249.992355,249.992355,0.424805,-1.605469,0.713135,249.992355,249.992355,249.992355
-1.128418,2.285889,-0.786133,100.8377,249.992355,249.992355,0.371338,-1.326904,0.69458,249.992355,242.721542,249.992355
-0.820313,1.793945,-0.700195,183.975204,248.657211,249.992355,0.200684,-1.078125,0.602539,249.992355,205.055222,249.992355
-0.811279,1.381836,-0.64209,247.474655,249.992355,249.992355,-0.12793,-0.858154,0.499512,249.992355,159.423828,249.992355
-1.378662,1.310059,-0.51001,249.992355,249.992355,249.992355,-0.520508,-0.657227,0.427002,249.992355,116.226189,249.542221
-1.038086,2.575439,-0.859131,24.932859,116.012566,249.992355,-0.941406,-0.481934,0.455322,249.93132,77.9953,249.992355
-1.274658,1.431641,-0.650391,-112.022392,-249.992355,-249.992355,-1.457275,-0.306641,0.632813,249.839767,51.315304,249.992355
-1.549072,1.602051,-0.498291,189.475998,181.365952,239.273056,-2.007568,-0.061768,0.878174,249.992355,40.733334,231.185898
-1.200684,1.51001,-0.661621,-71.182251,-249.992355,-249.992355,-2.553955,0.178467,1.179932,248.336777,45.204159,182.800278
-3.335938,4.467041,0.31543,-16.876221,-249.992355,-200.798019,-3.097168,0.291748,1.56958,231.979355,56.358334,125.801079
-3.644043,4.006836,1.120605,-10.055541,-248.710617,-133.552551,0.394287,-1.906006,0.622803,249.992355,249.855026,249.992355
-4.404541,3.46167,1.978027,97.213737,-249.992355,-112.167351,1.731445,-2.566895,0.37207,-136.123657,-249.908432,-249.992355
-3.399658,4.021484,2.646729,247.856125,-249.992355,-63.255306,1.813232,-2.450928,0.338867,-120.803825,-249.748215,-249.992355
-3.202393,3.98877,2.471924,198.196396,-201.438889,62.19482,1.763184,-2.279297,0.287354,-114.303581,-249.992355,-249.992355
-4.44751,3.250244,1.726318,107.521049,-97.984306,146.446228,1.8479,-1.614258,-0.351807,218.780502,17.868042,249.992355
-4.285889,2.47876,1.284668,95.16906,-71.685791,190.83403,1.593506,-1.697266,-0.137207,220.993027,42.549129,249.992355
-4.006104,2.213135,1.109863,110.153191,-21.217344,199.668869,1.310303,-1.867188,0.070801,224.967941,56.968685,249.992355
-3.273682,2.00415,0.753418,133.422852,65.124512,192.085251,1.02002,-1.946777,0.213623,222.702011,54.069515,249.992355
-2.453369,1.462158,0.361816,157.150269,144.569397,183.502182,0.760254,-1.912598,0.289795,217.1707,36.384583,249.992355
-2.927979,4.788086,0.155762,4.91333,-249.992355,-249.992355,0.613037,-1.851563,0.283203,214.637741,16.63208,249.992355
-1.949951,1.075684,0.208008,184.890732,202.766403,174.217209,0.554443,-1.749023,0.272705,211.8759,6.599426,249.992355
-1.539551,1.217285,0.11792,234.832748,249.992355,159.584045,0.566895,-1.638428,0.267822,207.412704,9.651184,249.992355
-1.439453,1.415771,0.045654,247.566208,247.947678,150.299072,0.621338,-1.596924,0.250244,201.980576,24.734495,249.992355
-1.327881,1.601318,-0.076416,249.908432,230.339035,143.936157,0.681641,-1.634521,0.24585,195.137009,47.294613,249.992355
-1.243896,1.753906,-0.183594,249.992355,200.218185,144.508362,2.252441,-1.625,-0.625732,218.978867,-16.189575,249.992355
-1.171143,1.788086,-0.344971,249.992355,149.475098,159.141541,0.712402,-1.709229,0.268311,189.147934,74.058533,249.992355
-1.118896,1.763184,-0.447266,246.200546,84.915154,184.867844,0.679199,-1.756104,0.398193,169.212326,122.550957,249.992355
-1.113281,1.770264,-0.500977,235.908493,24.002073,219.879135,0.682617,-1.774902,0.479736,154.060364,134.429932,249.992355
-1.072754,1.841553,-0.516602,222.862228,-23.620604,247.467026,0.763672,-1.871582,0.536133,138.938904,138.465881,249.992355
-1.070313,1.968994,-0.515381,207.47374,-56.098934,249.992355,0.858398,-2.066895,0.555908,127.853386,136.795044,249.992355
-1.103027,2.074219,-0.565186,190.46019,-78.2547,249.992355,0.949951,-2.313232,0.538086,119.85778,130.592346,249.992355
-1.666016,1.044678,0.180176,213.684067,239.883408,167.030319,1.051025,-2.577637,0.505615,115.844719,130.187988,249.992355
-2.900391,4.465332,0.134521,-19.500732,-249.366745,-249.992355,1.169434,-2.81543,0.464111,119.49157,146.339417,249.992355
-1.227051,1.454102,-0.668945,-91.140739,-249.992355,-249.992355,1.272949,-2.967041,0.445313,129.28772,170.341476,249.992355
-2.432861,3.983887,-0.198486,-107.673637,-109.474174,-249.969467,1.389404,-3.054199,0.369873,141.899109,194.053635,249.992355
-1.221191,1.591064,-0.656494,-54.405209,-249.992355,-249.992355,1.533691,-3.192871,0.251221,157.76062,215.28624,249.992355
-1.24585,1.638672,-0.639893,-40.580746,-249.992355,-249.992355,0.710938,-1.749023,0.317871,181.289658,101.173393,249.992355
-1.289795,1.692139,-0.658447,-27.511595,-249.992355,-249.992355,3.003662,-1.875488,-1.074951,221.153244,-50.071712,249.992355
-1.341797,1.698486,-0.699463,-10.871886,-249.992355,-249.992355,1.57959,-3.394531,0.148926,181.495651,229.034409,249.992355
-1.239502,1.68042,-0.733643,7.766723,-249.992355,-249.992355,4.287842,-3.252686,-2.058838,219.985947,-193.656906,240.386948
-1.09082,1.676025,-0.757568,24.978636,-249.992355,-249.992355,1.557617,-2.154297,0.224121,-110.343925,-247.688278,-249.992355
-2.803711,4.292725,-0.0625,-79.231262,-204.94841,-249.153122,1.4104,-2.035889,0.101807,-101.814262,-225.242599,-249.992355
-0.945557,1.671143,-0.833496,55.038448,-249.359116,-249.992355,1.446045,-1.798584,-0.02832,-94.810478,-193.8629,-249.992355
-0.868652,1.687012,-0.848389,67.077637,-249.992355,-249.992355,1.594971,-1.445313,-0.083252,-92.849724,-137.947083,-249.992355
-0.804932,1.765625,-0.818604,73.295593,-249.992355,-249.992355,1.756104,-1.090576,-0.143799,-98.678581,-63.224789,-249.992355
-0.767578,1.830811,-0.696533,71.098328,-210.296616,-249.992355,1.747803,-0.830811,-0.199951,-117.233269,14.045714,-249.992355
-0.99292,1.684082,-0.814209,41.732784,-249.946579,-249.992355,3.836426,-2.499512,-1.64624,224.143967,-100.952141,249.992355
-0.810303,1.918701,-0.454346,25.032042,-94.619743,-249.992355,1.58374,-0.882813,-0.104492,-176.864609,127.738945,-249.992355
-0.794678,1.965332,-0.348877,-15.251159,-20.507811,-249.992355,1.480225,-1.171143,-0.383545,-185.562119,148.742676,-249.992355
-0.865723,2.046387,-0.298096,-62.934872,64.559937,-249.992355,1.417725,-1.505127,-0.602539,-179.740891,139.953613,-249.992355
-1.0625,2.115479,-0.305908,-117.149345,140.815735,-249.992355,1.492432,-1.895996,-0.74585,-164.657578,110.336296,-249.481186
-1.436279,2.138672,-0.44043,-160.858139,174.07988,-249.992355,1.693848,-0.726318,-0.119385,-150.108337,79.116821,-249.992355
-1.817139,2.270508,-0.571533,-185.623154,163.169846,-249.992355,1.972656,-2.986084,-0.856445,-127.990715,10.002136,-249.992355
-1.88208,2.415771,-0.694336,-184.257492,129.478455,-249.992355,2.182617,-3.662598,-0.975342,-105.239861,-63.911434,-223.838791
-1.845215,2.758545,-0.686523,-167.327866,78.689575,-249.992355,2.540283,-4.23291,-1.209473,-63.499447,-138.404846,-201.599106
-1.98877,3.277588,-0.455566,-157.714844,21.209715,-249.984726,2.8479,-4.845703,-1.664551,-15.892028,-164.87883,-202.232346
-2.142334,3.622559,-0.317139,-135.33783,-37.506104,-249.992355,2.73584,-4.686523,-2.302734,-13.298034,-208.160385,-170.074448
-0.803955,1.885986,-0.589111,56.381222,-155.670166,-249.992355,2.801758,-4.121582,-2.810547,26.69525,-249.343857,-104.774467
0.352051,0.742188,-0.708496,-249.992355,114.265434,249.992355,3.468262,-3.818115,-3.297363,101.234428,-249.992355,-45.539852
0.037354,0.855225,-0.867188,-249.992355,121.871941,249.992355,3.596191,-3.324707,-3.429932,142.410278,-248.741135,28.724669
-0.12085,0.987305,-0.764648,-249.320969,135.345459,249.992355,3.758301,-3.102295,-2.985596,164.901718,-249.992355,108.436577
-0.109375,1.404053,-0.630127,-249.923691,166.89299,249.992355,4.07959,-3.408203,-2.425781,197.608932,-249.992355,185.317978
-0.050293,1.641602,-0.563232,-241.073593,63.354488,249.992355,1.689941,-2.363525,-0.814453,-146.469116,66.223145,-249.992355
-0.459961,1.883057,-0.500732,-249.992355,192.756638,249.992355,-4.405273,-0.699463,1.527832,50.689693,-249.992355,21.316526
-0.387207,1.812012,-0.478516,-249.992355,175.140366,249.992355,-4.900146,-0.689941,1.813721,87.554924,-249.992355,88.920586
-0.20459,1.690918,-0.52124,-249.992355,126.182549,249.992355,-4.794434,-0.127686,1.803711,104.255669,-232.734665,155.105591
-0.307617,1.756592,-0.556152,-249.992355,187.850937,249.992355,-4.842529,0.325928,1.454834,147.163391,-146.118164,176.765427
0.658447,0.635254,-0.407959,-205.162033,104.141228,249.984726,-1.517334,-0.692383,0.26123,249.771103,-110.511772,249.786362
2.84375,0.929688,1.63208,116.447441,204.231247,-213.188156,-3.66333,0.074707,0.686768,239.883408,-28.625486,244.544968
1.196777,0.492432,0.344727,-87.074272,88.172905,249.946579,-2.748535,-0.195557,0.429443,249.992355,-61.836239,249.992355
1.438721,0.468994,0.808105,-31.318663,79.910278,249.092087,-2.08667,-0.400391,0.288818,249.992355,-105.178825,249.481186
1.669922,0.465576,1.335205,15.907287,66.726685,249.992355,-4.513428,0.378662,1.041016,201.660141,-56.396481,200.347885
1.952881,0.475098,1.845215,57.79266,46.646114,249.992355,-2.814453,-0.311279,1.342773,-10.749816,-249.992355,5.798339
2.299072,0.553223,2.378174,87.142937,30.334471,197.502121,1.414551,-1.873535,0.60791,-76.835632,-249.992355,-249.992355
2.681641,0.654541,2.877686,89.218132,26.924131,125.823967,-1.5625,-0.327881,0.374756,-77.262878,-249.992355,-88.348381
2.936523,0.624756,2.978027,74.653625,29.762266,42.884823,-1.284424,-0.517334,0.294922,-103.500359,-249.992355,-181.358322
2.950439,0.491943,2.650391,70.43457,45.326229,-36.53717,-0.867676,-0.724854,0.406738,-115.127556,-249.992355,-244.926437
2.935547,0.388428,2.202393,91.728203,86.944572,-100.288383,-0.353027,-0.928223,0.535645,-115.966789,-249.992355,-249.992355
3.091553,0.597168,1.903076,118.469231,144.584656,-166.458115,0.254395,-1.059082,0.634033,-115.509026,-249.992355,-249.992355
0.08252,1.721436,-0.71167,-220.19957,-4.02832,249.992355,0.778809,-1.188477,0.686035,-115.859978,-249.992355,-249.992355
0.934082,0.553955,-0.057617,-146.492004,95.634453,249.992355,1.08252,-1.344727,0.719482,-114.234917,-249.992355,-249.992355
-0.027588,1.846436,-0.87085,-200.599655,-60.737606,249.992355,1.254639,-1.498047,0.726807,-108.810417,-249.992355,-249.992355
-0.595703,1.414795,-1.094238,2.807617,234.802231,249.992355,1.362793,-1.630127,0.69458,-100.288383,-249.992355,-249.992355
-0.358154,1.842285,-1.148926,-150.299072,-72.677612,249.992355,1.424805,-1.743164,0.646973,-89.881889,-249.992355,-249.992355
2.148682,0.755127,1.164551,104.293816,210.24321,-245.368942,-0.951172,-0.996582,0.287842,249.992355,-73.234558,249.992355
-4.437012,3.391113,-1.592041,39.428711,154.655457,217.414841,-1.878906,-0.20459,0.880859,-44.578548,-249.992355,-22.293089
-3.882813,3.276855,-1.659424,56.457516,194.99205,220.840439,-0.404053,-1.25,0.400879,249.992355,-12.306212,249.992355
-3.302246,3.065674,-1.709229,77.003479,213.729843,209.022507,1.227539,-2.720215,0.522217,90.49987,193.679794,249.992355
-2.638916,2.641846,-1.716309,82.221977,205.383286,212.226852,0.446777,-1.932129,0.615479,249.992355,114.639275,249.992355
-2.048096,2.170654,-1.595947,59.440609,189.82695,226.196274,1.375488,-1.957275,0.607666,-63.117977,-249.992355,-249.992355
-1.687012,1.772949,-1.401611,44.540401,185.523972,242.301926,0.501953,-1.486328,0.302734,203.254684,36.392212,215.621933
-1.37085,1.699463,-1.313965,43.106075,207.267746,249.992355,0.536133,-1.5,0.243164,208.793625,17.112732,227.188095
-0.963379,1.753174,-1.250244,37.078857,242.172226,249.992355,0.553467,-1.544434,0.269287,206.947311,12.954711,241.516098
-0.729492,1.603516,-1.186035,28.030394,249.992355,249.992355,0.520752,-1.589355,0.311768,198.921188,23.925779,249.656662
-0.235107,1.91748,-1.029297,-175.270065,-83.343498,249.992355,0.517578,-1.615723,0.317139,188.545212,44.570919,249.992355
-0.639404,1.390869,-1.123535,24.909971,249.626144,249.992355,0.583008,-1.658936,0.320801,177.642807,73.814392,249.992355
-0.651855,1.385254,-1.133057,13.648986,249.992355,249.992355,0.684814,-1.71167,0.343994,165.916428,105.415337,249.992355
-0.579834,1.402832,-1.087891,-10.337829,193.092331,249.992355,0.755859,-1.756104,0.409912,150.123596,129.829407,249.992355
-0.536865,1.377686,-1.116455,-19.706726,142.707825,249.992355,0.784668,-1.847168,0.519287,129.562378,142.074585,249.992355
-0.448486,1.412109,-1.123047,-27.900694,97.602837,249.992355,0.082031,-1.547607,0.530518,249.992355,55.473324,249.992355
-0.34082,1.468994,-1.097412,-39.283752,66.215515,249.992355,0.840332,-2.000732,0.608154,105.659477,148.81134,249.992355
-0.324219,1.56665,-1.100098,-56.297298,46.806332,249.992355,1.081299,-2.494141,0.646484,81.336967,170.654282,249.992355
-0.332275,1.698975,-1.098145,-77.766418,29.602049,249.992355,1.306396,-2.913086,0.41333,108.894341,220.95488,249.992355
-0.329346,1.795166,-1.095703,-103.462212,11.054992,249.992355,1.30542,-3.014404,0.347412,137.130737,234.542831,249.992355
-0.318359,1.821777,-1.124512,-126.007072,-13.565063,249.992355,1.240967,-3.028809,0.351563,167.320236,222.946152,249.992355
-0.333008,1.779541,-1.186279,-136.703491,-44.120785,249.992355,1.115967,-2.99707,0.402588,192.153915,186.386093,249.992355
-0.64502,1.350586,-1.143311,16.532898,249.992355,249.992355,1.0354,-2.918701,0.459229,209.10643,140.090942,249.992355
1.0979,0.310303,0.355225,108.840935,203.155502,-249.992355,1.085938,-2.915283,0.529541,233.627304,109.733574,249.992355
-4.796143,3.525635,-1.505859,38.589478,123.329155,210.327133,1.223389,-2.957031,0.580811,249.893173,118.530266,249.992355
0.6604,0.570313,-0.067139,98.716728,123.924248,-249.992355,0.975098,-2.766113,0.516846,249.992355,146.347046,249.992355
-1.77417,1.434082,-0.521484,52.551266,-85.220329,-249.992355,0.619629,-2.378906,0.578125,249.992355,148.910522,249.992355
-2.062744,1.406494,-0.373047,69.122314,-82.176201,-249.992355,0.952881,-2.236084,0.65918,85.243217,158.203125,249.992355
-2.382324,1.444824,-0.128174,82.237236,-88.973991,-249.580368,1.381348,-2.023193,0.710693,-47.149654,-249.992355,-249.992355
-2.721924,1.578369,0.262207,96.778862,-102.813713,-249.992355,0.53125,-1.52417,0.393066,198.165878,61.882015,211.082443
-2.98584,1.90332,0.67334,115.402214,-115.432732,-249.992355,1.637451,-2.270996,0.838135,-3.608703,-249.992355,-249.992355
-3.173096,2.45874,0.94458,134.651184,-120.437614,-234.260544,4.359375,-4.475098,-1.234131,200.386032,10.910033,242.851242
-3.427979,3.159424,1.033691,153.09906,-123.931877,-186.859116,4.287109,-4.586914,-1.000244,221.420273,24.528502,249.992355
-3.834473,3.893311,0.973633,170.4254,-145.576477,-143.829346,3.955811,-4.172363,-0.732666,232.16246,58.029171,249.992355
-4.263428,4.638184,0.773438,180.63353,-204.200729,-98.785393,3.535889,-3.997559,-0.159912,230.0186,101.08947,249.862656
-4.507324,5.173584,0.513672,178.070053,-247.962936,-44.143673,2.829346,-3.834229,0.279053,217.185959,152.793884,249.93895
-1.377197,1.466797,-0.696533,37.04834,-98.518364,-249.992355,2.075195,-3.177979,0.420166,194.885239,176.658615,249.992355
-4.5271,5.166504,0.170166,162.643417,-248.146042,18.753052,1.438477,-2.642578,0.486816,181.922897,174.217209,245.338425
-3.919678,4.443359,-0.383057,123.26049,-249.992355,155.822754,0.952148,-2.334717,0.479492,178.970322,154.533386,227.821335
-3.527588,4.072998,-0.560059,135.3302,-146.42334,200.454697,0.626221,-2.040527,0.407227,180.618271,119.49157,219.604477
-3.276611,3.694336,-0.645752,181.365952,53.024288,197.128281,0.505615,-1.783203,0.281494,185.264572,81.092827,222.557053
-3.093262,3.523682,-0.670654,212.783798,226.539597,179.901108,4.250732,-4.102051,-1.441895,188.06456,69.488525,196.968063
-2.546631,2.728516,-0.300049,222.450241,249.984726,165.245041,0.532715,-1.562744,0.2229,187.744125,59.883114,232.460007
-1.929688,1.708496,-0.108398,242.797836,249.992355,147.232056,0.565186,-1.381104,0.273682,180.068954,79.376221,249.992355
-1.830322,1.365723,0.031738,249.671921,249.824509,142.478943,0.492432,-1.415527,0.345215,169.845566,95.825188,249.992355
-1.636719,1.452881,-0.135742,249.992355,249.092087,156.738281,0.42334,-1.468018,0.369873,159.606934,105.834953,249.992355
-1.468262,1.580322,-0.255371,249.992355,249.992355,177.864059,0.415039,-1.532959,0.302734,155.815125,115.241997,249.992355
-1.435791,1.598877,-0.343506,231.41478,247.566208,203.918442,0.487305,-1.564941,0.231934,157.966614,128.768921,249.992355
-4.317627,4.792725,-0.155518,136.634827,-249.992355,85.723869,0.563232,-1.563965,0.205322,159.584045,144.599915,249.992355
-0.979248,1.498291,-0.811768,28.480528,-120.36895,-249.992355,0.642334,-1.551025,0.267822,155.540466,157.150269,249.992355
0.802734,0.271484,0.068359,117.294304,172.012314,-249.992355,0.70166,-1.572998,0.377197,148.590088,162.6129,249.992355
-0.533936,1.829102,-0.694092,47.187801,-185.585007,-249.992355,0.72876,-1.654297,0.503418,140.129089,157.554626,249.992355
0.625488,0.82959,-0.128418,58.624264,63.301083,-249.992355,0.700195,-1.781494,0.612061,134.162903,139.36615,249.992355
0.592041,0.94751,-0.109375,33.966064,-7.843017,-249.992355,0.573975,-1.414063,0.223389,186.317429,63.171383,245.368942
0.193359,1.078857,-0.412842,27.076719,-73.318481,-249.992355,4.618164,-3.814209,-1.708496,170.166,154.502869,126.693718
-0.301514,1.272949,-0.762695,21.125792,-128.53241,-249.992355,1.438965,-2.178223,0.801758,-24.505613,-249.992355,-249.992355
-0.678955,1.482422,-0.968994,16.25061,-174.407944,-249.992355,6.60791,-2.991455,-3.178223,134.170532,-88.584892,-5.378723
-0.993408,1.64502,-1.111084,11.405944,-215.179428,-249.992355,1.79834,-2.201172,0.834961,7.728576,-249.992355,-249.992355
-0.742676,1.667969,-0.746826,31.700132,-147.605896,-249.992355,1.789063,-2.117188,0.787598,11.184691,-249.992355,-249.992355
-1.331299,1.729004,-1.151855,17.715454,-249.992355,-249.992355,1.677246,-2.071777,0.731689,10.360717,-249.992355,-249.992355
-1.375977,1.709229,-1.169922,30.540464,-249.992355,-249.992355,1.489502,-2.125244,0.681885,14.778136,-249.992355,-249.992355
-1.274658,1.699219,-1.13916,41.511532,-249.992355,-249.992355,1.393555,-2.26416,0.620117,29.563902,-249.992355,-249.992355
-1.131104,1.724854,-1.103516,52.650448,-249.992355,-249.992355,1.408203,-2.342773,0.56665,50.97961,-249.458298,-249.992355
-1.208496,1.716309,-1.157471,10.032654,-246.063217,-249.992355,5.499268,-3.523682,-2.415771,156.074524,152.702332,57.739254
-0.981445,1.859375,-1.168701,68.244934,-249.992355,-249.992355,1.478516,-2.198486,0.431641,84.892265,-249.992355,-249.992355
-0.988037,1.930664,-1.227051,68.649292,-249.992355,-249.992355,1.496582,-1.968018,0.381348,90.438835,-222.923264,-249.992355
-1.080322,1.958252,-1.279053,66.856384,-249.992355,-249.992355,1.496094,-1.681152,0.378174,82.305901,-178.596481,-249.992355
-1.134277,1.958984,-1.276855,66.925049,-249.992355,-249.992355,1.362549,-1.45459,0.374756,69.580078,-151.870728,-249.992355
-1.13916,1.958252,-1.200439,67.825317,-249.992355,-249.992355,1.463623,-2.317139,0.496338,70.747375,-249.992355,-249.992355
-1.061279,1.916992,-1.091553,68.664551,-249.992355,-249.992355,1.157471,-1.061768,0.258789,50.559994,-168.045029,-249.984726
-0.904297,1.876465,-0.956543,70.19043,-249.511703,-249.992355,1.205566,-1.264893,0.313232,59.921261,-153.968811,-249.992355
-0.707764,1.865967,-0.794678,71.815491,-249.992355,-249.992355,1.891602,-2.531494,-1.421387,26.710508,67.581177,-98.548882
-0.589111,1.86792,-0.732178,70.602417,-249.992355,-249.992355,3.193604,-1.87207,-1.279297,23.330687,249.992355,-168.205246
-0.526367,1.86377,-0.723389,63.156124,-229.576096,-249.992355,3.245361,-1.21167,-0.87085,-1.625061,155.342102,-188.049301
-1.044189,1.786133,-1.11377,62.980648,-249.992355,-249.992355,2.693848,-0.959961,-0.512939,-9.391785,47.851559,-222.450241
-0.726318,2.006348,-1.152588,-47.08099,153.030396,249.992355,3.127686,-2.954346,-1.945313,73.776245,-249.992355,-28.45001
-0.688477,1.961182,-1.190918,-39.581299,153.907776,249.992355,2.109375,-0.804932,-0.205811,37.742615,-23.986814,-249.992355
-0.680908,1.932129,-1.228516,-33.52356,152.671814,249.992355,1.725098,-0.697266,-0.133789,43.350216,-72.875977,-249.374374
-0.683838,1.883789,-1.24707,-28.015135,155.487061,249.992355,1.387695,-0.718262,0.057129,45.341488,-128.707886,-249.992355
-0.682373,1.728516,-1.062256,-6.492614,185.554489,249.992355,1.211914,-0.845459,0.206055,45.043941,-166.419968,-249.992355
-0.720215,1.775391,-1.209961,-22.819517,169.998154,249.992355,2.437012,-0.926025,-0.297363,17.539978,10.749816,-249.992355
-0.714844,1.763428,-1.164063,-17.593384,177.98613,249.992355,0.745361,-2.681396,0.57666,249.992355,53.039547,249.992355
-0.702881,1.768799,-1.110107,-12.275695,183.586105,249.992355,0.698486,-2.06665,0.890381,249.992355,76.301575,249.992355
-0.704834,1.811523,-1.234375,-25.657652,162.384018,249.992355,0.501221,-1.674072,0.667969,249.992355,65.612793,249.992355
-0.796387,2.054688,-1.114014,-55.976864,140.25116,249.992355,-0.032227,-1.456543,0.419189,249.992355,28.106688,249.984726
2.352051,1.588379,1.148926,-57.456966,22.972105,249.389633,-0.542236,-1.288086,0.278076,249.786362,-17.707825,249.992355
-0.814941,2.180664,-1.094971,-76.339722,107.833855,249.992355,-1.040283,-1.131348,0.239258,249.992355,-61.576839,249.992355
-0.755127,2.195313,-1.05249,-91.323845,102.72216,249.992355,-1.579834,-0.961426,0.237305,249.992355,-94.367973,249.076828
-0.600342,2.272461,-0.979248,-104.057304,107.604973,249.992355,-2.256348,-0.744629,0.28125,240.776047,-103.836052,249.992355
-0.489502,2.210449,-0.810303,-104.141228,108.551018,249.992355,-3.163818,-0.538818,0.373291,231.803879,-88.760368,249.992355
-0.397461,2.244629,-0.641357,-102.081291,85.037224,249.992355,-4.12207,-0.497559,0.497803,235.5728,-51.834103,202.827438
-0.208496,2.369873,-0.500488,-113.044731,40.534969,249.992355,-0.565674,-1.161621,0.628662,-157.279968,-239.952072,-249.992355
0.039795,2.359863,-0.303223,-117.439262,-9.231567,249.984726,-5.685791,-0.424072,1.437256,187.744125,-22.178648,98.381035
0.375488,2.354248,-0.14502,-121.437065,-36.071777,249.992355,-5.623291,-0.314453,1.925293,126.960747,-111.556999,105.995171
0.953125,2.23291,0.14917,-126.281731,-34.973145,249.992355,-4.740234,-0.300781,2.080322,62.507626,-188.041672,77.24762
1.634766,1.908203,0.615967,-105.636589,-13.481139,249.450668,-3.8479,-0.315674,1.999756,0.007629,-196.296677,-25.3067
-0.673828,1.671387,-1.030518,-2.731323,185.440048,249.992355,-3.338623,-0.421387,1.77417,-54.496761,-173.179611,-94.932549
-0.834229,2.116455,-1.098145,-64.170837,120.925896,249.992355,-2.946533,-0.560059,1.516357,-78.262329,-174.110397,-91.026299
-0.667725,1.631836,-1.022217,-0.25177,186.080917,249.992355,-2.379639,-0.506592,1.153564,-98.82354,-200.561508,-76.683044
-2.31543,1.486084,-1.267334,11.95526,249.992355,172.18779,-2.151611,-0.5271,0.777588,-114.273064,-214.385971,-117.416374
-0.687744,1.518311,-1.125244,3.356933,190.002426,249.992355,-1.828369,-0.705078,0.631348,-119.285576,-211.364731,-200.401291
3.056396,1.344238,1.749512,-1.25885,75.85144,249.992355,-1.201416,-0.921387,0.603271,-136.428833,-218.650803,-247.741684
-3.828125,1.677002,-0.823486,180.465683,10.406493,-117.324821,1.021973,-3.059326,0.4375,249.992355,31.196592,249.992355
-4.352295,2.235596,-1.039551,141.998291,33.64563,-61.218258,-5.000488,-0.50708,0.827637,223.686203,-8.514404,135.71167
-4.820313,2.788574,-1.30542,86.692802,49.85046,3.494262,1.143066,-3.040771,0.279785,249.992355,33.256531,249.992355
-5.212891,3.279541,-1.595215,31.234739,46.722408,66.688538,0.524414,-2.150635,0.570557,142.89093,195.892319,249.992355
-5.177002,3.779053,-1.872803,-3.257751,30.242918,128.120422,0.996582,-2.937012,0.071777,231.16301,135.116577,249.992355
-4.806152,4.070313,-2.090088,-42.152401,39.344788,174.606308,0.018066,-1.370605,0.659912,-169.723495,-249.992355,-249.992355
-4.513672,3.836914,-2.172852,-88.188164,84.098808,200.576767,2.110596,-2.259766,-0.094727,247.66539,24.246214,249.992355
-4.408691,3.344727,-2.233643,-114.494316,164.566025,218.93309,1.697266,-2.055176,-0.146484,249.80925,20.355223,249.992355
-4.248779,2.870361,-2.141602,-92.063896,237.899765,204.963669,1.407471,-1.986328,-0.098877,249.969467,3.288269,249.992355
-0.64917,1.585205,-1.05127,2.006531,187.423691,249.992355,1.088379,-1.888184,0.10376,249.771103,-19.187927,249.992355
-3.793945,2.654053,-2.179443,-58.403011,249.992355,187.271103,0.798584,-1.69751,0.299072,249.992355,-42.839046,249.992355
-2.618896,1.94043,-1.600586,-6.54602,249.992355,170.120224,0.584961,-1.492432,0.489502,249.93895,-59.707638,249.992355
-2.107666,1.206299,-1.05835,24.16992,249.992355,183.547958,0.440918,-1.357422,0.656982,234.214767,-63.896175,249.992355
-1.811768,1.177246,-0.898682,32.333374,249.977097,203.529343,0.377197,-1.303223,0.756592,210.74675,-58.601376,249.992355
-1.488037,1.327148,-0.746826,39.665222,249.923691,224.304184,0.401367,-1.346191,0.776123,184.03624,-41.946407,249.992355
-1.2771,1.497314,-0.793457,38.17749,249.992355,242.446884,1.000977,-2.958252,0.056152,248.733505,71.075439,249.992355
-1.094482,1.519775,-0.97168,28.07617,249.526962,249.992355,0.467041,-1.530273,0.714355,163.795456,-3.265381,249.992355
-0.918945,1.442383,-1.105225,18.814087,242.897018,249.992355,0.555176,-2.094482,0.54126,149.528503,125.778191,249.992355
-0.83252,1.383789,-1.156494,14.335631,231.605515,249.992355,0.557861,-2.027344,0.607178,129.150391,243.896469,249.992355
-0.812012,1.39624,-1.182617,10.398864,214.721664,249.992355,0.757324,-1.952881,0.628906,109.313957,249.992355,249.992355
-0.780029,1.447998,-1.181885,5.958557,198.387131,249.992355,1.081299,-2.11084,0.725098,95.245354,249.984726,249.992355
-3.169922,2.372314,-1.974609,-30.418394,249.992355,172.637924,1.305908,-2.413086,0.804688,94.009392,249.992355,249.992355
-3.421387,1.133789,-0.664795,209.625229,-43.182369,-152.96936,1.331299,-2.741943,0.811768,104.698174,249.992355,249.992355
3.680908,1.164063,2.290527,58.059689,128.211975,232.67363,1.235352,-3.024414,0.711182,125.114433,249.18364,249.992355
4.218018,1.041748,2.470459,135.910034,162.239059,39.878845,1.131104,-3.163574,0.557861,151.374817,249.992355,249.992355
-1.077148,1.824463,-1.012451,164.276108,-249.992355,-249.992355,1.084473,-3.113525,0.390625,177.413925,249.992355,249.992355
-0.933838,1.840576,-0.981689,183.135971,-249.992355,-249.992355,1.063721,-2.998535,0.219727,203.81926,206.100449,249.992355
-0.875244,1.88623,-0.996094,199.554428,-249.992355,-249.992355,0.538818,-1.834473,0.619141,153.793335,55.740353,249.992355
-0.857422,1.866455,-1.003906,213.020309,-249.68718,-249.992355,2.731201,-3.079346,-0.084961,249.763474,15.914916,249.992355
-0.886719,1.822754,-1.00415,219.032272,-249.992355,-249.992355,0.545654,-1.560303,0.626953,-171.882614,-249.992355,-249.992355
-1.000244,1.730225,-0.978027,217.475876,-249.992355,-249.992355,1.182861,-1.782715,0.513916,-156.204224,-249.992355,-249.992355
-1.198486,1.599365,-0.976074,210.250839,-238.395676,-249.992355,1.838867,-2.644531,0.383789,-20.38574,-122.444145,-249.992355
-1.471436,1.410645,-0.937256,196.639999,-203.178391,-249.992355,2.1875,-3.224121,0.459717,1.525879,-161.460861,-249.923691
-1.759277,1.170166,-0.894531,181.51091,-173.934921,-249.992355,2.743408,-3.611816,0.316162,10.017395,-132.217407,-249.969467
-2.275879,0.776611,-0.874268,155.593872,-123.672478,-249.992355,3.192383,-4.024414,-0.016357,13.710021,-70.4422,-249.992355
-1.188232,1.836182,-1.055908,144.309998,-249.992355,-249.992355,3.631592,-4.473877,-0.498535,8.995056,-9.45282,-247.405991
-2.639404,0.662842,-0.793945,145.927429,-105.072014,-249.992355,3.886475,-4.283203,-1.066162,-3.929138,116.142265,-243.88121
-3.51416,0.831787,-0.663574,129.890442,-69.061279,-187.850937,3.182861,-4.272705,-1.246582,9.277344,237.113937,-249.992355
-3.970459,1.112549,-0.676025,121.650688,-49.438473,-145.240784,1.689453,-3.74707,-1.405518,9.07135,89.073174,-226.837143
-4.35083,1.45874,-0.720947,113.174431,-24.55139,-99.220268,1.17334,-3.976074,-1.907227,65.65094,-219.657883,-147.56012
-4.640137,1.960205,-0.796387,98.152153,20.805357,-47.790524,5.434082,-2.678467,-4.096191,138.85498,46.913143,-78.392029
-5.119873,2.505371,-0.879883,80.520622,54.222103,5.737304,1.733154,-2.16626,0.415771,-28.785704,-51.23901,-249.992355
-5.434814,2.886719,-0.963379,79.483032,62.606808,54.847713,4.044922,-2.227783,-2.621094,161.209091,65.406799,32.714844
-5.331299,3.422119,-1.16626,78.308105,75.653076,97.206108,3.504883,-1.663818,-1.265381,189.666733,-103.446953,196.319565
-5.028564,3.664795,-1.329834,74.882507,90.88134,136.573792,3.424072,-1.520264,-0.831787,197.25798,-104.011528,242.889389
-4.857422,3.65625,-1.414551,59.852596,109.199516,183.570847,3.106689,-1.102295,-0.533691,191.711411,-71.784973,249.992355
4.097656,1.119141,2.525879,108.924858,161.918625,135.025024,2.674316,-0.884277,-0.310059,189.117416,-23.620604,249.961838
-3.066406,0.675049,-0.705078,136.856079,-87.806694,-224.555954,2.275635,-0.951172,-0.159424,192.825302,26.481627,249.717697
-1.180176,1.826172,-1.036133,123.756401,-249.992355,-249.992355,1.849609,-1.100586,0.015381,196.426376,63.476559,249.992355
-2.005859,0.94873,-0.893555,167.373642,-146.66748,-249.519333,1.43335,-1.283691,0.249512,198.8983,86.372368,249.908432
-1.253418,1.836914,-0.971191,90.698235,-249.992355,-249.992355,1.043457,-1.46167,0.436523,199.455246,94.482414,231.933578
-1.244385,1.86499,-1.005371,103.645317,-249.992355,-249.992355,0.71582,-1.537354,0.468994,197.38768,83.854668,216.407761
4.012451,0.983154,1.873291,119.773857,89.706413,-49.751278,0.942871,-1.704346,0.55127,-165.641769,-249.992355,-249.992355
3.493896,0.735596,1.522461,100.685112,22.91107,-79.856873,3.625732,-1.738037,-1.814941,174.766525,-41.618343,121.932976
2.594482,0.311035,1.309326,87.760918,-27.641294,-125.389091,1.694336,-1.800781,0.399414,-26.268003,10.002136,-249.992355
2.042969,0.169189,1.006348,78.811646,-70.861816,-161.117538,4.599121,-3.918945,-3.611816,103.622429,-238.021835,-135.528564
1.826172,0.155762,0.69043,68.763733,-86.135857,-194.061264,1.573242,-1.313232,0.165283,-6.553649,59.318539,-249.992355
1.578125,0.023682,0.335938,71.411133,-58.952328,-238.304123,1.33667,-1.800781,0.505615,-147.354126,-249.992355,-249.992355
1.2229,0.032715,-0.084229,70.365906,-1.274109,-249.992355,1.629395,-1.517822,0.256592,-17.654419,47.309872,-249.992355
0.930176,0.062744,-0.439941,62.095638,32.463074,-249.992355,1.42041,-1.817139,0.501953,-138.22937,-249.992355,-249.992355
0.455322,0.187988,-0.898682,68.778992,19.622803,-249.992355,1.452881,-1.849609,0.494629,-128.173828,-249.992355,-249.992355
-0.169189,0.419189,-1.140869,76.11084,-22.834776,-249.992355,1.468018,-1.883057,0.499756,-115.936272,-249.992355,-249.992355
4.198242,1.017578,2.213379,135.177612,134.056091,-17.593384,1.431641,-1.925293,0.520508,-100.502007,-249.992355,-249.992355
-0.802002,0.686523,-1.063477,66.665649,-113.914482,-249.992355,1.360352,-1.944336,0.563477,-83.923332,-249.992355,-249.992355
-0.575928,0.575928,-1.0979,74.97406,-72.776794,-249.992355,1.296387,-1.996826,0.6875,-47.21069,-249.992355,-249.992355
-1.239502,1.670166,-0.979004,71.94519,-249.992355,-249.992355,1.355957,-2.028564,0.760254,-25.665281,-249.992355,-249.992355
-1.508545,1.629883,-1.041748,60.745235,-249.992355,-249.992355,1.445557,-2.020264,0.816895,-5.729675,-249.992355,-249.992355
-1.75415,1.60498,-1.119873,42.945858,-249.992355,-249.992355,1.511719,-1.949951,0.866943,9.346008,-249.992355,-249.992355
-1.802979,1.570068,-1.191895,25.077818,-249.992355,-249.992355,1.300049,-1.955811,0.619629,-66.726685,-249.992355,-249.992355
-1.170898,1.725098,-0.91748,80.68084,-249.992355,-249.992355,1.520752,-1.781738,0.80249,29.136656,-249.610886,-249.992355
-1.385498,1.120605,-1.269287,17.860413,-249.54985,-249.992355,1.480713,-1.219727,0.075928,6.813049,53.306576,-249.992355
-1.120605,0.980957,-1.169678,31.402586,-220.504745,-249.992355,1.533691,-1.85498,0.873047,20.065308,-249.992355,-249.992355
-0.909912,0.822266,-1.065674,51.170345,-161.369308,-249.992355,1.338867,-1.292236,0.075195,27.297972,3.372192,-249.992355
-1.607422,1.366943,-1.288574,15.762328,-249.992355,-249.992355,1.330811,-1.359619,0.165771,34.088135,-51.300045,-249.992355
-0.887451,1.802002,-1.279541,11.894225,76.698303,249.992355,1.340088,-1.450439,0.246826,41.137691,-116.600029,-249.992355
-1.153564,1.848389,-1.145264,58.685299,241.859421,249.992355,1.383057,-1.234619,0.023682,19.378662,36.636353,-249.992355
-1.101807,1.843506,-1.11084,56.739803,202.331528,249.992355,1.364746,-1.611328,0.477295,44.914242,-236.473068,-249.992355
-1.002686,1.874756,-1.029541,50.140377,171.661362,249.992355,1.41333,-1.66748,0.593262,41.679379,-249.992355,-249.992355
-0.888428,1.907471,-0.988037,39.596558,156.646729,249.992355,1.479736,-1.714355,0.703857,36.148071,-249.893173,-249.992355
-0.859863,1.877441,-1.009033,27.839659,149.108887,249.992355,1.347412,-1.539795,0.352051,44.906612,-180.37413,-249.992355
-0.858887,1.839355,-1.074219,19.226074,139.854431,249.992355,0.577881,-2.12793,0.593262,249.992355,-2.388,249.992355
-1.285889,1.864746,-0.981201,59.188839,249.992355,249.992355,0.866455,-2.063721,0.4021,191.940292,153.97644,249.992355
-0.873535,1.80127,-1.161377,14.434813,123.451225,249.992355,0.920654,-2.239502,0.513916,202.743515,163.61998,249.992355
-0.892334,1.795898,-1.225342,13.34381,100.296013,249.992355,0.94873,-2.436523,0.656982,217.758163,180.839523,249.992355
-0.80957,1.778809,-1.278564,6.996154,57.167049,249.992355,0.900391,-2.515137,0.799561,233.711227,194.198593,249.992355
-0.609863,1.818604,-1.147949,-62.149044,42.839046,249.992355,0.776855,-2.392578,0.89624,246.200546,186.058029,249.992355
-0.697754,1.778809,-1.169189,-11.71112,34.225464,249.992355,0.65918,-2.209961,0.934814,249.984726,157.836914,249.992355
-0.680664,1.8125,-1.162354,-26.290892,31.921385,249.992355,0.60083,-2.153564,0.901611,249.992355,121.009819,249.992355
-0.626709,1.813965,-1.145996,-43.724056,35.690308,249.992355,0.523682,-2.126953,0.79248,249.992355,77.857971,249.992355
-0.585449,1.842041,-1.185059,-81.733696,49.034115,249.992355,0.46875,-2.074219,0.672363,249.992355,33.950806,249.992355
-0.551025,1.848389,-1.203125,-101.272575,61.080929,249.992355,0.795166,-2.3396,0.542969,249.992355,-20.378111,249.992355
-0.572754,1.840088,-1.184326,-119.934074,82.588188,249.992355,-3.029785,-0.050293,0.697266,146.766663,22.766111,249.67955
-0.623535,1.809082,-1.184082,-137.367249,107.307426,249.992355,1.076904,-2.31958,0.310547,249.992355,19.996643,249.992355
-0.5979,1.753174,-1.129639,-145.950317,129.837036,249.992355,0.951904,-2.015381,0.317383,249.992355,41.641232,249.992355
-0.515137,1.745605,-0.994629,-148.872375,147.55249,249.992355,0.539551,-1.743164,0.369141,249.992355,47.660824,249.992355
-1.640625,1.850098,-0.730713,65.597534,249.778732,249.992355,0.078125,-1.529053,0.382813,249.946579,34.545898,249.992355
-0.718262,1.762207,-1.200684,-1.068115,43.106075,249.992355,-0.337646,-1.277344,0.466553,249.465927,1.205444,249.984726
-1.958984,1.702881,-0.541748,71.548462,249.748215,249.992355,-0.791504,-1.012207,0.59668,249.992355,-44.258114,249.992355
-0.385742,1.736572,-0.829102,-165.565475,172.599777,249.992355,-1.31543,-0.792236,0.666504,249.992355,-82.374565,249.847397
-2.108643,1.721191,-0.762451,76.202393,238.403305,249.992355,-1.779785,-0.558105,0.696533,216.758713,-90.148918,248.825058
-1.437256,1.88208,-1.18457,249.992355,-249.992355,-249.992355,-2.300293,-0.274414,0.720703,179.016098,-51.597591,249.992355
-1.44751,1.72583,-1.145508,249.992355,-249.855026,-249.992355,0.804688,-1.932861,0.347412,182.106003,151.237488,249.992355
-1.459229,1.511475,-1.064453,249.992355,-248.992905,-249.992355,0.971191,-2.466309,0.427734,249.992355,-9.95636,249.992355
-1.532715,1.201416,-1.001221,249.992355,-249.992355,-249.67955,0.705811,-1.830078,0.334473,173.69841,153.923035,249.992355
-1.665527,0.854492,-0.95874,249.992355,-248.985275,-249.992355,2.97583,-2.628906,-1.114502,-25.001524,12.855529,-231.773361
-1.862793,0.583252,-0.878662,249.656662,-181.686386,-249.992355,0.597168,-1.744629,0.467773,172.210678,174.339279,249.992355
-2.268799,0.422852,-0.77002,249.992355,-114.059441,-236.694321,-4.032959,0.029297,0.683105,105.88073,97.457878,174.171432
-2.774658,0.421631,-0.648682,249.992355,-62.965389,-207.366928,3.33252,-3.084961,-1.371826,-13.992309,-19.096375,-189.056381
-3.226074,0.637939,-0.540771,232.7957,-9.643555,-175.453171,3.699463,-3.503418,-1.6521,5.821228,-60.844418,-142.333984
-3.694336,1.083496,-0.556885,199.310287,47.721859,-132.93457,4.22168,-3.865234,-2.007324,34.805298,-86.875908,-90.12603
-2.045166,1.530273,-0.542236,76.812744,249.694809,249.992355,4.74585,-4.077393,-2.238037,66.436768,-76.324463,-28.869627
-4.069092,1.653076,-0.810547,158.39386,108.245842,-88.401787,4.699463,-3.594482,-2.16333,89.225761,-78.659058,40.40527
-5.05542,2.990723,-1.494629,55.496212,157.928467,37.864685,4.399414,-3.151611,-1.895264,107.757561,-120.223991,116.84417
-5.477783,3.34082,-1.781982,12.161254,117.965691,112.228386,4.385498,-3.237061,-1.650146,124.725334,-152.572632,186.210617
-5.533691,3.666504,-2.057129,-12.08496,75.492859,184.173569,4.513184,-3.656494,-1.458252,145.957947,-126.403801,237.46489
-5.071777,4.283936,-2.207764,-40.840145,80.070496,237.541183,4.431152,-3.745361,-1.207031,173.0728,-53.962704,249.992355
-4.603516,4.562744,-2.164551,-57.54089,121.7575,249.992355,3.883301,-3.175781,-0.774658,178.642258,19.142151,249.992355
-4.525146,4.355713,-2.041992,-55.824276,151.237488,249.992355,3.107178,-2.572021,-0.329834,167.991623,85.311882,249.992355
-4.250977,3.62793,-1.892334,-40.801998,160.72081,249.992355,2.446777,-2.190918,-0.136719,155.822754,149.757385,249.977097
-3.589844,2.88208,-1.792725,-4.470825,168.90715,249.992355,1.968262,-2.075928,-0.074219,153.282166,201.004013,249.93132
-2.953125,2.507568,-1.549072,41.198727,185.058578,249.992355,1.531738,-2.03833,0.013428,158.004761,229.560837,249.992355
-2.424316,2.223389,-1.158203,67.306519,211.692795,249.992355,1.094727,-1.964844,0.117676,163.185104,235.610947,249.626144
-4.501953,2.370361,-1.16748,108.482353,157.272339,-34.835815,0.790283,-1.888916,0.168457,171.081528,226.783737,244.842514
-0.216309,1.623535,-0.669434,-180.221542,200.515732,249.992355,0.67627,-1.838379,0.201172,177.73436,212.37944,245.162949
-3.056641,0.730225,-0.625244,225.555405,-106.292717,-179.840073,0.656494,-1.781494,0.241943,181.060776,200.752243,249.397263
-0.122314,1.330322,-0.716797,-194.35881,207.862839,249.984726,0.663086,-1.713135,0.278076,184.501633,193.817123,249.992355
-1.452148,1.701904,-1.421387,135.795593,-249.992355,-249.992355,0.656494,-1.672607,0.347656,183.624252,189.674362,249.992355
-1.458252,1.798828,-1.314941,158.653259,-249.992355,-249.992355,0.62207,-1.696777,0.442383,179.313644,185.005173,249.992355
-1.485596,1.919922,-1.375732,179.946884,-249.992355,-249.992355,0.594238,-1.737305,0.484131,176.124557,180.419907,249.992355
-1.385498,2.002197,-1.382324,193.6035,-249.992355,-249.992355,0.621826,-1.767334,0.393066,170.204147,163.74205,249.992355
-1.337891,2.094727,-1.447998,206.977829,-249.992355,-249.992355,-5.17627,0.017334,0.821289,64.689636,107.406609,95.848076
-1.374512,2.202148,-1.521484,217.712387,-249.992355,-249.992355,-5.917969,-0.439697,1.149658,36.155701,65.742493,28.793333
-1.469482,2.244141,-1.548096,227.287277,-249.992355,-249.992355,-5.703613,-1.061523,1.852539,-0.38147,30.227659,-45.3186
-1.409912,2.198242,-1.567871,238.204941,-249.992355,-249.992355,1.466309,-2.101074,0.258545,-11.70349,-249.992355,-249.992355
-1.255859,2.120117,-1.525391,247.344955,-249.992355,-249.992355,1.400391,-1.913574,0.223633,-13.587951,-220.977768,-249.992355
-1.107422,2.090576,-1.431396,249.855026,-249.992355,-249.992355,1.42627,-1.709473,0.190674,-18.501282,-179.756149,-249.992355
-1.42041,1.608398,-1.51416,118.22509,-249.992355,-249.992355,1.512695,-1.40625,0.106201,-22.140501,-137.634277,-249.992355
-1.014648,2.109131,-1.340576,249.992355,-249.717697,-249.992355,1.562256,-1.0354,0.029297,-26.771544,-75.965881,-249.992355
-1.018311,2.114014,-1.184814,243.621811,-249.992355,-249.992355,1.47583,-0.814209,0.03418,-34.034729,-2.510071,-249.992355
-1.09375,2.035645,-1.135742,234.329208,-238.937363,-249.992355,1.447021,-0.747314,0.013428,-56.175228,41.969296,-249.992355
-1.196045,1.848877,-1.083984,228.126511,-212.88298,-249.992355,1.56958,-0.787109,-0.116699,-75.828552,46.310421,-249.816879
-1.333008,1.715088,-0.966309,222.404465,-198.562607,-249.992355,1.791748,-0.963379,-0.406006,-52.062984,41.549679,-249.671921
-1.557373,1.562012,-0.890381,218.765244,-195.548996,-249.992355,2.199463,-0.922607,-0.683838,-44.746395,24.459837,-249.992355
-1.816895,1.302002,-0.924805,221.45842,-199.760422,-249.793991,1.563477,-2.290527,0.359863,-16.487122,-249.992355,-249.992355
-2.088867,0.97998,-0.959961,226.737961,-204.757675,-249.786362,2.81958,-0.780029,-0.854004,-97.221367,13.298034,-244.819626
-2.299805,0.692383,-0.973389,231.315598,-208.068832,-249.992355,3.023193,-2.958008,-1.484863,-26.412962,211.212143,-220.855698
-2.568604,0.552246,-0.871094,232.299789,-198.547348,-243.484482,2.362061,-2.915771,-1.553955,-20.370481,48.103329,-249.992355
-2.802246,0.55249,-0.707764,229.972824,-162.23143,-209.648117,0.412109,-2.921387,-1.563477,25.756834,-215.91185,-159.27887
-0.980713,2.110596,-1.256348,249.992355,-249.992355,-249.992355,1.933105,-4.825195,-2.648438,118.255608,-249.992355,37.513733
-1.23877,1.541748,-1.276855,95.832817,-249.992355,-249.992355,7.491455,-5.283203,-4.989502,208.457932,-249.992355,29.510496
-0.218994,1.534424,-0.646484,-193.389877,208.084091,249.992355,6.026611,-4.546875,-4.106201,229.499802,-29.136656,39.56604
0.101318,1.190186,-0.386963,74.264526,-249.603256,-249.992355,4.142334,-3.882813,-1.868164,204.750046,7.736206,135.932922
0.169922,1.104248,-0.743408,-176.994308,213.027939,249.992355,3.863281,-4.042236,-1.32959,211.364731,-70.930481,217.010483
0.512207,0.899902,-0.675293,-140.937805,219.596848,249.992355,4.112793,-4.449707,-1.050049,234.695419,-96.450798,248.825058
0.790771,0.726318,-0.497559,-92.277519,220.909103,249.519333,4.121582,-4.853271,-0.582764,249.618515,-65.551758,249.992355
1.113281,0.650146,-0.212402,-44.189449,206.07756,249.992355,3.254395,-1.652832,-1.090332,-76.210022,94.718925,-216.194138
1.495117,0.644287,0.147217,-8.69751,176.994308,249.992355,1.562256,-2.426514,0.482178,-28.106688,-249.420151,-249.992355
1.969727,0.628906,0.506104,16.036987,149.551392,232.055649,3.614258,-4.364258,-0.153076,249.992355,-15.907287,249.992355
2.992188,0.650879,0.937988,51.61285,113.56353,129.074097,1.452148,-2.44043,0.604004,-58.334347,-249.992355,-249.992355
3.216309,0.884033,1.006104,43.815609,99.525444,95.710747,-4.773193,-1.118652,2.521729,-78.414917,-27.870176,-139.648438
3.453613,1.112549,0.998291,18.539429,93.765251,74.150085,-3.791992,-0.486572,2.607178,-183.837875,-119.087212,-170.898422
3.715088,1.230713,0.780518,-5.874633,87.562553,68.977356,-3.13623,-0.068604,2.217041,-234.664902,-204.849228,-168.579086
2.54248,0.573242,0.779785,38.55896,130.867004,175.407394,-2.929199,-0.427734,1.105957,-214.965805,-248.191818,-231.399521
2.679443,1.470215,0.099121,-10.299682,-4.226685,64.849854,-2.395996,-0.898926,0.644043,-202.476486,-249.992355,-249.992355
3.416504,1.333984,0.353027,-11.291503,66.009521,68.649292,-1.267578,-1.209473,0.720459,-201.92717,-249.992355,-249.992355
0.977295,0.603271,0.154785,120.124809,-233.787521,-249.992355,1.499756,-2.469971,0.56543,-44.418331,-249.992355,-249.992355
0.613037,0.085693,-0.01123,139.358521,-249.42778,-249.992355,0.240723,-1.609863,0.628418,-197.13591,-249.992355,-249.992355
0.913818,-0.006348,0.002441,78.201294,-249.992355,-248.840317,0.817383,-1.719482,0.57373,-195.930466,-249.992355,-249.992355
1.647217,0.794434,0.114502,-0.12207,-249.740585,-181.800827,1.184814,-1.862305,0.545166,-188.796982,-249.992355,-249.992355
0.817383,0.940674,-0.032959,87.882988,-238.84581,-249.992355,1.317139,-2.026367,0.576904,-175.880417,-249.992355,-249.992355
2.384766,0.864014,0.64917,-50.598141,-249.992355,-5.546569,-0.419434,-1.454102,0.704102,-199.447617,-249.992355,-249.992355
1.976807,1.007324,0.732666,-59.272762,-219.017014,19.470215,1.624268,-2.447998,0.649658,-143.081665,-249.992355,-249.992355
2.06665,1.275146,0.274414,-22.933958,-118.675224,45.333858,1.816406,-2.569336,0.616455,-126.510612,-249.992355,-249.992355
2.319092,1.023682,0.345703,-23.109434,-249.954208,-64.552307,1.897705,-2.543213,0.55957,-114.257805,-249.992355,-249.992355
-0.636475,1.428467,-0.831055,77.804565,-249.992355,-249.992355,1.816162,-2.48999,0.504883,-104.431145,-249.992355,-249.992355
-2.961182,1.140381,-1.253662,35.369873,249.786362,231.819138,1.745605,-2.482178,0.490234,-93.414299,-249.954208,-249.992355
-4.443604,4.207764,-0.555176,87.638847,-31.959532,-103.698723,1.717773,-2.493896,0.49585,-80.986015,-249.992355,-249.992355
-4.929932,4.318604,-0.820801,43.571468,-12.046813,-29.594419,1.710693,-2.487549,0.50415,-72.486877,-249.992355,-249.992355
-5.220459,4.15918,-1.14624,12.245177,5.683898,66.383362,1.666748,-2.43335,0.516602,-69.068909,-247.978195,-249.992355
-5.474609,3.823242,-1.36084,-5.783081,24.360655,166.740402,1.584961,-2.378174,0.547119,-68.275452,-248.4207,-249.992355
-5.468262,3.425049,-1.390625,-5.615234,53.390499,235.81694,1.487793,-2.392822,0.593262,-65.994263,-249.992355,-249.992355
-5.016357,2.914551,-1.375977,14.282226,93.460075,249.824509,1.422607,-2.216553,0.625977,-160.903915,-249.992355,-249.992355
-4.336426,2.327393,-1.273438,26.05438,145.874023,249.992355,1.052246,-2.41333,0.472168,89.141838,201.141342,249.992355
-3.677979,1.648193,-1.124268,21.27075,199.226364,249.992355,0.969482,-2.315186,0.441162,92.39959,172.454819,249.992355
-3.314697,1.213867,-1.115234,26.18408,236.984238,240.180954,0.949707,-2.206543,0.422363,99.555962,145.500183,249.992355
-1.075439,2.094482,-1.215576,17.425537,180.091843,249.992355,0.869141,-2.087402,0.450928,111.312859,111.67907,249.992355
-1.866699,1.22876,-1.238281,44.853207,249.992355,249.992355,0.499756,-1.870117,0.383789,186.233505,70.121765,249.992355
-1.729248,1.345947,-1.215332,45.577999,249.771103,249.992355,0.680908,-1.834229,0.524414,144.325256,60.699459,249.992355
-1.6875,1.536133,-1.212158,45.81451,237.915024,249.992355,0.606445,-1.797852,0.513184,164.451584,49.369808,249.992355
-1.47168,1.723633,-1.174316,47.027584,236.762985,249.992355,0.546387,-1.826172,0.448975,179.611191,52.413937,249.992355
-1.221924,1.874512,-1.154541,48.355099,248.176559,249.992355,0.780762,-1.950439,0.491699,126.106255,81.947319,249.992355
-1.187744,1.983154,-1.146484,44.136044,246.543869,249.992355,1.18457,-2.51001,0.53418,89.820854,236.95372,249.992355
-1.236084,2.003174,-1.198486,35.598755,224.449142,249.992355,0.788574,-2.652344,0.435303,249.992355,60.676571,249.992355
-1.181396,2.010498,-1.227295,26.428221,201.065048,249.992355,1.18457,-2.691162,0.668945,101.310722,249.992355,249.992355
-1.073486,2.039063,-1.187988,20.736692,186.508163,249.992355,1.147217,-2.737305,0.721191,111.0382,249.793991,249.992355
-3.87207,3.86084,-0.455322,129.722595,-70.68634,-155.944824,1.130127,-2.778809,0.774658,122.947685,249.992355,249.992355
-2.516357,1.157471,-1.335449,40.039063,249.969467,234.207138,1.070068,-2.779053,0.800049,136.46698,249.992355,249.992355
-3.46875,3.419434,-0.504883,156.784058,-120.330803,-191.696152,0.964355,-2.707764,0.796143,149.688721,242.393478,249.992355
-0.621094,1.594971,-0.750977,147.476196,-195.816025,-249.992355,0.822266,-2.65332,0.758789,166.473373,213.302597,249.992355
-2.664307,2.454102,-0.574951,176.21611,-171.394333,-249.992355,0.684082,-2.635986,0.67041,187.927231,175.147995,249.992355
-1.308105,1.314453,-0.706055,4.165649,-249.992355,-249.992355,0.626221,-2.585449,0.581543,212.425217,135.71167,249.992355
-1.291016,1.387207,-0.775146,23.780821,-249.992355,-249.992355,0.662109,-2.506104,0.493164,238.616928,101.959221,249.992355
-1.202393,1.41626,-0.828613,41.007992,-249.992355,-249.992355,0.768311,-2.495361,0.425537,249.839767,79.269409,249.992355
-1.147461,1.445068,-0.866211,57.54089,-249.992355,-249.992355,0.524414,-1.945068,0.304443,186.561569,99.388115,249.992355
-1.141357,1.500977,-0.917969,71.914673,-249.992355,-249.992355,1.219482,-2.607178,0.603516,93.696587,249.992355,249.992355
-1.153564,1.563965,-1.008057,84.167473,-249.992355,-249.992355,0.662109,-2.070313,0.220215,181.472763,133.636475,249.992355
-1.220459,1.598877,-1.111084,98.022453,-249.992355,-249.992355,5.053955,-3.737549,-2.064697,142.684937,123.291008,19.53125
-1.226074,1.581787,-1.138672,113.090508,-249.992355,-249.992355,1.262451,-2.262451,0.230469,158.920288,170.089706,249.992355
-1.097656,1.540527,-1.085449,130.882263,-249.992355,-249.992355,0.604004,-2.776855,0.461914,249.992355,42.518612,249.992355
-0.928955,1.509521,-1.051758,148.208618,-249.839767,-249.992355,1.469971,-0.716797,0.394531,48.805233,57.601925,-249.992355
-3.04248,2.927734,-0.557373,171.546921,-152.877808,-226.013168,1.498047,-0.609619,0.354248,31.784056,46.669003,-249.992355
-0.73584,1.489502,-0.981689,160.797104,-249.290451,-249.992355,1.567383,-0.690186,0.223145,23.246763,37.452698,-249.992355
-0.525391,1.564209,-0.832031,163.001999,-247.100815,-249.992355,1.712402,-0.872803,0.01001,22.270201,25.596617,-249.961838
-1.050537,2.120361,-1.252441,15.846251,178.947433,249.992355,1.893555,-1.119385,-0.12793,26.298521,9.422302,-249.488815
-0.901123,1.512695,-0.734131,130.943298,-156.959534,-249.992355,2.195801,-1.40332,-0.260742,33.714294,1.327515,-249.992355
-1.169678,1.383789,-0.758057,119.148247,-144.462585,-249.992355,2.606689,-1.69043,-0.367188,35.064697,11.093139,-249.992355
-1.381104,1.305908,-0.731201,110.53466,-149.330139,-249.992355,3.097168,-2.112793,-0.500244,31.005857,42.16003,-218.620285
-1.570068,1.291992,-0.725586,109.619133,-162.10936,-249.992355,3.436035,-2.710693,-0.783936,32.180786,59.310909,-176.055893
-1.759521,1.348145,-0.782471,121.170036,-174.629196,-249.992355,0.924805,-2.229004,0.181396,172.248825,160.461426,249.992355
-1.954834,1.495361,-0.834717,140.571594,-182.281479,-249.961838,3.280273,-3.356689,-1.149902,49.018856,-6.767272,-136.383057
-2.178955,1.744141,-0.798584,158.790588,-185.058578,-249.626144,4.945313,-3.874268,-2.189209,121.452324,8.995056,-35.53009
-2.415283,2.056641,-0.663818,171.356186,-182.350143,-249.992355,4.477295,-3.626465,-1.636719,149.330139,104.461662,84.526054
-0.602051,1.512695,-0.910645,167.106613,-249.992355,-249.992355,4.259277,-3.619141,-1.369873,151.397705,5.645751,171.089157
-0.919922,2.141846,-1.242676,14.251708,180.12236,249.992355,4.364502,-3.963379,-1.086426,155.281067,-63.438412,239.387497
-2.158936,1.181152,-1.320557,43.403622,249.80925,245.26976,4.424072,-4.130127,-0.808838,167.724594,-73.776245,249.992355
-0.763428,2.177979,-1.23999,13.09204,181.770309,249.992355,4.142578,-3.731445,-0.526123,175.918564,-38.543701,249.992355
1.07251,0.814209,-0.427734,-93.315117,-249.992355,-216.125473,3.56958,-3.024658,-0.121826,168.869003,20.256041,249.992355
0.369629,0.758545,-0.630859,-49.888607,-249.992355,-249.626144,2.849609,-2.435547,0.149414,155.838013,86.34185,249.992355
-0.069336,0.650146,-0.618408,-8.674622,-249.992355,-249.992355,2.241455,-2.218506,0.237793,148.826599,137.168884,249.992355
-0.354248,0.685547,-0.554443,9.933472,-249.992355,-249.992355,1.674316,-2.210205,0.291504,149.177551,162.445053,249.992355
-0.237061,0.761963,-0.510498,15.434264,-249.992355,-249.992355,3.809326,-3.769287,-1.63623,82.466118,-77.133179,-92.956535
-0.302246,0.906494,-0.555176,27.381895,-249.992355,-249.992355,0.396973,-2.671631,0.484863,249.992355,28.427122,249.992355
-0.581055,1.109375,-0.683838,41.748043,-249.992355,-249.992355,0.046631,-2.425781,0.460449,249.908432,14.663695,249.992355
-0.758789,1.30127,-0.765381,54.016109,-249.992355,-249.992355,-0.487793,-2.123291,0.389893,249.656662,-0.221252,249.984726
-0.912598,1.464844,-0.833252,61.584469,-249.992355,-249.992355,1.856445,-2.498779,0.77417,-80.718987,-249.992355,-249.992355
-1.281982,1.674316,-0.937012,81.665031,-249.992355,-249.992355,1.682617,-2.436279,0.765381,-74.386597,-249.992355,-249.992355
1.806152,0.762695,-0.137939,-130.302429,-249.992355,-145.355225,1.485596,-2.468262,0.716064,-58.998104,-249.992355,-249.992355
-1.362549,1.731689,-0.981201,99.288933,-249.992355,-249.992355,1.376953,-2.519043,0.693604,-38.131714,-249.992355,-249.992355
-1.381592,1.927002,-1.135742,156.524658,-249.992355,-249.992355,1.308838,-2.55957,0.738037,-18.013,-249.984726,-249.992355
-1.386475,2.032471,-1.179199,182.121262,-249.992355,-249.992355,1.243164,-2.592529,0.762695,4.020691,-249.992355,-249.992355
-1.270996,2.081055,-1.186035,205.917343,-249.992355,-249.992355,1.233643,-2.561279,0.746582,24.841307,-249.992355,-249.992355
-1.171143,2.128906,-1.260742,229.949936,-249.992355,-249.992355,1.291016,-2.531982,0.694824,42.976376,-249.198898,-249.992355
-1.199951,2.13916,-1.384033,247.184738,-249.992355,-249.992355,1.34082,-2.543945,0.592773,58.227535,-249.992355,-249.992355
-1.27417,2.126221,-1.399902,249.992355,-249.992355,-249.992355,1.381592,-2.450439,0.442383,69.488525,-210.983261,-249.992355
-1.330322,2.085938,-1.362793,249.992355,-249.992355,-249.992355,1.943359,-2.609131,0.761963,-86.288445,-249.992355,-249.992355
-1.359619,2.011475,-1.301514,249.992355,-249.992355,-249.992355,1.402832,-2.25708,0.367432,63.148495,-144.836426,-249.992355
-1.359863,1.9646,-1.21582,249.992355,-249.984726,-249.992355,1.480469,-1.65918,0.24585,30.46417,-31.318663,-249.992355
-0.677002,2.221191,-1.302979,12.413024,184.097275,249.992355,1.508301,-1.358887,0.231445,10.147094,9.910583,-249.992355
-1.351563,1.797119,-1.039551,126.655571,-249.992355,-249.992355,1.530273,-1.124756,0.241455,-12.313842,40.962215,-249.992355
1.998047,0.704834,0.053223,-140.815735,-249.992355,-102.066032,1.58667,-1.048096,0.171387,-28.495787,67.436218,-249.992355
-1.099609,1.581299,-0.878906,68.954468,-249.992355,-249.992355,1.733887,-1.063232,-0.015625,-37.513733,88.623039,-249.992355
1.925293,0.791504,-0.207764,-41.946407,-182.006821,-32.035828,1.866943,-1.120361,-0.155029,-44.952389,103.698723,-249.992355
1.836914,0.662842,0.050049,-104.644768,-244.987473,-75.271606,1.989258,-1.273438,-0.278076,-50.056454,108.032219,-249.992355
-0.597168,2.310791,-1.434326,11.32965,199.218735,249.992355,2.104492,-1.507324,-0.467285,-48.484798,94.688408,-249.565109
-0.635986,2.338135,-1.410645,17.333984,206.672653,249.992355,2.321289,-1.830322,-0.690674,-41.053768,68.229675,-249.992355
-0.765625,2.365723,-1.357422,19.752502,215.667709,249.992355,2.614502,-2.224121,-0.891113,-31.898497,40.115356,-249.992355
-0.784668,2.468018,-1.185059,12.115478,238.250717,249.992355,1.437012,-1.975586,0.289307,48.812862,-83.343498,-249.992355
-0.588135,2.458008,-0.930908,26.123045,249.992355,249.992355,1.941895,-2.700195,0.707275,-96.893303,-249.992355,-249.992355
-0.440186,2.238281,-0.842041,43.235775,249.992355,249.992355,1.371094,-2.534912,0.497314,67.184448,-249.992355,-249.992355
-0.517822,2.127686,-0.820068,39.093018,249.54985,249.992355,1.753662,-2.548096,0.733154,-122.276299,-249.992355,-249.992355
-0.549561,2.07251,-0.834473,50.308224,249.916061,249.992355,1.85498,-2.700684,0.682373,-110.435478,-249.992355,-249.992355
-0.536621,1.832031,-0.873535,75.645447,249.992355,249.992355,-1.726318,-1.437256,0.375732,248.222336,-18.951416,249.992355
-0.49707,1.587158,-0.907715,107.833855,234.115585,249.992355,-2.376953,-1.095215,0.495605,220.390305,-19.462585,249.244675
-0.334717,1.44458,-0.838867,130.943298,172.103867,249.984726,-3.085938,-0.820557,0.648926,188.148483,-15.373229,249.992355
-0.631104,2.267334,-1.40332,10.726928,189.819321,249.992355,-3.933594,-0.646484,0.748779,159.439087,-10.82611,249.992355
2.824219,0.901123,-0.494385,12.649535,-51.063534,5.004883,-4.66333,-0.616211,0.773193,133.857727,6.225585,220.458969
0.390381,1.116211,-0.439453,151.786804,53.100582,249.992355,-5.100342,-0.705811,0.732666,106.033318,55.786129,130.645752
0.857666,0.987305,-0.229492,149.055481,-1.495361,249.313339,-5.15332,-0.536621,0.696289,52.37579,127.487175,34.637451
1.493652,0.844238,-0.001709,142.745972,-29.273985,249.992355,-4.861328,-0.146729,0.820068,1.586914,201.461777,-80.192566
2.200684,0.712646,0.21167,134.597778,-14.656066,249.992355,-4.919922,0.01001,1.177734,-37.330627,234.985336,-173.973068
2.801758,0.591064,0.382813,121.50573,19.27948,222.579941,-5.66333,-0.172363,1.871826,-107.704155,149.452209,-157.279968
3.227783,0.543213,0.416016,97.923271,52.11639,146.888733,-1.112793,-1.788086,0.347656,249.992355,-11.924743,249.992355
3.545166,0.512695,0.261963,72.875977,95.92437,78.88031,-4.872559,-1.206787,2.632568,-176.330551,-222.320541,-225.715622
3.661865,0.69165,-0.051514,58.151241,133.68988,40.260311,-5.974365,-0.85498,2.669922,-160.476685,-55.175777,-140.289307
3.570557,0.86499,-0.349854,42.564388,83.930962,23.559568,1.539795,-2.072266,0.851563,-128.387451,-249.992355,-249.992355
-0.036865,1.290039,-0.641113,144.760132,111.885063,249.992355,1.370605,-1.867676,0.843506,-121.612541,-249.992355,-249.992355
-5.376465,3.287598,-1.700928,58.319088,107.192986,172.615036,1.124268,-1.704834,0.846924,-112.648003,-249.992355,-249.992355
-5.500244,2.884277,-1.416748,72.441101,81.871025,106.399529,0.654785,-1.546143,0.873291,-101.623528,-249.992355,-249.992355
-5.230957,2.329102,-1.197021,96.488945,75.660706,36.78894,1.672607,-2.307617,0.80542,-129.440308,-249.992355,-249.992355
-4.703125,1.866943,-0.958984,134.239197,81.146233,-27.770994,-0.571777,-1.073486,0.631592,-107.551567,-249.992355,-249.992355
-2.483398,0.370117,-0.751221,241.950974,-153.282166,-232.29216,-1.794678,-0.859619,1.258057,-142.417908,-249.992355,-249.992355
-3.862793,0.772217,-0.534424,200.805649,-4.943848,-118.072502,-3.086182,-0.866699,2.115967,-182.929977,-249.992355,-249.992355
-3.363037,0.456055,-0.496338,218.627914,-55.335995,-161.964401,0.144287,-1.333984,0.741699,-97.30529,-249.992355,-249.992355
-2.907471,0.342285,-0.575928,229.171738,-108.062737,-200.241074,0.618408,-1.636475,0.25293,150.413513,99.113457,249.992355
-4.919189,3.545166,-1.808105,42.015072,138.809204,228.584274,1.933838,-3.477539,0.814453,162.818893,215.446457,247.222885
-4.2146,1.342041,-0.687744,170.631393,51.849361,-80.497734,1.526367,-2.591553,0.518799,143.074036,222.427353,229.309067
-4.41333,3.72998,-1.641602,26.916502,205.139145,249.328598,1.322021,-2.040771,0.269531,147.148132,220.436081,227.027878
-1.754395,2.646484,-1.780762,95.42083,249.610886,171.81395,1.047852,-1.676758,0.26123,154.754639,209.831223,234.649643
-4.309082,3.58667,-1.37915,-1.411438,249.992355,249.992355,0.806396,-1.460938,0.362061,157.341003,189.643845,246.597275
-3.804932,3.59375,-1.690674,-0.495911,249.992355,241.317734,0.657227,-1.422607,0.428955,156.105042,160.095215,249.992355
-2.865479,3.582031,-2.130859,24.696348,249.992355,202.400192,2.522217,-4.160645,0.731445,195.091232,207.351669,249.992355
-2.121094,3.296143,-2.183594,66.856384,249.992355,180.801376,0.601074,-1.487305,0.421875,153.526306,128.959656,249.992355
-1.630859,2.082764,-1.258789,111.007683,249.992355,168.624863,0.595215,-1.57251,0.350586,151.489258,106.895439,249.992355
-1.474365,1.875244,-0.914063,101.394646,249.992355,175.704941,0.668945,-1.671387,0.217773,149.536133,105.735771,249.992355
-1.309814,1.667969,-0.746582,83.404533,230.194077,191.352829,0.78418,-1.931885,0.445557,139.579773,194.580063,249.992355
-1.208252,1.509766,-0.736328,65.635681,204.032883,216.728195,0.778564,-1.713867,0.313477,142.967224,144.393921,249.992355
-1.096436,1.316162,-0.840332,56.159969,185.058578,239.059433,0.795654,-1.766602,0.376953,138.122559,166.336044,249.992355
-0.980225,1.233398,-0.924561,57.571407,169.128403,249.847397,0.79126,-1.845459,0.414063,135.803223,183.837875,249.992355
-4.359863,3.679199,-1.439697,10.345458,248.908981,249.778732,0.768799,-1.986816,0.460693,147.285461,198.226913,249.992355
-2.113525,0.614014,-0.86792,249.992355,-194.953903,-249.992355,0.750488,-2.008057,0.501953,156.021118,194.763168,249.992355
-0.878662,1.263916,-0.961914,62.370296,154.052734,249.992355,0.714355,-1.988281,0.580811,164.421066,183.860764,249.992355
-1.621826,1.098877,-0.873779,249.855026,-249.992355,-249.603256,0.662109,-1.950195,0.667969,169.860825,163.345322,249.992355
0.662109,0.608887,-0.052979,9.178162,-249.992355,-249.992355,0.602783,-1.920166,0.735596,173.774704,132.232666,249.992355
0.834717,0.764404,0.12085,-2.357483,-249.992355,-249.992355,0.526611,-1.910889,0.760986,178.161606,91.529839,249.992355
0.562256,0.800537,-0.00293,-8.674622,-249.992355,-249.992355,3.109131,-4.18042,0.203125,207.122787,204.544052,249.793991
-0.131104,0.885498,-0.294678,9.315491,-249.992355,-249.992355,0.726318,-1.689453,0.259033,147.415161,122.802727,249.992355
-0.720947,1.059814,-0.560791,32.13501,-249.992355,-249.992355,3.525391,-4.351318,-0.242188,202.186569,188.934311,249.900803
-0.992188,1.219482,-0.734619,50.506588,-249.992355,-249.992355,2.046631,-2.664063,0.974121,124.122612,-249.992355,-249.992355
-1.054199,1.30127,-0.862305,68.67218,-249.992355,-249.992355,4.140625,-4.838379,-0.216064,183.540329,82.626335,249.992355
-1.026123,1.379883,-0.966064,88.905327,-249.992355,-249.992355,0.458496,-1.884521,0.75708,181.373581,45.501705,249.992355
-0.992676,1.512939,-0.979004,104.896538,-249.992355,-249.992355,2.006104,-2.630371,0.860596,132.56073,-249.93132,-249.992355
-1.036865,1.602783,-1.025146,119.60601,-249.992355,-249.992355,2.033203,-2.568115,0.766113,136.58905,-238.288864,-249.992355
-1.066162,1.657715,-1.081787,131.011963,-249.992355,-249.992355,2.034668,-2.458252,0.630859,136.878967,-229.52269,-249.992355
-1.070801,1.743164,-1.067139,139.030457,-249.992355,-249.992355,2.003418,-2.288818,0.532715,134.063721,-225.585922,-249.992355
-1.139893,1.823486,-1.117676,149.604797,-249.992355,-249.992355,1.982178,-2.089355,0.49585,130.958557,-218.917831,-249.992355
-1.190918,1.857666,-1.19873,161.85759,-249.992355,-249.992355,2.007568,-1.828125,0.402832,126.327507,-200.996384,-249.992355
-1.189697,1.870117,-1.221436,174.293503,-249.992355,-249.992355,2.035645,-1.527832,0.248047,120.025627,-166.206345,-249.992355
-1.145996,1.865967,-1.21582,187.759384,-249.992355,-249.992355,2.050049,-1.178955,0.094238,113.090508,-118.644707,-249.992355
-1.088623,1.845703,-1.199951,200.41655,-249.992355,-249.992355,2.117432,-0.746826,0.035889,97.846977,-71.311951,-249.763474
-1.107666,1.785156,-1.174072,213.455185,-249.992355,-249.992355,2.223145,-0.383545,-0.02832,75.401306,-31.402586,-249.649033
-1.179443,1.718262,-1.087158,224.60936,-249.992355,-249.992355,2.400146,-0.179443,-0.165527,55.816647,-6.256103,-249.992355
-1.222168,1.636719,-1.020752,232.666,-249.992355,-249.992355,2.623291,-0.150146,-0.38623,47.348019,11.169433,-242.965683
-1.206055,1.548096,-0.958252,237.052902,-249.992355,-249.992355,2.825195,-0.28833,-0.710205,50.376888,6.278991,-197.196945
-1.244141,1.429688,-0.91626,241.638168,-249.763474,-249.992355,2.822998,-0.494873,-0.991211,69.839478,-71.975708,-151.0849
-1.394531,1.273682,-0.894531,247.688278,-249.526962,-249.992355,3.222412,-0.841309,-1.277832,105.506889,-174.789413,-109.329216
-1.850586,0.885498,-0.87915,249.992355,-243.446335,-249.992355,4.329102,-1.124512,-1.685547,138.160706,-161.910995,-44.342037
0.817383,0.371582,-0.263184,-27.45056,-249.992355,-243.919357,4.733887,-1.63501,-1.607666,163.223251,-94.688408,23.674009
-0.780762,1.270264,-0.934814,61.088558,143.165588,249.992355,4.487305,-2.387451,-1.147461,179.306015,-86.433403,73.425293
-0.81543,1.393066,-0.759766,60.43243,137.145996,249.992355,4.513916,-2.955078,-0.844482,186.408981,-85.624687,133.583069
3.124512,0.611084,0.583984,144.752502,66.390991,94.726555,4.631104,-3.418701,-0.723389,195.297226,-56.892391,197.341904
3.563477,0.623291,0.489746,125.427238,124.862663,65.940857,4.713379,-3.977539,-0.564697,200.607285,-7.949829,240.005478
3.306641,0.598877,0.147705,98.892204,125.91552,47.485348,4.445557,-4.440186,-0.333008,189.521774,34.446716,249.992355
3.035156,0.606201,-0.131592,73.242188,107.849113,38.909912,3.849854,-4.799561,-0.328369,194.381699,145.065308,249.992355
2.899414,0.669189,-0.328125,58.92944,85.189812,35.78186,0.420166,-1.837891,0.713135,184.089645,0.976562,249.992355
2.513184,0.886963,-0.541504,47.767635,25.634764,33.26416,1.438477,-0.98291,0.422852,69.43512,66.635132,-249.992355
2.173584,1.008789,-0.563232,29.808043,-80.757133,13.107299,0.412842,-1.76123,0.513672,189.651474,-58.79211,249.992355
1.851074,0.829102,-0.339111,-4.66156,-179.016098,-23.910521,0.457764,-1.692871,0.535889,110.015862,-249.992355,-249.992355
1.758057,0.552246,-0.05127,-44.631954,-211.723312,-68.847656,0.943604,-1.875732,0.769531,145.027161,-249.992355,-249.992355
1.771973,0.469971,0.046875,-86.639397,-183.982834,-135.292053,1.213135,-2.0354,0.943604,173.957809,-249.992355,-249.992355
2.282715,0.622559,0.465088,151.786804,-19.546509,151.695251,1.371338,-2.221924,1.139404,199.630722,-249.992355,-249.992355
1.567383,0.390137,-0.029053,-107.452385,-141.876221,-213.195786,1.517334,-2.427979,1.308838,226.882919,-249.992355,-249.992355
0.737549,0.478027,-0.449951,-87.814323,-143.135071,-249.992355,1.654053,-2.580322,1.455322,246.887192,-249.992355,-249.992355
0.215576,0.708252,-0.544922,-91.186516,-170.982346,-249.992355,1.724609,-2.64502,1.575928,249.992355,-249.992355,-249.992355
0.012939,0.859131,-0.508057,-116.073601,-198.295578,-249.992355,1.723145,-2.654785,1.566162,249.992355,-249.649033,-249.992355
-0.161133,0.914063,-0.514648,-127.769463,-238.677963,-249.992355,1.630371,-2.702637,1.454346,249.992355,-249.633774,-249.992355
-0.658203,1.035889,-0.612793,-122.528069,-249.992355,-249.992355,1.627441,-2.680908,1.365723,249.992355,-239.021286,-249.992355
-1.124023,1.142822,-0.654785,-108.818047,-249.992355,-249.992355,-0.154297,-1.452148,0.273682,69.633484,-249.992355,-249.992355
-1.359131,1.184082,-0.655029,-91.842644,-249.992355,-249.992355,1.605713,-2.602539,1.332764,249.671921,-179.077133,-249.992355
-1.411621,1.174316,-0.633057,-71.884155,-249.992355,-249.992355,1.52417,-2.411621,1.305176,249.992355,-71.609497,-249.992355
-1.370117,1.156982,-0.632813,-47.355648,-249.992355,-249.992355,1.443359,-2.260254,1.260254,235.671982,-40.153503,-249.992355
-1.319336,1.20874,-0.64624,-21.316526,-249.992355,-249.992355,1.34375,-2.160645,1.11499,211.044296,-18.302917,-249.992355
1.127441,0.389648,-0.250244,-103.088371,-121.208183,-249.099716,1.317383,-2.105225,0.910156,191.810593,9.185791,-249.992355
1.606445,0.720215,0.30542,155.044556,-73.379517,229.90416,1.265625,-2.010986,0.765137,172.554001,38.261414,-249.992355
-0.793945,1.305908,-0.871826,60.897823,136.84845,249.992355,1.181396,-1.880859,0.616943,153.282166,57.556149,-249.992355
0.755859,0.868896,-0.001221,179.031357,-43.014523,249.786362,1.202881,-1.717285,0.537598,132.339478,67.146301,-249.992355
1.13623,0.832275,0.161865,164.62706,-77.850342,249.992355,1.289063,-1.520508,0.49292,110.809319,71.205139,-249.992355
-0.878662,1.500732,-0.674316,55.847164,145.393372,249.992355,1.375732,-1.27417,0.455811,90.133659,71.19751,-249.992355
-0.924072,1.571289,-0.65332,47.645565,161.949142,249.992355,0.410889,-1.793945,0.624268,187.072739,-35.255432,249.992355
-1.014404,1.6521,-0.69165,39.321899,175.056442,249.992355,1.575195,-2.512695,1.326904,249.992355,-119.400017,-249.992355
-1.10376,1.703857,-0.779541,35.842896,176.193222,249.992355,-0.591309,-1.178223,0.08667,32.096863,-249.992355,-249.992355
-1.14917,1.734375,-0.896729,38.551331,165.046677,249.992355,1.61084,-2.724609,1.405029,249.992355,-249.992355,-249.992355
-1.149414,1.787109,-1.011719,39.855957,146.774292,249.992355,-0.663574,-0.554443,0.075684,-16.868591,-249.992355,-242.156967
-0.961914,1.90918,-1.043945,33.828735,114.112846,249.992355,-0.781006,-0.888672,0.02832,4.310608,-249.992355,-249.992355
-0.787354,1.898438,-0.960693,36.880493,116.127007,249.992355,0.380859,-1.820801,0.295654,202.224716,-88.722221,249.992355
-0.723877,1.858154,-0.889648,32.394409,146.240234,249.992355,0.198242,-1.880127,0.22998,213.356003,-119.445793,249.992355
-0.662354,1.829346,-0.741699,34.248352,195.045456,249.992355,-0.002686,-1.920654,0.178711,222.900375,-165.687546,249.992355
-1.111816,1.862549,-1.069092,36.895752,126.853935,249.992355,-0.119385,-1.916504,0.124268,232.513412,-209.968552,249.992355
-0.871338,1.963379,-0.455811,14.22882,245.254501,249.992355,-0.135742,-1.750488,0.106934,230.720505,-228.027328,249.992355
-0.915039,1.98877,-0.556641,-7.095336,232.536301,249.992355,-0.03125,-1.458008,0.174316,207.077011,-214.744553,249.992355
-0.871582,1.815674,-0.628906,-19.760132,208.991989,249.992355,-0.053467,-1.191406,0.254883,173.850998,-182.945236,249.984726
0.439453,0.845703,-0.158203,190.07872,10.81848,249.420151,-0.413818,-0.967529,0.314209,140.892029,-135.818481,249.992355
-0.756836,1.473633,-0.727051,-0.907898,193.420395,249.992355,-0.953369,-0.769531,0.419678,108.26873,-82.031242,249.992355
-0.560059,1.138428,-0.837402,42.358395,195.732101,249.992355,-1.528076,-0.615479,0.546387,81.825249,-38.795471,249.168381
-0.357422,0.899414,-0.857422,92.300407,194.061264,249.992355,0.427246,-1.76416,0.387207,193.634018,-72.738647,249.992355
-0.269775,0.765869,-0.716309,138.015747,168.426498,249.984726,-2.818115,-0.138184,0.440918,62.484737,60.623165,249.992355
-0.122559,0.72168,-0.478516,174.011215,122.711174,249.992355,-2.197021,-0.382813,0.585938,66.230774,2.311707,249.992355
0.160889,0.780762,-0.303955,191.062912,67.306519,249.992355,-2.313232,-0.821045,0.518555,-29.510496,-249.992355,-197.00621
-0.738281,1.914551,-0.560547,29.037474,233.268723,249.992355,-4.43457,-1.214355,0.862793,-38.81073,-249.992355,-155.12085
-0.921631,1.903076,-0.84668,249.80162,-77.163696,-249.992355,-5.965332,-0.898926,1.245117,-54.595943,-249.992355,-20.51544
-0.774414,2.030273,-0.830566,249.992355,-108.467094,-249.992355,-6.413574,-0.169922,1.114258,-37.04834,-183.898911,-0.015259
-0.737305,2.0896,-0.860107,249.992355,-154.205322,-249.992355,-0.791016,-0.427246,0.219482,-27.206419,-249.992355,-203.247055
-0.984375,2.542236,-1.020508,249.992355,-249.68718,-249.992355,-5.229004,0.46582,0.308838,19.950867,165.695175,31.890867
-1.0271,2.27124,-1.060547,249.992355,-237.159714,-249.992355,-4.244141,0.225098,0.185791,39.337158,199.768051,137.512207
-1.168457,2.428223,-1.107422,249.992355,-249.992355,-249.992355,-3.409424,-0.040283,0.278809,64.201355,141.784668,214.950546
-1.132324,2.519287,-1.071289,249.992355,-249.992355,-249.992355,-6.054199,0.313721,0.676758,5.050659,21.247862,-48.423763
-1.125977,1.703369,-0.833984,249.992355,-64.094543,-249.992355,4.327393,-3.624512,-1.335693,198.303207,127.235405,70.968628
-0.834961,2.137939,-0.94043,249.992355,-200.553879,-249.992355,2.801514,-2.620361,-0.203857,129.074097,-192.611679,-249.992355
-1.259766,1.494629,-0.813965,249.992355,-58.990475,-249.992355,3.132813,-2.999512,-0.322998,125.862114,-112.327568,-249.992355
-7.989746,3.670654,0.654541,3.189087,176.254257,168.357834,3.333984,-3.470459,-0.519531,120.780937,-42.091366,-223.884567
-1.729736,1.387451,-0.811768,209.602341,-71.342468,-249.992355,3.337402,-4.125,-0.786377,124.580376,-33.409119,-187.202438
-2.054688,1.46167,-0.859375,164.87883,-104.339592,-249.717697,3.421875,-4.464844,-1.214111,140.602112,-68.67218,-148.323059
-2.054199,1.466309,-0.926758,126.800529,-122.367851,-249.748215,4.402344,-4.327393,-1.750732,177.284225,-13.771056,-101.112358
-1.871826,1.59668,-0.956543,102.813713,-96.015923,-249.992355,2.447754,-2.23999,-0.11499,123.756401,-248.146042,-249.519333
-2.005371,2.121094,-0.981689,70.56427,-26.69525,-240.875229,5.180908,-3.832275,-1.942627,205.375656,154.785156,-52.62756
-2.281006,2.493164,-0.934082,38.101196,109.15374,-199.096664,4.849121,-3.565186,-1.668701,205.184921,222.518906,5.455017
-2.170166,2.476074,-0.582764,17.38739,234.741196,-173.004135,4.272217,-3.770996,-0.984375,193.534836,-22.140501,143.569946
-2.779785,2.875244,-0.040527,-6.973266,249.992355,-109.069817,2.540527,-1.638184,0.341553,154.434204,237.96843,249.992355
-5.803223,3.289307,0.23291,-2.113342,249.992355,41.015621,4.373047,-2.370117,-0.314941,181.373581,-92.124931,249.496445
-0.995361,2.522705,-1.023193,249.992355,-249.992355,-249.992355,4.046875,-1.579834,-0.081543,170.04393,20.729063,249.992355
-1.402588,1.360596,-0.81958,242.103561,-56.922909,-249.992355,3.379395,-1.425293,0.229248,160.491943,154.197693,249.740585
-0.943848,2.489014,-1.012207,248.229965,-249.992355,-249.992355,1.743652,-1.858154,0.367188,155.662537,249.984726,249.992355
0.518799,0.180908,-0.255859,-160.118103,-249.992355,-249.992355,1.155762,-1.948242,0.381836,161.132797,249.992355,238.746628
-0.663818,2.203613,-0.644043,207.672104,-249.992355,-249.992355,0.852783,-1.950684,0.329102,170.219406,249.916061,222.702011
-6.446533,3.659424,1.199463,-13.97705,213.607773,231.430038,0.690186,-1.929932,0.259277,178.352341,249.244675,214.622482
2.156494,0.339844,-0.287109,183.303818,-27.221678,173.545822,0.600098,-1.970215,0.209717,189.598068,249.992355,211.563095
2.416748,0.338867,-0.406494,176.368698,18.844604,152.603149,0.535156,-2.062256,0.199951,206.138596,249.992355,229.423508
2.422119,0.407227,-0.541504,157.737732,35.270691,149.894714,2.111328,-1.937012,-0.048584,109.474174,-249.992355,-249.992355
2.225098,0.408936,-0.681152,130.264282,-0.419617,149.520874,4.428223,-3.393555,-0.556641,190.193161,-114.059441,216.491684
1.932861,0.404297,-0.746582,100.265495,-50.315853,132.743835,1.837402,-1.693115,-0.016602,88.264458,-249.259933,-249.992355
1.790283,0.407715,-0.749268,76.49231,-84.747307,101.776115,0.503174,-2.033936,0.32373,215.614304,199.394211,248.863205
1.643799,0.463135,-0.713623,56.182858,-112.442009,59.486385,1.405762,-1.256592,0.265137,49.247738,-196.678146,-249.992355
1.39917,0.575684,-0.611328,19.325256,-178.581223,6.233215,1.333008,-1.626465,0.568604,-109.420769,-249.992355,-249.992355
1.187256,0.718018,-0.443115,-37.467957,-243.1259,-43.365475,1.505615,-1.736572,0.586182,-95.275871,-249.992355,-249.992355
-0.80127,2.380127,-0.885254,231.590256,-249.992355,-249.992355,1.610352,-1.788086,0.600098,-84.732048,-249.992355,-249.992355
1.14209,0.82251,-0.264893,-109.336845,-249.992355,-89.263908,1.618164,-1.764648,0.625244,-79.116821,-249.992355,-249.992355
0.80127,0.482666,-0.141602,-191.863998,-249.992355,-230.1483,1.535889,-1.767822,0.658447,-74.226379,-249.992355,-249.992355
0.360107,0.047363,-0.374268,-112.541191,-249.992355,-249.992355,1.440674,-1.85376,0.693115,-65.414429,-249.992355,-249.992355
0.402832,0.191162,-0.354492,-70.640564,-249.992355,-249.992355,1.39502,-1.962646,0.707275,-52.810665,-249.992355,-249.992355
0.197998,0.474121,-0.366455,-32.814026,-249.992355,-249.992355,1.406006,-2.07373,0.726074,-35.78949,-249.992355,-249.992355
-0.168701,0.738037,-0.332031,2.784729,-249.992355,-249.992355,1.458008,-2.150635,0.775391,-17.486572,-249.992355,-249.992355
-0.585205,0.977539,-0.290771,43.640133,-249.992355,-249.992355,1.538086,-2.168701,0.834229,0.328064,-249.984726,-249.992355
-0.786133,1.182129,-0.240967,85.807793,-249.992355,-249.992355,1.595703,-1.45752,0.080811,65.681458,-239.784225,-249.992355
-0.695801,1.433594,-0.229004,120.552055,-249.992355,-249.992355,1.571289,-2.169434,0.812988,18.508911,-249.992355,-249.992355
-0.631836,1.648193,-0.310547,151.664734,-249.992355,-249.992355,1.543701,-2.122803,0.685059,44.082638,-249.473557,-249.992355
-0.617432,1.923828,-0.437988,182.846054,-249.992355,-249.992355,1.465088,-2.137695,0.591797,59.501644,-249.992355,-249.992355
1.027344,0.737793,-0.157715,-173.011765,-249.992355,-155.097961,1.423828,-2.159668,0.516602,73.814392,-249.992355,-249.992355
1.713135,0.449951,-0.22583,188.507065,-72.563171,210.082993,1.388428,-2.12207,0.446777,79.872131,-230.239853,-249.992355
-5.684082,3.96582,0.546387,-35.675049,196.578964,249.992355,1.335938,-2.014648,0.386475,80.734245,-170.837387,-249.992355
-4.398682,3.545654,0.080078,-47.187801,126.998894,249.992355,1.336426,-1.811035,0.343018,75.462341,-122.51281,-249.992355
-0.952148,1.828857,-0.605225,-64.77356,249.977097,249.992355,1.35498,-1.540283,0.318604,65.551758,-92.597954,-249.992355
-0.89917,1.725342,-0.643066,-39.222717,249.992355,249.992355,1.351563,-1.310547,0.319824,55.870052,-85.945122,-249.992355
-0.783936,1.450195,-0.658691,7.904052,249.992355,249.992355,1.315918,-1.184326,0.317627,49.034115,-104.949944,-249.992355
-0.612061,1.286133,-0.666016,51.834103,249.05394,249.992355,1.321533,-1.152832,0.318604,44.914242,-145.721436,-249.992355
-0.573242,1.133789,-0.669678,91.850273,249.992355,249.992355,1.569092,-2.146973,0.756836,31.98242,-249.992355,-249.992355
-0.631592,1.037598,-0.642822,127.037041,249.992355,249.992355,0.46167,-1.910889,0.527832,210.456833,126.281731,249.992355
-0.750488,1.007568,-0.5354,144.90509,203.964218,249.992355,1.080078,-1.530029,0.561768,-123.580925,-249.992355,-249.992355
-0.706055,0.9646,-0.442627,152.435303,122.024529,249.992355,0.5979,-1.899414,0.647949,163.475021,-18.287659,249.992355
-0.401367,0.925537,-0.39502,157.279968,46.783443,249.992355,-5.231934,-0.801514,1.260742,24.04022,-247.703537,60.997005
0.587646,0.872559,-0.216553,152.694702,-40.603634,249.954208,-4.632324,-0.471436,1.092285,-11.276244,-249.992355,-11.184691
-0.875732,1.849609,-0.581787,-78.49884,249.992355,249.992355,-3.023926,0.012695,0.614502,-35.552979,-236.57225,-68.733215
1.171387,0.78833,-0.089111,148.269653,-46.82159,249.710068,-2.206055,0.012939,0.24585,-69.236755,-205.459579,-106.552116
2.287598,0.694824,0.142822,122.833244,7.972717,249.572739,-1.818115,-0.381104,0.315186,-99.616997,-210.594162,-140.808105
2.52124,0.6875,0.039795,90.721123,20.500181,229.331955,-1.375977,-0.793457,0.388672,-107.64312,-242.576584,-186.706528
2.390625,0.625244,-0.165039,48.171993,1.220703,196.517929,-1.029541,-1.099609,0.452393,-95.741264,-249.992355,-237.319931
2.080566,0.668945,-0.374512,8.331299,-69.244385,157.226563,-0.617676,-1.297363,0.575684,-73.532104,-249.992355,-249.992355
1.924072,0.881592,-0.525391,-55.152889,-190.971359,128.952026,-0.187256,-1.427979,0.753174,-55.923458,-249.992355,-249.992355
2.159424,0.608154,-0.512695,-101.325981,-249.473557,86.921684,0.312256,-1.559326,0.879395,-41.183468,-249.992355,-249.992355
2.555664,0.363037,-0.42334,-114.44091,-249.992355,9.819031,-5.127441,-0.432129,1.174561,61.416622,-175.346359,70.701599
2.137939,0.529541,-0.361572,-124.0158,-249.992355,-75.134277,0.785889,-1.713867,0.909424,-21.568296,-249.992355,-249.992355
1.459473,0.438965,-0.308105,-98.281853,-249.992355,-168.693527,1.238525,-1.922607,0.972656,19.943237,-249.992355,-249.992355
-5.239746,3.658936,0.209717,-48.820492,137.016296,249.412521,1.419434,-2.01416,1.019043,33.706665,-249.992355,-249.992355
1.782227,0.72583,0.054199,139.518738,-24.589537,249.992355,1.528809,-2.105469,1.052246,47.622677,-249.992355,-249.992355
-0.744873,1.969971,-0.577881,-93.666069,249.992355,249.992355,1.619141,-2.2146,1.122559,62.744137,-249.992355,-249.992355
0.055908,0.911377,-0.328369,157.196045,-9.223938,249.992355,1.737061,-2.335205,1.194824,74.836731,-249.992355,-249.992355
-0.357178,1.931885,-0.564697,-102.523796,249.992355,249.992355,1.875,-2.458008,1.247559,84.884636,-249.992355,-249.992355
-3.335693,3.117676,-0.229736,-27.725218,164.054855,249.992355,1.961182,-2.541992,1.246826,95.138542,-249.992355,-249.992355
-0.578369,1.981689,-0.560303,-97.694389,249.992355,249.992355,2.054688,-2.601074,1.223633,107.688896,-249.992355,-249.992355
-2.504639,2.634033,-0.51709,10.414123,210.723862,219.833359,2.117188,-2.631592,1.144287,118.865959,-249.977097,-249.992355
-1.934326,2.341797,-0.667725,51.376339,241.409286,176.788315,2.107422,-2.628174,1.056152,118.637077,-249.816879,-249.992355
-1.663574,1.926514,-0.727539,95.085136,248.413071,148.704529,1.039063,-1.840088,0.932617,1.167297,-249.992355,-249.992355
-1.64502,1.700195,-0.719238,127.92205,234.634384,139.427185,-4.320557,-0.039307,0.777832,106.643669,-50.918575,52.703854
-1.648682,1.707764,-0.706543,148.765564,203.06395,142.501831,0.482666,-1.832764,0.663086,190.238937,48.500057,249.992355
-1.52002,1.728271,-0.745605,164.863571,93.460075,162.254318,-2.463623,-0.027588,0.393555,164.329514,-16.609192,220.901474
-1.268066,1.753174,-0.718994,147.613525,35.560608,179.923996,0.796387,-2.107422,0.513428,145.515442,-54.801937,249.992355
-1.029297,1.659912,-0.732422,124.206535,-14.091491,199.241623,1.015381,-2.344482,0.386719,141.387939,-54.931637,249.992355
-0.872559,1.554688,-0.746094,98.167412,-57.624813,218.925461,1.121338,-2.548096,0.372803,141.952515,-27.046202,249.992355
-1.60376,1.722656,-0.748779,163.574203,154.556274,149.276733,1.072021,-2.707275,0.471191,143.714905,8.026123,249.992355
-0.770508,1.483398,-0.818359,55.732723,-126.594536,249.450668,0.956299,-2.772461,0.610107,146.835327,38.421631,249.992355
-0.197021,1.907227,-0.599365,-107.315056,246.673569,249.992355,0.856689,-2.766357,0.734863,152.183533,61.279293,249.992355
-0.830078,1.498779,-0.758057,74.386597,-95.451347,238.105759,-3.287354,0.01001,0.505371,140.884399,9.872437,126.602165
-0.137939,1.857178,-0.664795,-89.973442,93.368523,249.992355,0.789795,-2.728271,0.763672,168.418869,88.455193,249.992355
-0.196289,1.814453,-0.723633,-75.698853,13.771056,249.992355,0.913818,-2.775391,0.692871,186.470016,102.661125,249.992355
-0.265137,1.737061,-0.781006,-54.672237,-54.870602,249.992355,0.984375,-2.851074,0.677002,213.455185,125.061028,249.992355
-0.102051,1.880371,-0.635742,-102.119438,190.544113,249.992355,0.950195,-2.810303,0.655273,239.509567,151.344299,249.992355
-0.491943,1.644775,-0.83667,-7.659912,-149.848938,249.992355,0.7771,-2.746826,0.804688,159.141541,76.805115,249.992355
-0.616943,1.573486,-0.875488,17.997742,-155.349731,249.992355,0.59375,-2.640625,0.522461,249.992355,175.651535,249.992355
-0.689209,1.496094,-0.878418,38.757324,-146.331787,249.992355,0.269775,-2.659424,0.496582,249.992355,161.34642,249.992355
-0.352783,1.680176,-0.821045,-30.998228,-114.173882,249.992355,-0.00415,-2.634521,0.568848,249.992355,133.758545,249.992355
-1.522949,2.875977,-0.884521,54.702755,-249.992355,-249.992355,-0.174316,-2.427002,0.633789,249.992355,98.82354,249.992355
2.50293,-0.121582,0.068604,-94.200127,-249.992355,-249.992355,-0.343262,-2.05957,0.655762,249.893173,53.955074,249.977097
2.354004,0.590576,0.022705,-61.408993,-249.992355,-249.992355,-0.61377,-1.633057,0.6521,249.664291,-1.403808,249.992355
1.07251,1.1875,-0.22583,-33.576965,-249.992355,-249.992355,-0.982422,-1.247559,0.625488,249.992355,-60.272213,249.992355
-0.050049,1.675293,-0.443115,-8.201599,-249.992355,-249.992355,-1.399414,-0.904541,0.55127,247.66539,-105.110161,249.229416
-0.654541,2.059326,-0.546143,4.066467,-249.992355,-249.992355,-1.770752,-0.547852,0.49292,219.123825,-112.709038,249.992355
-0.945313,2.308594,-0.578857,9.979248,-249.992355,-249.992355,-2.032227,-0.199219,0.42334,189.002975,-75.660706,249.992355
-1.141357,2.492432,-0.678223,18.989563,-249.992355,-249.992355,0.826416,-2.689453,0.603271,249.847397,171.691879,249.992355
-1.325195,2.697998,-0.759277,28.747557,-249.992355,-249.992355,3.709961,-1.687012,-0.876465,-41.046139,234.741196,-224.952682
-1.490723,2.835205,-0.826172,38.55896,-249.992355,-249.992355,2.851807,-0.991699,-0.460693,-43.060299,156.997681,-249.008163
-1.442139,2.895508,-0.898193,70.968628,-249.725327,-249.992355,2.261475,-0.772461,-0.322998,-18.768311,59.387203,-249.992355
-1.858398,2.112061,-0.36792,-33.126831,242.721542,-249.992355,1.787354,-0.926758,-0.0979,2.27356,5.737304,-249.572739
-1.380371,2.967529,-0.928955,103.965752,-249.992355,-249.992355,1.461914,-1.336914,0.449219,30.670164,-68.847656,-249.992355
-1.30835,2.967773,-0.940918,118.896477,-240.013107,-249.992355,1.135986,-1.114258,0.183105,7.064819,10.246276,-249.992355
-1.202881,2.971436,-0.919434,130.134583,-201.454147,-249.992355,1.216309,-1.174316,0.295654,9.521484,2.204895,-249.992355
-1.150146,2.914307,-0.817871,136.817932,-156.600952,-249.992355,1.315186,-1.26416,0.439453,16.685486,-22.964476,-249.992355
-1.03418,2.808105,-0.643066,137.840271,-101.46331,-249.992355,1.301514,-1.086426,0.093994,7.232666,1.815796,-249.923691
-0.814697,2.800537,-0.465332,130.752563,-16.296387,-249.992355,3.742188,-1.949707,-1.621338,-64.163208,249.992355,-247.299179
-0.606201,2.868652,-0.391357,103.965752,101.46331,-249.992355,2.102295,-4.733887,0.561768,240.745529,249.992355,249.992355
-0.760986,2.769531,-0.362793,57.922359,209.617599,-249.992355,-0.15332,-1.705811,-1.221924,-14.289855,-84.526054,-173.530563
-1.313965,2.553223,-0.372559,8.453369,249.992355,-249.992355,0.982666,-3.12207,-2.694824,75.561523,-249.992355,109.77935
1.946045,-0.427979,-0.239746,-159.095764,-249.992355,-249.992355,6.907959,-4.041992,-4.981689,164.291367,-249.992355,129.936218
-1.385498,2.924072,-0.898682,87.394707,-249.992355,-249.992355,7.408447,-3.066406,-5.156006,211.914047,-151.657104,92.750542
1.561279,0.303955,-0.297852,-249.992355,-249.992355,-240.98967,4.991455,-3.515381,-1.666748,214.973434,-22.430418,204.505905
-1.354736,2.334473,-0.120361,202.896103,249.893173,249.992355,4.955322,-3.662598,-1.192627,209.777817,-44.906612,248.664841
1.140137,1.424561,-0.727783,-246.490463,-249.992355,-40.428158,5.137207,-4.438232,-1.280762,213.111862,63.102718,249.992355
-2.169434,1.581543,-0.283447,-55.13763,173.19487,-249.992355,4.467773,-4.927979,-1.099365,230.621323,191.528305,249.992355
-1.347656,2.509766,-0.246338,216.186508,249.404892,249.992355,3.632568,-4.71875,-0.574219,245.788559,245.811447,249.755844
-1.231201,2.462402,-0.354248,231.704697,249.992355,249.992355,2.840332,-4.83667,0.103271,249.992355,249.732956,249.992355
-1.160645,2.311523,-0.503418,249.252304,248.756393,249.992355,1.55957,-1.496094,0.381592,49.293514,-136.054993,-249.992355
-1.156494,2.111572,-0.679199,249.992355,204.734787,249.992355,2.150391,-1.545654,-1.42041,-86.883537,249.992355,-249.992355
-1.106934,1.995605,-0.660889,249.992355,132.019043,249.992355,1.55127,-1.743408,0.359619,60.852047,-214.569077,-249.992355
-1.213867,1.888428,-0.590088,249.992355,25.405882,249.992355,1.720459,-2.211426,0.662598,-82.81707,-249.992355,-249.992355
-1.349121,1.759277,-0.492432,249.984726,-106.803886,249.992355,1.484131,-2.144287,0.456543,50.178524,-249.992355,-249.992355
-1.188721,1.631348,-0.42334,249.793991,-217.79631,249.992355,1.534668,-3.717529,0.651611,210.73912,241.065964,240.562424
-0.713867,1.502441,-0.281738,249.992355,-248.268112,249.916061,-2.391357,0.349609,0.460693,-56.877132,-107.276909,-151.145935
0.097656,1.302979,-0.120117,249.992355,-249.992355,249.969467,-1.39209,0.886719,0.338379,-123.222343,-99.555962,-72.7005
1.154785,0.981934,0.027832,238.800034,-242.439255,249.992355,-2.00293,0.530029,0.310547,-166.26738,-176.589951,-88.829033
2.297119,0.545166,0.182373,241.325363,-94.871513,247.016891,-2.808105,-0.293945,0.358887,-158.164978,-234.886154,-208.358749
3.188721,0.184326,0.265625,249.740585,118.011467,237.144455,-1.863037,-0.815674,0.523438,-153.831482,-249.694809,-249.992355
3.377441,0.09668,0.160156,249.847397,242.889389,233.55101,-0.78418,-1.162109,0.535645,-150.535583,-249.992355,-249.992355
2.865234,0.206543,-0.0979,249.67955,248.718246,241.859421,0.003906,-1.406738,0.546143,-144.432068,-249.992355,-249.992355
2.101318,0.303467,-0.426758,249.992355,249.992355,249.43541,0.649902,-1.585205,0.524902,-139.801025,-249.992355,-249.992355
1.19043,0.430908,-0.71875,246.009811,249.992355,249.771103,1.136719,-1.748535,0.513428,-132.804871,-249.992355,-249.992355
0.661377,0.635742,-0.865723,209.053024,171.668991,249.992355,1.51416,-1.980713,0.395508,59.814449,-249.992355,-249.992355
0.734375,0.803223,-0.938477,149.986267,67.9245,238.906845,1.373779,-1.934814,0.544189,-120.025627,-249.992355,-249.992355
0.82959,0.989746,-1.118164,67.565918,-66.902161,192.375168,1.643799,-2.14917,0.623535,-92.735283,-249.992355,-249.992355
0.713623,1.128418,-1.194092,-44.731136,-220.520004,156.028748,1.717041,-2.267822,0.687744,-72.570801,-249.992355,-249.992355
0.816406,1.078125,-1.080078,-179.48912,-249.992355,68.54248,1.651367,-2.286865,0.658203,-64.102173,-249.992355,-249.992355
1.190918,1.480713,-0.293213,-249.992355,-249.992355,-148.704529,1.576416,-2.295166,0.640381,-54.931637,-249.992355,-249.992355
-2.603027,1.532227,0.178223,-80.093384,81.764214,-249.977097,1.492432,-2.32666,0.667725,-41.198727,-249.992355,-249.992355
1.154785,0.588135,-0.219482,193.8629,-104.61425,247.550949,1.422363,-2.363037,0.676514,-26.069639,-249.992355,-249.992355
-3.176514,1.171875,0.851807,-141.113281,-165.740952,-249.992355,1.396484,-2.394531,0.6604,-12.222289,-249.984726,-249.992355
-0.26123,1.447266,-0.6521,55.198666,-49.316402,249.992355,1.387207,-2.38916,0.643799,3.890991,-249.992355,-249.992355
-0.242432,1.510986,-0.658203,44.883724,-0.328064,249.992355,1.447754,-2.31958,0.598633,20.294188,-249.992355,-249.992355
-0.269043,1.588379,-0.633789,29.96063,38.42926,249.992355,1.48291,-2.242432,0.536865,36.140442,-249.153122,-249.992355
-0.233154,1.565186,-0.60083,22.117613,78.163147,249.992355,1.517822,-2.072266,0.573975,-104.789726,-249.992355,-249.992355
-0.21582,1.628662,-0.574951,12.405395,130.943298,249.992355,1.130127,-2.744629,0.573486,193.962082,192.527756,221.252426
-0.129883,1.697266,-0.54834,1.060486,194.305405,249.992355,0.837158,-2.147705,0.508057,190.071091,137.130737,218.360886
-0.105713,1.615234,-0.520264,8.796692,244.094833,249.992355,0.609375,-1.783203,0.454102,191.2155,81.970207,226.142868
-0.090576,1.568604,-0.5,15.167235,249.992355,249.992355,0.076172,-1.2146,0.290283,216.461166,48.71368,249.992355
-0.190674,1.62793,-0.469971,1.182556,249.992355,249.992355,-0.221436,-0.947266,0.362793,204.635605,51.216122,249.984726
-0.337891,1.551758,-0.417236,10.726928,249.992355,249.992355,-0.561523,-0.68457,0.401611,189.002975,42.16766,249.992355
-0.352051,1.45166,-0.665527,57.777401,-88.36364,249.992355,-0.939453,-0.475586,0.435547,167.823776,21.110533,249.992355
-0.543701,1.537842,-0.395264,18.844604,249.977097,249.992355,-1.373779,-0.29541,0.493896,143.798828,-10.429381,249.389633
-1.0271,1.473633,-0.532471,70.777893,249.992355,249.992355,-1.835938,-0.078369,0.572754,122.825615,-37.658691,249.992355
-1.085693,1.368408,-0.622314,124.252312,249.107346,249.992355,-2.296143,0.174316,0.63916,109.565727,-36.560059,249.992355
-1.068848,1.212646,-0.672119,179.557785,249.992355,249.992355,-2.864746,0.351074,0.680908,100.852959,-3.684997,221.71019
-1.001221,1.019043,-0.612549,221.229538,249.992355,249.992355,-3.461914,0.333008,0.815186,97.450249,43.243404,157.997131
-1.016602,0.979736,-0.569824,241.828903,215.110764,249.992355,-3.954346,0.324951,1.036865,83.656303,72.570801,113.533012
-0.97168,0.993652,-0.5,239.891037,119.941704,249.992355,0.305176,-1.479004,0.217285,226.043686,35.614014,249.992355
-0.755371,0.934814,-0.428955,228.523239,35.484314,249.992355,-4.308105,0.309814,1.329346,53.016659,55.099483,94.543449
-0.375,0.75,-0.376221,224.449142,-31.211851,249.870285,-4.368164,-0.484863,1.878174,-29.045103,-136.009216,88.592522
0.025146,0.726074,-0.314697,217.559799,-81.497185,249.511703,-4.528809,-0.844482,1.866699,-51.055904,-235.702499,46.333309
0.550049,0.691895,-0.260498,203.666672,-109.367363,249.992355,-3.67627,-0.776611,1.503174,-70.114136,-249.732956,-8.789063
-0.83252,1.471436,-0.409668,33.851624,249.992355,249.992355,-2.076416,-0.343506,1.125,-93.353264,-249.992355,-23.216246
-0.453369,1.474854,-0.664063,63.827511,-112.777702,249.992355,-1.190186,-0.094727,0.716309,-100.112907,-247.001633,-48.545834
-3.060547,1.546143,0.620361,-129.852295,-38.17749,-249.946579,-0.950195,-0.205566,0.391602,-118.003838,-225.967392,-102.882378
-0.559082,1.467773,-0.635254,94.993584,-117.126457,249.992355,-1.044434,-0.527832,0.408447,-135.223389,-232.627853,-174.96489
-0.506104,1.484619,-0.646973,76.690674,-121.452324,249.992355,-0.901123,-0.881592,0.516113,-137.680054,-248.588547,-238.609299
-2.64917,0.781494,1.045898,-103.065483,-226.654037,-249.320969,-0.465088,-1.138184,0.592773,-136.08551,-249.992355,-249.992355
-2.68042,0.718018,1.419922,-46.005245,-226.75322,-245.918259,0.097412,-1.302734,0.656494,-136.703491,-249.992355,-249.992355
-4.401611,1.23291,1.464355,41.938778,-211.349472,-249.992355,-4.304443,-0.045898,1.601318,16.571045,-21.545408,83.663933
-5.134033,2.175537,0.371338,66.932678,-69.168091,-242.973312,0.450684,-1.751709,0.179932,230.232224,15.61737,249.992355
-1.732666,2.858643,1.276611,97.702019,49.797054,34.828186,0.655762,-1.437256,0.620117,-133.583069,-249.992355,-249.992355
-3.804443,3.583496,7.322754,230.171188,-225.456223,245.407089,0.619873,-2.212891,0.208008,226.890549,-7.637023,249.992355
-4.602295,4.172363,2.339355,135.726929,249.992355,182.548508,0.432129,-1.527588,0.372803,193.145737,29.70886,239.608749
-4.219482,4.868408,2.045654,133.255005,249.992355,223.022446,0.350098,-1.356445,0.308594,196.63237,-13.412475,249.17601
-4.256104,5.372314,1.679199,102.699272,207.115158,249.221786,0.388184,-1.260986,0.269287,200.324997,-37.361145,249.992355
-4.039795,5.643311,1.199219,63.278194,92.048637,249.992355,0.475586,-1.229004,0.270996,199.485764,-37.963867,249.992355
-6.345215,3.010742,5.720703,219.726547,99.082939,203.05632,0.544189,-1.268799,0.301025,192.337021,-22.109983,249.992355
-2.48999,5.258057,-0.252441,50.23193,-141.174316,249.992355,0.576416,-1.369385,0.306641,182.945236,2.479553,249.992355
-1.675537,4.994141,-0.555664,72.944641,-185.440048,249.992355,0.56958,-2.003906,0.178711,229.621872,-1.899719,249.992355
-1.254883,4.406738,-0.436768,111.556999,-169.898972,249.992355,0.572266,-1.593506,0.227783,172.142014,62.141415,249.992355
-0.603516,1.472412,-0.614746,110.809319,-102.462761,249.992355,0.556641,-1.665527,0.188232,173.690781,92.460625,249.992355
-1.034424,3.673828,-0.381348,138.86261,-130.950928,249.992355,0.50415,-1.734863,0.221191,177.642807,112.93792,249.992355
-0.728027,2.862305,-0.49585,146.896362,-90.087883,249.992355,0.443848,-1.794678,0.331055,178.009018,116.806023,249.992355
-0.500732,2.187012,-0.677246,151.863098,-61.538692,249.992355,0.584229,-1.490967,0.294189,175.193771,30.654905,249.992355
-0.429443,1.829346,-0.675293,151.016235,-47.004696,249.992355,0.528076,-1.945068,0.5896,166.145309,97.480766,249.992355
-0.489258,1.673584,-0.606934,141.098022,-54.244991,249.992355,0.640137,-2.064697,0.641113,160.110474,92.460625,249.992355
-0.587891,1.54834,-0.602295,125.930779,-78.765869,249.992355,0.730469,-2.160156,0.623291,159.461975,94.223015,249.992355
-3.452881,5.45874,0.496826,39.268494,-34.759521,249.992355,0.73291,-2.155762,0.587646,163.681015,94.978325,249.992355
1.149902,0.162354,0.088379,-146.148682,-249.992355,-199.119553,0.670654,-2.090576,0.547607,167.297348,87.089531,249.992355
1.286133,0.266357,0.046875,-182.365402,-249.992355,-117.454521,0.634766,-2.092529,0.489746,170.944199,73.799133,249.992355
1.564209,0.328125,-0.112061,-155.097961,-249.992355,-60.920712,0.630615,-2.157471,0.404785,178.337082,57.319637,249.992355
2.637939,0.32959,-0.326904,83.473198,6.713867,100.631706,0.620361,-2.243164,0.324707,189.018234,37.849426,249.992355
2.085205,0.26416,-0.350342,-29.71649,-112.480156,30.311583,0.613037,-2.331543,0.286377,203.918442,16.952515,249.992355
2.404053,0.315186,-0.382324,14.282226,-40.267941,64.620972,0.618408,-2.332764,0.249756,218.345627,-0.274658,249.992355
2.623535,0.338867,-0.390137,54.38232,-1.777649,80.413811,0.44043,-1.858643,0.470947,173.957809,108.039848,249.992355
1.186768,0.030273,0.143555,-67.375183,-249.992355,-248.580917,1.854736,-2.461914,0.423828,-8.514404,-249.992355,-249.992355
1.80957,0.223633,-0.281006,-87.432854,-210.700974,-16.075134,1.800049,-2.54834,0.483154,-26.81732,-249.992355,-249.992355
1.416748,0.076904,0.285645,0.732422,-249.992355,-249.992355,1.789307,-2.510254,0.504639,-46.241756,-249.992355,-249.992355
-1.035889,2.292236,-0.880127,148.612976,-249.992355,-249.992355,1.73584,-2.396484,0.504883,-67.779541,-249.992355,-249.992355
0.96582,0.709229,0.113525,32.051086,-249.992355,-249.992355,1.778076,-2.189697,0.469482,-139.678955,-249.992355,-249.992355
0.500244,0.941406,-0.099121,40.496822,-249.992355,-249.992355,1.816406,-2.183105,0.504639,-103.454582,-249.992355,-249.992355
-0.12207,1.22583,-0.345703,55.923458,-249.992355,-249.992355,1.914551,-2.224854,0.468994,-116.134636,-249.992355,-249.992355
-0.56543,1.464355,-0.529297,72.013855,-249.992355,-249.992355,1.9021,-2.260986,0.464355,-127.464287,-249.992355,-249.992355
-0.771484,1.661133,-0.595215,82.374565,-249.992355,-249.992355,1.758301,-2.258789,0.518066,-87.524406,-249.992355,-249.992355
-0.844971,1.778564,-0.637939,93.009941,-249.992355,-249.992355,1.912842,-2.311035,0.33374,8.583069,-249.992355,-249.992355
-0.915771,1.919678,-0.686279,108.695976,-249.992355,-249.992355,2.593018,-1.209961,-1.400879,90.530388,-66.116333,-191.84874
-0.986328,2.090088,-0.742188,122.734062,-249.992355,-249.992355,1.80957,-2.074219,0.141113,35.079956,-249.992355,-249.992355
-0.998047,2.20166,-0.80542,135.025024,-249.992355,-249.992355,1.721924,-1.890137,0.059082,41.564938,-249.80162,-249.992355
2.632813,0.234863,-0.196533,97.885124,7.713317,128.234863,1.694336,-1.70752,0.013184,49.133297,-249.900803,-249.992355
