ax,ay,az,gx,gy,gz,ax,ay,az,gx,gy,gz
-1.302979,1.754883,0.119141,-126.090996,146.324158,-249.992355,0.940918,-1.842773,0.291504,-201.408371,-108.985893,-249.992355
-0.861572,0.709229,0.398193,-93.612663,191.787704,-249.916061,0.82666,-1.830322,0.313965,-196.449265,-139.190674,-249.992355
-0.44751,0.728271,0.280762,-49.736019,243.1259,-248.146042,0.792969,-1.825684,0.362305,-187.316879,-179.855331,-249.992355
-1.818359,1.676514,-0.996338,49.942013,-190.147385,-249.992355,0.79248,-1.84375,0.394531,-174.758896,-217.201218,-249.992355
-1.056152,2.568115,-1.215088,108.680717,-104.339592,-249.992355,0.839844,-1.918701,0.472168,-144.66095,-249.877914,-249.992355
-1.905029,1.372314,-0.937012,28.160093,-176.010117,-249.992355,0.787354,-1.991211,0.506592,-127.067558,-249.992355,-249.992355
3.259033,2.030762,2.794189,249.473557,153.579712,-29.159544,0.443604,-1.602539,-0.014648,-171.760544,-94.451897,-249.992355
-1.664795,0.874756,-0.709717,14.778136,-88.85955,-249.992355,0.975098,-1.92627,0.170166,-192.695602,-106.895439,-249.992355
-1.757324,1.50293,-0.210693,-204.650864,249.992355,-249.992355,1.97998,-3.621582,-3.857666,-44.55566,-249.992355,165.473923
0.21167,1.125,-0.044189,-249.992355,249.992355,235.359177,5.712646,-4.322266,-2.921875,186.576828,103.340141,240.814194
0.000732,1.153076,0.067139,-244.277939,249.992355,212.425217,1.219971,-2.046387,0.501221,4.005432,112.892143,249.992355
-0.182373,1.300049,0.155518,-224.159225,249.984726,205.848679,1.188232,-2.010254,0.393555,2.838135,150.405884,249.992355
-0.200928,1.48584,0.316406,-189.971909,249.992355,209.899887,1.008301,-1.941895,0.243164,9.254456,172.607407,249.992355
0.04248,1.700439,0.406006,-136.817932,249.862656,217.178329,0.756592,-1.771729,0.116455,14.488219,175.094589,249.992355
0.397705,1.872803,0.383789,-79.940796,249.04631,229.682907,0.534668,-1.52002,0.05957,11.688231,169.395432,249.992355
0.605713,2.010498,0.643555,-28.282164,249.992355,242.195114,0.350586,-1.248047,0.008545,1.976013,170.4254,249.992355
0.65332,2.057129,1.184814,18.692017,249.29808,236.785873,0.141357,-0.995605,-0.013916,-6.813049,185.104355,249.992355
0.748291,2.03418,1.770752,59.608456,184.03624,201.79747,-0.179443,-0.777344,-0.017822,-9.277344,212.417587,249.992355
-1.869629,1.087158,-0.896973,16.647339,-135.84137,-249.992355,-0.632568,-0.574463,-0.022949,-5.996704,241.256699,249.992355
1.09375,1.995117,2.319824,99.357597,110.41259,147.926331,-1.65625,-0.203125,-0.005859,2.311707,234.779343,249.992355
2.490967,2.063721,3.025635,228.851303,109.184258,46.981808,1.182129,-2.121094,0.581787,12.619018,73.173523,249.992355
3.698242,1.675049,2.331055,249.992355,209.411606,-140.098572,-1.970459,-0.062012,-0.001465,3.860473,192.72612,249.992355
3.53125,1.279297,1.78833,249.992355,246.986374,-235.275253,-1.974609,-0.020996,-0.138916,11.32965,124.160759,249.992355
2.804199,0.794922,1.130371,217.29277,249.595627,-249.992355,-2.04126,-0.091064,-0.233398,19.378662,101.608269,249.984726
1.95166,0.346436,0.461426,167.26683,249.992355,-249.992355,-2.323975,-0.14917,-0.321045,26.359556,52.017208,249.618515
1.439941,0.217285,-0.044678,112.18261,227.264389,-249.992355,-2.589111,-0.175537,-0.431641,30.71594,-33.027649,249.992355
1.014893,0.37085,-0.226807,63.140865,124.0158,-249.992355,-2.561523,-0.168457,-0.566895,35.125732,-112.152092,249.992355
0.348633,0.533203,-0.253662,33.02002,32.577515,-249.992355,-2.123047,-0.208252,-0.689453,36.880493,-125.694267,229.721054
-0.455078,0.624023,-0.263184,22.171019,-22.087095,-249.992355,-1.648193,-0.294189,-0.666504,36.346436,-77.842712,207.290634
-1.162842,0.730713,-0.428955,17.753601,-55.5191,-249.992355,-1.772217,-0.369141,-0.585449,37.223816,-14.465331,184.257492
1.727051,1.976318,2.818115,162.10173,83.160393,96.954338,-2.155029,-0.419434,-0.611572,42.564388,19.798279,131.576538
-4.000244,1.291748,-0.782715,-229.125961,60.073849,-143.638611,7.999756,-5.123291,-7.999756,143.714905,-175.888046,208.152756
-1.108887,2.672607,-1.060791,107.650749,-96.42028,-249.992355,-2.038574,0.010742,-0.037598,5.676269,149.787903,249.992355
-4.251465,1.057129,2.374268,-147.117615,-245.597824,-144.866943,1.114502,-2.217529,0.621826,25.817869,40.084839,249.992355
-0.324951,1.975342,-0.778809,-108.543388,104.73632,249.992355,-1.164063,-0.375732,-0.025635,-0.900268,249.992355,249.992355
-0.290771,1.866455,-0.665527,-115.013115,129.867554,249.992355,0.957031,-2.360107,0.550537,56.976315,-0.244141,249.992355
-0.273193,1.789307,-0.653564,-118.904106,156.074524,249.992355,1.018555,-2.299316,0.581543,42.121883,16.555786,249.992355
-0.273682,1.743896,-0.681396,-120.338432,178.48967,249.992355,2.729004,-4.709961,0.190186,192.35228,156.227112,242.668137
-0.302246,1.769043,-0.776123,-122.978203,187.17955,249.992355,2.022217,-3.720215,-0.00708,216.606125,187.385544,224.807724
-0.351074,1.829102,-0.911621,-129.417419,179.031357,249.992355,1.468018,-2.494385,0.09668,220.397934,192.268356,218.498215
-0.354492,1.875732,-1.065918,-137.954712,165.931686,249.992355,1.090576,-1.745117,0.263184,215.301498,178.146347,215.309128
-0.2771,1.858154,-1.187256,-148.880005,164.016708,249.992355,0.752197,-1.426514,0.364258,208.885178,149.505615,215.370163
-0.157227,1.73877,-1.179688,-160.423279,176.124557,249.992355,0.492188,-1.407227,0.341064,209.10643,109.184258,216.133102
-0.099365,1.567871,-0.981689,-166.343674,195.449814,249.992355,0.278564,-1.468506,0.296875,215.385422,68.832397,219.177231
-0.371338,2.118652,-0.938232,-98.31237,79.811096,249.992355,0.169189,-1.481934,0.284912,220.619186,31.936644,227.149948
-0.161377,1.420898,-0.728271,-161.483749,220.237717,249.992355,0.143066,-1.45459,0.36377,221.672043,8.285522,241.142258
-0.44458,1.423584,-0.556152,-139.961243,249.992355,249.992355,0.186279,-1.375732,0.504395,214.134201,-2.105713,249.732956
-0.5354,1.419189,-0.570068,-130.126953,249.992355,249.992355,0.232666,-1.277832,0.632568,197.76915,-11.634826,249.992355
-0.566162,1.326172,-0.602295,-110.610954,249.67955,249.992355,3.642334,-4.170898,0.000244,146.17157,123.870842,249.992355
-0.592285,1.270752,-0.688721,-86.692802,249.710068,249.992355,0.949707,-2.405273,0.539551,66.452026,-18.77594,249.992355
-0.474609,1.191406,-0.695557,-67.054749,249.946579,249.984726,0.527344,-1.443359,0.5896,168.342575,-51.345821,249.992355
-0.108398,1.074951,-0.576904,-52.406307,249.725327,249.992355,0.668945,-1.676025,0.53833,163.040146,-76.73645,249.992355
0.417236,0.929199,-0.303711,-37.788391,249.992355,249.916061,0.753662,-1.867432,0.561768,153.4729,-103.744499,249.992355
1.025391,0.801514,0.036377,-19.088745,249.382004,249.092087,0.808105,-2.023438,0.613037,137.031555,-127.243034,249.992355
1.601074,0.706299,0.425537,3.410339,227.859482,249.992355,0.896729,-2.175781,0.62207,119.224541,-138.267517,249.992355
2.153564,0.602783,0.77417,27.656553,191.940292,249.992355,0.953125,-2.314697,0.599365,104.270927,-131.42395,249.992355
-0.302246,1.370117,-0.595215,-149.719238,243.75914,249.992355,0.977051,-2.422852,0.573975,92.720024,-109.397881,249.992355
-0.399414,2.227295,-1.040771,-83.679192,54.466244,249.992355,0.966553,-2.465332,0.551758,83.435051,-77.606201,249.992355
2.784668,0.55249,1.007324,50.239559,155.387878,192.024216,0.958252,-2.441895,0.532227,74.371338,-45.112606,249.992355
-0.4104,2.396484,-0.984375,-51.826473,7.43103,249.992355,0.348633,-1.276611,0.647705,179.649338,-28.625486,249.992355
-0.403564,2.312744,-1.052002,-68.130493,30.044554,249.992355,1.082764,-2.175049,0.544678,-4.295349,-249.992355,-249.992355
-2.977295,1.184082,1.125732,90.415947,-249.290451,-156.799316,1.085938,-2.225098,0.570068,-15.2359,-249.603256,-249.992355
-2.97168,3.143066,-0.727295,181.785568,-249.992355,-149.169922,1.110352,-2.265625,0.554443,-28.190611,-249.992355,-249.992355
-2.621582,3.893066,-1.186523,6.515502,-94.184868,-219.459518,1.12915,-2.286621,0.508301,-42.648312,-249.992355,-249.992355
-3.779297,3.071289,0.349609,-181.88475,249.992355,-31.967161,1.621338,-2.420654,0.411865,-102.081291,-249.992355,-249.992355
-2.067627,1.744141,3.457764,-157.295227,160.888657,237.21312,1.210449,-2.303955,0.446777,-70.655823,-249.694809,-249.992355
-3.115723,3.792236,7.999756,167.411789,-246.643051,249.04631,1.337891,-2.328125,0.438721,-81.596367,-243.736252,-249.992355
-5.799561,5.162109,3.822021,230.979904,32.569885,249.992355,1.540527,-2.364502,0.447021,-91.155998,-243.659958,-249.992355
-2.998291,5.74585,0.346436,238.84581,84.541313,249.992355,1.067139,-2.104492,0.470459,4.226685,-249.992355,-249.992355
-2.646484,6.037109,-0.418945,190.33049,-19.760132,249.992355,1.156006,-2.292969,0.469971,-57.41119,-249.992355,-249.992355
-2.388916,5.632324,-0.752686,171.112045,-114.540092,249.992355,1.050781,-2.006348,0.396484,10.231017,-231.704697,-249.992355
-5.570068,1.424561,-0.201904,-249.992355,-240.341171,-61.630245,0.994385,-0.964111,0.154785,-34.744263,137.35199,-249.992355
-1.330078,5.252197,-0.723877,155.632019,-135.559082,249.992355,1.006348,-1.741211,0.239746,15.61737,-129.859924,-249.992355
-0.922363,3.831299,-0.707275,121.688835,-145.111084,249.992355,0.955078,-1.588623,0.23291,9.773254,-67.176819,-249.992355
-0.626221,2.851074,-0.666992,93.559258,-155.197144,249.992355,0.913574,-1.447021,0.241455,-1.296997,-6.187438,-249.992355
-0.422852,2.324463,-0.621826,66.200256,-152.351379,249.992355,0.926514,-1.247314,0.217773,-16.441345,58.120724,-249.992355
-0.357422,2.115723,-0.568115,44.075008,-138.565063,249.992355,1.005859,-0.799072,0.102295,-57.28912,219.451889,-249.992355
-0.439453,2.13501,-0.52832,26.275633,-119.087212,249.992355,0.923584,-0.873291,0.094482,-87.783806,249.992355,-249.992355
-0.589355,2.260742,-0.459961,11.764525,-93.132011,249.992355,0.859375,-1.134277,0.128906,-118.10302,248.260483,-249.992355
-0.587402,2.390381,-0.52417,-0.480652,-68.93158,249.992355,0.887695,-1.467773,0.03833,-135.101318,188.179001,-249.992355
-0.508545,2.44873,-0.69751,-14.427184,-43.243404,249.992355,1.057861,-1.758301,-0.122559,-140.258789,108.489983,-249.587997
-0.435059,2.451172,-0.873535,-32.76062,-16.624451,249.992355,1.342041,-2.102051,-0.187988,-131.80542,44.395443,-249.992355
-1.949707,5.512939,-0.694824,192.237839,-139.434814,249.992355,1.021484,-1.893311,0.317139,15.312194,-187.263474,-249.992355
-0.748535,2.391846,-1.380615,-104.446404,86.97509,249.992355,1.611816,-2.442627,0.420166,-116.767876,-249.992355,-249.992355
-1.832275,2.007813,-0.712158,-14.305114,-183.059677,-249.992355,1.692383,-2.562744,-0.189209,-120.765678,5.66101,-249.992355
-1.185547,1.853516,-0.594482,-13.999938,-154.045105,-249.992355,1.304443,-2.351318,0.407715,-148.269653,-249.992355,-249.992355
-0.41748,1.568115,-0.418457,-19.172668,-126.731865,-249.992355,-0.416016,-1.727051,0.924805,249.984726,249.992355,249.603256
4.695068,0.662354,0.108154,162.948593,134.567261,-249.992355,-1.042236,-1.60498,0.6604,249.992355,249.992355,249.992355
1.297852,1.019775,-0.374512,-11.268615,-7.492065,-249.992355,-1.45752,-1.517334,0.616455,249.992355,166.496262,249.992355
2.382568,0.780762,-0.326416,42.984005,77.270508,-249.992355,-1.843994,-1.472168,0.851563,249.290451,39.016724,226.318344
3.477051,0.452393,-0.052246,117.561333,143.005371,-249.992355,-2.271484,-1.384521,1.180908,249.992355,-42.465206,190.46019
0.38916,1.265137,-0.307861,-24.879454,-80.169678,-249.992355,-2.86084,-1.184326,1.543701,249.992355,-71.388245,128.082275
-2.251465,1.974121,-0.776855,-11.024474,-226.814255,-249.992355,-3.731445,-0.85498,1.874756,222.518906,-96.30584,43.586727
-1.617188,1.965088,-1.16333,65.727234,-249.992355,-249.992355,-4.817383,-0.645508,2.191406,142.341614,-188.209518,-25.779722
-2.111572,1.9375,-0.924561,9.33075,-249.992355,-249.992355,-5.445557,-0.891602,2.52002,68.641663,-249.17601,-90.568535
-1.960693,1.949707,-1.020752,28.541563,-249.580368,-249.992355,-5.253662,-1.298584,2.677246,10.56671,-249.992355,-179.290756
-1.800781,1.959473,-1.134033,46.684261,-249.992355,-249.992355,-4.572998,-1.107178,2.5979,-55.404659,-249.992355,-243.225082
5.955811,1.363525,0.792969,183.403,53.573605,-206.306442,-3.884033,-0.51709,2.188721,-101.104729,-249.992355,-249.992355
-1.457031,2.043945,-1.181885,75.309753,-232.16246,-249.992355,-3.273438,-0.225342,1.30249,-109.313957,-249.992355,-249.992355
-1.415039,2.146973,-1.138428,80.131531,-198.547348,-249.992355,-2.538086,-0.505859,0.666016,-118.171684,-249.992355,-249.992355
-1.55127,2.255615,-1.148193,86.502068,-185.783371,-249.992355,-1.827881,-0.868652,0.477539,-134.353638,-249.992355,-249.992355
-1.631348,2.311035,-1.233154,92.971794,-196.670517,-249.992355,-1.024414,-1.133789,0.452881,-147.514343,-249.992355,-249.992355
-1.623535,2.347412,-1.3125,98.777763,-216.827377,-249.992355,-0.273438,-1.319092,0.463379,-157.897949,-249.954208,-249.992355
-1.705322,2.342529,-1.362305,102.935783,-239.395126,-249.992355,0.321045,-1.473145,0.477539,-166.290268,-249.93895,-249.992355
-1.661377,2.234619,-1.270996,115.95153,-249.992355,-249.992355,0.770752,-1.638428,0.445068,-168.968185,-249.992355,-249.992355
-2.322754,1.953125,-0.875244,-4.707336,-249.633774,-249.992355,1.05127,-1.790771,0.383545,-168.556198,-248.67247,-249.992355
6.077393,1.398682,1.685303,199.089035,-24.978636,-64.102173,1.153076,-1.855225,0.361816,-169.738754,-243.659958,-249.992355
1.945068,1.985107,0.853516,109.642021,73.570251,249.992355,1.071533,-1.938232,0.379883,-171.104416,-248.92424,-249.992355
4.841797,1.703857,1.931641,152.809143,-29.518126,82.31353,1.124756,-2.148438,0.405762,-163.49028,-249.992355,-249.992355
-1.444092,2.227295,-1.175293,134.58252,-249.992355,-249.992355,1.491699,-2.431396,0.415039,-133.255005,-249.870285,-249.992355
-0.773682,2.300049,-1.423828,-117.103569,82.008354,249.992355,1.975342,-3.067871,-0.248779,-128.364563,-30.647276,-233.489975
-0.666504,2.161377,-1.36377,-133.834839,90.171806,249.992355,1.416748,-2.376709,0.151123,97.93853,166.122421,249.992355
-0.449219,2.011719,-1.163818,-147.743225,113.739006,249.992355,2.8125,-4.637939,-0.584961,-125.259392,-138.526917,-190.368637
-0.331055,1.91333,-0.972656,-153.198242,154.11377,249.992355,1.241211,-3.071777,0.842041,169.906601,185.188278,249.992355
-0.381836,1.872803,-0.873779,-149.932861,203.086838,249.992355,1.280029,-3.096436,0.929443,156.936646,177.73436,249.992355
-0.496338,1.881836,-0.864502,-141.456604,241.99675,249.992355,1.347656,-3.125488,0.956787,143.218994,168.15947,249.992355
-0.641846,1.880371,-0.874023,-129.295349,249.610886,249.992355,1.336914,-3.025146,0.949707,126.190178,158.958435,249.992355
-0.827881,1.889404,-0.887207,-113.075249,249.992355,249.992355,1.244629,-2.84668,0.878662,107.246391,144.393921,249.992355
-0.986572,1.904541,-0.907471,-96.794121,249.755844,249.992355,1.218262,-2.745117,0.746826,91.369621,130.66864,249.992355
5.556152,1.47168,1.759033,175.491318,-62.065121,20.240782,1.281982,-2.731445,0.592529,84.556572,121.910088,249.992355
-1.144775,1.874023,-0.88623,-82.176201,223.464951,249.992355,1.27417,-2.663574,0.418213,82.397453,119.155876,249.992355
-0.946045,1.685059,-0.453613,-52.276608,161.903366,249.992355,1.255615,-2.494873,0.250488,84.854118,128.890991,249.992355
-0.60376,1.782959,0.039551,2.159119,147.453308,249.992355,2.316406,-3.832031,-0.306885,-132.240295,-96.687309,-202.011093
-0.2771,1.878418,0.084473,27.328489,152.114868,249.992355,1.260498,-3.074219,0.647949,180.076584,176.09404,249.992355
0.175537,1.906006,0.119873,49.835201,162.460312,249.984726,1.613037,-2.494141,0.158447,120.643608,227.180466,249.992355
0.609375,1.906738,0.192871,71.121216,171.325668,249.992355,1.29834,-2.7854,0.474609,174.667343,249.458298,249.992355
0.987061,1.90918,0.314209,90.782158,160.819992,249.992355,0.703857,-2.755615,0.634277,201.126083,249.992355,249.992355
1.409912,1.961914,0.510986,103.85894,123.00872,249.328598,0.030762,-2.647949,0.642578,222.831711,249.992355,249.984726
2.708496,1.891602,1.219971,117.729179,27.435301,249.992355,-0.761963,-2.44165,0.482422,237.007126,223.815903,249.984726
3.571289,1.81665,1.525635,126.747124,-1.060486,222.747787,-1.482666,-2.253174,0.312256,244.285568,171.943649,249.992355
4.114014,1.717041,1.852295,142.318726,0.1297,160.705551,-2.272461,-2.111572,0.229492,243.873581,110.130302,249.626144
-1.155029,1.789307,-0.761963,-69.763184,190.856918,249.992355,-3.079102,-1.943604,0.217529,233.917221,47.225948,248.611435
-0.760986,1.687744,-0.131836,-27.160643,148.239136,249.992355,-3.813965,-1.661865,0.297607,218.826279,7.194519,249.992355
-1.411865,2.223633,-1.142334,151.046753,-249.885544,-249.992355,-4.55957,-1.239258,0.492188,196.113571,-10.009766,242.393478
-1.189941,2.077881,-1.112549,173.614487,-249.992355,-249.992355,-5.334473,-0.903076,0.826172,162.475571,-25.009153,133.666992
-0.923828,3.19873,-0.845459,100.07476,-93.994133,249.992355,1.629639,-2.69165,0.295654,146.476746,249.992355,249.992355
-0.912109,2.962158,-0.880615,87.34893,-50.636288,249.992355,1.281738,-3.044678,0.380859,178.665146,143.699646,249.992355
-1.230713,2.906982,-1.013184,71.06781,-37.063599,249.992355,-5.837158,-0.907959,1.217285,120.788567,-51.040646,28.251646
-1.360352,3.004639,-1.337402,40.252682,-53.63464,249.992355,1.214844,-2.650879,0.193115,139.472961,27.000425,249.992355
-1.289795,3.094482,-1.619385,-8.682251,-65.979004,249.992355,3.223389,-4.790283,-0.959473,-111.000053,-98.381035,-176.47551
-0.824951,2.984619,-1.742676,-65.986633,-59.082027,249.992355,3.534424,-4.437744,-1.478027,-57.456966,105.850212,-136.352539
-0.32666,2.714355,-1.636963,-119.003288,-30.769346,249.992355,3.64209,-3.346436,-2.216309,-45.227047,249.992355,-208.549484
-0.118896,2.4729,-1.520752,-160.644516,5.981445,249.992355,0.531006,-3.516113,-1.981689,-2.63977,210.845932,-230.445847
-0.102783,2.39917,-1.439209,-188.873276,35.652161,249.992355,-0.133301,-5.063477,-2.802734,120.254509,-221.641525,-32.165527
-0.055176,2.44873,-1.367432,-236.206039,75.767517,249.992355,6.647461,-2.984375,-5.734619,53.871151,-239.97496,26.473997
-1.707031,3.584473,-0.968018,109.977715,-124.481194,249.992355,1.312256,-2.92749,0.179932,163.330063,89.942924,249.992355
0.016113,2.365967,-1.348389,-249.664291,99.945061,249.992355,4.133545,-3.33667,-1.572021,135.093689,46.150204,217.567429
0.207764,2.03833,-1.324219,-249.992355,162.078842,249.992355,3.703125,-3.425781,-0.928223,157.119751,11.367797,248.771652
0.259033,1.894287,-1.279053,-249.992355,179.405197,249.992355,3.142334,-2.753418,-0.626953,163.581833,-5.081176,249.992355
0.351807,1.751221,-1.200684,-249.992355,192.695602,249.992355,2.552979,-1.762207,-0.50293,154.99115,1.373291,249.992355
0.40625,1.647949,-0.999268,-249.992355,211.807236,249.992355,5.496582,-2.839355,-4.396973,132.415771,52.810665,130.264282
0.350098,1.637451,-0.836182,-249.992355,228.942856,249.992355,1.83252,-1.155273,-0.325928,166.534409,86.639397,249.992355
0.209717,1.617676,-0.687988,-249.992355,234.466537,249.992355,1.290771,-1.410156,-0.098389,183.586105,121.00219,249.992355
0.119141,1.553223,-0.562988,-249.992355,230.453476,249.664291,0.824219,-1.566895,0.056152,192.588791,121.467583,249.992355
0.136475,1.418701,-0.413086,-249.847397,238.891586,249.992355,0.531006,-1.682861,0.150391,200.202927,94.192497,249.992355
0.238281,1.251465,-0.222656,-249.992355,249.649033,249.992355,0.44751,-1.748047,0.23291,207.900986,60.623165,249.992355
-1.416504,2.166992,-1.117432,163.978561,-249.382004,-249.992355,0.474365,-1.770264,0.44873,204.544052,36.933899,249.992355
0.112549,2.223145,-1.356201,-249.992355,132.469177,249.992355,0.466797,-1.759521,0.732422,186.866745,15.960692,249.992355
-2.861084,3.912598,-1.342041,116.546623,-111.381523,249.992355,0.498535,-1.755615,0.902832,155.662537,-17.364502,249.992355
-0.113525,2.446777,-1.402588,-211.12059,57.250973,249.992355,0.619141,-1.900635,0.843018,126.228325,-40.557858,249.992355
-4.662842,4.217529,-2.12793,92.65136,90.286247,249.992355,0.880615,-2.25293,0.481689,121.620171,-23.612974,249.992355
-3.938232,4.072998,-1.856934,112.976067,-42.625423,249.992355,2.230469,-1.128906,-0.513428,153.97644,36.949158,249.992355
-0.818604,1.971436,-1.064941,187.629684,-203.628525,-249.992355,1.737549,-1.145264,1.009521,-91.354362,-249.992355,-249.992355
-0.665771,1.948242,-0.980713,183.990463,-145.317078,-249.992355,1.871826,-0.835205,0.890137,-89.942924,-249.992355,-249.992355
-0.425049,1.939941,-0.865234,174.499496,-67.03949,-249.992355,2.028564,-0.748291,0.633545,-84.571831,-249.992355,-249.992355
-0.596436,2.032959,-0.687744,152.633667,24.002073,-249.992355,2.227295,-0.904053,0.489746,-74.714661,-249.992355,-249.992355
-0.986328,2.126465,-0.431152,121.932976,96.488945,-249.992355,0.364258,-1.023926,0.188232,-96.870415,-249.992355,-249.992355
-1.025635,2.110352,-0.266602,106.819145,158.973694,-249.992355,2.100586,-1.322021,0.350342,-67.901611,-249.992355,-249.992355
-1.248779,2.095703,-0.02832,94.001762,222.267136,-249.961838,1.658447,-1.364258,0.267334,-75.996399,-249.992355,-249.992355
-2.364258,2.416992,0.037598,3.860473,244.89592,-249.992355,1.018799,-1.268799,0.220947,-87.150566,-249.992355,-249.992355
-3.404785,1.932129,-0.079834,-23.170469,168.022141,-249.992355,2.26001,-1.146484,0.427734,-67.329407,-249.992355,-249.992355
-3.483154,2.337891,-0.379395,5.195617,3.128052,-248.336777,1.6604,-1.505859,0.986084,-86.242668,-249.992355,-249.992355
-0.902588,1.996338,-1.090576,182.929977,-248.451218,-249.992355,1.147217,-1.72876,0.619629,93.826286,-183.616623,-249.992355
-7.380371,1.249023,-0.197021,-22.750853,-249.992355,-249.992355,1.574219,-1.94165,0.726563,-60.966488,-249.992355,-249.992355
-4.182617,3.125977,-0.517822,-71.022034,-205.20018,-249.992355,1.575928,-1.990723,0.710938,-51.856991,-249.992355,-249.992355
-5.385498,4.394287,-1.245605,55.923458,249.992355,249.992355,1.445313,-1.991455,0.719971,-42.884823,-249.992355,-249.992355
-5.856201,4.427246,-0.474121,55.831905,247.825607,249.992355,1.281006,-1.96167,0.692139,-35.331726,-249.992355,-249.992355
-6.134277,4.047607,-0.023926,59.417721,249.565109,249.992355,1.174561,-1.989014,0.662354,-20.912169,-249.992355,-249.992355
-7.753906,4.708496,3.404541,70.68634,67.062378,249.992355,1.077148,-2.052979,0.640625,2.525329,-249.992355,-249.992355
-5.044434,4.32959,-1.932373,68.93158,243.560776,249.992355,1.058594,-2.076904,0.606689,28.968809,-249.671921,-249.992355
-2.608398,2.247559,1.59668,-43.571468,33.309937,133.956909,1.14209,-2.019531,0.587158,52.276608,-249.641403,-249.992355
-3.997314,1.70459,-0.524658,34.034729,-94.840996,-46.440121,1.223389,-1.9104,0.590088,68.824768,-249.992355,-249.992355
-6.786621,1.419678,-0.11792,49.606319,-249.992355,-184.730515,1.22998,-1.811279,0.613525,82.008354,-239.685043,-249.992355
-4.002686,3.683594,5.819824,22.315977,-209.793076,205.100998,-0.254883,-0.694824,0.188232,-100.791924,-249.992355,-249.992355
3.261475,0.672119,1.71875,249.206528,-249.992355,-248.939499,1.601074,-1.796387,0.861816,-73.173523,-249.992355,-249.992355
1.744141,1.787842,0.647949,34.355164,47.508236,249.992355,-0.770996,-0.405762,0.402588,-85.578911,-249.992355,-249.992355
2.391357,1.75293,1.198975,97.839348,7.072448,249.992355,-1.896973,-2.123291,0.62793,249.992355,118.400566,230.293259
2.944824,1.734619,1.530273,166.816696,-44.914242,219.764694,-2.395264,-0.121582,0.940918,-15.350341,-249.992355,-249.992355
3.358398,1.718994,1.754395,229.39299,-110.679619,148.162842,1.096191,-1.63501,0.618652,101.615898,-130.935669,-249.992355
3.80542,1.695557,1.988281,249.992355,-187.095627,75.408936,1.345215,-2.302246,1.158936,-162.399277,249.992355,249.992355
4.195801,1.582764,2.080566,249.984726,-243.88884,-8.552551,1.333252,-2.470703,1.089355,-131.17981,249.992355,249.992355
1.206055,1.759521,0.154053,-22.90344,87.6007,249.267563,1.100586,-2.524658,0.994873,-93.894951,249.992355,249.992355
4.336914,1.364746,1.994141,249.992355,-249.092087,-107.38372,0.85376,-2.42334,0.866211,-57.975765,249.992355,249.992355
4.023926,1.032959,1.775391,249.908432,-249.992355,-204.917892,0.94165,-2.248291,0.75415,-27.038572,249.992355,249.992355
2.440186,0.467773,1.530029,249.992355,-196.350082,-249.992355,1.274414,-2.202637,0.809326,8.995056,249.992355,249.992355
-0.911865,1.026855,-0.262451,101.623528,-73.455811,-249.992355,1.437744,-2.381836,0.92041,53.138729,249.992355,249.984726
1.375732,0.608643,1.001709,199.180588,-88.905327,-249.992355,1.224365,-2.601318,0.930176,100.898735,249.649033,249.992355
0.930908,0.745117,0.723389,146.194458,-62.271114,-249.992355,0.767822,-2.592529,0.910645,159.172058,249.885544,249.992355
0.033936,0.878174,0.286621,116.958611,-51.74255,-249.992355,-1.478516,-0.173828,0.669434,-55.152889,-249.992355,-249.992355
-1.48584,1.225586,-0.578613,89.462273,-132.446289,-249.992355,0.142578,-2.369385,0.6521,206.069931,249.992355,249.458298
-1.727783,1.399902,-0.833984,82.18383,-197.837814,-249.992355,-1.206299,-2.056152,0.668945,249.877914,187.599167,249.992355
-1.621338,1.442139,-0.80835,84.632866,-238.700851,-249.992355,-2.521973,-2.351074,0.561768,249.412521,21.339415,165.687546
-1.336914,1.464355,-0.712891,96.092216,-249.969467,-249.992355,-2.963379,-2.472656,0.570557,249.992355,-84.396355,107.322685
-1.13208,1.573975,-0.730957,108.085625,-236.053452,-249.992355,-3.372803,-2.430664,0.748047,249.992355,-169.189438,45.074459
-1.082031,1.705566,-0.780029,118.942253,-207.580551,-249.992355,-3.907959,-2.280518,1.010254,217.864975,-228.187546,-24.826048
0.795654,1.702148,-0.191162,-83.625786,122.459404,249.992355,-4.487061,-2.172363,1.266602,166.51152,-249.816879,-87.554924
1.769043,0.479004,1.290283,249.992355,-132.545471,-249.992355,-5.056641,-2.139893,1.269531,143.081665,-249.992355,-153.678894
0.455811,1.671143,-0.418213,-144.004822,152.191162,249.992355,-5.3125,-1.702881,1.20459,117.179863,-249.992355,-229.354843
-1.166992,1.806641,-0.900879,127.792351,-174.613937,-249.992355,-4.523438,-0.972168,1.365967,62.83569,-249.992355,-249.992355
-0.183838,1.559326,-0.535889,-236.778244,215.652451,249.992355,-3.285645,-0.415039,1.335938,20.805357,-249.992355,-249.992355
-0.794189,2.794189,-1.328857,36.636353,-22.041319,249.992355,-0.523438,-2.156006,0.628174,238.281235,237.983688,249.992355
-0.552734,2.4021,-1.305176,8.598328,10.70404,249.992355,1.096436,-1.530029,0.645508,104.408257,-92.864983,-249.992355
-0.437012,2.128174,-1.163818,-10.978698,45.158382,249.992355,1.174316,-1.397705,0.65332,100.242607,-68.54248,-249.992355
-0.512207,2.000732,-1.126465,-25.321959,75.3479,249.992355,1.330078,-1.25,0.640137,91.194145,-47.607418,-249.992355
-0.665039,1.911133,-1.155273,-39.825439,90.286247,249.992355,0.891113,-2.579102,0.823486,21.850584,249.992355,249.992355
-0.80957,1.874268,-1.201172,-54.710384,87.059013,249.992355,0.967529,-2.463623,0.92627,27.9541,249.992355,249.992355
-0.927734,1.937256,-1.260498,-72.143555,70.411682,249.992355,1.008545,-2.345215,1.029541,28.480528,249.366745,249.992355
-1.004639,2.037842,-1.360352,-97.999565,44.906612,249.992355,1.016113,-2.302734,1.079834,30.868528,249.992355,249.992355
-1.050293,2.079346,-1.462891,-131.980896,18.333435,249.992355,1.036865,-2.312012,1.064209,38.444519,249.992355,249.992355
-0.986084,2.093506,-1.516846,-172.996506,-0.534058,249.992355,1.020996,-2.182617,0.974609,39.627075,223.579391,249.992355
0.126953,1.621094,-0.521973,-194.686874,181.755051,249.984726,0.969971,-1.883301,0.861328,29.350279,162.048325,249.992355
-0.72583,2.06543,-1.477295,-221.092209,-7.080078,249.992355,0.874268,-1.638184,0.779297,17.379761,108.3908,249.992355
-0.203613,1.88916,-1.247559,-249.992355,27.526854,249.992355,0.822754,-1.545654,0.72583,10.917663,78.559875,249.992355
-0.004395,1.815186,-1.208496,-249.992355,74.821472,249.992355,0.959473,-1.600586,0.714844,14.694213,89.027397,249.992355
0.162354,1.704346,-1.151123,-249.992355,141.616821,249.992355,0.853271,-2.671143,0.759766,11.589049,249.984726,249.992355
0.166504,1.611572,-1.115723,-249.992355,215.805038,249.992355,1.031982,-1.650635,0.720703,23.262022,118.965141,249.992355
0.045898,1.567139,-1.071533,-249.992355,249.30571,249.992355,1.404541,-1.843262,0.713867,59.509274,239.883408,249.992355
-0.092773,1.544678,-0.963867,-249.992355,249.992355,249.992355,1.615723,-2.040771,0.706787,96.687309,249.992355,249.992355
-0.283203,1.527832,-0.819092,-249.992355,249.923691,249.992355,1.669922,-2.195557,0.739258,140.090942,249.992355,249.992355
-0.525879,1.543213,-0.732422,-249.656662,249.488815,249.992355,1.471924,-2.302734,0.747803,195.548996,249.992355,249.992355
-0.613037,1.557861,-0.688965,-249.992355,249.992355,249.992355,1.239502,-2.38916,0.752686,243.484482,249.992355,249.992355
-0.453369,1.540039,-0.593018,-249.992355,249.458298,249.992355,1.210693,-2.45874,0.808594,249.992355,249.992355,249.992355
-0.426758,1.973145,-1.352783,-248.695358,0.823975,249.992355,1.139893,-2.438965,0.969727,249.992355,249.961838,249.992355
-1.269043,1.878174,-1.012207,131.706238,-151.924133,-249.992355,0.938232,-2.335205,1.193115,249.992355,249.992355,249.992355
-0.967285,3.057861,-1.177979,64.872742,-44.967648,249.992355,0.674561,-2.218262,1.284668,249.992355,249.992355,249.992355
-1.302734,1.951416,-0.931152,137.695313,-157.88269,-249.992355,0.303955,-1.989258,1.203125,249.992355,248.237595,249.969467
-3.207764,3.80957,1.198975,-249.992355,249.992355,207.260117,1.179199,-1.704102,0.722656,35.133362,176.22374,249.992355
-4.384521,2.869141,7.999756,-91.430656,66.192627,249.992355,0.883545,-2.693115,0.723145,-4.547119,249.992355,249.992355
-7.124023,4.325195,3.580078,73.33374,215.484604,249.992355,0.87793,-1.553467,0.70166,10.025024,74.401855,249.992355
-4.67749,5.441895,-0.257324,131.500244,249.992355,249.992355,1.274414,-2.334961,0.832764,-53.092953,249.992355,249.992355
-4.051025,5.641357,-0.872559,134.971619,222.671494,249.992355,1.060547,-2.591064,0.756104,-29.243467,249.992355,249.992355
-3.365479,5.209961,-1.244873,131.072998,106.185905,249.992355,1.560547,-0.984131,0.431152,63.529964,-10.643004,-249.984726
-2.5979,4.518066,-1.18042,158.325195,35.423279,249.992355,1.528076,-0.822021,0.264404,38.551331,-13.09204,-249.992355
-1.921875,4.162842,-1.047607,160.469055,13.702392,249.992355,1.435791,-0.780029,0.155029,17.906189,-32.066345,-249.717697
-1.270752,3.619385,-0.92749,132.957458,3.318786,249.992355,1.491211,-1.127686,0.080566,15.327453,-46.348568,-248.580917
-0.869385,2.884277,-0.801514,111.953728,-7.972717,249.992355,1.520264,-1.578857,-0.009766,18.486023,-56.419369,-249.992355
-0.823486,3.425049,-4.001953,-244.697556,249.992355,-51.124569,2.172852,-1.379639,-0.033203,12.184142,44.113155,-245.979294
-0.74585,2.47998,-0.774414,95.779411,-16.868591,249.992355,3.202637,-1.489014,-0.015137,-10.879516,226.669296,-150.8255
-0.517334,2.397217,-0.887939,53.085323,-11.184691,249.992355,3.352295,-3.798096,0.673584,37.635803,249.992355,-210.571274
-0.592285,2.464111,-0.98291,29.701231,7.110595,249.992355,0.439209,-2.375,1.21875,30.982969,248.756393,-249.992355
-0.622559,2.477051,-1.103516,5.531311,22.65167,249.992355,4.736816,-1.901855,-0.599854,-82.099907,249.992355,28.411863
-0.560547,2.428467,-1.10376,-18.608093,41.389462,249.992355,1.485596,-1.115967,0.564697,80.635063,-24.757383,-249.992355
-0.507568,2.358398,-0.963135,-37.849426,71.914673,249.992355,6.48999,-4.480713,-1.53418,40.336605,190.002426,227.371201
-0.543701,2.289307,-0.908447,-50.132748,110.53466,249.992355,7.999756,-3.94458,-1.51001,-94.848625,249.992355,222.038254
-0.623779,2.262207,-0.942383,-58.013912,139.602661,249.992355,0.92041,-2.144775,0.990234,-50.651546,249.992355,249.992355
-0.719727,2.310547,-1.01709,-64.689636,147.010803,249.992355,0.88916,-3.022217,1.005615,-22.071836,249.992355,249.992355
-0.779541,2.4021,-1.153076,-76.293945,132.156372,249.992355,1.244629,-4.07959,0.990723,-6.431579,249.992355,249.992355
-0.759521,2.438232,-1.299561,-91.63665,106.155388,249.992355,1.631592,-4.415039,0.962646,-10.31494,235.404953,249.992355
-0.5979,2.368408,-0.817871,75.691223,-21.446226,249.992355,1.187012,-2.026367,0.911133,-63.255306,249.992355,249.992355
-2.746338,4.306152,-3.866211,84.373466,0.602722,-78.132629,2.689453,-4.321533,0.699951,6.286621,144.424438,249.992355
-1.318604,1.910156,-0.973877,132.331848,-145.935059,-249.992355,3.571045,-4.302002,0.595947,15.518188,130.561829,249.992355
-3.930908,0.90625,0.581787,80.467216,-249.992355,-197.631821,4.97583,-4.234619,0.042969,25.024412,137.680054,249.992355
-1.32666,2.040283,-0.96875,148.536682,-180.717453,-249.992355,2.057129,-4.195557,0.850586,-10.887145,178.443893,249.992355
-1.354004,2.12915,-1.034668,161.666855,-205.657944,-249.992355,-3.727051,-0.491943,0.879395,-163.017258,-249.992355,-249.992355
-1.286133,2.204834,-1.088379,172.370895,-228.095993,-249.992355,-3.667236,-1.26416,1.686768,145.111084,114.166252,216.194138
-1.233643,2.244141,-1.0979,180.290207,-246.0327,-249.992355,-5.001709,-1.023682,2.070313,97.717278,92.247002,106.979362
-1.318359,2.210205,-1.088867,188.339218,-249.992355,-249.992355,-5.91333,-0.743164,2.384766,44.479366,19.737244,30.448912
-1.298828,2.115967,-1.031982,202.545151,-249.320969,-249.992355,-6.328125,-0.567139,2.621826,-22.964476,-134.307861,-64.125061
-3.778564,1.061279,-1.32666,249.992355,-249.992355,-193.267807,-5.974854,-0.996826,2.820068,-91.232292,-225.120529,-210.357651
-1.081299,1.95459,-1.070313,230.613693,-249.992355,-249.992355,-5.109619,-1.540039,2.897705,-134.140015,-187.30162,-249.992355
-0.925781,1.87793,-1.031982,238.944992,-216.781601,-249.992355,-2.846191,-1.501953,1.32251,200.111374,130.775452,249.992355
-0.555664,1.878418,-1.035156,240.089401,-146.652222,-249.992355,-4.365234,-1.111572,2.385742,-185.531601,-195.419296,-249.992355
-0.294189,1.989258,-1.086182,225.601181,-52.238461,-249.992355,-3.766602,-0.410156,1.737793,-196.456894,-245.65123,-249.992355
-1.160889,2.031982,-1.033691,219.215378,-249.992355,-249.992355,-2.412842,-1.044678,0.761475,-168.090805,-249.992355,-249.992355
-0.40625,2.198975,-0.93457,176.620468,94.726555,-249.992355,1.859619,-2.717041,0.321289,-151.45874,-249.992355,-249.992355
-0.382813,2.223145,-0.875488,152.34375,124.855034,-249.992355,0.126465,-2.007568,0.468506,-181.00737,-249.992355,-249.992355
-0.775635,2.152832,-0.805908,129.776001,160.385132,-249.992355,1.008789,-2.37085,0.310303,-171.859726,-249.992355,-249.992355
-1.477539,2.093262,-0.559326,104.324333,158.500671,-249.992355,1.58667,-2.619141,0.268066,-161.262497,-249.992355,-249.992355
-1.94751,1.922607,-0.379395,76.942444,119.918816,-249.992355,1.963867,-2.726563,0.425049,-143.882751,-249.992355,-249.992355
-2.152832,1.537842,-0.377197,40.168758,116.958611,-249.992355,1.968262,-2.765869,0.576416,-134.101868,-249.992355,-249.992355
-2.332031,1.376465,-0.448486,-23.056028,147.415161,-249.832138,1.89917,-2.883789,0.666748,-118.797295,-249.992355,-249.992355
-3.338867,1.754395,-0.134521,-95.275871,43.457027,-249.130234,1.899414,-2.971191,0.729492,-99.403374,-249.992355,-249.992355
-4.093506,1.961914,0.01416,-89.99633,-195.404037,-249.992355,1.868652,-2.976807,0.774658,-78.285217,-249.992355,-249.992355
-4.333008,1.484375,0.412354,-18.928528,-243.904099,-247.604355,1.859375,-2.895996,0.817139,-62.271114,-249.992355,-249.992355
-0.369629,2.112549,-1.05835,200.91246,41.671749,-249.992355,-2.257568,-1.68457,1.035156,241.99675,157.722473,249.992355
0.216553,1.313721,-0.166016,-67.558289,-15.35797,249.992355,-1.029053,-1.556152,0.673584,-181.617722,-249.992355,-249.992355
-0.061279,1.389404,-0.350098,-64.64386,-11.001586,249.992355,-1.494629,-1.819824,0.864746,249.992355,195.190414,249.168381
-0.270508,1.428467,-0.456299,-62.881466,2.166748,249.992355,0.620117,-2.777832,0.938965,95.069878,0.465393,249.992355
-0.390381,1.461914,-0.509033,-62.294003,25.344847,249.992355,-0.38623,-1.947754,0.665771,249.771103,225.936874,249.992355
-0.55542,1.89917,-0.619873,-78.887939,89.469902,249.992355,1.825684,-2.78125,0.84082,-51.307674,-249.992355,-249.992355
-0.432129,1.612793,-0.4646,-66.398621,84.190361,249.992355,0.655029,-2.919678,0.937744,75.714111,-0.587463,249.992355
-0.400391,1.704346,-0.412598,-71.174622,102.325432,249.992355,0.719238,-3.033936,0.827637,61.614986,6.179809,249.992355
-0.421631,1.795654,-0.468018,-76.469421,103.47747,249.992355,0.843506,-3.106201,0.764893,52.818295,23.071287,249.992355
-0.427734,1.522949,-0.514893,-63.316341,54.931637,249.992355,0.859375,-3.124023,0.800049,45.433041,45.288082,249.992355
0.591797,1.227051,0.039795,-69.17572,-11.413573,249.992355,0.77002,-3.072998,0.866943,38.017273,64.094543,249.992355
4.602539,1.442871,1.475342,111.129753,-129.592896,-215.682968,0.696777,-2.95459,0.916992,27.778624,79.437256,249.992355
1.769531,1.101807,0.5,-59.967037,35.339355,249.992355,0.689697,-2.769043,0.941406,17.364502,102.783195,249.992355
2.376709,1.133301,0.704834,-47.790524,78.102112,249.992355,0.751709,-2.552246,0.946289,9.552002,146.911621,249.992355
2.892334,1.274902,0.777588,-38.68866,121.337883,231.750473,0.827148,-2.396973,0.96167,7.354736,211.280807,249.992355
3.183838,1.433594,0.7771,-33.416748,143.890381,184.905991,0.83374,-2.343506,0.98584,13.09204,248.580917,249.992355
3.073486,1.505127,0.779297,-27.992247,118.362419,148.05603,0.785889,-2.337891,1.013428,24.818419,249.992355,249.992355
2.973877,1.45459,0.760742,-27.999876,32.287598,108.108513,0.721436,-2.357666,1.028809,42.121883,249.992355,249.992355
3.145508,1.361084,0.816162,-34.408569,-86.730949,39.482117,0.704834,-2.372803,1.015381,66.864014,249.992355,249.992355
3.429199,1.362061,1.02002,-30.532835,-186.256393,-43.563839,0.742432,-2.283691,0.966309,91.51458,249.992355,249.992355
3.875,1.393555,1.331787,9.513855,-223.22081,-113.075249,0.885254,-2.123779,0.916504,111.686699,249.992355,249.992355
4.436523,1.453857,1.661133,70.533752,-195.610031,-164.291367,1.053223,-2.080811,0.907471,135.261536,249.961838,249.992355
-0.603516,1.971924,-0.740723,-75.828552,64.27002,249.992355,1.104248,-2.177734,0.908447,162.773117,249.68718,249.992355
1.126221,1.154541,0.255127,-67.703247,4.394531,249.542221,1.030029,-2.281006,0.886719,187.583908,249.992355,249.992355
-0.590088,2.01123,-0.815918,-68.885803,38.391113,249.992355,0.825195,-2.268311,0.840332,210.769638,249.923691,249.992355
-0.995361,2.092041,-0.691406,113.69323,-10.421752,249.992355,0.518555,-2.147461,0.766113,231.719955,231.040939,249.992355
-0.655273,2.127441,-0.944336,-47.386166,7.347106,249.992355,0.210205,-2.009521,0.69873,246.002182,219.711288,249.992355
3.788818,1.414063,0.9375,112.014763,-64.51416,-248.519882,-0.052002,-1.942383,0.664063,249.992355,219.810471,249.977097
-4.030029,4.706055,-0.607178,5.836486,249.992355,249.992355,-0.835938,-1.92627,0.749268,249.93895,221.969589,249.992355
-3.551025,4.560059,-0.383057,60.93597,249.992355,249.992355,1.665283,-2.676758,0.788574,-45.989986,-249.992355,-249.992355
-3.200195,4.546875,-0.368896,112.022392,249.992355,249.992355,1.217773,-2.169189,1.238281,-178.817734,242.454514,249.992355
-2.893799,4.525879,-0.72876,129.005432,249.816879,249.992355,1.283447,-2.603027,0.672119,-36.056519,-249.992355,-249.992355
-2.621338,4.411133,-0.994873,118.09539,249.855026,249.992355,5.504883,-4.581055,0.592529,42.472836,71.372986,249.992355
-2.337158,4.030029,-1.169189,118.370049,249.992355,249.992355,4.395264,-4.297119,0.774414,50.72784,111.343376,249.992355
-1.893555,3.586426,-1.160156,139.762878,243.896469,249.992355,3.356934,-4.138184,1.175293,46.356197,180.541977,249.992355
-1.272705,3.486572,-1.139648,132.598877,207.71788,249.992355,2.593018,-3.973389,1.473633,23.91815,239.356979,249.992355
-0.947998,2.950439,-1.020264,116.806023,156.799316,249.992355,2.096191,-3.912354,1.6521,12.107848,249.114975,249.992355
-0.655762,2.066406,-0.894531,-59.638973,19.721985,249.992355,1.626221,-3.911377,1.745361,12.71057,249.992355,249.992355
-0.97168,2.347168,-0.85376,116.683952,107.810966,249.992355,1.377197,-3.766357,1.746582,14.518737,242.805466,249.992355
-1.075928,2.080078,-0.724609,118.408195,23.16284,249.992355,1.553711,-3.524902,1.675781,13.259887,169.242844,249.992355
-0.854004,2.136963,-0.696045,106.414787,-30.96771,249.992355,1.82666,-3.457764,1.554443,13.145446,108.123772,249.992355
-0.705811,2.187988,-0.768066,95.054619,-35.461426,249.992355,1.542969,-3.400391,1.203857,4.577637,50.308224,249.992355
-0.668701,2.22583,-0.859131,81.619255,-27.000425,249.992355,6.438232,-4.706787,0.773438,40.710445,64.727783,249.992355
-0.647217,2.283936,-0.956543,62.95013,-12.779235,249.992355,1.136719,-3.143555,1.095947,-8.331299,46.997066,249.992355
-0.549072,2.309082,-0.959961,40.977474,0.083923,249.992355,0.833252,-2.660156,1.317627,-41.351315,90.866081,249.992355
-0.536133,2.301758,-0.903076,23.490904,8.071899,249.992355,1.087891,-2.513916,1.500732,-60.859676,136.734009,249.992355
-0.55542,2.299072,-0.951416,7.347106,8.781433,249.992355,1.32959,-2.482178,1.700928,-78.025818,189.392075,249.992355
-0.512939,2.265137,-1.0271,-12.5885,3.15094,249.992355,1.347656,-2.477539,1.851563,-95.687859,220.985397,249.992355
-0.557129,2.190918,-1.01123,-31.997679,1.022339,249.992355,1.229004,-2.458252,1.855713,-110.809319,217.697128,249.992355
-1.064453,2.114258,-0.766113,119.766228,63.270565,249.992355,1.157715,-2.468262,1.792236,-127.79998,196.205124,249.992355
2.525635,1.445313,0.343506,78.025818,-33.706665,-249.992355,1.164063,-2.487305,1.721436,-149.604797,171.707138,249.992355
-4.554443,3.359619,3.157959,-249.992355,245.979294,202.278122,1.062012,-2.337646,1.476074,-167.52623,155.74646,249.992355
1.047607,1.471191,-0.150146,-0.320435,-84.602348,-249.992355,1.07373,-2.171875,1.335449,-179.321274,186.874374,249.992355
-3.305176,1.848145,-0.812744,70.739746,-176.582321,-249.992355,1.469971,-2.615967,0.733154,-43.212887,-249.992355,-249.992355
-3.585938,1.431396,-0.67334,60.348507,-249.992355,-249.992355,0.831543,-2.89502,1.128906,-22.003172,61.752316,249.992355
-3.047363,1.093262,-0.696289,49.690243,-249.992355,-249.725327,7.110352,-4.485352,0.294189,50.97961,103.347771,249.992355
-2.759277,1.158203,-0.53833,49.568172,-247.131332,-249.076828,1.802979,-3.515381,1.362793,13.923644,69.335938,249.992355
-2.307373,1.213623,-0.19873,72.654724,-249.992355,-249.992355,7.498779,-3.06543,-3.052002,18.692017,-69.320679,180.824265
-1.217041,1.614014,-0.557861,33.668518,-249.992355,-244.071945,7.883301,-3.69751,-2.192139,68.260193,132.667542,240.379318
-0.647217,2.359619,-0.972168,-115.20385,-128.181458,-188.484177,1.154541,-2.538574,0.629395,-10.765075,-249.93895,-249.992355
-0.683594,1.073242,0.447266,72.898865,70.846558,-249.992355,1.135742,-2.444336,0.642578,-0.701904,-249.992355,-249.992355
-6.304199,2.672607,-3.702393,31.044004,222.686752,-216.522202,1.065918,-2.327393,0.651855,4.043579,-249.374374,-249.992355
-4.354004,0.151123,-6.64624,-184.982285,249.992355,-111.701958,1.010498,-2.240723,0.711914,5.058288,-245.246872,-249.992355
-2.369873,2.01416,-1.112793,81.062309,-38.703918,-249.992355,0.874756,-2.220459,0.794678,12.283324,-248.443588,-249.992355
1.61792,1.437988,-0.001953,31.005857,-42.488094,-249.992355,0.84375,-2.24585,0.79541,28.121946,-249.992355,-249.992355
-5.792236,4.131592,0.256592,-30.128477,249.992355,249.992355,0.971924,-2.244385,0.841553,47.973629,-249.008163,-249.992355
-4.48999,5.752441,-0.685303,-6.523132,239.883408,249.992355,1.112061,-2.151611,0.885986,66.581726,-232.360825,-249.992355
-3.88501,6.006348,-0.822754,1.304626,163.139328,249.992355,1.238037,-1.956299,0.897461,76.087952,-207.931503,-249.992355
-3.219971,5.484375,-1.016357,38.955688,113.403313,249.992355,1.39624,-1.724121,0.91333,73.478699,-176.933273,-249.992355
-2.647217,5.529053,-1.357422,51.147457,111.564629,249.992355,1.177002,-2.589355,0.631836,-23.857115,-249.977097,-249.992355
-2.062012,5.12793,-1.496338,53.428646,120.353691,249.992355,1.666748,-1.568848,0.868652,57.479855,-111.953728,-249.992355
-1.572021,4.603027,-1.416992,53.436275,100.059502,249.992355,1.554443,-1.584229,0.933105,64.033508,-143.753052,-249.992355
-1.30957,4.095947,-1.168701,58.517452,58.052059,249.992355,4.483154,-2.508057,0.171387,67.138672,249.992355,-249.992355
-1.28418,3.681152,-0.960449,71.434021,16.548157,249.992355,4.968994,-2.208252,-0.418701,51.094051,168.014511,-209.350571
-1.233154,3.429199,-0.933594,79.750061,-20.835875,249.992355,3.10791,-2.020996,-0.255859,32.745361,-139.877319,-249.992355
-6.567139,3.141113,6.631836,-193.115219,199.859604,249.992355,2.302002,-2.408936,0.004639,46.112057,-225.372299,-249.992355
-1.673096,2.111328,-1.360596,89.637749,-5.386352,-249.992355,3.03833,-2.611816,-0.28125,46.768185,132.164001,-130.233765
-1.104004,3.22168,-1.02002,79.460144,-45.372005,249.992355,2.018066,-1.58374,0.293945,39.268494,-141.731262,-249.916061
-1.727051,2.47168,-1.575439,115.57769,28.518675,-249.992355,1.879883,-1.428955,0.501465,43.663021,-104.644768,-249.992355
0.212646,1.623291,-0.296875,-5.706787,-136.550903,-249.992355,1.793945,-1.545898,0.722412,53.314205,-94.017021,-249.984726
-0.77124,1.907471,-0.524414,1.190186,-194.007858,-249.992355,2.320801,-2.152588,0.159912,48.96545,-181.282028,-249.252304
-1.51709,2.116455,-0.718018,6.973266,-242.423996,-249.992355,-3.733887,-1.930176,1.290039,217.254623,21.263121,154.655457
-1.920166,2.199951,-0.833496,13.618468,-249.992355,-249.992355,0.530762,-2.272461,1.089844,25.985716,249.992355,249.992355
-2.123291,2.193115,-0.926758,29.96063,-249.992355,-249.992355,0.408936,-2.388672,1.231689,62.568661,249.992355,249.992355
-2.231201,2.141357,-0.942871,56.701656,-249.992355,-249.992355,-0.02124,-2.378906,1.190918,94.696037,249.359116,249.992355
-1.642822,2.24707,-1.445313,101.097099,0.030518,-249.992355,-0.605225,-2.297363,0.955078,139.99939,249.992355,249.992355
-2.036133,2.171387,-1.00708,126.617424,-249.992355,-249.992355,-1.130127,-2.216553,0.679688,190.483078,249.992355,249.664291
-1.876953,2.292969,-1.03125,156.837463,-249.992355,-249.992355,-1.789063,-2.123779,0.680176,224.510178,225.402817,249.061569
-1.733154,2.456787,-1.145752,178.626999,-249.992355,-249.992355,0.530762,-2.119629,0.904297,-13.603209,249.984726,249.992355
-1.767578,2.658936,-1.279297,187.81279,-249.992355,-249.992355,-2.377441,-2.063477,0.74292,232.704147,153.739929,249.992355
-2.182861,2.11084,-0.939209,91.217033,-249.992355,-249.992355,-2.95752,-2.016602,0.92627,229.598984,92.384331,242.050156
-2.07959,2.987549,-1.647949,195.449814,-249.969467,-249.992355,-4.90625,-1.71582,1.70166,185.859665,-120.193474,58.135983
-2.096191,3.085205,-1.587402,202.575668,-249.511703,-249.992355,-3.423096,0.644287,0.509033,11.07788,-171.226486,-249.992355
-2.063477,3.094482,-1.545654,201.805099,-249.992355,-249.992355,-6.174561,-1.318115,1.675049,98.57177,-248.29863,-134.254456
-1.963135,2.92749,-1.396729,192.825302,-249.992355,-249.992355,-5.365234,-1.297119,1.11377,92.414848,-249.992355,-238.494858
-1.727295,2.665039,-1.126709,183.464035,-218.490585,-249.992355,-3.990234,-0.69043,0.612305,80.108643,-249.992355,-249.992355
-1.416748,2.477051,-0.995605,173.934921,-157.096863,-249.992355,-3.173828,1.311035,0.688232,-56.838985,-129.417419,-249.992355
-1.29126,2.424316,-0.983154,164.550766,-77.377319,-249.992355,-3.518066,0.826172,0.501465,-87.158195,-207.778915,-249.992355
-1.268066,2.422852,-0.980957,156.463623,-7.720947,-249.992355,-3.513672,-0.062988,0.362305,-128.395081,-226.028427,-249.992355
-1.285645,2.464844,-1.124756,150.756836,28.221128,-249.992355,-1.679688,-0.838867,0.27002,-152.610779,-204.551682,-249.992355
-1.476563,2.554932,-1.468018,137.428284,40.077209,-249.992355,-0.628174,-1.189453,-0.017334,-168.365463,-167.884811,-249.992355
-1.95166,2.841064,-1.493408,190.948471,-249.992355,-249.992355,0.091553,-1.444336,-0.099854,-184.242233,-143.882751,-249.992355
-0.381836,1.968262,-0.778076,-106.674187,102.447502,249.992355,0.498779,-2.098633,0.80127,-45.097347,249.992355,249.992355
-0.577393,2.229492,-1.088135,-102.462761,89.797966,249.992355,-5.96875,-1.419434,1.925293,136.978149,-240.516647,-23.094175
-0.662598,2.427979,-1.254883,-86.029045,67.9245,249.992355,0.584229,-2.205811,0.809082,-70.266724,249.992355,249.992355
-0.6521,2.488525,-1.172363,-67.115784,40.664669,249.992355,0.575195,-1.805908,-0.078613,-185.867294,-148.162842,-249.992355
-0.549561,2.265137,-0.889404,47.508236,-90.576164,249.992355,0.941162,-2.307129,0.893066,-139.030457,249.992355,249.992355
-0.589844,2.38208,-0.894775,-33.660889,-13.22174,249.992355,1.029785,-5.061035,0.393799,206.96257,31.845091,249.992355
-0.557861,2.28833,-0.82251,-8.209229,-39.337158,249.992355,1.015625,-4.600586,0.392822,184.692368,46.379086,249.992355
-0.513672,2.229248,-0.797363,19.14978,-66.596985,249.992355,1.009521,-4.297852,0.544678,169.044479,66.131592,249.992355
-0.619141,2.450928,-1.01001,-52.040096,12.786864,249.992355,0.834717,-3.997314,0.733154,150.810242,65.010071,249.992355
-0.23291,1.766357,-0.520264,-99.975578,108.367912,249.992355,0.576904,-3.638428,0.925781,127.227776,31.295774,249.992355
2.676025,1.102295,0.836914,67.016602,-25.985716,249.992355,0.423584,-3.243896,1.050049,105.720512,-12.687682,249.992355
-0.291992,1.550049,-0.256104,-69.046021,104.713432,249.992355,0.452637,-2.876953,1.055176,91.217033,-44.570919,249.992355
-0.331787,1.521973,-0.222656,-50.498959,90.209953,249.992355,0.545898,-2.626465,0.953613,81.832878,-66.604614,249.992355
-0.310303,1.526123,-0.203125,-36.224365,70.068359,249.992355,0.625244,-2.512451,0.718506,76.118469,-84.20562,249.992355
-0.208008,1.49707,-0.102051,-26.618956,46.768185,249.992355,0.711914,-2.457275,0.568604,71.899414,-93.696587,249.992355
-0.008057,1.419189,0.062988,-18.783569,22.514341,249.992355,0.785645,-2.314453,0.858154,-102.531425,249.992355,249.992355
0.320068,1.303467,0.213379,-10.44464,-2.159119,249.984726,0.750244,-2.386475,0.623291,62.782284,-89.141838,249.992355
0.729492,1.172607,0.401367,-0.297546,-25.222776,249.992355,0.746582,-2.055908,0.845947,14.381408,-56.007381,249.992355
1.163086,1.079102,0.579834,11.863708,-40.458675,249.984726,0.781494,-1.945801,0.952637,-15.319823,-32.989502,249.992355
1.649658,1.04126,0.713379,26.931761,-43.350216,249.328598,0.80835,-1.866455,1.056396,-48.995968,-8.811951,249.992355
2.183594,1.041748,0.804199,46.363827,-34.927368,249.992355,0.821533,-1.798096,1.161621,-86.677544,11.901855,249.992355
-0.733887,2.407715,-1.070801,81.359856,-104.660027,249.992355,0.819824,-1.813721,1.204346,-121.37603,36.598206,249.992355
-0.234863,1.638184,-0.368652,-86.807243,110.725395,249.992355,0.821045,-1.880371,1.155273,-148.06366,72.486877,249.992355
-0.934082,2.551025,-1.138428,120.567314,-105.895988,249.992355,0.854736,-1.973633,1.133301,-167.381271,126.258842,249.992355
-2.161865,5.65918,-1.373047,249.992355,249.992355,249.992355,0.911621,-2.049072,1.061768,-178.146347,205.604538,249.992355
-1.165283,2.564697,-1.072998,188.125595,-66.902161,249.992355,1.022217,-2.075684,0.971924,-178.382858,248.893723,249.992355
2.986572,1.290039,0.853271,81.626884,-32.432556,214.263901,1.030273,-2.186768,0.930908,-165.306076,249.992355,249.992355
-3.480469,1.896973,1.854004,-164.421066,-236.839279,-248.741135,0.746094,-2.230713,0.725342,42.366024,-74.905396,249.992355
-3.041504,1.249268,0.839355,-55.610653,-249.992355,-249.267563,0.967529,-2.256836,0.081787,-176.238998,-171.356186,-249.992355
-5.621338,1.490234,-1.903076,-151.123047,-249.992355,-249.992355,7.338867,-7.280762,-7.999756,206.695541,-201.278671,247.756943
-6.984375,1.078125,-0.310547,-235.992416,-55.244442,-207.740768,1.340576,-2.926758,0.38208,-139.152527,-246.566757,-249.992355
-4.746582,0.909912,1.643311,-126.91497,187.156662,3.77655,1.644287,-1.57251,0.371582,-20.523069,-150.146484,-249.992355
-4.596924,0.34375,3.011475,-80.612175,233.55101,227.12706,1.78833,-1.306396,0.374512,-46.440121,-174.034103,-249.992355
-4.143799,4.68335,7.999756,211.097702,-218.30748,249.992355,1.979004,-1.927979,0.207031,-65.704346,-199.485764,-248.054489
-7.010986,5.551025,3.976807,221.267685,-62.499996,249.992355,1.914551,-3.654053,0.172852,-52.886959,-246.192917,-248.992905
-4.070557,5.066406,0.253906,217.620834,146.354675,249.992355,1.150635,-2.836182,0.169434,-110.66436,-249.992355,-233.505234
-1.04541,2.590088,-1.120361,157.043457,-93.360893,249.992355,2.787109,-1.884277,-0.107666,-124.549858,-103.126518,-188.964828
-3.386963,5.460938,-0.001465,247.001633,237.655624,249.992355,6.509277,-7.278564,-0.392578,70.899963,229.148849,-241.020187
-2.240967,5.778076,-0.95752,249.992355,249.313339,249.992355,3.850342,-4.383301,-0.118896,0.709534,249.992355,-247.78746
-2.158691,5.416016,-1.802734,249.992355,249.992355,249.992355,1.329102,-0.026855,1.843262,-106.033318,249.992355,-241.203293
-2.066895,4.754883,-1.903564,249.992355,221.83226,249.992355,1.557861,-4.363525,-3.799316,-3.234863,28.587339,135.322571
-1.703857,4.115967,-1.64209,249.992355,162.544235,249.992355,1.613525,-1.700684,0.158447,-17.127991,-71.792603,-249.954208
-1.334961,3.632324,-1.336426,249.908432,122.802727,249.992355,5.005859,-5.42627,-2.524658,249.511703,65.925598,249.992355
-1.154541,3.228271,-1.074707,249.992355,91.461174,249.992355,2.193848,-4.283691,0.526123,194.679245,23.445127,249.992355
-1.155273,2.861084,-0.872803,249.992355,59.638973,249.992355,1.593994,-4.692627,0.482422,190.849289,13.000487,249.992355
-1.196289,2.57959,-0.782959,246.345505,26.679991,249.992355,1.158936,-4.270996,0.182373,197.01384,31.34918,249.992355
-1.221191,2.473145,-0.823242,234.237656,-3.662109,249.992355,0.741699,-3.378174,0.101563,197.074875,50.590511,249.992355
-1.241699,2.510498,-0.950684,214.385971,-33.889771,249.992355,0.48291,-2.699463,0.230713,187.553391,56.381222,249.992355
-2.843262,5.854004,-0.493652,249.992355,249.992355,249.992355,0.370605,-2.448486,0.365723,177.597031,55.656429,249.992355
3.106934,1.493408,0.922852,91.880791,-63.682552,167.190536,0.395508,-2.425781,0.484131,168.189987,54.336544,249.992355
-3.593506,3.208496,0.677246,-226.074203,-85.33477,-249.992355,0.401367,-2.42334,0.651367,153.617859,44.30389,249.992355
3.17749,1.515625,1.092773,96.794121,-157.150269,91.896049,0.425293,-2.449951,0.804932,133.239746,23.132322,249.992355
-1.446777,2.555908,-1.238281,204.551682,-249.93895,-249.992355,0.539795,-2.585938,0.899658,113.662712,6.057739,249.992355
-1.410645,2.523193,-1.240723,211.761459,-249.992355,-249.992355,3.299805,-4.625244,-0.099121,224.426254,63.537594,249.992355
-1.414307,2.439453,-1.278564,216.423019,-242.408737,-249.992355,1.571777,-1.592285,0.077881,-10.742187,8.071899,-249.992355
-1.421631,2.322998,-1.282715,218.795761,-209.907516,-249.992355,1.254395,-2.698242,0.312744,-157.714844,-212.089523,-249.992355
-1.343994,2.258057,-1.185547,213.546738,-174.95726,-249.992355,1.141113,-1.728516,0.501465,16.052246,68.595886,-249.992355
-1.358154,2.191895,-1.149658,197.059616,-135.002136,-249.992355,1.523438,-2.663818,0.612549,-108.474724,-249.992355,-249.992355
-1.543701,2.064941,-1.022949,177.375778,-92.964165,-249.992355,1.613525,-2.468262,0.68335,-93.391411,-249.992355,-249.992355
-1.634766,1.947266,-0.835205,159.477234,-68.92395,-249.992355,1.606689,-2.288086,0.663086,-82.855217,-249.992355,-249.992355
-1.64624,1.785889,-0.600098,145.889282,-35.598755,-249.908432,1.498535,-2.13208,0.570801,-76.461792,-249.992355,-249.992355
-1.789307,1.705811,-0.265381,138.946533,30.036924,-249.992355,1.257324,-2.029541,0.527832,-69.023132,-249.992355,-249.992355
-1.522705,2.591797,-1.21875,193.572983,-249.778732,-249.992355,0.994385,-2.004395,0.508545,-57.060238,-249.992355,-249.992355
-2.396484,1.901855,-0.308594,99.502556,81.031792,-249.992355,0.850342,-2.028564,0.518555,-42.465206,-249.992355,-249.992355
-2.502197,0.360352,-0.197266,-28.724669,137.962341,-246.810898,0.827881,-2.07959,0.538086,-27.732847,-249.992355,-249.992355
-4.030029,0.167969,-0.203125,44.18182,82.038872,-249.992355,0.844238,-2.152344,0.559814,-12.794494,-249.992355,-249.992355
-7.113525,0.703613,-0.624512,49.934383,142.219543,-182.281479,0.882813,-2.233643,0.582275,3.334045,-249.984726,-249.992355
-4.313477,1.838135,0.854492,1.121521,249.992355,119.644157,0.892334,-2.300781,0.608154,20.843504,-249.992355,-249.992355
-5.24707,2.448486,2.286133,-135.429382,132.240295,240.7379,1.470459,-2.85083,0.496094,-124.084465,-249.992355,-249.992355
-7.803711,1.339355,1.09082,-126.319878,59.074398,249.992355,0.928711,-2.322266,0.616211,35.736084,-249.969467,-249.992355
-6.403809,2.619385,-0.041504,-79.856873,79.559326,249.992355,0.965576,-2.330811,0.645996,49.751278,-248.939499,-249.992355
-5.548584,3.823242,-0.305908,-60.920712,153.648376,249.992355,0.969971,-2.340332,0.639648,64.559937,-249.992355,-249.992355
-4.737061,4.594238,-0.55542,-40.64941,239.425644,249.992355,0.993896,-2.302979,0.609131,77.049255,-249.992355,-249.992355
-4.378418,4.765137,-0.693604,-24.505613,249.992355,249.992355,1.086426,-2.240967,0.556396,89.233391,-188.873276,-249.992355
-2.730957,1.608643,-0.399902,2.01416,108.596794,-246.269211,1.153564,-2.181641,0.507813,96.496574,-82.649223,-249.992355
-1.643799,2.592529,-1.164063,177.73436,-249.992355,-249.992355,1.083496,-2.135498,0.500488,89.805595,21.759031,-249.992355
3.115723,1.573486,1.023926,101.21917,-111.366264,132.209778,0.92041,-2.114746,0.555664,71.411133,87.043755,-249.992355
-1.971436,2.451904,-1.09668,120.353691,-249.992355,-249.992355,0.81958,-2.083008,0.620605,51.383968,100.769035,-249.992355
-1.781494,2.546875,-1.100342,152.046204,-249.992355,-249.992355,0.911865,-1.948486,0.623535,31.768797,84.854118,-249.992355
3.477295,1.206543,1.230469,94.718925,-162.60527,-3.479004,1.391602,-1.575195,0.26001,4.692078,51.948544,-249.992355
3.894531,0.994629,1.308838,111.175529,-105.995171,-124.427788,0.496582,-2.154541,0.490723,139.289856,207.72551,249.992355
4.027588,1.226807,1.264648,116.271965,-26.275633,-192.359909,0.550781,-2.198486,0.499512,130.363464,225.700363,249.992355
3.647949,1.57251,1.19165,94.78759,29.640196,-219.528183,0.599365,-2.243896,0.504395,118.881218,228.736862,249.992355
2.9021,1.61084,0.897949,75.378418,33.77533,-242.729172,0.609863,-2.314209,0.542725,106.559746,217.880234,249.992355
1.894775,1.513184,0.157959,55.046078,1.930237,-249.992355,0.6521,-2.525146,0.522949,67.947388,25.527952,249.992355
0.267578,1.133057,-0.604492,-21.194456,-93.955986,-249.992355,0.663086,-2.46875,0.571289,86.990349,162.460312,249.992355
-0.266357,1.005371,-0.447266,-38.581848,-164.382919,-249.992355,0.647949,-2.499756,0.531494,77.926636,117.752068,249.992355
-0.61499,0.945557,-0.338623,-35.514832,-233.238205,-249.992355,0.636963,-2.531494,0.489746,72.486877,69.229126,249.992355
-0.919434,0.982178,-0.386963,-18.333435,-249.992355,-249.992355,0.491699,-2.063477,0.428467,142.028809,183.494553,249.992355
0.965332,1.343262,-0.57251,16.067505,-40.634151,-249.992355,0.63208,-2.396484,0.5625,96.206657,195.648178,249.992355
-1.391357,1.275391,-0.612549,25.382994,-249.992355,-249.992355,0.520752,-1.961182,0.346924,141.090393,162.445053,249.992355
-1.489502,1.437988,-0.619873,43.983456,-249.992355,-249.992355,-0.866943,-1.323486,0.656006,120.552055,149.635315,249.992355
-1.580078,1.585938,-0.684814,62.499996,-249.992355,-249.992355,0.149658,-1.791992,0.334717,142.158508,129.127502,249.992355
-2.157471,2.318604,-1.182373,90.75927,-249.992355,-249.992355,-0.174805,-1.65332,0.416504,138.748169,123.565666,249.992355
-1.789795,1.753418,-0.862305,74.310303,-249.992355,-249.992355,-0.504883,-1.476807,0.515137,131.027222,131.874084,249.984726
-2.041992,1.876953,-1.082275,74.59259,-249.992355,-249.992355,-1.384521,-1.224365,0.811035,105.979912,160.621643,249.992355
-2.10083,1.933105,-1.212402,71.243286,-249.992355,-249.992355,-2.003174,-1.200195,0.907471,88.439934,155.128479,249.237045
-2.088379,2.046631,-1.342285,67.375183,-249.992355,-249.992355,-2.574219,-1.267334,1.007324,68.702698,147.407532,249.992355
-2.174561,2.166992,-1.449219,63.385006,-249.992355,-249.992355,-3.025635,-1.412354,1.185059,46.028133,160.324097,249.992355
-2.254639,2.236816,-1.380615,69.404602,-249.992355,-249.992355,-3.51416,-1.533203,1.385986,21.064756,202.331528,219.017014
-1.202637,1.099609,-0.518066,4.516602,-249.992355,-249.992355,-4.242676,-1.517334,1.622803,-9.925842,221.992477,145.378113
-1.206543,4.225342,-1.603271,3.868103,55.02319,249.992355,0.619873,-2.489014,0.541748,68.252563,-10.45227,249.992355
-1.462158,4.584229,-1.74707,40.39764,85.655205,249.992355,0.425293,-1.88208,0.304443,141.685486,143.676758,249.992355
-1.494629,4.789307,-1.610107,69.061279,115.44799,249.992355,0.510742,-2.454346,0.600342,75.85144,-32.821655,249.992355
-2.922852,5.726807,-1.436279,37.796021,144.393921,249.992355,0.837158,-4.54248,0.483887,197.334274,61.56921,249.992355
-1.400879,5.989502,-1.376953,87.158195,163.001999,249.992355,0.406006,-2.374023,0.590332,99.151604,-10.429381,249.992355
-1.974121,6.276123,-1.42749,90.614311,176.391586,249.992355,-1.041016,-0.791504,1.246338,-108.947746,249.992355,-249.992355
-2.591064,6.183838,-1.537109,65.39917,166.793808,249.992355,-0.601074,-1.274902,0.009033,-19.805908,-104.461662,-189.430222
-0.939209,3.756348,-1.366943,-19.020081,33.691406,249.992355,6.871094,-5.35083,-6.93335,107.528679,-249.992355,212.219223
-1.294678,5.307129,-1.405273,78.50647,139.831543,249.992355,7.61084,-4.485107,-6.143311,239.265427,-95.573418,232.482895
-0.747559,3.423584,-1.205078,-28.915403,30.2124,249.992355,5.911133,-4.636963,-1.436523,249.992355,7.911682,249.992355
-0.303467,1.541748,-0.857178,-135.192871,98.960869,249.992355,5.087646,-5.241699,-0.805908,249.977097,-24.124144,249.992355
-0.528809,2.936768,-1.11499,-56.289669,70.716858,249.992355,3.910645,-5.449951,-0.493652,249.710068,-9.857178,249.992355
-0.445801,2.616211,-1.125244,-73.425293,102.165215,249.992355,2.706787,-5.217773,-0.077148,249.992355,13.34381,249.992355
-0.446777,2.359131,-1.105225,-90.286247,133.19397,249.992355,1.919189,-5.057129,0.19165,249.992355,31.22711,249.992355
-0.469482,2.135498,-1.053711,-106.689445,150.161743,249.992355,1.479736,-4.858154,0.503662,230.308517,39.199829,249.992355
-0.407959,1.922607,-0.872314,-116.973869,146.17157,249.992355,0.442383,-2.411621,0.637695,86.158745,-30.334471,249.992355
-0.306396,1.783447,-0.733398,-120.094292,128.013611,249.992355,1.178711,-4.541992,0.655762,197.51738,39.611816,249.992355
-0.270264,1.722168,-0.746094,-120.11718,113.44146,249.992355,-5.117432,-1.462402,1.94458,-38.703918,133.796692,86.036674
-0.26001,1.690674,-0.797363,-120.536797,106.414787,249.992355,0.49707,-3.926025,0.417969,192.947372,60.005184,249.992355
-0.278809,1.63916,-0.85791,-125.633232,103.385918,249.992355,0.366699,-3.14209,0.432129,179.412827,54.88586,249.992355
-3.030029,5.109619,-1.189697,17.272949,144.134521,249.992355,0.425293,-2.602783,0.584961,163.757309,57.723995,249.992355
-0.623535,3.203369,-1.11499,-40.100098,45.402523,249.992355,0.518066,-2.320068,0.636719,147.109985,65.666199,249.992355
-3.016113,4.665771,-1.01416,0.366211,165.397629,249.992355,0.543213,-2.23584,0.609375,133.110046,72.097778,249.992355
-2.655029,3.306396,-0.01416,-32.989502,101.928703,-224.662766,0.490967,-2.227539,0.516846,124.02343,68.847656,249.992355
-3.799805,4.437988,-0.610596,10.31494,201.568588,249.992355,0.389893,-2.275391,0.494385,119.316093,54.000851,249.992355
-0.252686,1.398926,-0.729492,-143.791199,90.301506,249.992355,0.340332,-2.326904,0.489502,116.767876,30.807493,249.992355
-1.661865,3.071289,-1.049805,57.594296,-249.313339,-249.992355,0.366699,-2.349854,0.52832,110.29052,10.116576,249.992355
-1.793701,3.149414,-1.120117,62.484737,-249.992355,-249.992355,1.061279,-4.55835,0.561768,187.873825,49.812313,249.992355
-1.762451,3.311279,-1.290283,80.039978,-245.819077,-249.992355,-5.38501,-1.366699,2.193359,-67.253113,-40.580746,6.347656
-1.756592,3.516113,-1.548828,101.84478,-202.941879,-249.992355,7.74292,-2.915771,-1.681396,34.339905,249.992355,-191.772446
-1.794434,3.703369,-1.729736,102.462761,-149.246216,-249.992355,-4.634766,-1.658691,2.645996,-171.31041,-196.289047,-231.41478
-1.787109,3.643311,-1.627197,91.75872,-120.24688,-249.992355,1.578369,-1.829834,0.711914,-41.137691,32.295227,-249.992355
-1.803711,3.397949,-1.3479,94.627373,-143.699646,-249.984726,1.312256,-1.858887,0.563721,-55.755611,69.282532,-249.992355
-1.954102,3.19043,-1.03833,94.467155,-169.967636,-249.992355,1.143066,-1.875732,0.409424,-78.941345,25.924681,-249.984726
-2.23877,2.892334,-0.645752,96.595757,-174.217209,-249.992355,1.170166,-1.776855,0.356934,-91.13311,-30.3421,-249.992355
-3.172607,4.474365,-0.849854,-3.013611,192.268356,249.992355,1.450439,-1.715332,0.312256,-72.151184,-2.5177,-249.992355
-2.216553,2.575928,-0.299316,99.281303,-155.281067,-249.328598,2.027832,-1.627441,0.040283,-68.008423,114.181511,-249.359116
-2.357178,2.929443,0.081543,115.989677,11.566161,-249.992355,2.274658,-1.641357,-0.132568,-73.84491,192.97789,-249.992355
-3.371582,1.635498,0.179199,-159.484863,68.458557,-198.387131,1.756592,-1.460449,-0.227051,-109.901421,131.454468,-249.992355
-5.76001,0.009766,0.776855,-72.921753,-84.098808,-249.992355,1.340332,-1.272705,-0.297852,-188.354477,-6.111145,-221.70256
-7.655762,1.168945,0.368408,21.507261,-59.944149,-173.805222,1.770508,-2.261719,-0.098145,-143.127441,-84.213249,-221.931442
-5.114502,1.268066,1.54834,69.236755,130.882263,9.887695,1.635986,-1.957764,0.774658,-32.37915,-55.671688,-249.992355
-4.19458,1.153076,4.023926,61.241146,114.669792,6.370544,2.958984,-3.472168,-0.386719,-20.614622,-34.614563,-249.992355
-7.431152,1.734131,2.04126,12.351989,-43.334957,215.049728,3.622803,0.458252,-1.500488,-81.443779,189.361557,-144.004822
-7.296143,2.791016,0.532715,-9.475708,22.605894,249.992355,2.858398,2.474365,1.595703,-174.148544,25.001524,-225.212082
-6.132813,3.575195,0.462402,-10.971068,91.743462,249.992355,0.985596,-4.253906,-2.866943,59.036251,-249.992355,131.568909
-4.917969,4.109863,-0.004639,13.908385,168.640121,249.992355,6.680176,-6.113281,-6.866211,225.61644,-227.012619,249.992355
-2.069336,2.352539,0.045898,123.298637,-87.722771,-249.992355,5.755859,-4.792969,-2.691162,249.992355,-48.675533,249.992355
-0.090576,1.251709,-0.502686,-146.972656,75.263977,249.992355,4.321533,-5.353027,-0.542725,249.832138,-22.109983,249.992355
-1.53125,3.022461,-0.975342,59.875484,-247.489914,-249.992355,3.047119,-5.396973,0.095947,249.992355,-14.396667,249.992355
0.030029,1.168457,-0.271973,-144.592285,56.602474,249.992355,2.207764,-5.458008,0.425781,249.992355,-2.128601,249.992355
-1.827881,2.422119,-0.819092,-23.773191,-216.53746,-249.992355,1.584717,-5.302246,0.493408,243.827805,7.865905,249.992355
-1.928467,2.751465,-0.977295,-17.829895,-239.570602,-249.992355,1.206299,-5.244385,0.437012,226.577744,20.332335,249.992355
-2.071777,3.053711,-1.151855,-9.643555,-249.542221,-249.992355,2.917725,-3.24585,-2.17334,-17.623901,66.841125,-249.992355
-2.166504,3.255859,-1.209717,2.609253,-249.992355,-249.992355,1.594482,-2.135254,0.787109,-23.910521,-119.552605,-249.992355
-2.226807,3.398926,-1.29834,14.366149,-249.992355,-249.992355,-5.098633,-1.366699,2.411621,-117.523186,-168.739304,-117.065422
-2.239014,3.502686,-1.353027,24.009703,-249.992355,-249.992355,1.767334,-2.488037,0.604492,12.96997,-170.570358,-249.992355
-2.234619,3.557129,-1.341797,37.452698,-249.992355,-249.992355,-4.137695,-1.711914,2.346924,-205.619797,-212.196335,-249.992355
-2.129639,3.577393,-1.317139,51.704403,-249.992355,-249.992355,-3.786865,-1.411377,1.653564,-211.067184,-246.719345,-249.992355
-2.013184,3.556641,-1.317627,66.78772,-249.450668,-249.992355,-3.603271,-1.263672,1.002197,-191.665634,-249.992355,-249.992355
-2.018311,3.533936,-1.369873,76.10321,-249.992355,-249.992355,-3.157959,-1.536621,0.710449,-180.809006,-249.992355,-249.992355
-1.624268,2.156738,-0.678467,-26.245115,-183.357224,-249.992355,-1.779053,-2.002686,0.554688,-178.916916,-249.992355,-249.992355
-1.983398,3.398682,-1.45166,76.126099,-249.992355,-249.992355,-0.620605,-2.461182,0.333984,-178.970322,-249.992355,-249.992355
-1.842041,2.998047,-1.473389,56.503292,-180.12236,-249.992355,1.650391,-2.289795,0.708008,-7.270813,-144.966125,-249.992355
-1.747559,2.838135,-1.39209,43.861385,-148.81897,-249.992355,0.923096,-3.037109,0.083008,-162.544235,-249.992355,-249.992355
-1.589355,2.787354,-1.398193,28.320311,-115.142815,-249.992355,1.454102,-3.265869,0.141846,-151.809692,-249.992355,-249.992355
-1.483887,2.766846,-1.405029,16.76178,-59.463497,-249.992355,1.752197,-3.513428,0.25293,-139.129639,-249.992355,-249.992355
-1.397949,2.784424,-1.328125,1.991272,14.709472,-249.992355,1.924316,-3.709961,0.376709,-120.986931,-249.992355,-249.992355
-1.397217,2.841797,-1.133057,-39.825439,114.677422,-249.992355,0.217773,-2.823486,0.146973,-171.264633,-249.992355,-249.992355
-1.619873,2.677002,-0.671875,-86.830132,217.361435,-249.992355,2.169678,-3.773193,0.644775,-73.890686,-249.992355,-249.992355
-1.928711,2.233643,0.042725,-91.468803,249.992355,-249.992355,2.046875,-3.797363,0.505859,-98.94561,-249.992355,-249.992355
-2.002197,2.13623,0.432861,-88.142387,229.324326,-249.969467,1.932129,-2.917725,0.754639,16.647339,-249.023422,-249.992355
-2.48291,2.828125,0.370361,-152.511597,108.566277,-249.992355,2.015137,-3.047363,0.955078,10.848998,-249.992355,-249.992355
-1.893066,3.19458,-1.496338,68.534851,-223.97612,-249.992355,2.055176,-3.15918,1.120361,9.811401,-249.496445,-249.992355
-1.170898,1.971191,-0.549805,-25.779722,-144.65332,-249.992355,2.063721,-3.314453,1.16626,11.863708,-249.916061,-249.992355
0.082764,1.151855,-0.161377,-138.923645,38.124084,249.992355,1.840088,-2.723633,0.609131,21.003721,-212.661728,-249.992355
-0.16748,1.479004,-0.208252,-11.344909,-84.312431,-249.992355,2.143799,-3.596436,1.031006,-0.488281,-249.992355,-249.992355
0.183105,1.152344,-0.124268,-132.453918,21.629332,249.992355,2.230469,-3.543945,0.936523,-16.326904,-249.992355,-249.992355
0.31958,1.167236,-0.050537,-123.481743,9.147644,249.992355,2.261719,-3.522461,0.776367,-34.072876,-249.992355,-249.992355
0.474365,1.188477,0.015137,-111.648552,2.487183,249.992355,2.268799,-3.649902,0.704346,-51.246639,-249.992355,-249.992355
0.684814,1.215088,0.066895,-97.31292,1.419067,249.68718,2.088623,-3.496582,1.08252,9.44519,-249.992355,-249.992355
0.915527,1.250732,0.119873,-81.993095,5.455017,249.992355,0.737061,-2.797607,0.506836,17.074585,36.422729,249.992355
1.148193,1.283691,0.186279,-63.804623,11.032104,249.992355,0.800049,-2.928711,0.584229,6.469726,32.165527,249.992355
-0.686279,1.77417,-0.401611,-19.683838,-110.755913,-249.992355,0.760254,-2.938477,0.667236,-12.260436,24.269102,249.992355
1.628418,1.382568,0.442627,-22.720335,0.938415,202.209457,0.753906,-2.888672,0.694336,-35.362244,18.730164,249.992355
1.86377,1.437744,0.628418,-3.784179,-17.730713,161.506638,0.783447,-2.88623,0.718262,-51.696774,24.505613,249.992355
2.080078,1.529297,0.86499,19.90509,-40.740963,121.337883,0.796631,-2.906738,0.668457,-57.014462,41.343685,249.992355
2.286133,1.7229,1.138916,44.80743,-62.408443,80.368034,0.804932,-2.895508,0.592285,-53.680416,66.619873,249.992355
1.389648,1.322754,0.290527,-42.404171,11.398314,235.664352,0.787109,-2.8396,0.514404,-46.31805,95.42083,249.992355
2.618164,1.849609,1.44873,77.293396,-70.724487,-36.4151,0.771973,-2.76416,0.481934,-36.582947,120.162956,249.992355
2.478516,1.896729,1.357422,61.44714,-74.676514,27.511595,0.753662,-2.724365,0.498047,-25.474546,137.985229,249.992355
0.766602,0.91333,0.212158,1.991272,-32.279968,-249.992355,0.25,-1.787598,0.10498,161.155685,162.666306,249.992355
0.705566,0.776611,0.162598,25.749205,11.337279,-249.992355,0.791992,-2.7146,0.5271,-0.900268,181.63298,249.992355
0.740723,0.831299,0.196289,61.69891,26.931761,-249.992355,0.815186,-2.638428,0.526611,14.328002,222.320541,249.992355
1.409912,1.086426,0.549316,92.26989,-0.968933,-249.992355,0.879395,-2.494385,0.438477,32.150269,248.832687,249.992355
0.387939,1.147949,0.076904,-4.394531,-64.323425,-249.992355,0.947998,-2.335693,0.382324,53.413387,249.992355,249.992355
3.029785,1.402832,1.349854,109.725945,-55.992123,-246.414169,0.901123,-2.246094,0.402588,78.552246,249.382004,249.992355
3.0354,1.462402,1.400146,114.95208,-37.475586,-198.745712,0.732666,-2.185791,0.395996,102.676384,249.992355,249.992355
2.796631,1.506836,1.387451,114.593498,-31.036375,-139.48822,0.571533,-2.12915,0.324219,122.688286,249.992355,249.992355
2.68457,1.670654,1.439697,97.961418,-49.186703,-93.948357,0.481445,-2.134277,0.224854,142.227173,222.686752,249.992355
2.371582,1.275879,1.067627,105.972282,-43.212887,-249.992355,0.489014,-2.164551,0.085449,159.934998,181.877121,249.992355
-2.477295,3.879883,-0.247314,132.698059,158.065796,249.992355,0.457031,-2.033936,0.02832,165.191635,163.932785,249.992355
-2.287354,3.763672,-0.178711,136.749268,114.990227,249.992355,0.580078,-2.770508,0.518799,32.577515,43.746944,249.992355
-2.200684,3.763916,-0.158691,142.311096,89.263908,249.992355,0.762939,-2.731689,0.499268,-13.381957,155.387878,249.992355
-2.029541,3.813721,-0.330322,138.1073,79.307556,249.992355,0.505127,-2.988037,0.54541,56.961056,53.50494,249.992355
-1.73291,3.685547,-0.636719,124.618523,80.444328,249.992355,7.400879,-4.032471,-7.897461,125.144951,-249.992355,213.912949
-1.493408,3.437744,-0.968262,108.345024,87.539665,249.992355,0.816162,-3.595215,0.57666,109.901421,-0.488281,249.992355
-1.448975,3.259033,-1.219971,86.563103,94.41375,249.992355,-0.128174,-1.570313,0.223877,154.464722,172.935471,249.984726
-1.295898,3.081787,-1.194336,60.028072,99.098198,249.992355,1.554443,-2.445068,0.852051,23.04077,-153.846741,-249.992355
-1.068359,2.788086,-0.878418,44.792171,112.525932,249.992355,1.937256,-2.366211,0.800049,35.820007,-129.951477,-249.992355
-1.022217,2.648438,-0.685059,45.410152,142.234802,249.992355,2.138916,-2.029053,0.650635,28.45001,-82.214348,-249.93895
-0.904785,1.707764,-0.944824,9.246826,90.263359,249.992355,2.046631,-1.56543,0.522461,5.149841,-50.552364,-249.992355
-1.212646,2.827148,-0.825195,66.635132,178.245529,249.992355,1.599365,-1.315186,0.387695,-21.797178,-82.107536,-249.992355
-1.313477,2.942139,-0.974854,69.740295,165.153488,249.992355,1.048096,-2.147217,0.281738,-33.004761,-211.738571,-246.871933
-1.442627,2.969727,-1.176514,68.008423,140.670776,249.992355,1.189697,-3.229004,-0.102539,-59.600826,-249.992355,-249.992355
-1.496826,2.933105,-1.352539,59.112545,122.13134,249.992355,3.48999,-2.935547,-0.358154,-28.259275,-124.183647,-249.992355
-1.424561,2.804688,-1.4646,33.256531,114.784233,249.992355,7.770508,-0.478516,-1.44165,65.109253,222.930893,-109.367363
-1.163818,2.507813,-1.267334,1.434326,118.34716,249.992355,0.625488,-3.344971,0.57251,85.792534,45.227047,249.992355
-0.873535,2.177979,-0.740967,-13.565063,119.796745,249.992355,7.999756,-0.932861,-1.063232,-60.920712,249.992355,-139.122009
-0.800537,1.97168,-0.439209,-9.689331,107.788078,249.992355,0.423096,-2.4104,-3.691162,47.653194,-228.843674,-141.799927
-0.854736,1.870361,-0.503418,-0.282288,90.25573,249.992355,7.240967,-3.248291,-5.07666,246.238693,12.893676,224.517807
-0.883057,1.79834,-0.705566,7.575988,83.976738,249.992355,5.505615,-3.887207,-1.143311,248.474106,-8.743286,249.992355
-2.839355,4.016846,-0.206543,127.479546,211.280807,249.992355,4.726563,-4.380371,-0.566162,249.893173,-137.443542,249.992355
-1.117432,2.700684,-0.7146,55.732723,170.989975,249.992355,3.91333,-4.564941,-0.074463,249.992355,-186.347946,249.992355
-3.225098,3.875,-0.011475,112.037651,246.902451,249.992355,2.996826,-4.660889,0.322021,245.071396,-197.76915,249.992355
-2.970703,1.968262,0.467041,-64.849854,53.344723,-248.855576,2.150635,-4.887207,0.419922,223.693832,-191.024765,249.992355
-7.283447,4.263184,5.519775,75.85144,214.958176,246.78038,1.536377,-4.977295,0.525146,207.168564,-166.358932,249.992355
-0.830322,1.559814,-1.0354,0.076294,96.237175,249.992355,1.11084,-4.524658,0.494629,177.673325,-130.142212,249.992355
-1.92334,2.459961,-0.839844,23.353575,-249.992355,-249.992355,0.933838,-3.883545,0.482422,137.443542,-71.075439,249.992355
-1.859863,2.515137,-0.815674,31.387327,-249.992355,-249.992355,-3.517334,-0.793213,2.460938,-144.767761,209.526047,-249.992355
-1.718994,2.608643,-0.756348,40.893551,-224.510178,-249.992355,1.38623,-2.405273,0.82373,13.290404,-138.877869,-249.992355
-1.550537,2.709717,-0.686523,49.232479,-182.289108,-249.992355,-0.589111,-1.407227,0.430664,149.69635,192.527756,249.992355
-1.39917,2.7771,-0.625732,56.320187,-132.080078,-249.992355,-1.62793,-1.294922,0.610596,134.307861,232.04039,249.397263
-1.312012,2.818604,-0.594238,58.380123,-71.31958,-249.992355,1.98584,-3.181641,0.52832,0.007629,-249.992355,-249.992355
-1.313721,2.779053,-0.543701,49.957272,2.037048,-249.992355,1.947754,-3.283447,0.623535,21.90399,-249.992355,-249.992355
-1.315918,2.655273,-0.385986,31.806944,86.174004,-249.992355,1.908203,-3.224121,0.710938,39.43634,-234.733566,-249.992355
-1.325439,2.520996,-0.19458,14.656066,175.292953,-249.992355,1.789063,-3.069824,0.842285,49.781796,-201.446518,-249.992355
-4.876709,3.16748,1.064209,89.073174,248.237595,249.992355,1.63623,-2.895996,0.886475,51.10931,-161.033615,-249.992355
-1.44165,2.484375,0.047119,-4.905701,240.699753,-249.977097,1.49707,-2.767334,0.881836,51.025387,-115.661613,-249.992355
-2.366943,2.223877,0.356201,-47.271725,232.475266,-249.992355,1.446777,-2.688965,0.869629,51.551815,-67.024231,-249.992355
-3.543457,1.642822,0.387939,-97.717278,-180.679306,-249.992355,1.450684,-2.599609,0.859863,44.525143,-20.39337,-249.992355
-3.996094,1.131592,0.260254,-130.958557,-249.992355,-249.992355,1.46167,-2.503174,0.834717,28.861998,18.257141,-249.992355
-4.03418,0.701172,0.196777,-116.996758,-244.331345,-205.139145,1.262207,-2.329102,0.761475,-16.349792,6.721496,-249.992355
-3.119141,0.62915,-0.091064,-63.774105,-249.992355,-84.33532,2.095459,-3.054932,0.397949,-22.117613,-249.694809,-249.992355
-2.429199,0.677979,-0.831055,-34.797668,-249.992355,-46.607967,1.07666,-2.193115,0.726807,-35.53009,-65.856934,-249.992355
-3.090088,1.634277,-1.35791,-91.217033,-17.021179,-114.173882,1.362305,-2.046631,0.544189,-27.793882,-182.861313,-249.992355
-3.336426,2.163818,-0.810791,-182.296738,249.328598,-67.871094,1.681641,-1.907227,0.504639,-14.09912,-193.534836,-249.992355
-2.667725,2.429932,0.97876,-148.55957,249.992355,148.666382,1.76123,-1.550781,0.53833,-19.248962,-201.698288,-249.961838
-2.960938,1.743408,5.924072,84.739677,249.992355,206.687912,1.711426,-1.09375,0.602295,-49.446102,-215.347275,-249.992355
-1.78833,2.423096,0.199463,-30.586241,249.992355,-249.992355,1.434326,-1.160889,0.541748,-63.056942,-234.359726,-249.992355
-1.900391,2.397949,-0.815674,18.836975,-249.54985,-249.992355,1.382813,-2.218506,0.544189,-24.482725,-242.935165,-248.283371
-0.319092,1.19458,-0.565674,-15.151977,87.60833,249.992355,1.226074,-2.415771,0.091064,-58.79211,-249.992355,-249.992355
-0.101074,1.051025,-0.265869,-13.481139,75.660706,249.992355,2.599854,-1.349121,-0.138672,-129.562378,-249.992355,-249.992355
1.035889,1.123535,0.173096,4.074097,-97.724907,-249.992355,6.167236,-1.871338,-0.986816,45.036312,125.297539,-172.790512
1.03833,1.051025,0.147217,-3.501892,-66.665649,-249.992355,-1.101807,-1.323486,0.565918,144.210815,215.202316,249.992355
1.203857,1.066406,0.14502,-19.500732,-43.067928,-249.992355,1.098389,-2.09668,0.669678,-39.955139,-142.677307,-249.992355
1.279785,1.16748,0.088867,-37.658691,-30.761717,-249.992355,2.143555,-3.010986,0.268066,-45.974728,-249.992355,-249.992355
0.939209,1.303955,-0.070557,-52.139278,-20.530699,-249.992355,1.417969,-2.428467,0.780029,7.270813,35.186768,-249.992355
0.380371,1.50293,-0.250977,-70.220947,-31.341551,-249.992355,1.840332,-3.096436,0.214844,-93.734734,-249.992355,-249.992355
-0.279297,1.697021,-0.407227,-90.484612,-77.857971,-249.992355,2.04834,-3.063721,0.187012,-69.602966,-249.992355,-249.992355
-0.959473,1.770264,-0.505371,-103.805534,-155.479431,-249.992355,-2.191895,-1.281006,0.664307,119.682304,232.002243,249.992355
-1.274902,1.683105,-0.401611,-102.287285,-233.184799,-249.992355,-2.830811,-1.393799,0.781494,102.485649,196.159348,249.992355
-1.151611,1.636475,-0.392822,-69.007874,-249.992355,-249.992355,-3.459229,-1.624512,0.91626,86.326591,120.071404,218.833908
1.141113,1.099121,0.217285,7.286071,-123.634331,-249.992355,-3.754883,-1.635986,1.067139,62.904354,47.33276,168.243393
-1.175781,1.715576,-0.536377,-53.558346,-249.992355,-249.992355,-3.770264,-1.281494,1.375977,22.064207,18.959045,95.077507
-1.605225,1.880859,-0.512451,-27.763365,-249.992355,-249.992355,-3.915039,-0.818359,1.759277,-29.96063,20.423887,-2.01416
-1.736816,1.94751,-0.534424,-5.737304,-249.992355,-249.992355,-4.361084,-0.608643,2.128662,-92.964165,-2.525329,-101.905815
-1.733643,2.070313,-0.676758,15.678405,-249.992355,-249.992355,-4.864258,-2.099121,2.51709,-156.471252,-184.905991,-248.413071
-1.674072,2.234375,-0.887939,32.585144,-249.992355,-249.992355,-4.060791,-2.348877,1.962402,-153.175354,-239.425644,-249.992355
-1.572266,2.39209,-0.989746,47.317501,-249.992355,-249.992355,-3.317383,-1.791748,1.033936,-135.681152,-245.880112,-249.992355
-1.484619,2.561768,-1.104248,57.373043,-249.992355,-249.992355,-4.916748,-1.13208,2.448242,-144.050598,-85.693352,-200.775131
-1.552002,2.703125,-1.165527,59.715267,-249.954208,-249.992355,-2.326416,-1.180664,0.13916,-126.640312,-199.340805,-249.992355
-1.587646,2.790039,-1.091553,59.364315,-249.992355,-249.992355,1.724365,-2.985596,0.238281,-118.385307,-249.992355,-249.992355
-1.521484,2.89917,-0.991211,60.997005,-249.893173,-249.992355,-1.435303,-1.408447,0.247314,-154.151917,-200.996384,-249.992355
-0.594727,1.37207,-0.85791,-10.940551,95.565788,249.992355,-0.654785,-1.683594,0.299316,-173.286423,-208.152756,-249.992355
-1.373779,1.806396,-0.584717,-42.610165,-249.992355,-249.992355,0.005615,-2.019775,0.245605,-177.947983,-211.769089,-249.992355
1.198975,0.975342,0.195313,7.102966,-138.877869,-249.992355,0.576416,-2.267822,0.099609,-174.125656,-220.69548,-249.992355
-1.254639,1.618652,-0.354492,-87.455742,-249.992355,-249.992355,1.079346,-2.417236,0.044434,-168.15947,-237.731918,-249.992355
1.405762,0.790283,0.20752,16.265869,-165.550217,-218.749985,1.411865,-2.557617,0.093506,-159.362793,-249.382004,-249.992355
1.2229,0.866211,0.162354,8.666992,-149.894714,-249.504074,1.577393,-2.667725,0.15332,-149.559021,-249.992355,-249.992355
0.413574,0.815186,0.018555,-4.127502,46.119686,249.992355,-2.920166,-1.213379,0.331299,-113.555901,-222.08403,-249.992355
0.624756,0.710938,0.04541,-3.105163,36.010742,249.992355,1.661865,-2.791016,0.191162,-138.320923,-249.992355,-249.992355
0.784668,0.631348,0.07373,-4.318237,28.800962,249.992355,2.181641,-5.012207,0.255371,52.955624,110.359184,249.992355
0.912598,0.582275,0.092285,-7.720947,21.629332,249.923691,1.901611,-4.291748,0.304199,37.277222,23.178099,249.992355
1.045898,0.526123,0.111084,-11.940001,14.381408,249.702438,1.644287,-3.912109,0.471191,47.981258,7.217407,249.992355
1.197021,0.436768,0.149414,-14.160155,9.033203,249.992355,5.134033,-3.187988,-0.003174,118.377678,25.672911,249.992355
1.379639,0.367432,0.194336,-17.654419,3.784179,248.4207,3.217285,-4.001953,0.474121,108.322136,142.997742,249.992355
1.570313,0.321045,0.235596,-23.262022,-0.488281,225.35704,4.73999,-3.824707,0.086182,121.055595,137.35199,249.992355
1.686768,0.283447,0.260986,-25.856016,3.463745,204.048141,2.002197,-5.43335,0.431641,77.705383,198.158249,249.992355
1.722656,0.267334,0.229004,-25.733946,19.02771,192.649826,5.16333,-2.644287,0.037354,137.527466,-45.829769,249.992355
0.155273,0.93042,-0.061035,-8.460999,60.302731,249.992355,1.883789,-3.865234,0.681152,74.981689,66.452026,249.992355
1.857178,0.359863,0.128906,-21.179197,61.119076,171.844467,1.546631,-4.935547,0.580566,87.34893,237.113937,249.992355
1.769043,0.290039,0.169189,-24.490355,41.465755,185.760483,0.513184,-1.660156,0.50708,111.442558,60.676571,249.992355
1.413818,0.812012,0.261963,24.757383,-168.266281,-71.075439,1.05249,-3.852295,0.818359,94.642632,197.463974,249.992355
1.242676,0.85791,0.219238,22.40753,-163.429245,-16.281128,1.008789,-3.619385,0.712402,107.406609,174.45372,249.992355
1.105469,0.886475,0.137451,14.10675,-156.921387,16.25061,0.996338,-3.419189,0.598877,122.215263,161.09465,249.992355
1.071289,0.945801,-0.005371,-0.770569,-136.100769,36.376953,0.921875,-3.273926,0.525879,141.021729,152.389526,249.992355
1.510986,0.768311,0.254883,23.529051,-172.004684,-144.767761,0.818604,-3.110352,0.504395,155.090332,142.112732,249.992355
1.43457,0.933838,-0.117432,-15.396117,-28.488157,88.470451,0.705566,-2.861328,0.460938,159.637451,126.525871,249.992355
1.730713,0.714355,-0.013184,-14.678954,30.616758,117.530815,0.640869,-2.528076,0.431396,152.030945,106.048576,249.992355
1.866211,0.501465,0.071289,-16.88385,63.07983,146.873474,0.598145,-2.186768,0.458984,137.382507,84.434502,249.992355
1.176514,1.001709,-0.125977,-12.344359,-90.728752,59.890743,0.550537,-1.894775,0.481934,123.214714,67.893982,249.992355
-1.70874,5.251221,-1.856934,40.542599,239.250168,249.992355,5.524658,-2.34082,-0.418945,165.184006,-42.152401,249.992355
-3.998779,2.479004,-1.168701,-20.065308,238.983139,249.992355,0.45752,-1.482422,0.530273,103.263847,60.462948,249.992355
-3.387939,2.783447,-1.641113,-33.546448,167.709335,249.992355,1.208252,-4.227783,0.768555,86.959831,227.6306,249.992355
-3.367188,3.197266,-1.577148,-21.995543,145.477295,249.992355,6.452881,-1.916504,-0.921875,162.773117,-46.867367,247.337326
-3.482422,3.734619,-1.445068,10.917663,149.543762,249.992355,1.901611,-2.469971,0.805664,14.495849,-67.459106,-249.992355
-3.597656,4.460693,-1.391602,46.768185,154.319763,249.992355,6.941895,-0.991699,-4.784668,-6.759643,-249.992355,133.201599
-3.551758,5.219727,-1.381348,75.10376,151.260376,249.992355,1.935547,-2.890381,0.411133,-13.732909,-249.992355,-249.992355
-6.607422,2.515625,0.565918,-8.277893,247.703537,249.992355,0.374756,-1.375488,0.530518,96.473686,63.667294,249.992355
-3.138916,5.732178,-1.553955,81.825249,154.792786,249.992355,2.11377,-3.033447,0.66626,28.144835,-249.992355,-249.992355
-2.384521,5.750977,-1.840088,60.997005,188.69017,249.992355,2.085938,-3.033691,0.707031,28.762815,-249.992355,-249.992355
-1.42749,4.625488,-1.817139,31.257627,249.855026,249.992355,2.031006,-2.97876,0.684814,24.650572,-249.946579,-249.992355
-1.775146,3.265381,-1.856445,-82.054131,174.96489,249.992355,2.007813,-3.023682,0.664551,26.702879,-249.992355,-249.992355
-1.932129,3.901123,-2.047119,-2.716064,249.992355,249.992355,1.936035,-3.092041,0.627441,31.707762,-249.992355,-249.992355
-2.138916,3.669922,-2.084961,-17.456055,247.085556,249.992355,1.821777,-3.111816,0.618652,35.247803,-248.107895,-249.992355
-2.041504,3.560791,-2.029541,-43.563839,205.261215,249.992355,1.720703,-3.131836,0.599609,40.191647,-242.019638,-249.992355
-1.295166,2.763428,-1.44751,-100.120537,161.117538,249.992355,1.707764,-3.165283,0.681885,47.004696,-237.655624,-249.992355
-1.110107,2.436035,-1.321777,-104.309074,162.147507,249.992355,1.78833,-3.086426,0.780762,47.767635,-219.757065,-249.992355
-1.115234,2.221436,-1.239746,-104.660027,173.004135,249.992355,1.950195,-2.95874,0.85083,46.539303,-166.351303,-249.992355
-0.970703,1.983154,-1.078857,-98.037712,179.923996,249.992355,2.009766,-2.956543,0.906982,48.645016,-96.778862,-249.992355
-0.880127,1.760254,-0.980469,-91.712944,180.526718,249.992355,1.909424,-2.848389,0.901123,35.705566,-63.652035,-249.992355
-0.873047,1.550537,-0.864746,-87.562553,178.894028,249.992355,2.025635,-2.166992,0.588135,16.586304,-60.005184,-249.992355
-6.365234,2.971436,6.262207,-27.038572,209.3582,222.045883,2.2771,-2.113281,0.295654,23.03314,-29.876707,-249.992355
-1.567627,4.201904,-1.883545,17.150879,249.443039,249.992355,2.635254,-2.129639,0.150879,7.141113,-2.63977,-249.626144
-2.444092,0.909424,1.286865,-79.742432,249.992355,208.671555,2.914795,-1.904297,0.115967,-16.769409,3.387451,-249.992355
-0.74585,1.336914,-0.715576,-80.512993,175.33873,249.992355,2.802979,-1.396729,-0.073242,-58.769222,-39.802551,-249.992355
-6.005127,1.195801,-1.92627,-13.328551,137.046814,-200.904831,3.215576,-1.188721,-0.645264,-63.117977,-1.068115,-234.870895
-1.703125,2.107178,-1.06543,118.278496,-233.68071,-249.992355,4.662109,-1.282227,-1.738525,-7.759094,210.220322,-239.997849
-1.595215,2.154053,-0.974121,118.766777,-230.239853,-249.992355,2.271484,-1.887939,-1.336182,58.876034,34.0271,-249.992355
-1.544922,2.209717,-0.959717,119.956963,-224.205002,-249.992355,1.933838,-1.369385,-1.799072,35.453796,-249.290451,-70.625305
-1.500977,2.270996,-1.026855,121.12426,-218.147263,-249.992355,7.954102,-1.76709,-4.283447,113.868706,-196.563705,190.101608
-1.455078,2.33252,-1.096436,121.223442,-215.751633,-249.992355,2.04834,-2.926514,0.537842,12.092589,-249.992355,-249.992355
-1.471191,2.376465,-1.217529,121.864311,-216.171249,-249.992355,0.315674,-1.331299,0.55542,88.729851,66.90979,249.992355
-1.531494,2.402588,-1.373779,122.100822,-211.479172,-249.992355,0.162109,-1.196289,0.48584,69.17572,64.819336,249.992355
-1.52832,2.389404,-1.519531,122.688286,-194.663986,-249.992355,-0.71875,-1.772705,0.106445,-145.03479,-200.485214,-249.992355
-1.428711,2.357422,-1.659668,120.231621,-165.084824,-249.992355,0.086182,-1.967285,0.049316,-143.859863,-210.266098,-249.992355
-1.294678,2.354248,-1.695068,113.700859,-133.18634,-249.992355,0.571533,-2.090576,0.142822,-138.496399,-236.57988,-249.992355
-4.315186,1.552246,-2.369629,-52.352901,249.992355,19.493103,0.861084,-2.165771,0.26709,-130.622864,-249.725327,-249.992355
-1.270752,2.349609,-1.626953,110.252373,-111.114494,-249.992355,1.104004,-2.196045,0.41748,-127.181999,-249.992355,-249.992355
-1.38623,2.314209,-1.274658,94.41375,-111.709587,-249.992355,1.300293,-2.303955,0.603027,-126.41143,-249.992355,-249.992355
-1.520996,2.241211,-1.062744,79.093933,-132.553101,-249.992355,1.41333,-2.606934,0.737305,-119.98748,-249.992355,-249.992355
-1.653564,2.168945,-0.931885,56.213375,-141.441345,-249.992355,1.516846,-2.987549,0.769531,-104.469292,-249.992355,-249.992355
-1.975098,1.970459,-0.721436,44.570919,-151.20697,-249.969467,1.648926,-3.313477,0.699463,-77.644348,-249.992355,-249.992355
-2.140137,1.753174,-0.543701,45.532223,-176.055893,-249.519333,1.810303,-3.49292,0.648193,-44.990536,-249.992355,-249.992355
-2.045898,1.88623,-0.677246,17.753601,-168.708786,-249.992355,-1.84668,-1.358887,0.213623,-146.011353,-215.858444,-249.992355
-2.273438,1.853516,-0.70459,-11.878966,-140.861511,-249.992355,1.873779,-3.483154,0.623535,-14.060973,-249.824509,-249.992355
-2.324463,1.671143,-0.578125,-50.071712,-176.689133,-224.922165,1.890137,-3.275879,0.731445,36.476135,-249.992355,-249.992355
-1.744873,1.560059,-0.760742,-121.765129,-249.992355,-239.318832,1.827393,-3.14502,0.812744,44.81506,-245.674118,-249.992355
-3.050293,0.73291,-0.833984,-94.612114,-184.15831,-249.992355,1.689941,-3.02417,0.881592,43.098446,-204.475388,-249.992355
-1.2854,2.344238,-1.499023,105.36956,-103.47747,-249.992355,1.539551,-2.882813,0.884277,36.987305,-179.801926,-249.992355
-1.766602,2.048584,-1.144531,119.262688,-238.319382,-249.992355,1.462646,-2.748291,0.78125,28.228758,-177.413925,-249.992355
-0.534912,1.141602,-0.584229,-69.908142,168.762192,249.992355,1.486816,-2.66333,0.665283,27.44293,-177.200302,-249.992355
-0.326172,0.901611,-0.430908,-45.700069,150.352478,249.992355,1.544189,-2.615234,0.572754,35.03418,-162.36113,-249.992355
0.392578,0.987305,-0.17334,-58.273312,-159.255981,-249.992355,1.562012,-2.531738,0.532227,36.712646,-137.054443,-249.992355
0.289307,0.76123,0.076416,-72.052002,-185.707077,-249.992355,1.542236,-2.449707,0.623047,28.755186,-118.186943,-249.992355
0.198242,0.560547,0.185303,-69.206238,-199.264511,-249.992355,1.449463,-2.408691,0.741455,18.920898,-117.805473,-249.992355
0.026855,0.444092,0.082764,-65.437317,-194.335922,-249.992355,1.895996,-3.403076,0.669922,15.785216,-249.504074,-249.992355
-0.168457,0.391846,-0.016357,-67.626953,-183.097824,-249.992355,-3.166992,-0.603516,0.302979,-144.950867,-245.27739,-249.992355
-0.400879,0.403076,-0.086426,-70.899963,-175.781235,-249.992355,0.236816,-1.289551,0.556152,79.879761,66.513062,249.992355
-0.665527,0.497559,-0.154785,-76.004028,-180.618271,-249.992355,-2.419189,0.377441,0.504395,-94.78759,-249.702438,-249.992355
-0.953613,0.619385,-0.217529,-81.611626,-199.600204,-249.992355,0.136719,-1.085449,0.411621,59.43298,66.53595,249.992355
-1.191162,0.674316,-0.150146,-79.368591,-229.52269,-249.992355,0.12793,-1.026367,0.335693,54.656979,74.813843,249.992355
-1.259277,0.644287,-0.055664,-63.400265,-249.80925,-249.992355,0.121826,-1.004883,0.2854,54.313656,86.441032,249.992355
0.54126,1.148926,-0.348145,-29.106138,-131.980896,-249.992355,0.084717,-0.998047,0.300537,55.694576,98.81591,249.992355
-1.254639,0.592041,-0.093506,-42.221066,-249.992355,-249.992355,0.022705,-0.989502,0.333008,57.479855,111.709587,249.992355
-1.150391,0.699463,-0.241455,-26.176451,-205.520615,-249.992355,-0.035645,-1.002197,0.374023,61.546322,132.316589,249.992355
-1.128906,0.816406,-0.265137,-23.483274,-192.176804,-249.992355,-2.924316,0.262451,0.342041,-129.234314,-249.992355,-249.992355
-1.262451,0.996582,-0.310791,-24.375914,-194.671616,-249.992355,-0.202393,-1.177246,0.518311,79.620361,205.70372,249.992355
-1.400146,1.205811,-0.314697,-28.022764,-210.73912,-249.992355,-0.439941,-1.270996,0.605957,93.566887,233.337387,249.961838
-1.477295,1.411865,-0.320557,-27.626036,-231.704697,-249.992355,-0.76123,-1.278809,0.68335,98.037712,228.599533,249.595627
-1.541016,1.61377,-0.365479,-20.423887,-245.864853,-249.992355,-1.172852,-1.270752,0.783691,96.80175,187.81279,249.992355
-1.599854,1.828369,-0.481201,-8.43811,-249.977097,-249.992355,-0.086914,-1.068115,0.425049,68.153381,166.160568,249.992355
-1.718262,2.035645,-0.622559,3.028869,-249.992355,-249.992355,-1.567383,-1.427002,0.819336,88.668816,89.134209,223.838791
-1.828857,2.187988,-0.698975,10.490417,-249.992355,-249.992355,-1.656006,-1.487793,0.943359,78.933716,86.174004,182.594284
-1.858154,2.296875,-0.755371,15.045165,-249.984726,-249.992355,-1.791016,-1.390381,1.092529,56.228634,113.510124,127.464287
-1.24707,0.620605,-0.209473,-30.265806,-230.972275,-249.992355,-2.180176,-1.255371,1.241211,15.73944,119.430534,61.126705
0.808594,1.191406,-0.329834,-0.732422,-110.488884,-246.604904,-2.961182,-1.448486,1.434082,-12.863158,1.724243,1.296997
-0.393555,0.991455,-0.493652,-57.853695,160.568237,249.992355,-3.810059,-1.865234,1.594482,-19.935608,-203.353867,-29.235838
1.663818,1.150391,-0.293457,27.854918,-65.200806,-212.402328,-4.007813,-1.975586,1.574707,-30.044554,-249.992355,-66.665649
-0.300781,0.852295,-0.393555,-34.706116,139.373779,249.992355,-3.473389,-1.834717,1.316406,-37.849426,-249.992355,-165.374741
-0.303955,0.833252,-0.358398,-25.474546,129.562378,249.992355,-2.706543,-1.381348,0.946289,-48.622128,-249.992355,-244.811996
-0.303223,0.828125,-0.315674,-17.593384,118.774406,249.992355,-2.193604,-0.434326,0.625732,-68.283081,-249.832138,-249.992355
-0.248535,0.813721,-0.262695,-10.536193,104.507439,249.992355,-1.425293,-1.327637,0.802002,95.268242,130.249023,249.992355
-0.111816,0.803223,-0.187256,-4.447937,86.486809,249.992355,1.440674,-4.12915,-1.256836,249.992355,-81.603996,249.992355
0.024902,0.815186,-0.141357,0.610352,71.968079,249.771103,1.517578,-4.587158,-1.375,249.992355,31.951902,249.992355
1.205078,1.192139,-0.326172,15.029906,-88.562004,-231.597885,1.748047,-4.166504,-0.707031,249.992355,90.110771,249.992355
0.414307,0.758057,-0.022949,14.259337,62.721249,249.992355,2.352539,-3.491943,-0.539551,249.992355,64.414978,249.992355
0.591064,0.719971,0.033936,22.338865,65.52124,239.364609,1.944092,-6.508057,-7.919189,223.152145,-248.229965,110.931389
0.751953,0.70459,0.055908,29.777525,69.30542,219.825729,2.382813,-3.352051,-1.575684,249.992355,-95.840446,235.69487
0.929443,0.7229,0.072021,35.675049,69.381714,198.562607,2.290039,-2.900635,-1.978271,245.452866,-98.045341,148.170471
0.206543,0.801025,-0.093994,6.553649,64.231873,249.992355,1.926758,-2.950439,-6.288818,235.160812,-79.200745,30.815123
1.221191,0.882324,0.134766,42.060848,54.76379,155.342102,2.49292,-3.369629,-1.147705,249.992355,-17.272949,249.992355
1.411377,0.954102,0.181885,43.479916,47.943111,132.194519,1.606201,-3.432129,-0.727295,249.992355,-194.679245,249.992355
1.64502,0.98584,0.250244,47.904964,44.631954,102.882378,1.720947,-2.02002,0.807861,170.722946,-41.595455,249.992355
1.825195,1.04126,0.301025,54.153439,41.91589,69.587708,1.550537,-2.543457,-0.30249,249.992355,-249.992355,249.992355
1.920898,1.124023,0.295166,60.211178,34.14917,37.757874,1.39917,-2.517334,-0.154297,249.992355,-249.649033,249.992355
1.997803,1.175537,0.227295,63.476559,19.325256,6.004333,1.273438,-2.523438,-0.049561,249.992355,-249.992355,249.992355
2.088867,1.146729,0.159668,64.491272,3.65448,-31.60095,1.320313,-2.391113,0.09668,249.992355,-249.992355,249.992355
2.206543,1.079346,0.047852,61.706539,-8.06427,-80.459587,1.273438,-2.250977,0.310547,249.885544,-234.207138,249.992355
2.306641,1.041748,-0.096436,52.314754,-22.048948,-136.688232,1.202148,-2.157471,0.452148,249.710068,-200.042709,249.992355
2.126953,1.064209,-0.192139,40.977474,-42.678829,-183.822617,1.268799,-2.094971,0.59668,249.992355,-169.609055,249.992355
1.094971,0.785156,0.10498,39.924622,63.110348,176.338181,1.374023,-2.046875,0.723633,247.123703,-147.17865,249.992355
-2.062256,5.146973,-1.090576,172.798141,-58.097836,249.992355,1.515137,-2.0354,0.827393,221.069321,-125.213615,249.992355
-2.637939,4.928223,-0.607666,204.231247,-79.917908,249.992355,1.60376,-2.041992,0.81665,196.456894,-91.773979,249.992355
-2.797119,4.546875,-0.138184,223.587021,-96.916191,249.992355,-0.596191,-2.367432,0.231934,-37.536621,-249.992355,35.980225
-2.795898,4.217041,0.273926,217.460617,-109.703056,249.992355,1.697998,-2.864014,-0.399658,249.992355,-247.66539,249.992355
-3.896484,3.331787,0.655762,153.884888,10.398864,249.992355,2.335693,2.417236,0.198486,-240.661606,-246.932968,-95.024101
-2.881104,3.785645,-0.046143,150.550842,-69.061279,249.992355,1.211182,-2.183105,-0.535645,-221.191391,-64.26239,-249.992355
-3.186768,3.669189,-0.161621,135.284424,-18.203735,249.992355,1.152588,-3.105469,-1.504883,-75.393677,134.017944,-249.992355
-3.618408,3.46582,0.109375,146.903992,23.193357,249.992355,1.809326,-2.009277,0.852051,143.890381,12.939452,249.992355
-2.789307,3.994141,0.213867,184.547409,-102.22625,249.992355,1.754883,-2.13501,0.019287,-194.74028,-122.657768,-249.992355
-1.240967,4.941406,-1.397461,135.734558,-14.068603,249.992355,1.842773,-2.241211,0.180908,-194.694504,-131.484985,-249.992355
-0.675781,1.388428,-0.869873,-5.386352,238.258347,249.992355,1.938721,-2.384033,0.327393,-200.53862,-126.853935,-249.992355
-0.111084,3.765381,-1.293701,102.21862,150.047302,249.992355,1.950684,-2.507568,0.355713,-206.375107,-111.785881,-249.992355
-0.100342,3.212402,-1.24707,86.059563,228.88945,249.992355,1.904541,-2.587158,0.298584,-206.863388,-101.371758,-249.992355
-0.390381,2.678955,-1.125732,77.659607,249.992355,249.992355,1.834473,-2.646484,0.209229,-202.980026,-110.847466,-249.992355
-0.691162,2.361084,-0.993408,72.547913,249.992355,249.992355,1.775879,-2.695557,0.132568,-197.364792,-139.167786,-249.992355
-0.874023,2.19043,-0.923828,68.603516,249.855026,249.992355,1.800781,-2.679443,0.041748,-187.18718,-161.84996,-249.992355
-1.018555,2.075684,-0.983643,61.546322,249.992355,249.992355,2.012695,-2.571777,-0.073242,-181.190475,-128.921509,-249.992355
-1.086182,1.970459,-1.114014,49.530025,249.992355,249.992355,-2.260498,-0.738525,-2.399902,-52.757259,-159.835815,-245.910629
-1.030273,1.856689,-1.182617,33.187866,242.584213,249.992355,2.13623,-2.442627,-0.102051,-196.472153,-36.697388,-249.992355
-0.941406,1.725586,-1.137939,15.892028,237.350449,249.992355,1.447998,-2.395264,-0.207764,-232.566818,12.46643,-249.992355
-0.811768,1.560547,-0.988037,3.189087,237.663254,249.992355,1.382324,-1.875,-0.842041,-202.04924,-82.427971,-249.961838
-3.908447,2.902588,1.313232,156.471252,-44.464108,249.992355,1.867188,-1.684326,-0.937256,-189.559921,26.710508,-249.992355
-0.543213,4.335938,-1.355957,115.82946,59.448238,249.992355,2.055664,-1.555176,-0.865479,-205.406174,174.285873,-249.992355
-4.503662,2.329346,2.121826,142.562866,-70.762634,249.992355,1.512695,-1.29541,-0.740967,-242.294296,207.336411,-248.008713
-1.718018,1.759033,0.464844,-111.648552,65.422058,-249.992355,1.291992,-1.207275,-0.382813,-249.992355,89.691154,-249.992355
-2.302246,2.360352,6.19873,206.817612,-238.563522,174.842819,1.268066,-1.441406,-0.498047,-222.21373,-37.29248,-249.992355
-0.622314,1.218506,-0.783447,-11.413573,237.640366,249.992355,1.626465,-1.650391,-0.834961,-218.93309,-83.686821,-164.367661
-1.661621,2.961182,-0.82251,65.093994,-195.365891,-249.992355,2.256348,-1.991211,-1.204346,-249.992355,5.752563,-104.156487
-1.641357,3.17749,-0.827637,61.515804,-168.891891,-249.992355,2.075195,-2.817627,-1.087402,-216.239914,145.599365,-220.901474
-1.573975,3.355469,-0.729492,57.128902,-137.931824,-249.992355,1.893066,-2.423096,-0.093994,-222.801193,34.362793,-249.992355
-1.545898,3.444092,-0.575195,48.370358,-105.545036,-249.992355,1.765625,-2.06665,0.853271,119.888298,55.465694,249.992355
-1.535889,3.397461,-0.455566,28.511045,-70.007324,-249.992355,1.73291,-2.042236,-0.056396,-197.830185,-103.637688,-249.992355
-1.46875,3.306885,-0.458252,-2.449036,-27.6947,-249.992355,1.77124,-2.204346,0.815918,98.31237,108.14666,249.992355
-1.458984,3.258057,-0.423096,-22.331236,17.501831,-249.992355,-2.502197,-0.681885,1.064697,-54.290768,87.242119,-81.123344
-1.535889,3.301025,-0.360352,-28.785704,52.803036,-249.992355,-2.648193,-0.79248,1.140625,-70.678711,-8.68988,-150.123596
-1.624512,3.401123,-0.265625,-52.604671,80.780022,-249.992355,-2.202637,-0.893555,1.13501,-93.231194,-84.739677,-212.661728
-6.518555,2.599854,6.243164,203.025803,-194.35881,242.851242,-1.616943,-1.003418,0.999756,-118.9804,-132.026672,-247.688278
-1.528564,3.138428,-0.032471,-86.425774,111.412041,-249.992355,-1.235352,-1.121094,0.807617,-141.960144,-152.381897,-249.992355
-1.359619,2.091064,0.435547,-114.601128,123.527519,-249.610886,-1.046875,-1.206787,0.582764,-157.455444,-164.588913,-249.992355
-2.121094,1.612305,0.329102,-111.404411,-58.92181,-249.992355,-1.066406,-1.248535,0.422607,-165.679916,-187.034592,-249.992355
-2.478516,1.428223,0.175049,-117.080681,-209.495529,-234.672531,-1.134766,-1.221436,0.463623,-179.351791,-224.739059,-249.992355
-2.606934,0.890137,0.218506,-96.694939,-249.992355,-195.571884,-1.048828,-1.177979,0.591797,-200.477585,-248.947128,-249.992355
-2.242432,0.603271,0.408691,-70.114136,-247.077927,-215.705856,-0.795654,-1.226807,0.626221,-219.703659,-249.992355,-249.992355
-2.368652,0.581055,-0.354492,-96.374504,-249.992355,-249.992355,-1.789307,-0.615967,1.004395,-38.902283,184.394821,-20.835875
-3.931885,0.795166,-0.96582,-184.257492,-249.992355,-183.853134,-0.495117,-1.283691,0.479736,-234.092697,-249.992355,-249.992355
-3.040527,1.040283,0.810059,-210.403427,-123.275749,-58.052059,0.0896,-1.49707,0.349365,-235.679611,-249.992355,-249.992355
-2.464111,1.465332,1.875,-127.563469,93.719475,60.279842,0.388428,-1.711182,0.330811,-230.483994,-249.992355,-249.992355
-2.507324,2.135254,4.431885,3.746032,32.371521,190.83403,0.679199,-1.940918,0.331787,-216.621384,-249.992355,-249.992355
-1.325195,2.565186,0.258301,-107.254021,134.078979,-249.992355,1.025146,-2.154053,0.300781,-195.869431,-249.992355,-249.992355
-0.53125,1.057617,-0.695801,-15.419005,230.674728,249.992355,1.33667,-2.314697,0.270752,-177.841171,-249.992355,-249.992355
-0.437256,0.93335,-0.609131,-18.264771,218.444809,249.992355,1.568359,-2.401611,0.247803,-160.575867,-249.992355,-249.992355
-0.410889,0.842041,-0.544189,-18.997192,205.093369,249.992355,1.658203,-2.428467,0.265625,-141.021729,-249.992355,-249.992355
1.812744,0.713135,0.247559,50.598141,-171.68425,-186.065659,1.65332,-2.474854,0.284424,-117.691032,-249.992355,-249.992355
1.783203,0.781494,0.297119,41.290279,-171.447739,-212.88298,1.733154,-2.597656,0.339355,-88.23394,-249.992355,-249.992355
1.855957,0.799561,0.453613,45.463558,-162.322983,-239.685043,1.817627,-2.807129,0.404785,-48.774715,-249.992355,-249.992355
1.815186,0.865723,0.460938,54.695126,-154.670715,-249.992355,-0.216309,-1.348633,0.387451,-239.143356,-249.992355,-249.992355
1.408447,0.948975,0.245117,43.891903,-157.12738,-249.992355,-0.998779,-0.669434,0.869873,-22.628782,243.171677,11.756896
0.797119,0.944336,0.078857,24.162291,-167.762741,-249.992355,1.741699,-2.16748,0.873047,106.643669,82.580559,249.992355
0.290039,0.893555,0.031006,15.510558,-186.744675,-249.992355,-0.531982,-0.769775,0.750977,-25.695799,146.331787,34.111023
-0.105469,0.868896,-0.085449,13.72528,-206.275925,-249.992355,1.831299,-2.054443,0.763184,74.287415,138.847351,249.992355
-0.353516,0.872803,-0.192383,12.130736,-220.039352,-249.992355,1.716797,-1.848877,0.77417,45.242306,151.557922,249.992355
-0.501221,0.923096,-0.253418,12.039184,-230.186447,-249.992355,1.286133,-1.706055,0.653076,22.224424,133.407593,249.992355
1.852783,0.662109,0.34375,63.446041,-162.429794,-145.042419,0.967041,-1.637939,0.616943,0.900268,101.676933,249.992355
-0.640869,0.962402,-0.219971,18.356323,-239.189133,-249.992355,0.772705,-1.595947,0.614014,-13.870238,78.872681,249.992355
-1.041992,0.960449,-0.219727,40.458675,-249.992355,-249.992355,0.621582,-1.47583,0.518555,-28.648375,76.23291,249.992355
-1.234863,0.964844,-0.296143,43.769833,-249.992355,-249.992355,-0.516113,-0.789063,0.811035,-15.541076,226.303085,21.736143
-1.334229,1.017822,-0.398193,49.530025,-249.992355,-249.992355,0.379639,-1.068359,0.362793,-83.717339,122.451775,249.992355
-1.436768,1.131836,-0.538818,61.988827,-249.992355,-249.992355,0.211914,-0.902832,0.282715,-110.79406,162.796005,249.992355
-1.635498,1.265137,-0.707764,73.783875,-249.992355,-249.992355,0.030762,-0.769531,0.262451,-127.265923,212.837204,249.992355
-1.671631,1.367432,-0.762207,80.207825,-249.992355,-249.992355,-0.230957,-0.675781,0.226074,-130.134583,246.963486,249.992355
-1.573486,1.44873,-0.741211,87.455742,-249.992355,-249.992355,0.530518,-1.269531,0.437744,-53.970333,93.376152,249.992355
-1.533447,1.52832,-0.743408,99.616997,-249.900803,-249.992355,-0.874756,-0.606445,0.472168,-130.92041,249.977097,249.992355
-1.586426,1.661377,-0.832031,111.67144,-249.992355,-249.992355,-1.199951,-0.627441,0.75293,-128.463745,249.992355,249.992355
-1.681152,1.802002,-0.968262,118.148796,-249.992355,-249.992355,-1.460205,-0.687012,1.008545,-120.124809,249.80925,235.801682
-0.827393,0.963623,-0.182861,31.570433,-247.428879,-249.992355,-1.682617,-0.719971,1.218018,-111.412041,248.451218,221.122726
1.918945,0.661133,0.476318,75.187683,-152.908325,-83.679192,-1.98999,-0.659424,1.37915,-107.26165,249.992355,223.777756
-1.757813,1.929443,-1.112305,120.429985,-245.132431,-249.992355,-2.309326,-0.548584,1.349121,-104.11071,249.740585,229.713425
1.925049,0.622803,0.490234,85.151665,-142.990112,31.60858,-2.453613,-0.454102,1.148438,-96.244804,148.490906,214.302048
-0.382568,0.791748,-0.517334,-18.417358,191.535934,249.992355,-2.29541,-0.427979,0.957275,-82.992546,46.157833,172.828659
-0.295166,0.755371,-0.489502,-18.417358,177.680954,249.992355,-1.767578,-0.495605,0.786377,-64.109802,10.780334,120.910637
-0.164551,0.718262,-0.430176,-18.928528,164.451584,249.954208,-1.053955,-0.63208,0.717285,-43.128963,55.335995,69.915771
-0.05542,0.681641,-0.372314,-19.393921,153.4729,249.862656,-0.538086,-0.623291,0.269043,-129.951477,249.992355,249.68718
0.078125,0.619629,-0.308838,-18.463135,142.021179,249.992355,2.548828,-2.668701,0.951416,48.179623,92.445366,249.992355
0.248047,0.553467,-0.236328,-16.792297,127.822868,248.870834,3.2146,-2.479736,0.302734,72.029114,160.270691,249.992355
1.957031,0.651855,0.529053,82.748405,-146.217346,-18.531799,3.953125,-2.256592,-0.064941,68.138123,133.476257,249.992355
0.519043,0.464111,-0.163818,-11.085509,110.832207,230.262741,4.693359,-2.061035,-0.266602,57.266232,63.240047,249.992355
0.661621,0.431885,-0.176758,-5.966186,106.246941,224.845871,4.226318,-0.57959,-0.356934,-28.656004,-49.636837,29.685972
0.812012,0.415039,-0.199707,-1.548767,98.587029,218.765244,5.448975,-1.695801,-0.226318,35.362244,-46.546932,247.802719
0.932617,0.413818,-0.234375,2.433777,88.60778,213.500961,7.18457,-1.387451,-1.454346,27.160643,-29.190062,167.449936
0.39502,0.506592,-0.187744,-15.251159,116.58477,237.892136,7.999756,-1.052002,-1.434082,-64.353943,-139.579773,72.052002
1.056641,0.40918,-0.272461,9.262085,49.537655,213.554367,5.237061,-1.880615,-0.306152,43.853756,-11.825561,249.992355
1.117188,0.423584,-0.270264,13.298034,10.795592,214.813217,2.042969,-2.758057,1.435303,-15.945434,-23.437498,249.992355
1.164307,0.469727,-0.204102,18.356323,-36.468506,213.165268,0.860107,-2.24707,0.969971,66.53595,249.992355,249.992355
1.209961,0.505859,-0.07666,25.573729,-82.504265,208.953842,3.074707,-3.972656,0.494385,-99.96032,11.184691,249.992355
1.326172,0.499512,0.063721,36.590576,-119.125359,200.523361,3.664551,-4.960449,0.402832,-84.167473,115.890495,249.992355
1.49585,0.481689,0.154053,50.018307,-142.532349,185.867294,3.243408,-5.593506,0.835938,-52.612301,183.883652,249.992355
1.683105,0.495117,0.230225,62.32452,-156.402588,162.078842,2.398193,-5.644775,1.227051,-35.40802,187.011703,249.992355
1.812012,0.537598,0.336182,71.815491,-163.040146,131.027222,1.951416,-5.014404,1.357178,-52.040096,153.793335,249.992355
1.820068,0.569092,0.443359,79.170227,-157.714844,99.517815,1.998535,-4.240234,1.249023,-62.675472,161.651596,249.992355
1.843994,0.58667,0.486572,84.350578,-147.193909,68.565369,1.943115,-3.566406,1.12915,-54.51202,223.861679,249.992355
1.001221,0.412598,-0.25293,5.958557,74.295044,211.532578,1.663818,-3.242676,1.139648,-28.999327,249.992355,249.992355
-0.758789,3.547607,-1.626221,-18.623352,249.992355,249.992355,1.395752,-3.093506,1.124756,15.068053,249.992355,249.992355
-1.199951,4.252441,-1.787109,-15.090941,249.839767,249.992355,1.150635,-2.765381,1.062744,52.024837,249.519333,249.992355
-2.025146,4.713135,-1.776123,-28.366087,249.977097,249.992355,2.483887,-0.964844,-0.179443,61.958309,203.376755,-133.934021
-2.869629,4.779297,-1.748291,-65.78064,236.656174,249.992355,2.198486,-3.128906,1.012695,-77.728271,-59.097286,249.992355
-4.680664,4.867676,-1.186768,-134.712219,249.481186,249.992355,4.126465,-0.980225,-0.469482,49.491879,190.971359,-222.671494
-3.388672,4.473633,-0.936035,-112.365715,221.321091,249.992355,1.68335,-2.1604,0.673096,22.819517,-208.793625,-249.992355
-3.466553,4.484375,-0.914551,-121.261589,249.992355,249.992355,2.007568,-1.347168,0.158447,11.726378,-125.450127,-246.437057
-3.917725,4.758789,-1.105225,-134.803772,249.992355,249.992355,0.707031,-1.791016,0.828857,70.487976,249.992355,249.992355
-3.233154,4.644531,-1.377441,-100.700371,209.075912,249.992355,1.580322,-1.681885,0.213379,-87.615959,-249.992355,-249.992355
-0.768555,2.981445,-1.299072,-13.046264,249.93895,249.992355,1.643066,-1.739502,0.226807,-69.038391,-249.992355,-249.992355
-0.460693,2.037598,-0.871826,-84.510796,178.61174,249.992355,1.722412,-1.773438,0.257813,-50.415035,-249.748215,-249.992355
-1.011475,2.697754,-1.044189,19.355774,219.039902,249.992355,1.812744,-1.761963,0.277344,-37.452698,-249.923691,-249.992355
-0.993408,2.70752,-1.119873,25.909422,190.895065,249.992355,1.831299,-1.795898,0.330322,-28.129576,-249.992355,-249.992355
-0.988037,2.668945,-1.239258,24.604795,158.64563,249.992355,1.743896,-1.882813,0.39917,-20.477293,-241.24144,-249.992355
-0.937012,2.599365,-1.377686,18.112183,129.188538,249.992355,1.640625,-1.95459,0.413086,-12.924193,-206.611618,-249.992355
-0.914063,2.524414,-1.509766,-1.312256,109.497063,249.992355,1.619629,-1.991943,0.397705,-7.484436,-177.139267,-249.992355
-0.833008,2.393311,-1.496582,-28.877256,100.692741,249.992355,1.594238,-2.036865,0.390625,-4.493713,-163.955673,-249.992355
-0.615479,2.220459,-1.306885,-50.323483,102.47802,249.992355,3.245361,-0.871582,-0.166992,-1.64032,-55.343624,-218.238815
-0.488525,2.116943,-1.110596,-61.737057,114.936821,249.992355,1.580811,-2.095215,0.407959,-0.831604,-168.830856,-249.992355
-0.55957,2.116455,-1.037354,-70.838928,137.565613,249.992355,1.628662,-2.205811,0.567871,15.930175,-193.939194,-249.992355
-0.540771,2.105469,-0.968018,-78.681946,161.201462,249.992355,1.722656,-2.061279,0.777588,25.230406,-222.625717,-249.992355
-5.247803,4.601563,-1.080078,-103.47747,249.969467,249.992355,1.75,-1.981689,0.783203,25.169371,-231.986984,-249.992355
-0.953125,2.757324,-1.077881,2.6474,238.792404,249.992355,1.792969,-1.973877,0.728516,27.297972,-236.785873,-249.992355
-5.637939,4.014404,-0.921631,-61.775204,249.900803,242.691025,1.77002,-2.007568,0.689453,32.737732,-242.698654,-249.992355
-1.561035,1.750244,-0.955322,195.808395,-212.608322,-249.992355,1.685303,-1.964844,0.57373,36.16333,-249.038681,-249.992355
-6.648682,2.840576,0.072754,5.821228,249.969467,130.584717,1.705322,-1.870605,0.439209,39.108276,-240.089401,-249.992355
-0.562988,1.978027,-0.841797,-89.431755,190.544113,249.992355,1.861084,-1.811768,0.203369,52.055355,-190.498337,-249.847397
-1.259766,2.398926,-1.129639,108.795158,-249.992355,-249.992355,2.108643,-1.746582,0.083984,59.059139,-120.24688,-249.580368
-1.231201,2.500977,-1.186279,128.746033,-249.992355,-249.992355,2.069092,-1.654053,0.088623,45.639034,-82.931511,-249.992355
-1.269775,2.597168,-1.25293,147.445679,-249.992355,-249.992355,1.607666,-2.166748,0.484863,6.607055,-180.870041,-249.992355
-1.27832,2.613281,-1.274414,165.206894,-249.992355,-249.992355,1.637939,-1.643311,0.266602,-100.227348,-249.992355,-249.992355
-1.21582,2.592773,-1.226807,184.043869,-249.992355,-249.992355,0.602051,-1.523926,0.744385,70.762634,227.409348,249.992355
-1.229004,2.564209,-1.193604,201.538071,-249.977097,-249.992355,0.283447,-1.130127,0.698486,53.535458,168.174728,249.992355
-1.131592,2.502197,-1.181152,217.636093,-249.710068,-249.992355,-2.832764,-1.373779,0.871826,-53.497311,-205.734238,-227.684006
-0.996582,2.445068,-1.17627,229.370102,-249.992355,-249.992355,-2.63916,-1.182129,0.852539,-69.213867,-170.845016,-249.992355
-0.987305,2.376953,-1.190918,234.17662,-249.992355,-249.992355,-2.395508,-0.976318,0.777832,-86.982719,-148.368835,-249.992355
-6.811768,3.209229,-0.61377,-12.611388,249.43541,196.395859,-2.19165,-1.00293,0.620117,-98.609917,-147.529602,-249.992355
-1.042725,2.252441,-1.19458,232.818588,-233.92485,-249.992355,-1.754883,-1.193604,0.43457,-103.10363,-148.994446,-249.992355
-1.413086,1.941162,-1.076172,211.204514,-216.04155,-249.984726,-1.06958,-1.374756,0.335938,-111.816399,-150.413513,-249.992355
-1.562012,1.614502,-0.854492,180.175766,-215.324387,-249.992355,-0.504883,-1.477295,0.301025,-124.626152,-156.669617,-249.992355
-1.597412,1.578613,-0.83252,163.887009,-220.741257,-249.29808,-0.109863,-1.610596,0.066162,-142.105103,-159.431458,-249.992355
-1.804932,1.56665,-0.776367,149.215698,-191.3452,-249.992355,0.28418,-1.737061,-0.175781,-150.230408,-150.611877,-249.992355
-1.988281,1.695068,-0.796875,139.404297,-99.983208,-249.992355,1.016113,-1.683594,-0.359131,-146.690369,-129.53949,-249.992355
-2.298584,2.078369,-0.87085,103.134148,13.47351,-220.939621,-2.987061,-1.434082,0.891113,-36.552429,-217.483505,-157.363892
-2.83667,2.038818,-0.864502,42.091366,52.772518,-185.249313,1.145264,-1.456055,-0.328369,-146.54541,-129.005432,-249.992355
-3.675537,1.650146,-0.527832,55.191036,45.776363,-223.22081,1.346924,-1.130371,-0.178467,-157.577515,-154.136658,-249.992355
-4.934326,2.202637,-0.454834,88.562004,141.601563,-168.922409,1.466064,-1.155762,-0.072266,-162.85704,-160.705551,-249.992355
-4.585205,3.056152,-0.217041,57.762142,242.706284,-5.088806,1.617676,-1.245117,-0.001221,-165.573105,-153.816223,-249.992355
-1.187256,2.107422,-1.157471,224.586472,-221.527084,-249.992355,1.710938,-1.200684,0.038818,-168.91478,-137.580872,-249.992355
-0.750732,1.959717,-0.852539,-90.62957,197.76152,249.992355,1.757324,-1.089844,0.179932,-178.894028,-112.144463,-249.992355
-0.851563,1.955078,-0.912598,-88.630669,198.745712,249.992355,1.806152,-1.10083,0.266113,-192.794785,-81.832878,-249.992355
-0.846436,1.910645,-0.918457,-86.692802,197.334274,249.992355,1.847656,-1.263672,0.216797,-204.933151,-58.959957,-249.992355
0.458008,1.339355,0.139893,-26.992796,-77.125549,-249.992355,1.801025,-1.534424,0.085693,-208.572372,-57.456966,-249.992355
0.064941,1.330566,0.178223,-38.024902,-90.988152,-249.992355,1.764648,-1.842773,-0.014893,-203.407272,-78.125,-249.992355
-0.239502,1.311523,0.21167,-45.94421,-105.278008,-249.992355,0.463623,-1.334229,0.718506,65.414429,194.519028,249.992355
-0.439453,1.304932,0.17334,-55.496212,-120.651237,-249.992355,1.255859,-1.242676,-0.242432,-151.885986,-138.61084,-249.992355
-0.528564,1.265381,0.087402,-63.949581,-137.405396,-249.992355,-2.995361,-1.406006,0.89624,-18.440247,-192.169174,-90.774529
-0.628174,1.206299,-0.030029,-66.009521,-153.106689,-249.992355,0.713623,-1.77002,-0.30542,-150.161743,-138.22937,-249.992355
-0.707031,1.180176,-0.221436,-65.200806,-167.343124,-249.992355,-2.459229,-1.268555,0.768555,10.543822,-59.333797,20.057678
-0.736816,1.163818,-0.41333,-66.764832,-185.401901,-249.992355,-2.796875,-1.315186,0.858887,-3.196716,-134.391785,-32.844543
-0.811523,1.147461,-0.474365,-68.634033,-205.696091,-249.992355,0.173828,-0.851563,0.522217,29.365538,135.688782,249.992355
-0.917236,1.150879,-0.337646,-64.743042,-219.840988,-249.992355,0.221436,-0.835938,0.450684,23.696898,130.371094,249.992355
0.76001,1.337402,0.088867,-10.238647,-60.661312,-249.992355,0.217041,-0.811035,0.385742,19.454956,131.416321,249.992355
-1.003174,1.168945,-0.172363,-59.463497,-227.729782,-249.992355,0.197998,-0.748779,0.330566,15.174865,140.029907,249.992355
-1.120117,1.114014,0.090576,-45.089718,-237.220749,-249.992355,0.170654,-0.687988,0.295166,13.107299,152.709961,249.992355
-1.125732,1.165527,0.087402,-36.605835,-240.295395,-249.992355,0.116943,-0.662598,0.261963,14.175414,167.251572,249.992355
-1.155762,1.312988,0.04541,-25.726316,-243.13353,-249.992355,0.037598,-0.66333,0.239746,17.76123,179.985031,249.908432
-1.311035,1.536621,-0.032227,-10.650634,-245.620712,-249.992355,-0.078857,-0.662842,0.221191,22.132872,187.255844,249.916061
-1.45874,1.789307,-0.199951,4.859924,-245.910629,-249.992355,-0.193359,-0.655762,0.217041,26.580809,189.842209,249.992355
-1.569092,2.003418,-0.305176,22.460936,-242.828354,-249.992355,-0.276611,-0.666748,0.233643,32.028198,189.903244,247.03215
-1.689453,2.223633,-0.378662,38.658142,-236.526474,-249.992355,0.162598,-0.945801,0.609131,40.008545,147.315979,249.992355
-1.804443,2.388916,-0.41333,51.719662,-228.057846,-249.992355,-0.415283,-0.71875,0.310059,38.459778,190.261826,226.028427
-1.825439,2.522217,-0.449707,62.026974,-221.496567,-249.992355,-0.330078,-0.700684,0.26001,36.720276,189.712509,233.406052
-1.766113,2.656982,-0.561035,66.978455,-217.994675,-249.992355,-1.960205,-1.33252,0.712891,38.589478,78.041077,91.590874
-1.070068,1.151367,-0.003662,-53.955074,-232.864365,-249.992355,-1.761963,-1.177246,0.693604,45.761105,126.518242,117.08831
0.929443,1.30249,0.067627,7.537841,-53.077694,-248.664841,-1.562988,-1.025146,0.690674,50.201412,159.896851,140.045166
-1.701904,2.790771,-0.713379,67.123413,-211.059555,-249.992355,-1.359619,-0.940918,0.697266,53.25317,181.999191,160.522461
1.385498,1.192627,0.206787,23.513792,-88.066093,-192.672714,-2.173584,-1.344727,0.699951,25.222776,14.373778,61.294552
-0.730469,1.79541,-0.796387,-87.821953,195.678696,249.992355,-0.895752,-0.796631,0.549316,47.019955,199.943527,199.233994
-0.594482,1.605225,-0.629395,-90.263359,194.007858,249.992355,-0.678467,-0.738037,0.472412,43.960567,198.425278,214.385971
-0.426514,1.373779,-0.449707,-89.99633,189.95665,249.992355,-0.534424,-0.716064,0.406006,40.824886,193.763718,222.518906
-0.218262,1.160889,-0.281982,-86.410515,185.79863,249.992355,-1.141602,-0.873291,0.656006,51.300045,194.885239,180.137619
-0.010254,0.994141,-0.169189,-79.772949,185.16539,249.992355,3.776367,-2.727051,0.582764,-2.578735,132.148743,249.992355
0.240479,0.855957,-0.109131,-70.999146,183.288559,249.992355,3.241211,-0.929443,-0.157471,14.137267,125.076286,-183.364853
1.14624,1.239502,0.116943,18.959045,-67.337036,-226.699814,3.27124,-2.098145,0.175781,30.410765,249.992355,-166.252121
0.728027,0.642334,-0.02417,-57.258602,158.714294,249.992355,0.306641,-1.730469,0.942627,55.633541,176.46788,-186.454758
0.944336,0.58667,0.045166,-51.063534,139.373779,249.992355,3.622803,0.001465,-0.549805,-34.896851,170.585617,-18.997192
1.18457,0.535645,0.12207,-44.013973,121.368401,240.135178,7.999756,-1.993164,-2.264893,-9.132385,17.662048,110.610954
1.435303,0.512451,0.214355,-36.026001,102.85186,217.887863,6.626465,-2.068359,-1.809326,96.870415,53.108212,140.777588
