ax,ay,az,gx,gy,gz,ax,ay,az,gx,gy,gz
-0.455566,-0.242676,0.102783,134.002686,131.04248,143.440247,0.685059,-0.431152,0.569336,-23.384092,-29.220579,-29.495237
-0.890137,-0.898682,1.244873,139.945984,249.977097,174.850449,0.72876,-0.702637,0.483643,-28.289793,-15.434264,-26.100157
-0.646973,-0.366455,0.025635,102.684013,92.193596,149.871826,0.558105,-0.470947,0.470947,-27.481077,-32.646179,-22.857664
-0.980225,0.222656,-0.496094,71.342468,143.157959,28.160093,0.987793,-0.614502,0.617188,38.032532,40.969845,150.749207
-1.018555,0.303955,-0.451172,83.45031,124.160759,26.214598,0.862061,-0.658447,0.276611,-87.020866,37.04071,-112.29705
-1.027832,0.372314,-0.443604,81.542961,100.502007,28.228758,0.698242,-0.655273,0.24292,-97.05352,41.389462,-95.436089
-0.965332,0.40625,-0.491455,77.011108,81.222527,30.105589,0.808105,-0.703613,0.257568,-91.812126,30.387877,-90.88134
-0.806641,0.402588,-0.55542,68.67981,72.769165,23.330687,0.832031,-0.733154,0.296631,-77.819824,14.755248,-85.037224
-0.650635,0.34375,-0.555908,53.352352,78.399658,22.796629,0.836914,-0.72998,0.342773,-68.092346,-1.296997,-71.922302
-0.527344,-0.283936,0.05249,125.579826,110.977165,144.233704,0.828125,-0.702393,0.351318,-65.910339,-13.313293,-57.640072
-0.619873,0.288818,-0.364746,21.331785,118.835442,41.687008,0.859375,-0.679932,0.395996,-65.254211,-19.210815,-51.521297
-0.790527,0.265381,-0.311523,10.917663,121.25396,44.761654,0.884521,-0.718994,0.473145,-58.04443,-18.798828,-49.354549
-0.816406,0.211426,-0.277832,12.123107,100.517265,42.266842,0.851807,-0.776367,0.508057,-44.036861,-14.10675,-44.441219
-0.72876,0.318359,-0.550049,19.66095,140.731812,41.213985,0.617432,-0.437988,0.521973,-25.207518,-32.661438,-25.360106
-0.588867,0.296387,-0.473633,36.590576,100.151054,34.439087,0.802002,-0.756592,0.494873,-35.690308,-10.498046,-36.811829
-0.675537,0.156738,-0.263916,46.806332,78.369141,67.466736,0.763916,-0.710938,0.471924,-33.218384,-11.245727,-27.687071
-0.505371,0.23999,-0.312988,34.172058,119.277946,81.237785,0.695068,-0.688232,0.483398,-23.452757,-20.019531,-22.270201
-0.446777,0.26416,-0.394287,6.149292,177.780136,92.39196,0.660156,-0.661865,0.468262,-21.240232,-21.263121,-17.63916
-0.421875,0.225586,-0.435547,-27.183531,229.553207,95.352165,0.626953,-0.642334,0.447021,-18.821716,-17.532349,-13.359069
-0.515137,0.168213,-0.365479,-60.31036,249.992355,81.924431,0.5979,-0.604004,0.419678,-18.974304,-12.275695,-10.44464
-0.660156,-0.001953,-0.222412,-74.577332,249.992355,75.218201,0.578857,-0.550781,0.37793,-25.482176,-8.674622,-11.016845
-0.745605,-0.148193,-0.046875,-64.544678,228.141769,88.767998,0.550293,-0.523682,0.359863,-32.13501,-9.170532,-12.641906
-0.891602,-0.320557,-0.042725,-37.68158,191.101059,92.430107,0.519775,-0.507568,0.380615,-34.370422,-15.022277,-13.374328
-0.99585,-0.573975,-0.180908,12.260436,143.127441,99.166862,0.509033,-0.498535,0.419678,-33.943176,-23.04077,-15.533446
-0.864746,-0.582275,-0.126221,65.689087,99.784843,133.712769,0.52002,-0.48999,0.442627,-31.73065,-29.296873,-19.676208
-0.791748,0.112061,-0.199219,41.679379,61.042782,54.397579,0.777344,-0.72583,0.475586,-34.431458,-9.254456,-29.96826
-0.306641,-0.369385,0.632324,-16.098022,73.867798,6.408691,0.969482,-0.616211,0.575439,40.245052,75.080872,148.872375
-0.281982,-0.382813,0.675049,-13.870238,67.901611,2.937317,1.010986,-0.632813,0.291992,-74.440002,31.845091,-147.132874
-0.266113,-0.398193,0.727051,-11.398314,62.156673,0.549316,0.700439,-0.49707,0.581055,45.379635,161.300644,147.994995
-0.269775,-0.4021,0.80542,-9.773254,59.234615,1.518249,0.015625,0.052734,-0.518555,82.496635,217.041,171.440109
-0.834717,-0.645996,1.041748,-6.263732,208.97673,-15.960692,0.062744,0.047363,-0.547119,80.68084,189.254745,156.982422
-0.468262,-0.40918,0.931152,0.831604,96.107475,-4.714966,0.091797,0.073975,-0.607178,74.897766,156.654358,133.621216
-0.672852,-0.475586,0.952637,6.118774,131.233215,-7.843017,-0.044922,0.151123,-0.656494,67.909241,117.919914,131.04248
-0.824951,-0.576172,0.975342,4.562378,170.318588,-10.719298,-0.118652,0.126953,-0.712158,58.776852,79.223633,138.534546
-0.331299,-0.401367,0.897949,-5.485534,70.144653,0.221252,-0.040283,0.063232,-0.796143,45.257565,54.870602,131.607056
-0.32251,-0.350586,0.617188,-17.402649,78.926086,10.536193,0.019531,0.075928,-0.850586,37.338257,53.337093,117.820732
-0.962891,-0.613525,1.074707,47.767635,-115.623466,54.88586,-0.097656,0.14209,-0.853027,34.484863,60.470577,104.507439
-0.287354,-0.322021,0.661621,-18.081665,87.631218,16.197205,-0.210205,0.177979,-0.79834,33.027649,58.624264,96.511833
-0.30249,-0.326416,0.695557,-15.808105,91.590874,16.471863,-0.276123,0.199463,-0.828125,32.791138,48.927303,93.605034
-0.340088,-0.345947,0.739502,-10.116576,91.674797,16.815186,0.030518,0.047119,-0.440918,81.199638,245.285019,171.218857
-0.384277,-0.373047,0.785645,-4.020691,86.608879,21.217344,-0.364502,0.250244,-0.892334,27.549742,35.438538,85.891716
-0.438721,-0.397217,0.836182,2.159119,77.056885,26.19171,-0.341309,0.26001,-0.961426,13.000487,-4.196167,80.467216
-0.573975,-0.458984,0.895264,13.046264,61.637875,31.486509,-0.239502,0.255371,-1.012695,8.934021,-15.846251,73.96698
-0.733643,-0.524414,0.929932,26.199339,37.261963,43.113705,-0.134033,0.258545,-1.080078,7.637023,-21.438597,67.184448
-0.859375,-0.551514,0.970459,37.940979,1.38092,54.824825,-0.103027,0.245605,-1.176514,7.942199,-23.567198,63.987728
-0.983154,-0.547363,1.006104,44.929501,-43.891903,60.874935,-0.069336,0.200439,-1.254883,8.19397,-24.063108,60.348507
-1.048584,-0.563477,1.034912,46.691891,-87.173454,61.401363,0.006592,0.226318,-1.331543,3.623962,-20.477293,55.854794
-0.729004,-0.662842,1.15625,-22.888182,240.592941,-22.315977,0.069092,0.22168,-1.384277,-7.102966,-13.656615,53.436275
-0.308838,-0.331543,0.628174,-17.997742,83.32061,14.236449,0.050537,0.236572,-1.407471,-21.14868,-4.867554,50.552364
-0.707275,-0.628418,1.132813,-43.724056,249.992355,-25.657652,-0.061035,0.302734,-1.334229,-32.234192,0.411987,47.653194
-0.945313,-0.561768,0.232178,-34.27124,34.172058,128.379822,-0.122314,0.251953,-1.188232,-35.133362,-4.814148,48.332211
-0.849609,-0.526611,0.986572,-74.668884,249.748215,-17.425537,-0.387939,0.274902,-0.914795,18.890381,14.701842,83.061211
-0.842285,-0.635742,1.140137,47.973629,-119.781487,37.025452,0.169189,0.045898,-0.426758,75.119019,249.992355,163.963303
-0.9375,-0.405273,0.631592,66.482544,16.845703,183.891281,0.862793,-0.56665,0.558105,42.610165,121.818535,147.239685
-0.992188,-0.433594,0.586182,56.90765,22.02606,189.674362,0.716553,0.009033,-0.18457,60.768124,249.839767,139.48822
-1.053467,-0.430176,0.593506,44.364925,14.953612,198.204025,0.562988,-0.451904,0.578857,52.055355,181.365952,152.099609
-1.087158,-0.387207,0.659424,35.110474,-5.981445,197.212204,0.516357,-0.440918,0.531738,58.776852,186.660751,157.196045
-1.072754,-0.351807,0.681152,26.153563,-34.912109,192.504868,0.547607,-0.448975,0.371582,57.266232,189.636215,158.981323
-0.991943,-0.351074,0.640625,15.022277,-60.768124,193.389877,0.609131,-0.442871,0.183105,48.21777,195.884689,158.508301
-0.912109,-0.38501,0.579346,8.132935,-70.159912,195.838913,0.622314,-0.416992,0.108154,35.354614,209.259018,155.525208
-0.866455,-0.412598,0.509277,3.959656,-61.775204,188.400253,0.62085,-0.39209,0.060303,19.317627,228.897079,150.398254
-0.806396,-0.521729,0.413574,4.707336,-43.594357,174.667343,0.422119,0.055664,-0.326416,65.452576,249.763474,152.511597
-0.776855,-0.584473,1.047852,-63.728329,249.992355,-21.789549,0.60376,-0.375244,0.012207,5.271911,249.992355,144.226074
-0.834473,-0.582764,0.357178,10.154723,-24.085997,165.603622,0.587891,-0.376953,-0.050293,6.217956,249.992355,143.608093
-1.025635,-0.536865,0.244385,-13.687133,8.407593,139.640808,0.621582,-0.376221,-0.162598,3.967285,249.992355,140.693665
-0.774414,-0.591309,0.301758,-44.456478,81.756584,120.529167,0.684326,-0.361572,-0.225586,1.724243,249.992355,133.995056
-0.621582,-0.643311,0.357666,-48.194881,144.363403,97.648613,0.621826,-0.378174,0.033447,7.4234,246.826157,145.889282
-0.679443,-0.621338,0.410645,-54.481503,208.877548,62.164303,0.761963,-0.294434,-0.173584,-2.708435,249.992355,119.476311
-0.843262,-0.623535,0.511719,-65.864563,246.711716,36.323547,0.725098,-0.331543,-0.210449,-0.488281,249.992355,125.900261
-0.921143,-0.614014,0.595215,-76.248169,249.992355,22.315977,1.160889,-0.182373,-0.043701,40.184017,249.992355,153.762817
-0.936768,-0.630371,0.711426,-75.35553,249.992355,10.505675,1.066162,-0.074951,-0.042969,23.719786,249.992355,172.714218
-0.936523,-0.590576,0.811768,-70.487976,249.992355,-1.853943,0.917236,0.115723,-0.067139,8.232117,249.992355,166.450485
-0.931885,-0.542969,0.876709,-67.077637,249.992355,-10.253905,0.757324,0.095215,-0.016846,16.021729,249.992355,144.02771
-0.908447,-0.500488,0.945068,-71.121216,249.992355,-15.73944,1.033936,-0.123779,-0.106934,52.139278,249.992355,137.313843
-0.961182,-0.55127,0.313721,5.455017,-7.362365,156.227112,0.57251,-0.196289,0.042969,27.175901,249.992355,126.090996
-0.755615,-0.637207,1.174561,42.579647,-105.339043,13.999938,0.634521,-0.240967,0.0271,14.663695,249.992355,122.520439
-0.632813,-0.628418,1.169922,31.768797,-92.559807,-13.732909,0.720215,-0.247314,-0.027588,3.417969,249.992355,118.904106
-0.49707,-0.618408,1.192383,15.289306,-75.447083,-48.08807,0.764648,-0.261963,-0.101563,-2.334595,249.992355,117.103569
-0.509277,-0.47168,0.724365,-95.703117,-249.992355,-69.725037,0.601807,-0.068848,0.036865,30.258177,249.992355,131.965637
-0.492188,-0.556152,0.75293,-49.057003,-249.992355,-62.889095,0.046631,0.393066,-1.105957,4.28009,-80.383293,-16.983032
-0.458496,-0.513428,0.706543,-4.53186,-249.992355,-46.005245,0.117432,0.384521,-1.108887,4.562378,-79.566956,-19.721985
-0.532227,-0.394775,0.696289,27.473448,-249.992355,-26.153563,0.104736,0.391357,-1.101563,2.151489,-70.930481,-23.757933
-0.906006,-0.214355,0.841309,40.039063,-249.992355,-35.675049,0.078857,0.414795,-1.092773,-3.868103,-57.723995,-28.877256
-1.377197,-0.019287,1.04834,22.796629,-249.992355,-68.214417,0.095703,0.431152,-1.070068,-8.216858,-46.226498,-31.066893
-1.364014,0.072998,1.164063,-8.834839,-249.992355,-81.55822,0.11792,0.408936,-1.040771,-7.240295,-39.94751,-29.998777
-0.772217,0.081787,0.901367,-25.199888,-249.992355,-82.160942,0.117188,0.361328,-1.035156,-3.219604,-40.878292,-28.83148
-0.268799,0.057861,0.516113,-30.303953,-249.992355,-98.464958,0.144775,0.330811,-1.050537,-2.586365,-50.140377,-32.043457
-0.147705,0.125244,0.32251,-32.119751,-249.992355,-123.977654,0.237793,0.321289,-1.049805,-5.66864,-62.797543,-39.833069
-0.558594,-0.333252,0.732666,-129.707336,-249.992355,-78.384399,0.323975,0.331299,-1.015869,-6.484985,-67.390442,-46.676632
-0.270264,0.135742,0.228027,-27.748106,-249.992355,-141.494751,0.379639,0.289307,-0.842529,29.342649,-102.058403,-56.671139
-0.605713,0.040039,0.12915,-20.13397,-249.992355,-190.071091,0.282959,0.394531,-0.918945,0.541687,-36.155701,-49.621578
-0.906494,-0.046387,0.113525,-24.513243,-249.992355,-200.218185,0.210449,0.417725,-0.897461,4.875183,-22.216795,-46.989437
-0.977783,-0.080566,0.003418,-21.324156,-249.992355,-185.409531,0.140381,0.422119,-0.88916,7.019042,-27.633665,-44.021603
-0.803223,-0.0625,-0.173096,-12.924193,-249.732956,-166.450485,0.099609,0.410889,-0.897705,4.53186,-55.290218,-43.93005
-0.456543,-0.006592,-0.365234,-6.515502,-249.359116,-158.706665,0.057617,0.376465,-0.923096,0.160217,-94.833366,-47.302242
-0.186523,0.064209,-0.399414,3.997802,-249.992355,-146.354675,0.050781,0.324219,-0.898193,1.037598,-129.226685,-51.322933
0.030273,0.196777,-0.425293,-0.434875,-243.209824,-136.192322,0.144287,0.281494,-0.848145,8.575439,-147.033691,-53.176876
0.014648,0.297607,-0.558838,-17.433167,-187.332138,-137.382507,0.267822,0.275635,-0.824951,17.173767,-146.469116,-53.863522
-0.078125,0.233887,-0.69873,-22.567747,-145.317078,-138.664246,0.34668,0.290771,-0.818848,22.766111,-133.522034,-54.534908
-0.178711,0.199219,-0.794678,-23.689268,-111.839287,-134.33075,0.385254,0.30249,-0.838867,25.970457,-116.58477,-54.985043
-0.37085,0.112549,0.198242,-22.125242,-249.992355,-161.277756,-0.061523,0.401123,-1.088135,3.723144,-75.10376,-11.619567
-0.562744,-0.219482,0.723145,-146.080017,-249.832138,-86.34948,0.337158,0.356934,-0.965332,-3.585815,-56.541439,-49.827572
-0.306152,0.233887,-0.851807,-28.854368,-87.417595,-126.953117,-0.141357,0.395996,-1.076416,1.625061,-66.581726,-3.814697
-0.375244,-0.193359,0.563721,-121.116631,-235.801682,-105.262749,-0.102051,0.32251,-1.302002,8.300781,-13.107299,83.335869
-0.435303,-0.621094,1.226318,-7.911682,-50.529476,-75.3479,-0.121094,0.350342,-1.048096,-8.613586,-49.942013,6.385803
-0.441895,-0.628662,1.229248,-24.749754,-42.358395,-104.476921,0.3479,0.260986,-0.812012,32.859802,-94.238274,-62.438961
-0.566406,-0.606445,1.240967,-41.374203,-59.356686,-132.553101,-0.332764,0.160156,-0.929199,82.527153,86.364738,124.717705
-0.730713,-0.663086,1.250977,-58.723446,-94.78759,-132.225037,-0.330811,0.181152,-0.950684,76.73645,56.297298,128.089905
-0.84375,-0.737793,1.327637,-68.336487,-118.400566,-120.826714,-0.215576,0.185791,-0.990234,66.673279,35.079956,129.699707
-0.734375,-0.785156,1.358887,-61.393734,-131.698608,-117.752068,-0.052002,0.159912,-1.024658,60.203548,28.320311,125.946037
-0.469238,-0.180176,0.645996,-141.044617,-244.338974,-94.421379,0.063721,0.155518,-1.028076,54.191586,34.828186,112.861626
-0.720947,-0.789307,1.345459,-11.398314,-108.444206,-141.113281,0.006104,0.241211,-1.056641,38.825989,49.591061,102.004997
-0.724609,-0.739502,1.23584,5.973815,-114.471428,-140.647888,-0.128906,0.333252,-0.942871,20.904539,64.987183,99.166862
-0.711426,-0.681641,1.151855,14.114379,-124.183647,-134.910583,-0.202148,0.356445,-0.869385,11.802672,70.075989,98.69384
-0.661621,-0.58252,1.023682,11.772155,-131.416321,-133.94165,-0.240723,0.349854,-0.939453,7.263183,63.430782,92.155449
-0.635742,-0.810547,1.383057,-37.857056,-124.465935,-127.181999,-0.15625,0.370605,-1.058105,-3.227234,-57.426449,2.204895
-0.479004,-0.468506,0.717041,-20.13397,-140.975952,-148.704529,-0.248535,0.368896,-1.0354,6.202697,49.171444,85.502617
-0.493652,-0.510986,0.614746,-35.400391,-143.508911,-153.038025,-0.163574,0.37085,-1.20874,8.163452,12.886046,88.409416
-0.550293,-0.582275,0.594727,-43.106075,-149.56665,-149.459839,-0.062012,0.318848,-1.364502,4.577637,-47.416683,74.264526
-0.593994,-0.629883,0.576904,-46.07391,-162.4832,-139.160156,-0.051025,0.318848,-1.348877,2.243042,-79.76532,69.328308
-0.599365,-0.639404,0.574951,-39.558411,-181.602463,-124.519341,-0.022705,0.286865,-1.2854,3.097534,-98.304741,67.756653
-0.524902,-0.612305,0.574219,-32.875061,-202.400192,-116.416924,-0.014404,0.317627,-1.262695,-1.472473,-102.821342,62.278744
-0.437988,-0.545166,0.55542,-34.729004,-218.780502,-114.150993,-0.04248,0.382813,-1.195557,-9.57489,-96.534721,52.551266
-0.381836,-0.440674,0.545654,-46.142574,-227.287277,-115.127556,-0.075928,0.438232,-1.118164,-15.441894,-84.869377,45.227047
-0.357178,-0.332275,0.534912,-66.467285,-230.201706,-116.157524,-0.093018,0.449951,-1.082764,-18.051147,-70.144653,37.811279
-0.346191,-0.24585,0.524658,-93.330376,-231.620773,-113.662712,-0.091309,0.399902,-1.048828,-17.692566,-54.748531,24.986265
-0.562012,-0.493652,0.866699,-1.777649,-136.672974,-139.266968,-0.085938,0.351318,-1.043701,-13.626098,-47.561642,13.305663
-0.33252,0.388672,-1.037842,-4.28009,20.26367,8.338928,-0.216797,0.392334,-1.129883,7.04956,32.264709,86.402885
-0.323975,0.394287,-1.119385,-2.586365,0.572205,1.434326,0.330811,0.236572,-0.790771,35.476685,-95.832817,-71.563721
-0.328613,0.369629,-1.126221,-4.03595,-17.616272,-2.731323,-0.145264,0.152588,-0.833984,80.299377,105.255119,121.437065
-0.386719,0.327637,-1.093018,-9.300232,-34.812927,-6.54602,0.335449,0.248779,-0.705811,35.751343,-108.100883,-78.659058
-0.866211,0.253174,-0.850342,-42.976376,-36.903381,-38.917542,1.152832,-0.187012,0.209717,84.808342,-249.992355,-160.896286
-0.43042,0.278076,-1.037109,-28.221128,-61.94305,-12.855529,1.036621,-0.238037,0.173584,85.685722,-240.219101,-167.716965
-0.591309,0.247803,-0.999756,-37.094116,-61.233517,-18.890381,0.861084,-0.287109,0.131836,79.719543,-213.600143,-176.376328
-0.780029,0.235352,-0.915771,-41.66412,-52.658077,-31.471251,0.775146,-0.314453,0.124756,66.734314,-197.593674,-179.664597
-0.407715,0.293701,-1.059814,-17.372131,-50.895687,-11.131286,0.815918,-0.315918,0.15918,54.275509,-191.413864,-177.894577
-0.349121,0.35376,-0.935059,-2.6474,41.91589,14.022826,0.844727,-0.354736,0.213379,48.416134,-202.117905,-174.293503
-0.798584,0.343506,-0.910156,40.267941,72.547913,13.160705,0.824463,-0.46167,0.272705,49.499508,-226.348862,-167.045578
-0.376465,0.363281,-0.956055,3.822326,53.207394,32.577515,0.817139,-0.544189,0.318359,51.284786,-235.664352,-162.467941
-0.366455,0.398682,-0.992676,2.799988,44.013973,36.621094,0.986084,-0.521484,0.335449,46.546932,-214.805588,-166.00798
-0.419678,0.377197,-0.976074,2.876281,36.29303,35.797119,1.086182,-0.458496,0.321289,36.705017,-167.221054,-172.027573
-0.494385,0.361572,-0.958496,6.286621,32.112122,32.012939,1.110352,-0.145752,0.217285,83.770744,-249.992355,-162.834152
-0.56958,0.353271,-0.935547,12.031554,37.384033,31.219481,1.056152,-0.401855,0.286865,23.841856,-109.901421,-177.314743
-0.541992,0.353516,-0.931396,18.928528,46.524044,30.021666,0.953613,-0.321777,0.356445,-9.94873,-34.614563,-188.056931
-0.51709,0.342041,-0.954102,27.229307,50.796505,23.590086,0.950684,-0.353516,0.365479,-20.03479,-28.106688,-198.173508
-0.571289,0.321045,-0.974365,33.462524,51.048275,20.187376,0.978516,-0.408691,0.357422,-25.344847,-28.495787,-194.519028
-0.649414,0.312988,-0.957031,37.437439,55.541988,19.973755,1.012207,-0.445068,0.379639,-28.190611,-14.930724,-177.551254
-0.73584,0.31665,-0.904785,41.389462,63.049313,16.372681,1.076416,-0.457031,0.394287,-31.509398,20.538328,-172.088608
-0.841309,0.284424,-0.826904,-44.486996,-15.655517,-36.857605,1.124756,-0.462891,0.346924,-42.114254,56.053158,-175.567612
-0.384766,0.349121,-0.895752,2.403259,56.816097,22.926329,1.019043,-0.457764,0.277588,-58.853146,72.555542,-174.262985
-0.753418,0.319336,-0.837402,-48.835751,5.706787,-35.171509,0.932861,-0.473389,0.268066,-73.379517,63.110348,-166.618332
-0.341797,0.186035,-0.755859,-20.790098,-131.790161,-186.019882,0.931641,-0.533936,0.270508,-77.507019,42.106625,-161.705002
-0.438477,0.357178,-0.872803,-48.324581,17.01355,-47.485348,0.962646,-0.598145,0.260986,-72.807312,30.906675,-162.841782
-0.762695,0.369873,-0.900879,34.324646,82.527153,8.926392,0.993164,-0.348389,0.309082,7.331848,-61.836239,-180.618271
-1.391846,-0.523682,0.482666,56.182858,-249.351486,-175.895676,0.94165,-0.144043,0.204834,87.135307,-249.740585,-163.635239
-1.915283,-0.414795,0.455566,48.606869,-249.992355,-191.520676,0.325439,0.234619,-0.751221,36.636353,-102.798454,-78.582764
-1.938721,-0.361572,0.462158,33.370972,-249.992355,-212.814316,0.606689,-0.196045,0.161865,84.991447,-242.820724,-154.518127
-1.322021,-0.279297,0.282959,41.954037,-249.992355,-217.742905,0.719482,-0.188965,0.16748,90.621941,-249.992355,-158.882141
-0.585449,0.015381,-0.041016,32.264709,-249.992355,-212.303146,0.334717,0.274902,-0.68042,32.38678,-105.926506,-77.049255
-0.32666,0.205566,-0.202881,-2.250671,-249.992355,-201.988205,0.356201,0.308105,-0.632813,27.008055,-101.020805,-79.833984
-0.302979,0.162109,-0.332275,-29.067991,-249.961838,-187.385544,0.41626,0.324951,-0.558594,21.575926,-106.63604,-84.030144
-0.238525,0.072998,-0.427979,-33.760071,-249.496445,-172.538742,0.397949,0.290527,-0.490234,21.919249,-125.144951,-82.420341
-0.160889,0.017578,-0.429688,-21.881102,-249.992355,-165.534958,0.332031,0.217529,-0.439941,30.982969,-144.645691,-74.60022
-0.608887,0.338867,-0.863037,-50.97961,18.081665,-39.131165,0.359375,0.136963,-0.42749,43.098446,-153.518677,-70.274353
-0.124023,0.097412,-0.44873,-8.476257,-249.992355,-169.586166,0.568604,0.112061,-0.444824,66.314697,-141.517639,-90.354912
-0.154053,0.242432,-0.615723,-4.966736,-173.545822,-192.840561,0.664551,0.185547,-0.410645,66.688538,-139.907837,-96.67968
-0.563721,0.089844,-0.907959,-38.665771,-96.611015,-168.502792,0.6875,0.270996,-0.384033,56.518551,-145.561218,-99.845879
-0.68042,-0.025391,-0.967529,-34.919739,-69.297791,-158.729553,0.626465,0.315918,-0.323242,47.340389,-148.788452,-101.730339
-0.867188,-0.044434,-0.940186,-13.519286,-45.135494,-164.268478,0.466797,0.0896,-0.446777,55.305477,-149.520874,-78.521729
-1.069824,-0.020752,-0.952393,-7.072448,-26.992796,-164.00145,0.482422,0.177979,-0.199951,48.133846,-164.436325,-99.388115
-1.080322,0.032715,-0.958984,-11.497497,-22.483824,-154.273987,0.460205,0.07373,-0.178223,55.27496,-183.494553,-103.530876
-0.928711,0.078125,-0.951172,-16.014099,-27.053831,-135.620117,0.499756,0.023926,-0.132813,65.536499,-212.181076,-108.551018
-0.713135,0.18457,-0.97168,-22.193907,-22.689817,-106.0028,0.70166,-0.12793,0.138916,72.227478,-231.132492,-149.475098
-0.44458,0.295166,-0.937744,-30.822752,-10.665893,-77.11792,0.56665,0.032959,-0.091797,74.005127,-240.203842,-110.931389
-0.355469,0.352051,-0.879395,-40.924068,5.66864,-58.311459,0.714844,0.08252,-0.074219,75.683594,-249.93895,-110.321037
-0.141357,0.196045,-0.501709,-0.259399,-219.039902,-182.52562,0.833008,0.128662,-0.028564,70.091248,-249.862656,-111.770622
-0.71167,0.364746,-0.869141,27.755735,95.031731,12.939452,0.834961,0.123535,0.004395,61.958309,-249.992355,-119.056694
-1.031982,-0.662354,0.55127,24.559019,-230.880722,-192.825302,0.83374,0.067627,0.015869,58.525082,-248.466476,-131.141663
-0.490234,0.339844,-0.843994,27.885435,125.984184,25.451658,0.814453,-0.026367,0.074463,62.263485,-235.771164,-142.044067
-0.587646,0.205566,0.19751,84.793083,233.207687,45.585629,0.584961,0.277344,-0.262451,45.158382,-154.258728,-100.58593
-0.741699,0.171631,0.258545,91.865532,233.108505,43.617245,0.267578,-0.97168,-0.112061,-142.318726,6.530761,-14.053344
-0.858643,0.178223,0.314453,94.352715,218.025192,45.089718,0.32373,-0.939453,-0.146729,-135.261536,0.648498,-27.015684
-0.913086,0.187988,0.374756,93.315117,192.321762,51.948544,0.363037,-0.906006,-0.163818,-124.389641,-0.511169,-37.124634
-0.856689,0.2146,0.404541,86.318962,164.131149,65.437317,0.319092,-0.864014,-0.138184,-75.157166,49.179073,-74.829102
-0.746338,0.204834,0.356934,78.605652,145.332336,85.891716,0.333984,-0.874512,-0.117432,-101.226799,11.894225,-46.752926
-0.648682,0.138916,0.311035,76.286316,143.676758,105.323784,0.35791,-0.876709,-0.135742,-92.887871,22.087095,-55.603024
-0.621338,0.044678,0.346924,82.046501,155.288696,115.608208,0.333008,-0.849609,-0.142334,-83.854668,39.825439,-61.721798
-0.655518,-0.052734,0.410645,94.375603,166.557297,117.462151,0.222168,-0.977539,-0.062256,-144.943237,16.349792,-3.967285
-0.76001,-0.105469,0.443115,105.262749,166.954025,116.432182,0.344727,-0.884033,-0.146484,-112.220757,5.241394,-41.564938
-0.578369,0.259277,0.101318,78.773499,221.900925,49.461361,0.25708,-0.980225,-0.026367,-146.728516,27.755735,0.640869
-0.858887,-0.135742,0.461914,110.740654,155.128479,119.1101,-0.169434,-1.327881,-0.260498,20.63751,153.129578,-16.548157
-0.858643,-0.155273,0.449707,101.608269,121.12426,137.153625,0.334717,-0.963379,0.043213,-154.11377,52.543636,3.845215
-0.756836,-0.234619,0.367676,95.748894,120.124809,144.477844,0.29541,-0.953857,0.084229,-156.570435,65.055847,5.462646
-0.63623,-0.283936,0.45459,95.237724,129.455566,150.878906,0.265625,-0.970703,0.106201,-154.556274,70.838928,11.383056
-0.637939,-0.302246,0.54834,97.68676,143.135071,154.685974,0.227539,-1.014893,0.12207,-146.133423,72.769165,16.807556
-0.744385,-0.292725,0.585938,98.220818,152.511597,154.098511,0.229248,-1.075439,0.119873,-132.125854,79.963684,9.69696
-0.883301,-0.230469,0.586426,89.408867,141.944885,150.939941,0.305908,-1.124268,0.088623,-114.654533,100.280754,-10.69641
-1.118896,-0.243652,0.558594,68.954468,106.567375,155.532837,0.391846,-1.155273,0.050049,-95.718376,135.574341,-33.866882
-1.219238,-0.34375,0.582031,52.37579,50.254818,171.989426,0.433105,-1.206299,0.000732,-74.996948,175.697311,-57.632442
-1.066162,-0.390137,0.67627,51.200863,7.705688,185.211166,0.346191,-1.258301,-0.080566,-50.689693,202.56041,-76.942444
-0.903076,-0.402832,0.672119,61.813351,2.128601,186.462387,0.132324,-1.28833,-0.173828,-20.469664,195.75499,-68.321228
-0.897949,-0.146729,0.489014,109.924309,136.489868,127.41851,0.339111,-0.904297,-0.166016,-72.944641,50.415035,-89.759819
-0.688232,0.274658,0.038574,76.080322,208.374008,47.5769,0.33252,-0.976563,-0.010254,-150.283813,39.001465,3.097534
-0.597656,0.361816,-0.855469,24.826048,112.724297,21.583555,0.41333,-0.873047,-0.214355,-76.057434,45.44067,-100.173943
-0.801758,0.296875,0.010498,73.944092,183.723434,37.689209,0.541016,-0.719238,-0.361084,-61.714169,-45.410152,-138.1073
-0.495361,0.314209,-0.83252,34.721375,134.056091,28.182981,0.525146,-0.890869,-0.227539,-59.860226,30.84564,-110.595695
-0.582764,0.324219,-0.786133,44.174191,137.313843,27.557371,0.658203,-0.593994,-0.410156,-27.618406,-68.962097,-196.037277
-0.713379,0.339844,-0.680176,53.482052,134.681702,22.377012,-0.302002,-1.339355,-0.289795,68.817139,94.108574,40.176388
-0.867432,0.37085,-0.629883,55.847164,130.04303,16.616821,0.593506,-0.578369,-0.359131,-28.144835,-61.271664,-191.329941
-0.920654,0.408447,-0.647949,51.597591,129.386902,14.450072,0.568604,-0.601318,-0.349854,-32.188416,-59.410091,-189.720139
-0.886475,0.41626,-0.675537,48.255917,132.484436,19.264221,0.570557,-0.631836,-0.345947,-36.109924,-55.870052,-189.407333
-0.797119,0.296387,0.027344,73.486328,196.456894,41.90826,0.588867,-0.656006,-0.358887,-40.161129,-48.934933,-187.622055
-0.681885,0.360596,-0.662842,57.174679,120.330803,31.845091,0.633545,-0.665039,-0.373535,-44.944759,-39.283752,-184.768661
-0.647461,0.339355,-0.629883,63.2019,111.076347,33.683777,0.687988,-0.658936,-0.372314,-50.849911,-31.501768,-182.571396
-0.678711,0.323486,-0.578613,69.236755,109.725945,33.638,0.686523,-0.641113,-0.351074,-54.908749,-26.779173,-179.611191
-0.716553,0.315674,-0.534912,70.465088,117.424004,33.432007,0.622803,-0.618896,-0.297852,-55.984493,-21.865843,-173.126205
-0.769287,0.390137,-0.671631,51.460262,129.333496,26.222227,0.572998,-0.606201,-0.260742,-55.503841,-19.615173,-162.094101
-0.697266,0.349121,-0.480469,63.606258,150.360107,27.473448,0.544678,-0.624023,-0.25708,-53.863522,-24.078367,-152.702332
-0.718018,0.377686,-0.477539,56.594845,165.168747,24.314878,0.534668,-0.655029,-0.273193,-54.367062,-35.972595,-148.773193
-0.763184,0.370117,-0.436035,51.033016,171.42485,22.499083,0.526123,-0.683105,-0.307861,-58.853146,-45.166012,-144.233704
-0.842529,0.360596,-0.389404,48.08807,172.714218,23.757933,0.614014,-0.735107,-0.381592,-65.299988,-41.313168,-133.110046
-0.895996,0.346924,-0.343018,47.485348,167.221054,25.611876,0.63623,-0.748291,-0.374268,-73.051453,-31.295774,-126.960747
-0.909912,0.303467,-0.25708,52.406307,156.181335,26.107786,0.592529,-0.788818,-0.325928,-77.659607,-14.785766,-118.186943
-0.947266,0.255127,-0.179688,60.56213,148.18573,31.22711,0.563965,-0.827393,-0.239014,-71.998596,2.967834,-111.106865
-0.921387,0.236084,-0.166016,69.152832,149.856567,38.063049,0.585938,-0.825195,-0.153564,-61.233517,16.342163,-109.924309
-0.813232,0.249756,-0.146973,75.912476,158.554077,40.107727,0.60498,-0.82373,-0.131348,-55.236813,23.681639,-111.473076
-0.754639,0.282471,-0.058105,76.759338,170.242294,37.590027,0.604492,-0.860352,-0.114746,-53.939816,26.30615,-111.968987
-0.705078,0.320801,-0.50293,67.840576,131.797791,31.806944,0.562988,-0.905029,-0.130615,-53.970333,27.664183,-114.936821
-0.721436,-0.865967,0.340332,11.764525,-48.515316,158.309937,0.534424,-0.911865,-0.184082,-54.092403,28.785704,-117.195122
-0.680664,-0.827393,0.349609,11.558532,-54.77142,164.596542,0.487793,-0.856934,-0.250732,-70.930481,36.949158,-104.637138
-0.682617,-0.781738,0.364258,11.276244,-57.861324,169.021591,0.62793,-0.586914,-0.377197,-26.382444,-63.568111,-194.48851
-0.723877,-0.738281,0.351807,11.985778,-57.312008,172.805771,-0.217773,-1.310791,-0.264648,112.007133,39.085388,71.739197
-0.881104,-0.594482,0.262939,59.700008,-20.065308,176.963791,-0.009277,-1.289307,-0.473877,163.597092,-19.40918,88.546745
-0.832275,-0.660156,0.289795,22.636412,-45.242306,179.801926,0.074951,-0.600098,-0.38208,130.485535,234.199509,170.028671
-0.867188,-0.646484,0.265137,34.820557,-36.422729,179.679855,-0.258545,-0.461914,-0.323242,138.511658,170.494064,217.720016
-0.886475,-0.624512,0.258789,47.95837,-28.030394,177.848801,-0.430664,-0.340332,-0.294678,138.282776,76.141357,248.245224
-0.777588,-0.695557,0.316895,14.770507,-53.276058,177.215561,-0.308594,-0.329102,-0.276855,124.183647,-35.118103,249.992355
-0.74292,-0.887207,0.289307,9.597778,-41.000362,150.505066,0.178223,-0.393799,-0.253174,122.161858,-125.083916,249.076828
-0.500244,-0.878174,0.351318,-94.764702,-58.509823,57.838436,0.811768,-0.617676,-0.194336,153.007507,-135.673523,213.081345
-0.689941,-0.833252,0.255127,-3.257751,-34.225464,131.607056,1.247314,-0.900635,-0.119873,221.862778,-61.889645,186.492905
-0.653564,-0.773926,0.281738,-13.534545,-32.722473,121.803276,1.466064,-0.58667,-0.224121,249.992355,46.058651,180.915817
-0.608154,-0.729004,0.302734,-26.641844,-31.288145,109.176628,1.33667,-0.130615,-0.392334,248.840317,121.368401,192.184433
-0.560791,-0.738281,0.311279,-35.774231,-30.120848,94.482414,0.536865,0.118652,-0.479736,197.944626,102.752678,199.485764
-0.531738,-0.782227,0.318115,-37.887573,-27.359007,78.918457,0.450928,-0.742676,-0.46875,131.996155,249.992355,159.576416
-0.5271,-0.797852,0.334229,-40.344234,-25.726316,66.513062,0.311279,0.276855,-0.377197,149.848938,65.39917,189.880356
-0.531494,-0.772461,0.342285,-49.888607,-26.962278,60.287472,0.384033,0.184326,-0.336914,91.056816,60.699459,187.660202
-0.534668,-0.748535,0.328613,-63.156124,-30.876158,57.441708,0.508545,0.022705,-0.371094,104.843132,85.647575,186.309799
-0.51001,-0.748779,0.305176,-76.019287,-37.086487,55.39703,0.539307,-0.071533,-0.455566,120.216362,108.070366,181.823715
-0.490479,-0.795898,0.309814,-87.837212,-47.111507,55.847164,0.522705,-0.039551,-0.610107,121.650688,122.810356,166.023239
-0.858154,-0.558838,0.266602,69.55719,-14.389037,178.421005,0.517578,0.02417,-0.784424,117.34008,124.389641,149.055481
-0.727539,-0.873291,0.254639,4.394531,-35.636902,140.960693,0.411133,0.064453,-0.883545,110.618584,114.471428,137.184143
-0.846924,-0.527832,0.264648,80.368034,-11.367797,180.442795,0.188232,0.087891,-0.893555,98.426811,102.836601,125.068657
-0.85083,-0.459717,0.185059,170.150742,27.709959,155.61676,0.030762,0.10498,-0.807129,86.296074,101.226799,119.247429
-0.808838,-0.485107,0.267334,97.221367,-16.616821,183.052048,0.025879,0.131104,-0.768311,78.063965,105.003349,118.026726
-0.500977,-0.96582,0.392334,-96.374504,-70.831299,59.42535,-0.108643,-1.305908,-0.378662,144.371033,0.648498,85.433952
-0.894531,-0.255371,0.221191,133.789063,34.156799,46.775814,0.314209,0.273682,-0.327148,103.98864,46.936031,187.370285
-0.821289,-0.221191,0.228271,139.24408,20.339964,68.824768,0.639893,-0.863525,-0.411621,141.273499,236.602768,182.006821
-0.843506,-0.185791,0.206299,140.556335,27.084349,84.45739,0.950928,-0.033203,-0.466064,226.684555,132.18689,202.507004
-0.809814,-0.172363,0.157227,139.289856,42.4118,91.50695,0.354736,-0.908447,-0.284424,139.938354,144.073486,215.103134
-0.6875,-0.211426,0.112061,141.136169,49.507137,95.817558,0.562744,-0.931641,-0.330811,144.897461,189.460739,208.282455
-0.623779,-0.274658,0.094971,147.460938,49.629208,101.379387,0.128174,-1.328613,-0.575195,187.43895,-23.658751,87.570183
-0.643799,-0.337158,0.109131,155.479431,45.654293,107.971184,0.153564,-1.366455,-0.585693,197.090134,-17.669678,90.843193
-0.699463,-0.383301,0.135498,162.055954,40.176388,116.020195,0.147461,-1.362793,-0.585205,202.690109,-11.116027,95.375053
-0.786377,-0.415771,0.160645,165.054306,37.42218,127.632133,0.150391,-1.331299,-0.59082,200.088486,-2.067566,94.581596
-0.833252,-0.515381,0.252686,89.828484,-12.916564,182.151779,0.15918,-1.308594,-0.540283,197.50975,12.184142,94.28405
-0.851318,-0.426758,0.185303,164.916977,37.55188,139.053345,0.180176,-1.290039,-0.468994,200.210556,30.517576,99.159233
-0.851563,-0.456299,0.187988,169.387802,32.829285,149.612427,0.242676,-1.306152,-0.445313,205.230698,51.643368,106.178276
-0.862061,-0.454346,0.167236,165.451035,25.512693,164.733871,0.308594,-1.342041,-0.459473,209.129318,77.003479,111.869804
-0.885986,-0.446289,0.170166,157.951355,25.894163,172.82103,0.325928,-1.368652,-0.456543,210.594162,105.140678,115.859978
-0.906494,-0.431641,0.207031,149.688721,25.016783,177.513107,0.296387,-1.33374,-0.415039,207.47374,129.699707,119.964592
-0.944092,-0.438232,0.22168,142.13562,23.612974,179.656967,0.077637,-1.298096,-0.541748,176.84935,-25.894163,87.646477
-0.966553,-0.453857,0.227295,135.635376,20.072937,181.716904,0.282959,-1.186279,-0.273926,192.146286,163.36821,131.584167
-0.928955,-0.467041,0.252686,129.333496,8.392334,183.914169,0.262695,-1.263672,-0.368896,199.951157,149.139404,125.373833
-0.921875,-0.470215,0.273926,123.420708,-4.318237,184.448227,0.030273,-0.800293,-0.122559,153.839111,132.965088,191.703781
-0.936523,-0.459961,0.299561,116.569511,-10.82611,185.119614,-0.00415,-0.841797,-0.042725,163.902267,153.541565,174.194321
-0.869385,-0.453369,0.297852,106.933586,-15.449523,184.806808,0.066406,-0.921875,0.002197,171.203598,174.530014,157.051086
-0.863037,-0.439941,0.189453,166.069016,36.5448,145.950317,0.184326,-1.003418,0.013672,174.819931,189.430222,143.600464
-0.490967,-1.044189,0.398682,-94.650261,-82.992546,56.259151,0.164795,-0.833008,-0.213623,141.578674,125.457756,205.32988
-1.019287,-0.255615,0.199219,125.328056,58.189388,26.603697,0.353271,-1.058838,-0.044678,174.392685,190.277084,132.286072
-0.469971,-1.042725,0.445313,-93.772881,-97.831718,63.33923,0.368408,-1.084961,-0.093018,179.054245,181.526169,134.399414
-0.767578,-1.153809,0.52002,-104.728691,-186.943039,-154.098511,0.342285,-1.122803,-0.158691,185.607895,173.019394,135.742188
-0.867676,-1.148682,0.470459,-91.041557,-232.658371,-139.74762,0.292236,-1.042236,0.00293,174.003586,194.900497,134.780884
-0.956787,-1.162354,0.37085,-77.728271,-249.992355,-121.032707,0.347412,0.456543,-1.293701,-5.050659,23.178099,-21.759031
-0.95459,-1.135498,0.390137,-62.660213,-249.992355,-101.837151,0.341553,0.388184,-1.420898,-1.88446,-67.863464,-41.496273
-0.797852,-1.026123,0.539307,-41.320797,-249.992355,-83.290092,0.31958,0.399658,-1.468018,-1.220703,-44.68536,-39.581299
-0.573242,-0.899658,0.673584,-15.419005,-249.992355,-65.414429,0.257568,0.464111,-1.463135,-3.768921,-23.452757,-35.675049
-0.380127,-0.805664,0.681152,9.223938,-249.992355,-54.626461,0.227783,0.48291,-1.407471,-6.019592,-4.432678,-33.798218
-0.23877,-0.719238,0.632324,24.574278,-249.992355,-54.290768,0.229736,0.477783,-1.362305,-2.723694,10.108947,-38.475037
-0.17627,-0.640869,0.571777,32.722473,-249.992355,-55.435177,0.231201,0.497803,-1.350586,1.617432,14.755248,-39.787292
-0.19165,-0.602783,0.481689,31.85272,-249.992355,-61.744686,0.345703,0.393311,-1.39209,-6.782531,-85.311882,-47.264095
-0.678223,-1.195068,0.504639,-121.24633,-159.469604,-163.078293,0.271729,0.512207,-1.361084,0.869751,16.288757,-33.561707
-0.259521,-0.585938,0.367676,23.490904,-249.992355,-76.072693,0.319092,0.494141,-1.347412,-4.516602,21.278379,-24.749754
-0.404297,-0.51709,0.213379,-18.974304,-249.542221,-114.624016,0.330811,0.477295,-1.251709,1.205444,10.719298,-28.07617
-0.318604,-0.500977,0.105469,-54.229733,-249.992355,-143.745422,0.362793,0.567871,-1.10083,14.915465,-86.677544,-27.786253
-0.196533,-0.458984,-0.018311,-95.237724,-242.446884,-188.644394,0.286865,0.498779,-1.112549,14.274596,-33.782959,-29.792784
-0.173584,-0.342529,-0.02417,-134.391785,-189.07164,-236.526474,0.304443,0.510498,-1.083496,16.88385,-54.153439,-29.861448
-0.21582,-0.214844,0.083496,-166.862473,-142.967224,-249.954208,0.382813,0.530273,-1.093506,17.753601,-74.249268,-29.640196
-0.417969,-0.17627,0.314941,-184.112534,-128.456116,-249.717697,0.313965,0.523193,-1.081787,10.82611,-99.639885,-30.09033
-0.77124,-0.210693,0.470947,-176.803574,-137.016296,-249.992355,0.316162,0.474854,-1.066162,6.935119,-107.13958,-35.369873
-1.016846,-0.278809,0.521973,-161.674484,-153.450012,-249.580368,0.339355,0.434814,-1.066406,5.569458,-108.009331,-42.884823
-1.149658,-0.467285,0.547607,-123.39019,-175.376877,-231.361374,0.414551,0.403076,-1.02832,9.857178,-105.064384,-50.2243
-1.068604,-0.673584,0.536133,-51.597591,-198.844894,-217.346176,0.499512,0.400635,-0.992188,16.906738,-97.290031,-55.831905
-0.358154,-0.565674,0.275879,7.469177,-249.732956,-94.398491,0.513184,0.414551,-0.979248,22.888182,-88.584892,-58.67004
-0.670166,-1.27417,0.432617,-142.921448,-150.230408,-172.18779,0.358643,0.404297,-1.331543,-12.382506,-89.828484,-55.130001
-0.493408,-1.069824,0.415527,-91.979973,-90.209953,55.625912,0.291504,0.502197,-1.185059,8.766174,-12.649535,-33.226013
-0.977783,-1.404297,0.250977,-186.622604,-122.314445,-200.210556,0.324219,0.326416,-1.189697,-16.792297,-80.917351,-63.163754
-0.388916,-1.053467,0.440918,-96.275322,-108.734123,69.984436,0.422852,0.401611,-0.989258,25.032042,-84.96093,-61.859127
-0.325439,-1.090088,0.4104,-96.687309,-119.598381,71.685791,0.42627,0.366211,-1.196777,-32.089233,-86.47155,-72.547913
-0.284668,-1.127197,0.381104,-97.671501,-127.693169,70.533752,-0.236084,0.459717,-0.552734,25.268553,-55.122372,54.191586
-0.267334,-1.164307,0.349365,-101.806633,-131.217957,65.071106,-0.187256,0.507813,-0.475098,-8.842468,-55.412289,29.693602
-0.262207,-1.203125,0.354736,-105.796806,-133.583069,56.335445,-0.18042,0.519043,-0.453369,-27.130125,-33.355713,24.345396
-0.259277,-1.217529,0.37207,-107.070915,-134.887695,43.876644,-0.193115,0.488525,-0.398193,-33.439636,-11.054992,17.379761
-0.805664,-1.359863,0.317627,-167.304977,-141.204834,-185.821518,-0.145996,0.499268,-0.363525,-39.649963,6.126403,10.627746
-0.321777,-1.17627,0.294678,-121.704094,-129.196167,7.278442,-0.100586,0.457031,-0.409912,-50.109859,20.256041,3.585815
-0.294678,-1.125732,0.258301,-137.611389,-114.471428,-14.10675,-0.057617,0.401611,-0.461914,-60.798641,26.290892,0.350952
-0.226318,-1.07251,0.278809,-150.642395,-91.217033,-40.534969,-0.035889,0.341797,-0.53833,-75.035095,23.910521,-1.89209
-0.224854,-1.029053,0.361572,-156.669617,-59.715267,-71.212769,0.013672,0.273926,-0.516113,-82.595818,23.971556,-2.26593
-0.297119,-1.206055,0.342285,-110.755913,-134.315491,26.832579,0.102295,0.299072,-0.599609,-81.130974,34.713745,-2.006531
-0.378662,-1.135742,0.276367,-181.297287,6.057739,-133.163452,0.433594,0.319092,-1.193359,-24.971006,-78.804016,-72.715759
-0.352295,-1.246826,0.28833,-190.048203,27.839659,-171.623215,0.251465,0.333984,-0.727783,-78.659058,50.125118,-4.585266
-0.38623,-1.33374,0.289063,-188.629135,51.49078,-198.493942,0.335693,0.377197,-0.739258,-76.698303,68.069458,-3.608703
-0.476563,-1.335938,0.263428,-182.807907,69.519043,-218.833908,0.299561,0.391602,-0.76416,-76.10321,59.288021,-1.785278
-0.654053,-1.30835,0.189941,-186.843857,75.500488,-231.925949,0.295654,0.395752,-0.831543,-75.698853,46.630856,-6.332397
-0.795166,-1.330566,0.121826,-197.181686,65.231323,-235.404953,0.337402,0.396973,-0.951904,-72.113037,32.806396,-17.14325
-0.88916,-1.357666,0.115723,-200.500473,42.556759,-229.080185,0.353027,0.389893,-1.076172,-65.414429,13.84735,-29.197691
-0.990234,-1.369629,0.124756,-199.218735,7.904052,-220.375046,0.291748,0.384033,-1.114258,-53.550716,-16.029358,-39.230347
-1.072998,-1.370117,0.208008,-197.410568,-39.527893,-213.256821,0.243408,0.385986,-1.122314,-42.060848,-48.202511,-50.132748
-1.077637,-1.386963,0.244141,-196.548447,-87.98217,-208.641037,0.250488,0.394043,-1.125,-39.283752,-60.317989,-56.350704
-0.331055,-1.038086,0.335449,-166.160568,-21.728514,-99.647514,0.220459,0.406738,-1.12793,-39.215088,-59.761044,-51.681515
-0.864746,0.87085,-0.733154,-36.743164,83.95385,55.236813,0.232178,0.401855,-1.148926,-35.865784,-74.615479,-55.816647
-1.10498,0.855225,-0.76001,-32.13501,80.101013,55.938717,0.33667,0.355957,-0.7229,-77.842712,64.27002,-5.714416
-1.246826,0.789551,-0.776855,-26.336668,77.209473,47.767635,0.334473,0.390137,-0.999512,24.482725,-86.074821,-66.421509
-1.253174,0.699219,-0.758057,-25.115965,55.328365,33.279419,-0.24707,0.444824,-0.486084,9.269714,-62.026974,37.796021
-0.491699,0.62793,-0.592285,-35.331726,-63.110348,-9.567261,0.322754,0.38916,-0.987305,22.369383,-91.972343,-71.350098
-0.966553,0.778809,-0.605225,-34.194946,-9.651184,7.186889,0.615967,-0.195557,-0.628662,-30.815123,-33.561707,-121.299736
-0.738525,0.746582,-0.588379,-31.997679,-35.148621,-3.410339,0.591064,-0.196533,-0.579834,-29.45709,-50.674435,-128.341675
-0.569824,0.668701,-0.594482,-32.25708,-52.963253,-9.040833,0.611328,-0.20459,-0.561523,-29.312132,-68.862915,-134.567261
-1.145752,0.737305,-0.661377,-31.173704,21.072386,19.630432,0.602295,-0.253174,-0.545654,-27.435301,-79.25415,-139.053345
-0.73877,0.859863,-0.702148,-39.779663,105.102531,58.883663,0.592285,-0.31958,-0.512207,-24.307249,-77.262878,-144.241333
-0.988037,0.776611,-0.78833,-10.627746,23.132322,31.486509,0.607178,-0.359619,-0.521484,-22.514341,-63.316341,-148.124695
-1.106689,0.886963,-0.851563,-15.167235,103.393547,76.782227,0.64917,-0.35376,-0.541748,-24.124144,-45.501705,-148.872375
-0.938965,0.930664,-0.969727,-30.082701,63.163754,67.619324,0.616943,-0.333984,-0.560791,-26.290892,-31.120298,-147.613525
-0.875488,0.865967,-0.975098,-43.739315,34.118652,59.402462,0.526611,-0.311768,-0.54541,-28.289793,-24.734495,-148.010254
-0.822266,0.836426,-0.966553,-47.46246,22.933958,48.889156,0.47583,-0.308105,-0.470459,-30.693052,-25.581358,-152.496338
-0.795898,0.82373,-0.924561,-48.751827,27.19116,38.360596,0.680664,-0.208008,-0.611328,-31.158445,-26.870726,-118.064873
-0.889648,0.773438,-0.883301,-49.232479,25.154112,33.256531,0.494873,-0.324219,-0.410889,-34.378052,-30.494688,-159.080505
-0.970459,0.733154,-0.843506,-45.738216,0.686645,26.908873,0.570068,-0.378174,-0.417236,-39.680481,-50.209042,-168.479904
-0.950195,0.786133,-0.831787,-44.647213,-20.51544,23.368834,0.570313,-0.404541,-0.402588,-39.970398,-61.44714,-171.30278
-0.883545,0.76001,-0.80957,-39.810181,-13.252257,26.123045,0.560059,-0.436279,-0.376953,-39.741516,-72.7005,-172.668442
-0.916504,0.734375,-0.780518,-24.276731,7.972717,29.701231,0.557861,-0.469238,-0.353271,-39.161682,-83.412163,-173.454269
-0.487061,0.623779,-0.60083,-26.466368,-66.322327,-14.205932,0.571045,-0.516846,-0.350586,-35.469055,-95.024101,-174.064621
-0.944336,0.796875,-0.75415,-27.427671,120.979301,71.846008,0.566162,-0.546875,-0.344238,-29.991148,-103.240959,-175.483688
-0.58374,0.54126,-0.628418,-9.819031,-64.033508,-22.27783,0.574219,-0.580322,-0.367676,-26.94702,-103.286736,-179.138168
0.17041,0.407471,-0.077393,3.738403,-136.46698,-36.247253,0.630859,-0.600586,-0.414307,-25.695799,-96.54998,-184.577927
-0.63623,0.437744,-0.664795,23.53668,-56.335445,-31.387327,0.692383,-0.607666,-0.429199,-26.100157,-87.303154,-189.987167
-1.000244,0.735352,-0.787842,-4.905701,30.227659,33.424377,0.690674,-0.604004,-0.428711,-27.313231,-77.568054,-194.061264
-1.039307,0.32373,-0.104736,14.640807,-216.361984,-149.169922,0.549072,-0.348877,-0.4104,-37.963867,-39.207458,-164.810165
-0.955811,0.351074,-0.216553,9.689331,-215.309128,-150.382996,0.692871,-0.230713,-0.56665,-29.853819,-38.078308,-121.681206
-0.93335,0.351074,-0.338135,0.778198,-214.591965,-153.785706,0.306641,0.384766,-0.991943,23.460386,-88.340752,-69.320679
-0.949951,0.338135,-0.423584,-9.605408,-221.70256,-151.329041,0.666748,-0.248779,-0.719238,-34.545898,-84.899895,-141.815186
-0.915283,0.338867,-0.539063,-17.204285,-243.156418,-142.562866,0.654785,-0.262207,-0.625732,-29.991148,-61.622616,-130.592346
-0.908936,0.353516,-0.580322,-20.248411,-249.992355,-131.263733,0.407959,0.35083,-0.915527,23.170469,-92.64373,-78.475952
-0.89502,0.343506,-0.5271,-17.959595,-249.992355,-118.820183,0.39502,0.337646,-0.883789,25.238035,-87.844841,-84.991447
-0.892578,0.33374,-0.432861,-12.779235,-249.694809,-103.965752,0.408936,0.309814,-0.835693,30.204771,-82.023613,-101.043694
-0.722656,0.347168,-0.358887,-10.414123,-249.816879,-90.270988,0.415039,0.299805,-0.816162,35.179138,-75.942993,-111.572258
-0.634277,0.484863,-0.648438,7.751464,-62.141415,-27.992247,0.316406,0.30835,-0.752686,37.490845,-67.115784,-108.13903
-0.388428,0.391602,-0.274902,-13.290404,-249.992355,-81.130974,0.262207,0.249756,-0.706055,37.437439,-65.887451,-111.778252
0.111084,0.419922,-0.094238,-6.67572,-192.069992,-53.184505,0.296875,0.181396,-0.763672,38.146973,-79.063416,-127.120964
0.097412,0.426025,-0.127686,2.990722,-76.591492,-29.724119,0.34375,0.214844,-0.800049,40.611263,-97.404472,-136.955261
-0.005859,0.403564,-0.220215,-4.920959,-22.552488,-30.670164,0.368896,0.294434,-0.781982,38.993835,-103.782646,-138.076782
0.015137,0.358887,-0.355225,-6.408691,3.105163,-31.929014,0.420166,0.332275,-0.757813,26.107786,-91.567986,-138.98468
0.067383,0.348633,-0.438477,0.671387,1.998901,-25.535582,0.37793,0.374268,-0.952148,22.224424,-94.276421,-74.913025
0.017578,0.361816,-0.450439,10.162353,-9.063721,-17.189026,0.510498,0.199463,-0.795654,-4.333496,-39.253235,-147.117615
-0.098145,0.368164,-0.496094,14.183043,-22.048948,-17.959595,0.587646,0.157471,-0.838867,-13.610839,-22.598265,-165.565475
-0.208252,0.384033,-0.499023,14.778136,-35.362244,-24.101255,0.658203,0.113281,-0.85376,-19.882202,-12.001037,-171.318039
-0.292969,0.403076,-0.511963,17.578125,-48.385616,-26.94702,0.650879,0.045654,-0.789063,-23.139952,4.829407,-159.088135
-0.491455,0.398193,-0.596436,23.29254,-52.528378,-29.83856,0.583496,0.003418,-0.714111,-21.446226,28.648375,-144.958496
-0.078613,0.432129,-0.179932,-15.327453,-239.868149,-71.052551,0.541748,0.022705,-0.673584,-21.179197,39.680481,-130.706787
-1.120361,0.317383,-0.013184,17.173767,-208.686813,-157.00531,0.498047,0.028564,-0.61499,-24.932859,32.905579,-120.74279
-0.980225,0.722656,-0.799316,0.602722,34.164429,35.560608,0.509277,-0.0271,-0.678711,-22.552488,7.972717,-120.697014
-0.804199,0.733643,-0.777588,-0.854492,45.715328,22.02606,0.558105,-0.050781,-0.695557,-23.315428,-29.037474,-130.4245
-1.301025,0.102783,-0.30249,97.846977,110.54229,173.889145,0.625732,-0.07373,-0.719971,-30.71594,-67.878723,-144.523621
-1.142578,0.177979,-0.247314,75.569153,74.531555,172.56926,0.68335,-0.158203,-0.739746,-36.575317,-90.454094,-149.81842
-0.923828,0.195557,-0.2771,43.830868,39.070129,173.934921,0.481934,0.269287,-0.774902,9.613037,-66.307068,-139.213562
-0.950928,0.1604,-0.356689,18.112183,27.94647,178.840622,0.921387,-0.177979,-0.220947,38.269043,105.331413,11.772155
-1.019531,0.099121,-0.342285,3.64685,27.328489,185.020432,0.95752,-0.138672,-0.143311,42.190548,99.403374,18.768311
-1.081787,-0.035156,-0.30542,-0.663757,26.069639,195.991501,0.962646,-0.208984,-0.121338,44.754025,89.469902,19.798279
-1.134766,-0.188965,-0.174072,10.482787,31.074522,207.794174,0.878418,-0.255371,-0.114502,41.236874,81.748955,24.284361
-1.168945,-0.298584,0.003662,33.950806,43.083187,219.520554,1.178223,-0.351074,0.14502,44.166561,40.863033,7.041931
-1.198242,-0.33252,0.083252,59.898373,61.828609,220.077499,0.850098,-0.145264,-0.0625,35.209656,95.970146,22.880552
-1.157959,-0.336182,-0.034424,92.330925,92.834465,174.400314,0.966309,-0.089355,0.137695,56.144711,121.955864,23.91815
-1.067627,0.018311,-0.336182,102.188103,129.440308,164.016708,1.184326,-0.26416,0.136475,53.413387,99.098198,26.046751
-1.17627,-0.346436,-0.094482,100.601189,96.145622,149.345398,0.919922,-0.247314,-0.189941,45.417782,97.076408,1.434326
-1.34375,-0.409912,-0.150879,105.148308,78.460693,109.817497,0.904785,-0.227539,-0.090332,33.294678,80.818169,27.534483
-1.29541,-0.445801,-0.129883,103.614799,66.925049,94.635002,0.836182,-0.265869,-0.121826,57.907101,71.06781,5.348205
-1.147461,-0.437012,-0.056152,101.562492,61.050411,88.531487,1.085449,-0.25293,-0.068359,60.852047,28.45001,27.44293
-0.961426,-0.369873,0.129883,100.105278,66.322327,78.521729,1.033936,-0.166016,-0.052002,65.361023,30.036924,21.957396
-0.955566,-0.317627,0.253418,101.409904,88.447563,56.701656,1.055176,-0.162354,-0.056396,59.913631,29.869078,20.240782
-1.022217,-0.276611,0.278809,104.827873,113.861076,32.211304,1.04834,-0.200928,-0.056885,58.120724,27.809141,22.872923
-0.951416,-0.24707,0.261475,108.436577,118.453972,15.647887,1.044189,-0.241455,-0.062012,59.494015,25.596617,26.458738
-0.947266,-0.250732,0.217285,113.830559,102.996819,11.161803,1.123535,-0.248291,-0.068359,60.791012,39.825439,29.884336
-1.04126,-0.253906,0.193848,119.064323,81.336967,15.068053,1.075928,-0.234375,-0.064941,56.709286,57.151791,33.416748
-0.875244,0.718506,-0.808838,1.243591,37.094116,31.394957,1.000244,-0.251221,-0.050293,52.474972,72.509766,31.86035
-1.272949,-0.375,-0.142822,104.766838,89.927666,129.447937,0.958984,-0.239746,-0.082031,47.431942,74.440002,26.06201
-0.764648,-0.021729,-0.335938,94.757072,138.092041,141.342163,0.942627,-0.195068,-0.100342,41.244503,65.406799,20.568846
-1.193359,-0.335449,0.043213,79.490662,80.467216,201.553329,1.02417,-0.286865,0.219727,27.580259,-2.609253,22.613523
-0.658691,0.267334,-0.341064,79.864502,135.421753,116.111748,0.813721,-0.247803,-0.053711,68.67981,42.388912,17.723083
-0.624268,0.102783,-0.290771,82.351677,138.313293,123.054497,0.862549,-0.172363,0.250244,12.283324,-19.233704,36.804199
-0.937012,0.709473,-0.749268,1.594543,68.847656,20.095823,1.101074,-0.243652,-0.014404,-31.249998,-68.252563,32.981873
-1.039551,0.730225,-0.733154,6.614685,80.490105,30.364988,0.801514,-0.045654,0.242188,14.137267,-19.592285,21.377562
-1.081055,0.688232,-0.694092,12.96234,96.183769,43.479916,0.840332,-0.209717,-0.187012,-84.182732,-109.474174,-8.132935
-1.063721,0.675537,-0.638916,21.583555,104.644768,49.514767,0.860107,-0.235596,-0.192139,-79.650879,-109.817497,-6.355285
-0.996826,0.654297,-0.660645,22.430418,103.492729,50.842281,0.850586,-0.23877,-0.221924,-74.295044,-106.742851,-3.77655
-0.929443,0.596191,-0.712402,19.256592,102.104179,57.197567,0.858398,-0.204102,-0.236816,-70.518494,-100.265495,-0.358582
-0.852051,0.594482,-0.692871,16.891479,103.614799,66.040039,0.830566,-0.165527,-0.226807,-69.564819,-96.061699,5.950927
-0.818115,0.565918,-0.627686,14.778136,106.155388,74.005127,0.77124,-0.122803,-0.20459,-71.655273,-99.639885,13.496398
-0.869873,0.501465,-0.570801,17.01355,109.603874,75.584412,0.731934,-0.093262,-0.175049,-75.744629,-104.789726,18.920898
-0.955322,0.463867,-0.518066,22.850035,112.625114,70.960999,0.771729,-0.123291,-0.155029,-72.555542,-108.184807,21.209715
-0.842773,0.719482,-0.752441,-2.227783,57.907101,16.830444,0.802979,-0.175293,-0.124023,-59.471127,-115.119926,27.57263
-0.941406,0.559814,-0.484131,37.101746,119.026176,64.811707,0.806641,-0.182129,-0.105713,-50.910946,-120.033257,36.888123
-1.000732,0.475586,-0.486084,28.465269,117.21801,67.276001,0.822754,-0.074951,0.249268,8.575439,-22.430418,29.067991
-0.873291,0.283936,-0.590576,112.487785,105.216972,117.767326,0.962158,-0.182129,-0.081787,-52.398678,-112.586967,39.299011
-0.967041,0.263428,-0.429443,114.662163,89.11132,119.316093,0.967285,-0.151611,-0.112793,38.459778,55.633541,21.095274
-1.025879,0.339355,-0.358398,95.275871,91.468803,112.617485,0.970459,-0.235596,-0.020508,-19.088745,-52.322384,36.66687
-0.870361,0.403809,-0.503174,68.031311,93.543999,98.655693,0.748779,-0.199219,-0.032471,-16.304016,-46.562191,40.52734
-0.777588,0.3396,-0.539551,92.64373,127.372734,114.547722,0.594482,-0.170654,0.016602,-18.035889,-48.370358,43.632504
-0.768799,0.467773,-0.643311,50.529476,106.086723,75.210571,0.567871,-0.19165,0.044922,-18.295288,-51.010128,47.348019
-0.794922,0.463867,-0.57666,45.959469,109.382622,71.540833,0.616943,-0.242676,0.037598,-12.771605,-44.799801,47.660824
-0.832764,0.564941,-0.482178,41.084286,113.883965,66.558838,0.694824,-0.268311,0.06543,-0.450134,-30.410765,43.785091
-0.731445,0.478271,-0.624756,52.680965,96.069328,82.878105,0.743408,-0.223389,0.165527,13.71765,-16.281128,36.552429
-0.614746,0.226318,0.763916,-49.118038,111.839287,-13.252257,0.7771,-0.148438,0.256104,21.553038,-11.054992,28.297422
-0.784668,0.139648,0.435303,-12.733459,80.67321,2.76947,0.787842,-0.08252,0.259766,20.187376,-14.923095,21.789549
-0.627197,0.20874,0.476563,-24.581907,85.899345,11.116027,1.097168,-0.214844,-0.04834,-46.989437,-92.033379,35.232544
-0.54541,0.260742,0.535156,-39.039612,96.252434,5.264282,1.040039,-0.112793,-0.157715,35.705566,46.997066,24.261473
-0.610107,0.227051,0.599365,-45.104977,103.843681,-1.495361,0.922363,-0.209717,-0.028076,69.869995,30.410765,23.498533
-0.71167,0.145508,0.610596,-38.421631,102.439873,-1.907349,1.06665,-0.105957,-0.25293,29.129026,40.458675,28.861998
-0.777832,0.129639,0.615479,-29.289244,97.618095,2.319336,0.474609,0.126953,-0.547363,118.926994,213.920578,75.6073
-0.875488,0.108643,0.416504,-2.944946,78.605652,-7.240295,0.502441,0.181152,-0.587158,132.30896,178.466782,73.432922
-0.79126,0.17627,0.68457,-25.062559,96.878044,4.646301,0.518311,0.271484,-0.633301,139.450073,140.960693,73.631287
-0.733154,0.22876,0.744873,-31.532286,102.920525,-1.075745,0.483643,0.319824,-0.679688,138.717651,112.327568,80.047607
-0.524902,0.141602,0.751953,-50.109859,113.807671,-15.304564,0.4729,0.327393,-0.716553,131.134033,94.886772,88.439934
-0.796631,0.011719,0.519531,-6.17218,62.973019,-7.705688,0.477051,0.355225,-0.749268,115.005486,85.754387,100.08239
-0.712402,0.012451,0.629883,-27.580259,105.293266,-7.850646,0.469238,0.360352,-0.797119,97.923271,85.723869,112.663261
-0.849365,0.017822,0.558838,-22.209166,90.370171,-9.07135,0.439453,0.324707,-0.854248,92.178337,89.103691,119.056694
-0.844971,0.026367,0.555908,-16.410828,73.509216,-8.293152,0.368408,0.344971,-0.858643,92.590324,87.120049,124.588005
-0.777588,0.011719,0.525391,4.997253,53.924557,-7.003784,0.322021,0.371094,-0.832031,93.734734,77.667236,133.56781
-0.906738,0.062012,0.551758,11.444091,47.004696,-5.638122,0.507324,0.109131,-0.515137,105.24749,243.301376,75.630188
-0.953125,0.095459,0.580566,18.348694,29.312132,-0.442505,0.334473,0.391846,-0.877197,90.766899,66.03241,141.38031
-0.940186,0.144775,0.623779,17.524719,9.83429,7.537841,0.376465,0.412598,-0.959961,75.065613,66.413879,153.022766
-0.972168,0.165527,0.61377,9.216309,-0.549316,9.841919,0.345215,0.387695,-0.913574,66.101074,74.325562,157.63092
-1.032471,0.155762,0.647705,7.614135,-3.52478,5.950927,0.280273,0.346436,-0.826172,59.959408,86.563103,162.155136
-0.884766,0.107666,0.379395,4.371643,78.315735,-8.789063,0.132568,0.304199,-0.668945,54.374691,92.842094,164.428696
-0.546387,0.041016,0.721924,-37.506104,111.343376,-5.126953,-0.0271,0.315674,-0.551025,43.968197,84.968559,161.079391
-0.818359,0.095947,0.364502,3.761291,75.698853,-1.953125,-0.123047,0.327637,-0.465088,36.186218,64.781189,150.146484
-1.020996,0.14209,0.6875,10.482787,-3.616333,0.328064,-0.162842,0.360596,-0.443604,33.554077,36.514282,132.270813
-0.844971,0.11377,0.334229,-5.821228,45.372005,10.665893,-0.144287,0.370605,-0.456543,35.774231,5.523681,110.069267
-1.160889,0.005371,0.473389,7.034301,65.734863,33.790588,-0.122803,0.378906,-0.521729,39.505005,-20.576475,89.019768
-1.134033,0.039063,0.5896,0.175476,56.465145,27.938841,1.082764,-0.101318,-0.206055,33.111572,39.512634,27.175901
-1.111816,0.064941,0.618164,-2.388,54.992672,11.665343,0.377197,0.416016,-0.959229,83.778374,62.83569,147.064209
-1.084961,0.09375,0.577148,-1.51062,53.0014,3.471374,0.528076,0.094238,-0.518311,93.765251,249.992355,76.576233
-1.036621,0.133789,0.49585,-4.91333,37.117004,10.139464,-0.165527,0.417236,-0.571045,37.979126,-40.52734,71.289063
-0.944824,0.169189,0.419678,-17.799377,17.448425,15.701293,0.584961,0.082764,-0.577637,80.734245,249.80162,79.666138
-0.860596,0.167969,0.412109,-29.792784,8.224487,14.22119,0.540283,0.095947,-0.541016,85.624687,249.908432,79.437256
-0.82959,0.127686,0.439697,-28.793333,12.611388,14.808654,1.041016,-0.125,-0.238037,20.317076,64.788818,29.533384
-0.828857,0.11084,0.42334,-19.798279,23.811338,21.728514,0.97168,-0.121826,-0.218994,17.76886,77.102661,29.830931
-0.820801,0.125732,0.409668,-10.711669,28.984068,26.634214,0.915527,-0.101074,-0.212646,16.242981,84.877007,28.228758
-0.823975,0.092285,0.34668,-3.097534,65.940857,9.32312,0.866211,-0.051758,-0.231689,14.488219,84.320061,25.367735
-0.849609,0.147949,0.420898,-6.408691,26.130674,28.350828,0.857666,-0.001221,-0.276611,14.152526,76.377869,21.568296
-0.929932,0.181396,0.436523,-7.698059,17.425537,32.600403,0.890137,0.024658,-0.306641,14.572143,69.168091,18.310547
-0.888428,0.187012,0.425049,-8.132935,14.198302,39.329529,0.908936,0.018066,-0.323486,16.098022,67.176819,18.920898
-0.825684,0.186523,0.389648,-12.023925,11.978148,42.945858,0.909912,0.01001,-0.32666,18.722534,70.06073,21.629332
-0.801514,0.166992,0.37085,-15.472411,11.245727,42.182919,0.879883,-0.000977,-0.321777,17.837524,81.016533,21.873472
-0.839844,0.128418,0.370361,-13.450622,9.048462,42.602535,0.818848,-0.032715,-0.314941,15.182494,95.611565,22.14813
-0.9021,0.11499,0.364502,-13.076781,4.02832,45.69244,1.060547,-0.117676,-0.260254,24.246214,50.758358,29.701231
-0.958008,0.110107,0.373779,-12.397765,-1.342773,43.624874,0.747559,-0.070313,-0.356201,22.53723,131.576538,32.203674
-0.915527,0.079834,0.330078,-9.750366,-2.26593,40.374752,0.775879,-0.022461,-0.396484,23.559568,166.168198,38.024902
-0.814941,0.072754,0.269287,-6.813049,7.186889,28.976439,0.807861,0.026611,-0.472656,18.157959,211.776718,43.228146
-0.792725,0.108643,0.302002,-6.103515,22.933958,13.961791,0.734619,0.036621,-0.519775,12.359618,246.246323,44.891354
-0.901367,0.168213,0.429443,-5.844116,20.782469,28.991697,0.606934,0.015625,-0.493652,10.459899,249.992355,41.748043
-0.943115,0.156006,0.685791,8.247375,6.858825,-12.054442,0.514893,-0.008301,-0.529297,11.032104,249.992355,38.154602
-0.754883,0.174316,0.732666,0.518799,24.032591,-33.103943,0.552246,-0.029297,-0.55542,17.234802,249.992355,42.060848
-0.65918,0.152588,0.888184,-7.904052,34.683228,-37.475586,0.614502,-0.052002,-0.511963,33.790588,249.992355,53.12347
-0.969971,0.241943,0.429932,25.833128,-142.913818,-32.516479,0.627441,-0.044434,-0.521973,54.38232,249.992355,63.766476
-0.993652,0.229492,0.383057,20.050049,-155.937195,-38.734436,0.617432,0.014893,-0.548584,72.349548,249.992355,73.921204
-0.915771,0.226318,0.413086,25.245665,-168.327316,-41.28265,0.750244,-0.068604,-0.31543,17.318726,110.41259,26.512144
-0.864502,0.213623,0.472412,38.368225,-180.541977,-46.730038,0.504395,0.25708,-1.040771,-3.700256,-102.058403,-80.169678
-0.907715,0.205811,0.501465,48.835751,-184.127792,-59.29565,0.158203,0.250244,-1.216309,36.979675,-136.192322,-75.85144
-0.926025,0.203857,0.512207,49.499508,-183.799728,-79.025269,-0.010986,0.239258,-1.127686,37.963867,-113.029472,-59.509274
-0.870605,0.220215,0.505127,40.412899,-189.598068,-85.151665,-0.019775,0.140869,-1.152344,33.8974,-92.384331,-48.889156
-0.802246,0.25293,0.457764,26.473997,-202.80455,-82.305901,-0.104004,0.114014,-1.418945,11.550902,-29.159544,3.204345
-0.775879,0.30249,0.333252,7.987976,-221.069321,-91.667168,-0.225586,0.155518,-1.326904,26.30615,-62.904354,-20.050049
-0.737061,0.341797,0.293213,-12.46643,-235.549911,-104.835503,-0.19458,0.093994,-1.344727,25.337217,-38.284302,-17.662048
-0.908447,0.221436,0.474365,33.714294,-129.66156,-27.503965,-0.090576,0.077881,-1.397217,18.989563,-17.044067,-10.871886
-0.703857,0.328613,0.367432,-31.768797,-239.082321,-107.475273,-0.014404,0.081299,-1.416992,13.618468,-16.937256,-1.708984
-0.693848,0.253174,0.415527,-33.660889,-238.227829,-111.968987,-0.106934,0.117676,-1.274658,26.351927,-80.032349,-33.508301
-0.779541,0.233887,0.413574,-14.877318,-238.037094,-119.239799,0.361084,0.344238,-1.240479,40.000916,-142.494202,-82.298271
-0.943359,0.183838,0.315674,3.196716,-235.092148,-121.383659,0.328125,0.365479,-1.241211,38.55896,-69.046021,-53.871151
-1.005127,0.183105,0.197021,17.875671,-234.947189,-118.492119,0.451904,0.289063,-1.15918,37.445068,-118.408195,-78.605652
-0.986816,0.257813,0.116699,24.726866,-233.55101,-117.073051,0.481445,0.237549,-1.145508,48.126217,-97.640984,-76.042175
-0.955566,0.292236,0.030762,26.733397,-221.893295,-112.838737,0.403564,0.378418,-1.136963,50.430294,-75.759888,-61.95068
-0.859619,0.318848,-0.013184,22.926329,-198.852524,-113.601677,0.246826,0.370361,-1.28125,20.355223,-63.270565,-55.999752
-0.879639,0.360596,-0.014893,14.976501,-168.899521,-121.925346,0.236572,0.333496,-1.16626,6.645202,-59.42535,-57.54089
-0.982422,0.349609,-0.009033,11.001586,-153.236389,-136.276245,0.244629,0.295166,-1.089355,-3.303528,-61.759945,-60.752865
-1.111084,0.324219,0.029785,14.335631,-162.147507,-150.70343,0.290283,0.255371,-1.050537,-7.453918,-74.943542,-71.83075
-0.716797,0.297119,0.378662,-44.830318,-236.007675,-108.26873,0.3479,0.244629,-0.998047,-5.462646,-93.093864,-76.766968
-0.854248,0.194336,0.583984,31.471251,-122.039787,-22.041319,0.404541,0.254395,-0.996582,-2.311707,-101.058952,-76.591492
-1.165771,0.324707,0.044189,17.463684,-186.630234,-159.622192,-0.158203,0.147705,-1.389893,15.60974,-36.201477,6.057739
-0.806396,0.251953,0.670166,2.685547,-127.037041,-9.773254,0.37207,0.389404,-1.279785,33.409119,-132.904053,-77.919006
-0.635498,0.132813,1.001465,-8.392334,35.644531,-38.490295,-0.127441,0.137939,-1.322754,20.690916,-46.531673,7.629394
-0.655273,0.135498,1.044678,-4.03595,31.684874,-41.679379,-0.122314,0.217285,-1.001465,17.89093,28.533934,56.53381
-0.752197,0.142334,1.040771,-5.294799,25.619505,-44.479366,-0.115234,0.150146,-1.274902,30.914305,-68.901062,18.936157
-0.841797,0.120361,1.057129,-8.247375,12.84027,-48.751827,0.596924,0.305176,-1.064941,-13.710021,-90.736382,-84.175102
-0.903076,0.070068,1.038086,-7.026672,-9.986877,-45.074459,0.416016,-0.060059,-0.07373,29.197691,249.992355,149.688721
-0.875,0.038574,0.97583,-2.02179,-31.059263,-42.6712,0.36499,0.053955,-0.190186,21.560667,249.984726,148.536682
-0.807861,0.213135,0.686523,18.424988,-121.902458,-14.60266,0.304199,0.123047,-0.221924,4.013062,249.992355,141.555786
-0.730225,0.054932,0.937988,3.875732,-57.884212,-39.398193,0.250732,0.174072,-0.195801,-13.000487,249.992355,132.286072
-0.717041,0.090576,0.966309,2.27356,-61.042782,-39.024353,0.124023,0.218994,-0.194092,-22.766111,249.374374,130.012512
-0.668213,0.133057,0.980957,-4.310608,-55.694576,-40.016174,0.003906,0.195068,-0.229492,-20.996092,249.992355,131.584167
-0.584961,0.150391,1.003662,-11.604308,-49.087521,-34.202576,-0.076416,0.102051,-0.280029,-5.897521,249.992355,122.314445
-0.789795,0.037598,0.915039,1.853943,-46.768185,-40.351864,-0.114746,0.046875,-0.349609,16.105652,219.612106,98.274223
-0.646484,0.121826,0.883545,-13.755797,-50.537106,-32.012939,-0.098145,0.146729,-0.530518,25.032042,165.519699,82.038872
-0.842529,0.06543,0.844971,-4.821777,-64.727783,-32.684326,-0.128174,0.13501,-1.284424,24.887083,-60.791012,12.435912
-0.969482,0.016357,0.737061,7.92694,-83.717339,-30.479429,-0.106934,0.196289,-0.709229,33.653259,120.62072,76.843262
-0.929199,0.015381,0.647217,20.011902,-101.692192,-24.108885,-0.125,0.229736,-0.909424,22.460936,52.467342,60.508724
-0.838867,0.048828,0.583496,26.672361,-116.867058,-17.242432,-0.101318,0.197998,-1.068604,17.219543,5.805969,51.086422
-0.871338,0.111816,0.479736,27.359007,-126.960747,-13.282775,-0.083008,0.213379,-1.119873,18.585205,-16.88385,45.867916
-0.927979,0.221191,0.423828,20.942686,-138.435364,-8.323669,-0.089355,0.205322,-1.161865,21.987913,-32.76825,43.075558
-0.937256,0.352295,0.417236,5.943298,-149.32251,-3.219604,-0.097412,0.169678,-1.184326,25.131224,-43.29681,42.953487
-0.889893,0.397461,0.439209,-9.483337,-147.575378,-5.92041,-0.089111,0.15332,-1.195313,30.899046,-53.443905,43.090816
-0.808838,0.317627,0.553955,-9.040833,-139.022827,-12.222289,-0.047363,0.172607,-1.23877,36.254883,-63.751217,39.039612
-0.555176,0.146729,0.943848,-16.197205,-45.288082,-29.670713,-0.029053,0.192871,-1.242188,33.546448,-67.466736,33.01239
-0.77417,0.24585,-1.114502,12.397765,66.825867,-45.539852,-0.035645,0.177979,-1.235352,30.982969,-65.917969,27.473448
-0.724365,0.279297,-1.094482,7.308959,52.650448,-51.040646,-0.073486,0.156738,-1.256104,32.394409,-67.611694,23.078917
-0.706299,0.292969,-1.040771,4.631042,40.161129,-55.923458,-0.133789,0.202637,-0.834717,33.729553,82.870476,67.756653
-0.684082,0.294678,-0.957764,6.996154,32.76062,-61.866756,0.573242,0.387207,-1.064209,-26.275633,-74.913025,-75.775146
-0.529541,0.223877,-0.803223,6.156921,-41.213985,-101.08947,0.525635,-0.122314,0.018066,20.538328,249.992355,144.691467
-0.552979,0.30542,-0.830078,9.07135,11.390685,-76.225281,0.401611,0.33252,-1.001465,-44.639584,-89.836113,-67.993164
-0.544189,0.300293,-0.795654,10.002136,-5.767822,-79.231262,0.726318,-0.13916,-0.47583,-36.628723,-141.769409,-47.279354
-0.55249,0.267578,-0.810791,10.131835,-25.543211,-87.043755,0.741211,-0.186035,-0.449219,-34.141541,-132.316589,-49.957272
-0.62793,0.301025,-0.892578,8.934021,25.459288,-69.595337,0.773682,-0.199463,-0.461182,-32.150269,-119.430534,-54.183956
-0.825439,0.250488,-1.121338,14.045714,80.276489,-42.999264,0.811768,-0.184082,-0.468018,-32.531738,-107.254021,-56.449886
-0.839844,0.316406,-1.042969,28.007505,54.290768,35.598755,0.834717,-0.148926,-0.437256,-35.308838,-98.785393,-55.130001
-0.732666,0.307129,-1.109375,6.355285,101.165764,-37.567139,0.843262,-0.115967,-0.410156,-38.597107,-96.847527,-50.651546
-0.74292,0.304443,-1.086182,1.472473,90.934746,-31.028746,0.824707,-0.097412,-0.399902,-40.580746,-100.257866,-45.06683
-0.786621,0.333252,-1.126953,-2.555847,67.41333,-21.156309,0.808838,-0.102783,-0.368652,-41.961666,-104.698174,-41.801449
-0.800537,0.367676,-1.191406,-9.010315,43.701168,-10.292052,0.815918,-0.122559,-0.350586,-42.945858,-109.664909,-40.977474
-0.786133,0.326416,-1.200684,-10.002136,33.157349,-2.632141,0.82251,-0.141602,-0.320801,-44.265743,-113.906853,-41.557308
-0.737305,0.325439,-1.19165,-3.135681,43.144222,1.502991,0.675293,-0.095703,-0.491699,-37.826538,-142.01355,-47.447201
-0.710449,0.410889,-1.175781,2.159119,64.63623,7.156372,0.834961,-0.148926,-0.284424,-46.211239,-117.645256,-41.244503
-0.894775,0.343262,-1.139893,3.410339,84.808342,28.053282,0.80835,-0.143555,-0.240479,-47.752377,-128.295898,-34.172058
-1.039551,0.193359,-1.08667,9.063721,91.987602,49.484249,0.779541,-0.135254,-0.240234,-46.363827,-134.658813,-30.242918
-0.923096,0.238525,-1.01123,23.895262,76.072693,40.046692,0.799316,-0.126709,-0.245605,-46.379086,-138.122559,-26.458738
-0.487549,0.205811,-0.737793,3.616333,-49.057003,-112.05291,0.83667,-0.123291,-0.263916,-49.301144,-136.779785,-22.682188
-0.806641,0.285156,-1.12793,11.230468,95.100395,-40.763851,0.872559,-0.114258,-0.281494,-55.6488,-131.233215,-20.439146
-0.402832,0.226318,-0.627441,6.256103,-65.406799,-120.147697,0.871094,-0.102295,-0.289307,-64.613342,-123.39782,-18.806458
-0.643555,-0.193359,0.17334,-32.89032,-249.992355,-160.072327,0.838867,-0.100098,-0.279785,-73.783875,-115.150444,-17.288208
-0.313965,0.071777,-0.30835,6.16455,-160.28595,-142.616272,0.831787,-0.112793,-0.268066,-82.611076,-110.061638,-15.190124
-0.904053,0.295654,-1.062012,23.994444,49.896236,45.005795,0.828369,-0.149658,-0.254395,-88.157646,-109.107964,-11.840819
-1.066162,-0.539063,0.925537,4.669189,-206.291183,-170.150742,0.81958,-0.186768,-0.2229,-87.936394,-109.336845,-9.117126
-1.32373,-0.425049,1.002441,-25.886534,-225.227341,-170.326218,0.835693,-0.146484,-0.256104,-47.683712,-121.864311,-38.398743
-1.099854,-0.361572,0.904541,-53.855892,-244.01091,-152.450562,0.637451,-0.085938,-0.525391,-38.604736,-133.476257,-47.821041
-0.598877,-0.347412,0.54834,-59.486385,-249.992355,-139.373779,0.44458,0.408447,-1.025879,-38.093567,-72.792053,-66.200256
-0.403809,-0.317139,0.316162,-56.091305,-249.992355,-133.522034,0.598389,-0.111328,-0.531494,-44.05212,-104.24041,-45.94421
-0.416504,-0.239502,0.282959,-49.72076,-249.992355,-130.828857,0.501709,0.275391,-1.004639,-39.077759,-110.473625,-75.630188
-0.404541,-0.130371,0.267822,-46.897884,-249.992355,-137.649536,0.591064,0.270996,-1.012695,-36.888123,-118.156425,-77.583313
-0.417969,-0.036621,0.235596,-50.552364,-249.992355,-149.162292,0.538818,0.226563,-0.98877,-39.123535,-112.480156,-73.234558
-0.529785,0.022705,0.212646,-61.096188,-249.992355,-148.918152,0.557373,0.255371,-0.98999,-37.704468,-108.970634,-73.989868
-0.278564,0.220703,-0.486328,7.095336,-104.476921,-127.731316,0.649414,0.280518,-0.999512,-35.507202,-104.476921,-80.276489
-0.57251,0.039063,0.239258,-69.900513,-249.992355,-135.955811,0.656738,0.271729,-0.928223,-36.483765,-90.980522,-80.360405
-0.543945,-0.000977,0.130615,-67.329407,-249.992355,-144.958496,0.614746,-0.098877,-0.559082,-41.015621,-118.942253,-47.172543
-0.763672,-0.197021,0.140137,2.937317,-249.992355,-176.765427,0.473633,0.081055,-0.887695,-38.772583,-59.623714,-65.307617
-0.913086,-0.056641,0.051514,11.58142,-249.992355,-197.273239,0.469971,0.047852,-0.921875,-31.34918,-63.560482,-61.614986
-1.026611,0.103271,-0.033936,-6.256103,-249.984726,-198.64653,0.484131,0.080322,-0.938477,-32.455444,-85.792534,-64.743042
-0.951904,0.260254,-0.181885,-31.784056,-249.992355,-176.673874,0.515381,0.121582,-0.929443,-47.164913,-115.417473,-69.015503
-0.661133,0.357422,-0.178223,-53.161617,-249.992355,-156.013489,0.568115,0.196533,-0.869629,-40.939327,-72.32666,-72.402954
-0.377686,0.368652,-0.117432,-67.565918,-249.404892,-148.193359,0.688477,0.06543,-0.723389,-40.161129,-117.584221,-75.72937
-0.314453,0.27832,-0.133545,-68.778992,-249.992355,-151.054382,0.621826,0.103271,-0.859131,-54.161068,-130.706787,-71.075439
-0.281006,0.154297,-0.19873,-50.094601,-249.992355,-164.733871,0.676758,-0.090332,-0.51001,-56.228634,-98.686211,-46.989437
-0.314209,0.039307,-0.25,-16.334534,-226.11998,-163.299545,0.689697,-0.026367,-0.61792,-61.752316,-110.900871,-50.216671
-0.538818,0.053467,0.213135,-73.974609,-249.992355,-130.355835,0.624023,0.028076,-0.734619,-62.019344,-120.101921,-52.848812
-0.980713,0.266846,-0.990479,36.109924,51.185604,47.683712,0.549561,0.035645,-0.84668,-54.779049,-118.591301,-53.894039
-0.991455,0.22583,-0.924072,55.946346,56.823727,44.822689,0.623535,-0.115967,-0.482178,-48.96545,-95.741264,-45.989986
-0.861572,0.322021,-0.768799,83.854668,61.294552,37.284851,0.508789,0.004395,-0.799316,-24.749754,-84.358208,-56.373592
-1.066406,0.241211,0.056641,21.385191,249.992355,21.980284,0.562988,0.012695,-0.669434,-17.631531,-69.778442,-58.067318
-1.118896,0.199951,0.036377,23.765562,249.992355,19.287109,0.672119,0.071289,-0.623291,-20.187376,-75.538635,-66.307068
-1.087646,0.182861,-0.104736,25.436399,249.992355,26.206968,0.712891,0.089844,-0.638428,-26.000975,-94.66552,-75.973511
-1.009521,0.239502,-0.124512,21.888731,249.694809,33.966064,0.512207,0.024414,-0.901123,-40.90118,-105.178825,-55.77087
-0.950439,0.303467,-0.01416,14.289855,249.992355,30.708311,1.204834,-0.779297,0.084229,-69.580078,-177.22319,-77.018738
-0.993896,0.295898,0.16748,12.123107,249.992355,21.080015,1.228516,-0.737305,0.090576,-66.848755,-162.704453,-63.270565
-1.10791,0.23999,0.334473,19.058228,233.215317,19.15741,1.171143,-0.736816,0.146973,-64.453125,-160.682663,-56.068417
-1.161621,0.196289,0.412598,29.220579,208.511337,18.867493,1.10791,-0.741943,0.235596,-59.089657,-158.119202,-51.750179
-1.08252,0.171631,0.363525,37.513733,184.455856,10.246276,1.116211,-0.736084,0.311768,-49.858089,-143.127441,-46.310421
-0.991943,0.147461,0.267822,41.168209,165.817245,2.105713,1.106934,-0.729736,0.39624,-37.620544,-118.522636,-42.930599
-0.998291,0.269531,-0.170898,17.349243,249.992355,35.53772,1.015869,-0.73877,0.446045,-24.780272,-96.313469,-42.655941
-0.958252,0.129639,0.247803,41.168209,151.557922,5.91278,0.967529,-0.737793,0.42041,-15.258788,-87.158195,-39.199829
-1.062256,0.138428,0.344971,33.607483,137.527466,30.364988,0.942139,-0.712891,0.38208,-12.367248,-89.424126,-31.776426
-1.052734,0.146729,0.436523,29.151915,123.435966,33.256531,0.883301,-0.687256,0.318115,-13.97705,-92.231743,-27.519224
-1.05127,0.157227,0.499512,26.954649,103.797905,31.402586,0.522949,-0.486084,0.384521,-66.459656,-149.627686,-2.113342
-1.097168,0.182373,0.468262,24.429319,92.224113,35.110474,0.725586,-0.612061,0.357178,-23.620604,-83.457939,-25.756834
-1.075195,0.224609,0.40332,18.852234,81.336967,47.691341,0.641846,-0.61792,0.383545,-28.099058,-76.271057,-28.480528
-1.025391,0.242432,0.466309,5.187988,66.184998,53.512569,0.514404,-0.627686,0.379395,-26.94702,-68.313599,-30.273436
-1.124268,0.192139,0.523193,-10.803222,73.188782,39.581299,0.432617,-0.615967,0.348877,-25.909422,-63.171383,-30.288694
-1.185303,0.10791,0.500977,-12.077331,87.333672,26.992796,0.422852,-0.606934,0.296875,-28.892515,-67.779541,-28.984068
-1.101563,0.033447,0.480957,-1.663208,71.144104,32.875061,0.42334,-0.596191,0.254395,-34.255981,-79.444885,-26.985167
-1.058105,-0.016846,0.441162,10.025024,59.188839,34.53064,0.432617,-0.581299,0.260742,-37.101746,-91.033928,-23.674009
-1.006592,0.128418,0.275635,38.467407,143.074036,19.111633,0.468994,-0.554688,0.265137,-40.382381,-102.264397,-17.227173
-1.010742,0.270264,-0.393555,20.019531,249.93132,56.793209,0.496826,-0.506592,0.280518,-48.355099,-115.791313,-11.665343
-1.137207,-0.023926,0.410645,12.779235,65.788269,31.745909,0.518066,-0.468506,0.330566,-59.188839,-132.514954,-9.498596
-0.989014,0.159424,-0.384521,45.028683,213.951096,65.200806,1.187012,-0.814697,0.043213,-79.612732,-202.011093,-95.031731
-0.87793,0.479248,-0.748047,95.962517,73.860168,34.614563,0.807617,-0.649902,0.311279,-17.196655,-90.072624,-25.505064
-0.880859,0.570801,-0.75415,80.711357,70.014954,35.40802,1.159668,-0.796631,-0.050293,-96.069328,-227.554306,-105.331413
-0.905518,0.481689,-0.882324,49.171444,65.711975,48.980709,0.855713,-0.428711,-0.447998,-77.217102,-249.992355,-121.871941
-0.921631,0.443359,-0.967285,24.215696,65.750122,55.923458,1.176025,-0.658936,-0.330566,-102.905266,-249.992355,-111.701958
-0.997314,0.384033,-0.895752,0.328064,74.60022,61.988827,0.533936,-0.563721,0.479736,-65.010071,-164.306625,9.437561
-1.062744,0.278076,-0.788574,-3.913879,86.631767,68.748474,0.445313,-0.171387,-0.543701,-86.692802,-160.087585,-81.253044
-1.047119,0.216064,-0.443115,35.293579,238.571152,69.984436,0.485107,-0.183105,-0.543701,-86.494438,-177.955612,-83.076469
-1.11084,0.325684,-0.590332,22.720335,113.319389,59.219357,0.586914,-0.198486,-0.540771,-85.769646,-190.528854,-84.541313
-1.059326,0.369873,-0.52832,29.754637,109.634392,50.109859,0.667725,-0.218994,-0.539307,-83.94622,-190.055832,-86.135857
-1.033203,0.431885,-0.52832,28.678892,102.920525,43.533321,0.686523,-0.224609,-0.551758,-81.520073,-187.797531,-88.851921
-0.994873,0.466797,-0.530762,27.458189,102.180473,39.0625,0.658203,-0.232178,-0.542725,-78.842163,-193.435654,-93.002312
-1.111816,0.280762,-0.692871,9.056091,101.036064,68.031311,0.651611,-0.255615,-0.52832,-75.309753,-207.069382,-97.274773
-1.147217,0.404297,-0.557861,28.182981,105.8731,52.192684,0.694336,-0.290039,-0.525879,-71.815491,-225.067123,-102.104179
-1.13623,0.365234,-0.614258,19.729614,100.440971,58.41827,0.74707,-0.329834,-0.529297,-70.137024,-242.62236,-108.711235
-1.02832,0.337646,-0.625977,6.248474,97.984306,66.993713,1.169678,-0.7146,-0.19458,-105.903618,-249.54985,-109.107964
-0.925049,0.336914,-0.532959,-0.732422,111.358635,73.852539,0.801025,-0.350586,-0.536133,-73.036194,-249.93132,-114.898674
-0.842285,0.358887,-0.431641,3.89862,140.632629,81.840508,0.850586,-0.421387,-0.464844,-74.104309,-249.992355,-120.681755
-0.733643,0.393311,-0.381592,4.943848,169.044479,87.669365,0.858154,-0.491455,-0.427246,-79.00238,-249.992355,-121.665947
-0.765137,0.404541,-0.345947,-2.563476,185.195908,88.98925,0.855713,-0.565918,-0.439697,-74.996948,-249.992355,-121.170036
-0.935791,0.332031,-0.375244,-2.601623,195.487961,91.682426,0.851318,-0.596924,-0.469238,-71.006775,-249.992355,-121.513359
-1.006104,0.243896,-0.370605,13.359069,202.041611,81.764214,0.864258,-0.618408,-0.477783,-69.93866,-249.992355,-121.74987
-0.962158,0.179443,-0.353516,34.194946,203.155502,65.834045,0.888916,-0.65918,-0.469482,-69.465637,-249.992355,-120.162956
-1.051025,0.44043,-0.526611,29.609678,105.178825,44.212337,0.869141,-0.679932,-0.460205,-69.908142,-249.992355,-117.301933
-1.283447,-0.583496,0.297852,-35.720825,249.992355,123.916618,0.851318,-0.664795,-0.440674,-72.921753,-249.992355,-115.303032
-1.300537,-0.604248,0.308105,-16.403198,249.992355,119.293205,0.933838,-0.655518,-0.414795,-80.444328,-249.946579,-114.807121
-1.255371,-0.694092,0.317139,-9.483337,249.992355,122.085564,1.070557,-0.655029,-0.378174,-91.911308,-249.671921,-113.708488
-1.163574,-0.688721,0.258545,-18.112183,249.992355,124.4049,0.843994,-0.38916,-0.498779,-74.546814,-249.992355,-118.392937
-1.279053,-0.463379,0.109375,-14.556884,249.992355,122.856133,0.643066,-0.677734,0.566162,-55.595394,-172.782883,15.884398
-1.070068,-0.53125,0.154541,-22.14813,249.992355,122.154228,0.422363,-0.15625,-0.539795,-85.46447,-148.81897,-79.750061
-1.12207,-0.476807,0.11792,-20.629881,249.992355,123.207085,0.781738,-0.790283,0.691406,-16.189575,-144.607544,18.447876
-1.196533,-0.455566,0.108643,-17.13562,249.992355,122.535698,0.994629,-0.418213,0.18042,35.194397,171.134933,135.314941
-1.077148,-0.591064,0.184326,-24.078367,249.992355,122.405998,1.047607,-0.436523,0.278564,30.319212,220.924362,129.425049
-1.179932,-0.710205,0.431396,-42.854305,249.992355,131.126404,1.011475,-0.496338,0.402588,42.739864,248.367294,127.403252
-0.664795,-0.660645,0.989502,17.295837,63.270565,30.517576,0.894043,-0.543945,0.486816,68.481445,249.992355,128.349304
-1.133545,-0.760254,0.611084,-23.880003,249.587997,114.463799,0.838623,-0.531494,0.379883,81.43615,240.005478,132.225037
-1.149414,-0.747803,0.656006,-16.845703,249.992355,96.92382,0.884277,-0.477051,0.216064,81.18438,194.068893,137.214661
-1.052979,-0.666992,0.722168,-18.348694,246.551498,84.594719,0.887695,-0.399902,0.167969,77.392578,156.936646,142.425537
-0.946777,-0.572266,0.880127,-24.92523,213.058456,81.237785,0.855957,-0.34082,0.149658,69.831848,146.118164,148.635864
-0.983398,-0.546143,0.978516,-27.19879,192.970261,87.35656,0.822021,-0.327637,0.106445,62.507626,161.842331,152.809143
-1.038086,-0.53418,1.013672,-24.475096,176.338181,82.450859,0.730957,-0.325928,-0.062988,58.113094,236.358627,150.543213
-0.978516,-0.539063,1.053955,-18.096924,144.187927,62.721249,0.912354,-0.437256,0.113525,44.128414,127.487175,138.076782
-0.836426,-0.575195,1.022949,-12.420653,110.343925,46.798702,0.648926,-0.342041,-0.163086,62.545773,249.992355,153.366089
-0.733887,-0.647217,1.012695,-3.265381,90.202324,36.2854,0.710205,-0.299805,-0.395996,58.937069,249.992355,150.787354
-0.669189,-0.678467,1.004883,7.6828,77.507019,30.998228,0.776855,-0.253662,-0.489014,48.59161,249.992355,146.881104
-1.297852,-0.447998,0.093994,-16.181946,249.992355,121.940605,0.873291,-0.22168,-0.489746,36.6745,249.992355,145.332336
-1.117676,-0.755127,0.557861,-34.736633,249.855026,127.883904,0.95752,-0.209229,-0.452393,22.78137,249.992355,141.960144
-1.250488,-0.408203,0.078125,-18.478394,249.992355,116.416924,0.933838,-0.20874,-0.357666,13.420104,249.992355,137.962341
-0.901611,-0.052979,-0.139404,-42.709347,185.966476,86.479179,0.850586,-0.207764,-0.187256,8.636475,249.992355,138.938904
-1.117432,-0.325684,0.014404,-20.233152,249.992355,102.798454,0.786377,-0.168945,0.000977,4.432678,249.992355,142.349243
-0.649902,-0.607422,1.003906,21.003721,44.670101,32.836914,0.719727,-0.127197,0.0354,-0.190735,249.992355,140.205383
-0.293213,0.093994,-0.23999,-32.440186,120.613091,65.917969,0.64624,-0.123535,0.024658,4.859924,249.992355,139.015198
-0.387695,0.04834,-0.224854,-32.531738,130.393982,70.266724,0.701172,-0.777588,0.612061,-37.330627,-164.352402,17.463684
-0.491455,0.005371,-0.236816,-26.481627,138.015747,76.583862,0.646484,-0.330078,-0.275879,64.407349,249.992355,155.227661
-0.564453,-0.00415,-0.233154,-22.315977,150.497437,81.985466,0.830322,-0.463135,0.070068,52.36816,98.724358,132.8125
-0.595215,0.021973,-0.258301,-28.312681,161.880478,84.999077,0.794678,-0.320068,0.031494,57.975765,196.357712,152.153015
-0.609375,0.055664,-0.29541,-40.222164,171.371445,85.388176,0.712646,-0.47998,0.002441,62.797543,81.253044,118.782036
-0.55957,0.081055,-0.247559,-51.773067,174.255356,83.244316,0.764648,-0.480713,0.031006,58.189388,84.312431,124.755852
-0.566162,0.053711,-0.179199,-57.121273,170.745834,82.984917,1.306152,-0.631836,0.729736,-8.651733,-55.847164,11.039733
-0.56665,-0.013428,-0.116699,-52.36816,161.651596,85.136406,1.564697,-0.676025,0.745361,-14.968871,10.650634,2.052307
-1.160156,-0.360596,0.050049,-19.821167,249.992355,108.871452,1.77124,-0.862549,0.698486,-3.318786,86.715691,10.513305
-0.5625,-0.045654,-0.104248,-44.387814,155.662537,84.167473,1.907227,-1.094727,0.562988,27.748106,161.071762,34.614563
-0.808838,-0.07373,-0.145508,-41.549679,173.728928,84.785454,1.938232,-1.086182,0.31958,39.009094,212.585434,51.765438
-0.973633,-0.027832,-0.138672,-46.806332,191.322311,88.401787,1.884033,-0.859131,-0.029297,9.407043,229.186996,35.102844
-0.962402,-0.033936,-0.055908,-46.997066,187.767014,87.760918,1.458984,-0.699463,0.0354,-15.213012,245.185837,17.127991
-0.890381,-0.059326,-0.033936,-46.669003,188.827499,83.976738,1.157471,-0.702393,0.353271,-16.151428,246.009811,-6.42395
-0.85791,-0.098877,-0.031738,-44.822689,197.547897,80.345146,0.908936,-0.627686,0.470459,-4.966736,235.710129,-7.362365
-0.854248,-0.141113,-0.010742,-38.879395,213.798508,78.109741,0.748047,-0.536621,0.489502,4.79126,213.996872,5.378723
-0.900146,-0.179443,-0.000244,-31.173704,235.328659,80.825798,1.015381,-0.699951,0.719482,-5.889892,-109.756462,17.990112
-0.96875,-0.209717,0.004395,-26.161192,249.29808,84.190361,0.600586,-0.458496,0.412598,12.077331,162.269577,26.824949
-1.06543,-0.253906,-0.008057,-23.559568,249.992355,88.577263,0.655029,-0.498291,0.421387,11.764525,187.454208,20.324705
-1.120605,-0.297119,-0.005615,-21.720884,249.992355,95.520012,0.575439,-0.466064,0.045654,73.677063,93.803398,112.197868
-0.640381,-0.052002,-0.141602,-42.816158,161.697372,81.893913,0.49707,-0.457764,0.140625,75.332642,101.242058,107.498161
-0.636963,-0.58252,0.983154,20.76721,28.648375,37.063599,0.458252,-0.447754,0.236084,70.518494,104.011528,99.990837
-0.236572,0.120361,-0.279785,-27.679441,102.912895,64.231873,0.454834,-0.440674,0.294678,59.814449,101.829521,89.523308
-0.518311,-0.605469,0.710205,12.008666,30.670164,48.255917,0.651123,-0.473633,0.004395,68.397522,85.853569,115.058891
-0.999512,-0.573486,0.804932,48.377987,-131.401062,-105.224602,0.445313,-0.456787,0.355469,39.848328,124.52697,73.493958
-0.918701,-0.530762,0.737305,60.951229,-136.184692,-104.23278,0.532959,-0.497803,0.36792,32.859802,132.873535,52.040096
-0.855225,-0.455322,0.668457,60.585018,-131.027222,-115.234367,0.606445,-0.479492,0.362549,17.623901,139.854431,30.189512
-0.800049,-0.415283,0.598389,50.72784,-123.695366,-125.526421,0.451416,-0.438232,0.312744,46.180721,105.11779,79.032898
-0.758301,-0.4021,0.513916,33.378601,-119.85778,-125.854485,-0.453125,0.248291,-1.328125,-14.808654,-10.459899,-10.032654
-0.766602,-0.399902,0.501709,10.032654,-116.950981,-119.842522,-0.435059,0.321045,-1.253662,-2.006531,30.876158,20.88928
-0.786133,-0.450439,0.487549,-3.639221,-112.93029,-113.578789,-0.484131,0.294678,-1.200439,-7.568359,30.059813,19.264221
-0.681396,-0.496582,0.496826,-5.569458,-135.635376,-114.929192,-0.497803,0.304688,-1.203613,-8.338928,26.161192,16.906738
-0.720947,-0.533447,0.543701,-0.068665,-156.982422,-117.629997,-0.510254,0.299316,-1.228516,-8.743286,21.438597,13.664245
-0.752441,-0.575684,0.539307,5.722045,-166.847214,-111.984245,-0.519775,0.282227,-1.263184,-9.086609,15.342711,8.979797
-0.975098,-0.576416,0.831055,35.072327,-123.191826,-118.270866,-0.517822,0.265381,-1.292725,-9.635925,7.469177,3.616333
-0.730713,-0.574219,0.566895,9.300232,-187.339767,-103.393547,-0.495117,0.249268,-1.311768,-9.933472,-0.938415,-1.937866
-0.621338,-0.466064,0.607666,7.118225,-224.418625,-104.911797,-0.470947,0.240723,-1.329834,-11.177062,-7.56073,-7.118225
-0.576416,-0.385986,0.639893,-2.159119,-236.07634,-112.594597,-0.4646,0.303467,-1.231689,-5.767822,31.799314,20.660398
-0.501709,-0.31665,0.649414,-21.247862,-244.201645,-120.918266,-0.370117,0.25415,-1.19458,-29.663084,19.218445,-13.496398
-0.444092,-0.272705,0.638428,-44.403072,-242.218002,-125.274651,-0.428711,0.29541,-1.221191,-30.387877,5.439758,-13.96942
-0.441406,-0.266846,0.623535,-60.768124,-228.416428,-125.541679,-0.397949,0.279785,-1.206055,-30.944822,13.557433,-13.877868
-0.466797,-0.293213,0.653809,-66.764832,-211.12822,-125.808708,-0.418945,0.33252,-1.233887,1.724243,28.266905,20.874022
-0.549316,-0.363281,0.739502,-62.599178,-192.161545,-126.426689,-0.346924,0.227051,-1.180664,-26.771544,21.331785,-14.991759
-0.627197,-0.483154,0.786865,-46.943661,-172.836288,-129.806519,-0.320801,0.210693,-1.165039,-21.156309,20.225523,-19.569397
-0.666504,-0.581055,0.75708,-18.928528,-166.046127,-137.710571,-0.290771,0.218018,-1.174805,-15.327453,17.883301,-23.345945
-0.797363,-0.602295,0.801758,5.638122,-180.854782,-151.542664,-0.258789,0.229248,-1.188477,-12.283324,18.211365,-25.863646
-0.671387,-0.53418,0.583984,9.689331,-208.518967,-100.555412,-0.266846,0.245117,-1.171143,-12.077331,21.278379,-27.648924
-0.921875,-0.596191,0.851318,21.598814,-112.792961,-124.130241,-0.313721,0.271729,-1.091064,-12.985229,22.28546,-27.000425
-0.614746,-0.591553,0.877441,18.264771,24.864195,43.30444,-0.387207,0.258789,-1.018555,-13.061522,17.402649,-24.894712
-0.74585,-0.705322,1.019775,7.324218,-109.626762,-109.802238,-0.456543,0.294678,-1.249756,-26.824949,-2.235413,-12.916564
-0.428955,-0.622314,0.581543,4.081726,42.015072,49.995419,-0.419922,0.34082,-1.212158,4.379272,24.894712,21.873472
-0.381348,-0.640869,0.518555,-2.182007,60.653683,50.23193,-0.409424,0.299805,-1.237549,8.720398,22.094725,20.751951
-0.317383,-0.640137,0.492188,-4.91333,86.334221,48.652645,-0.407471,0.349854,-1.22583,9.773254,19.53125,23.193357
-0.25708,-0.615234,0.510742,-6.271362,116.287224,46.531673,-0.211426,0.140381,-0.481934,58.586117,183.769211,83.732597
-0.283203,-0.584717,0.575928,-10.871886,153.549194,52.597042,-0.24585,0.147705,-0.556641,55.549618,156.799316,75.576782
-0.373047,-0.554443,0.628418,-18.104553,189.994797,63.865658,-0.296875,0.157227,-0.619141,54.38232,132.484436,68.519592
-0.820801,-0.641357,0.925537,13.816833,-108.627312,-122.138969,-0.329102,0.172363,-0.667725,54.191586,109.107964,61.454769
-0.500488,-0.499756,0.763672,-31.318663,197.647079,75.157166,-0.327881,0.198486,-0.719482,53.894039,86.982719,53.482052
-0.509277,-0.523926,0.797119,-27.618406,176.536545,71.258545,-0.325195,0.229248,-0.788086,50.109859,66.619873,46.646114
-0.48877,-0.539795,0.908936,-14.930724,140.106201,56.121822,-0.338623,0.243408,-0.836914,44.624325,49.278255,41.770931
-0.502686,-0.567871,1.021729,-0.030518,107.170097,40.786739,-0.355957,0.249756,-0.893311,39.123535,36.109924,38.223267
-0.426758,-0.509521,0.685791,-25.642393,201.698288,72.174072,-0.372559,0.255615,-0.941406,32.173157,26.336668,35.690308
-0.500732,-0.580322,1.204834,21.659849,48.789974,17.066956,-0.382568,0.25415,-0.979736,25.581358,18.325806,33.935547
-0.443848,-0.550049,1.254883,21.697996,30.128477,-3.280639,-0.417725,0.345947,-1.208984,6.958007,21.705626,22.895811
-0.324707,-0.498291,1.27124,9.544373,22.331236,-30.487059,-0.39209,0.25293,-1.038574,20.111082,12.168883,32.63855
-0.164551,-0.438721,1.283203,-15.678405,19.851685,-60.150143,-0.376709,0.234863,-1.157959,15.830993,6.973266,28.656004
-0.072021,-0.43335,1.279541,-38.902283,15.571593,-78.948975,-0.354492,0.23877,-1.214355,18.028259,7.125854,27.107237
-0.112305,-0.48877,1.215088,-53.749081,2.815246,-84.892265,-0.420898,0.212646,-0.981934,-12.115478,7.843017,-24.92523
-0.256348,-0.588135,1.165283,-57.907101,-21.034239,-88.882439,-0.336182,0.296631,-1.271973,15.174865,11.253356,25.68054
-0.459229,-0.70166,1.140137,-47.8363,-53.947445,-89.11132,-0.355957,0.310303,-1.25708,13.21411,16.403198,24.971006
-0.610352,-0.771484,1.108643,-28.900145,-87.493889,-90.934746,-0.386719,0.319092,-1.245605,10.70404,21.003721,24.223326
-0.702881,-0.770264,1.087158,-7.385253,-106.88018,-98.434441,-0.404785,0.31543,-1.227051,9.048462,23.277281,22.842405
-0.511475,-0.586182,1.115479,13.771056,76.782227,29.556273,-0.408936,0.305176,-1.225586,8.575439,23.200987,21.476744
-0.649658,0.179443,-1.19458,0.114441,6.42395,-15.243529,-0.394775,0.30957,-1.243652,9.887695,20.614622,21.026609
-0.672607,0.144531,-1.188965,-0.068665,8.888245,-18.844604,-0.386475,0.335449,-1.244385,11.116027,19.104004,22.216795
-0.675781,0.133301,-1.181641,0.953674,7.476806,-20.332335,-0.386475,0.246582,-1.098877,16.319275,8.06427,30.883787
-0.678711,0.126953,-1.171631,2.204895,5.798339,-21.354673,-0.331055,0.272949,-1.26123,17.662048,7.949829,26.268003
-0.520264,0.129883,-1.007324,-7.30133,-11.58142,-28.503416,-0.45874,0.272705,-1.297363,-20.744322,-8.117676,-11.505126
-0.616211,0.137939,-1.104248,0.595093,1.464844,-22.598265,-0.350342,0.223145,-1.068848,-1.533508,-9.498596,-36.03363
-0.57373,0.141846,-1.065186,-0.587463,-1.38855,-23.719786,-0.118408,0.173096,-0.526611,-26.06201,-111.587517,-63.33923
-0.542236,0.133545,-1.023682,-3.921509,-5.638122,-25.772093,-0.13623,0.172119,-0.489014,-31.768797,-119.186394,-64.682007
-0.657715,0.125732,-1.138184,1.51062,3.715515,-21.667479,-0.130615,0.152344,-0.463623,-38.05542,-126.815788,-67.985535
-0.611084,0.194336,-1.191162,-0.335693,-0.106812,-11.497497,-0.092041,0.115723,-0.458008,-42.343136,-134.361267,-67.459106
-0.570068,0.097168,-1.259766,8.110046,-9.284973,15.602111,-0.054199,0.055908,-0.481445,-45.1889,-136.436462,-64.872742
-0.592773,0.148926,-1.203613,-1.25885,-13.786315,-4.852295,-0.046143,0.017334,-0.501221,-48.179623,-133.483887,-68.595886
-0.615479,0.142822,-1.230713,-3.662109,-18.722534,-3.440857,0.005859,0.028809,-0.495117,-52.543636,-128.433228,-71.174622
-0.622314,0.140381,-1.253662,-6.256103,-23.872374,-2.441406,0.098633,0.025146,-0.463867,-56.571957,-119.888298,-73.371887
-0.601074,0.135254,-1.256592,-6.828308,-27.961729,-1.579285,0.11499,0.03418,-0.442139,-60.043331,-114.288322,-76.255798
-0.571533,0.141113,-1.234619,-6.538391,-30.807493,-0.205994,0.072754,0.037354,-0.407715,-62.33215,-117.507927,-77.156067
-0.575684,0.152344,-1.243652,-4.753113,-31.951902,1.548767,-0.101807,0.17749,-0.547119,-21.125792,-104.73632,-62.416073
-0.557617,0.165527,-1.264404,-2.922058,-32.188416,4.196167,0.054443,0.029541,-0.388184,-64.01825,-126.960747,-77.9953
-0.53833,0.161865,-1.272949,-1.266479,-30.120848,9.178162,0.109131,-0.037109,-0.436768,-69.55719,-146.385193,-76.660156
-0.550293,0.140625,-1.26709,1.480102,-23.765562,13.633727,0.159912,-0.077393,-0.480957,-71.243286,-154.342651,-78.117371
-0.566162,0.114014,-1.261963,4.554749,-16.311646,14.930724,0.237549,-0.073486,-0.533203,-75.485229,-158.103943,-80.596916
-0.530762,0.115234,-1.000732,-8.934021,-16.975403,-31.776426,0.315674,-0.072266,-0.560059,-81.43615,-151.0849,-81.970207
-0.587646,0.174805,-1.185059,-0.282288,-7.659912,-8.171082,0.355469,-0.083984,-0.562744,-84.686272,-136.802673,-80.741875
-0.580811,0.10083,-1.013428,-9.803772,-20.347593,-35.171509,0.342041,-0.098877,-0.540283,-84.747307,-127.17437,-78.720093
-0.643555,0.072021,-0.689697,-34.713745,-211.647018,-106.513969,0.310059,-0.111816,-0.519531,-84.358208,-128.120422,-77.392578
-0.612305,0.084229,-0.962402,-10.406493,-23.803709,-41.313168,0.30957,-0.131836,-0.513184,-83.793633,-135.437012,-77.186584
-0.562744,0.103271,-1.261475,13.549804,-4.013062,17.219543,0.360352,-0.141357,-0.523926,-84.228508,-142.555237,-78.323364
-0.90625,-0.205566,0.38916,-10.856627,-249.992355,-150.634766,-0.388184,0.197266,-1.03833,-4.989624,-7.4234,-33.348083
-0.817871,-0.124268,0.328369,-24.780272,-249.992355,-150.489807,0.074951,0.009277,-0.405029,-66.947937,-137.542725,-77.232361
-0.598389,-0.044189,0.168945,-39.489746,-249.992355,-142.562866,-0.141357,0.185791,-0.544678,-17.417908,-97.427361,-58.79211
-0.415039,-0.004395,0.012939,-49.308773,-249.992355,-131.980896,-0.415527,0.181641,-1.006348,-9.063721,-1.296997,-28.549192
-0.188477,0.016357,-0.062988,-53.550716,-249.992355,-130.950928,-0.262939,0.205566,-0.506836,-14.884948,-82.572929,-50.773617
-0.035645,0.026123,-0.128662,-54.450985,-249.992355,-138.832092,-0.220703,0.191162,-0.536377,-15.258788,-88.966362,-53.779598
-0.092773,0.033691,-0.208008,-55.595394,-249.992355,-137.8479,-0.344482,0.255127,-1.092529,1.991272,-11.58142,-33.500671
-0.19043,0.037354,-0.291992,-54.176327,-249.80925,-135.971069,-0.356689,0.241211,-1.027344,2.63977,-13.435363,-31.791685
-0.317627,0.019775,-0.357666,-46.020504,-249.992355,-129.875183,-0.369141,0.218262,-0.948486,4.135132,-16.830444,-30.868528
-0.625977,0.0896,-1.005615,-9.887695,-22.438047,-38.314819,-0.385498,0.205811,-0.905273,7.705688,-23.28491,-30.952452
-0.432373,0.010986,-0.44043,-36.682129,-249.992355,-122.299187,-0.422852,0.2146,-0.888672,11.222838,-32.585144,-31.829832
-0.605713,0.030029,-0.608887,-30.654905,-228.340134,-114.921562,-0.433105,0.216797,-0.889648,15.182494,-42.846676,-33.355713
-0.518799,0.092285,-0.710693,-36.979675,-189.674362,-89.950554,-0.397461,0.231445,-0.933105,18.089294,-52.169796,-35.705566
-0.341064,0.071289,-0.643799,-34.851074,-170.745834,-78.636169,-0.356934,0.233398,-0.977051,16.88385,-57.54089,-37.567139
-0.341797,0.052734,-0.638184,-29.670713,-150.749207,-71.990967,-0.326904,0.231201,-0.983643,13.72528,-58.54797,-38.093567
-0.368896,0.067871,-0.713135,-25.108335,-129.981995,-66.291809,-0.309082,0.229248,-0.943604,11.192321,-58.41827,-37.490845
-0.362305,0.093994,-0.773682,-20.858763,-106.445305,-59.097286,-0.342285,0.243896,-1.102295,0.900268,-10.0708,-35.316467
-0.339844,0.106689,-0.796875,-15.884398,-80.627434,-50.72784,-0.341064,0.230469,-0.794678,5.500793,-55.404659,-35.453796
-0.373291,0.095703,-0.817383,-11.482238,-54.870602,-45.043941,-0.378906,0.20752,-0.752197,4.03595,-56.129452,-35.766602
-0.466309,0.09668,-0.872559,-10.70404,-34.721375,-43.739315,-0.384277,0.177246,-0.756104,7.133483,-58.395382,-36.270142
-0.562012,0.095215,-0.914795,-11.283874,-25.337217,-43.151852,-0.339111,0.17749,-0.792725,10.345458,-58.563229,-37.68158
-0.531006,0.005615,-0.525879,-30.174253,-241.249069,-117.263786,-0.283691,0.188232,-0.835449,10.95581,-55.030819,-40.534969
-0.527588,0.124756,-1.225098,19.111633,-5.050659,20.278929,-0.264404,0.206055,-0.82959,9.170532,-52.093502,-43.876644
-0.749756,-0.237793,0.471191,-3.204345,-249.992355,-143.768311,-0.249023,0.226807,-0.762207,5.119323,-53.337093,-47.027584
-0.613525,0.165527,-1.207031,24.681089,-25.230406,27.427671,-0.240967,0.23999,-0.69043,-0.595093,-57.723995,-48.561092
-0.336426,0.216309,-0.826904,32.958984,4.943848,18.333435,-0.263916,0.26001,-0.63208,-6.935119,-63.407894,-49.522396
-0.333984,0.203857,-0.866211,34.408569,5.546569,12.649535,-0.27832,0.262939,-0.546875,-12.069701,-69.412231,-50.537106
-0.340088,0.199951,-0.857666,31.440733,7.987976,9.284973,-0.274658,0.238281,-0.500244,-14.808654,-76.194763,-50.697323
-0.307617,0.206055,-0.84668,27.343748,12.397765,10.757445,-0.311768,0.23291,-0.860107,8.68988,-57.090755,-36.216736
-0.230469,0.232178,-0.807129,21.682737,19.393921,14.633178,0.601807,-0.540039,0.462891,-18.241882,-95.581047,31.463621
-0.125732,0.267334,-0.724609,12.191772,24.116514,19.470215,0.583984,-0.574951,0.420898,-18.77594,-93.498222,30.036924
-0.108643,0.282959,-0.641846,2.998352,24.79553,26.710508,0.568359,-0.615234,0.387451,-17.13562,-93.788139,28.221128
-0.1521,0.271484,-0.60791,-2.601623,25.733946,34.294128,0.566895,-0.766602,0.362549,-22.40753,-125.335686,15.220641
-0.19458,0.233154,-0.605225,-3.089905,29.670713,38.581848,0.560059,-0.697266,0.376709,-14.060973,-98.648064,24.566648
-0.218018,0.193115,-0.610352,-0.442505,35.865784,39.642334,0.553955,-0.723633,0.392822,-15.11383,-106.330864,23.78845
-0.370117,0.273682,-0.783936,26.535032,9.361267,20.423887,0.554688,-0.727783,0.39624,-18.77594,-116.111748,22.254942
-0.216553,0.170898,-0.579834,2.059937,43.388363,39.596558,0.557373,-0.726563,0.378418,-21.743773,-123.916618,19.813538
-0.226318,0.192871,-0.594238,-5.874633,73.867798,35.362244,0.563965,-0.65625,0.369629,-15.136718,-95.016472,26.000975
-0.151367,0.226074,-0.520508,-13.076781,79.872131,39.085388,0.621582,-0.502197,0.515869,-13.275146,-100.883476,31.028746
-0.160156,0.233887,-0.426514,-17.356873,83.587639,51.216122,0.812988,-0.269531,0.720947,6.507873,-105.712883,5.836486
-0.184082,0.188477,-0.370361,-17.913818,90.263359,62.843319,0.687988,-0.397949,0.606689,-2.731323,-117.004387,25.093077
-0.169434,0.11792,-0.361816,-13.351439,97.518913,64.796448,0.734375,-0.356689,0.646973,-0.259399,-122.398369,21.110533
-0.195801,0.075195,-0.383301,-8.743286,102.813713,59.318539,0.774414,-0.321289,0.685303,2.006531,-123.977654,16.487122
-0.319824,0.039307,-0.397461,-9.185791,100.265495,55.793758,0.795654,-0.297119,0.713135,4.615784,-119.35424,12.077331
-0.455078,0.031982,-0.460938,-14.35852,91.00341,60.401913,0.786377,-0.256104,0.730469,8.666992,-85.945122,1.449585
-0.40332,0.077881,-0.451904,-19.348145,84.564201,64.277649,0.700928,-0.286377,0.740234,12.702941,-69.381714,4.882813
-0.271729,0.116943,-0.354492,-23.567198,88.188164,63.751217,0.610107,-0.366943,0.738281,20.63751,-54.824825,13.046264
-0.24292,0.173584,-0.564697,0.465393,57.441708,37.872314,0.624756,-0.472656,0.692871,34.660339,-31.044004,16.876221
-0.398926,0.328857,-0.799805,23.727415,22.216795,19.958496,0.74707,-0.570557,0.584961,52.146908,7.392883,11.512755
-0.560303,0.14502,-1.20166,23.300169,-11.932372,24.017332,0.593262,-0.817627,0.349365,-24.322508,-119.415276,8.308411
-0.460693,0.289307,-0.938232,28.282164,59.29565,13.168334,0.888184,-0.646973,0.445557,68.565369,50.918575,4.341125
-0.638672,0.175781,-1.216309,24.536131,-43.80798,30.72357,0.651367,-0.450928,0.568359,-6.614685,-108.856194,28.45001
-0.635254,0.175781,-1.213379,22.689817,-63.07983,34.263611,0.618408,-0.845459,0.35498,-28.305052,-108.573906,0.88501
-0.637939,0.156494,-1.206787,20.126341,-77.9953,36.994934,1.118164,-0.901855,0.058838,-126.548759,-199.798569,-92.292778
-0.621582,0.132813,-1.207031,19.432068,-88.027946,38.658142,0.619629,-0.858154,0.37085,-38.146973,-83.57238,-15.190124
-0.593018,0.137695,-1.192383,19.302368,-89.401237,38.703918,1.008789,-0.703125,0.296143,75.180054,80.01709,8.018494
-0.529541,0.164307,-1.174316,18.974304,-84.175102,39.245605,0.51416,-0.651367,-0.834229,-26.527403,-249.992355,-98.167412
-0.42627,0.326172,-0.86499,25.878904,40.504452,17.181396,0.450928,-0.700928,-0.820557,-17.799377,-249.992355,-99.06768
-0.468994,0.217529,-1.077148,23.460386,-72.341919,44.334408,0.436768,-0.709229,-0.845947,-12.7182,-249.992355,-108.604424
-0.480957,0.197266,-1.027832,30.517576,-65.696716,46.218868,0.547363,-0.702881,-0.870605,-17.601013,-249.992355,-119.85778
-0.480469,0.183105,-1.033691,38.146973,-51.36108,43.258663,0.735107,-0.702148,-0.849121,-29.029844,-249.992355,-129.920959
-0.459961,0.179443,-1.078613,42.259212,-29.869078,35.873413,0.865967,-0.692627,-0.782227,-45.036312,-249.992355,-133.674622
-0.479492,0.196533,-1.121338,19.927979,-77.262878,41.191097,0.86377,-0.719238,-0.69165,-65.910339,-249.984726,-126.281731
-0.425781,0.229736,-1.052979,40.031433,4.951477,21.89636,0.850342,-0.798584,-0.550293,-80.909721,-249.992355,-118.568413
-0.397461,0.270264,-1.063721,33.500671,13.397216,20.431517,0.835449,-0.864746,-0.415527,-89.454643,-249.969467,-109.176628
-0.328125,0.288086,-1.038086,27.008055,16.853333,20.942686,0.890137,-0.861572,-0.300781,-98.709099,-249.076828,-99.411003
-0.289307,0.260498,-0.998047,25.55084,20.606993,18.035889,1.020752,-0.826904,-0.192139,-114.181511,-249.992355,-94.108574
-0.321533,0.240234,-0.954834,28.07617,29.289244,13.099669,1.136719,-0.850586,-0.083252,-127.29644,-249.992355,-95.008842
-0.391357,0.234863,-0.929443,29.388426,40.344234,8.384705,0.919434,-0.90625,0.208252,-111.000053,-138.275146,-85.281364
-0.445801,0.202393,-0.966553,32.859802,50.926205,3.52478,0.730225,-0.855225,0.309814,-94.65789,-99.311821,-77.140808
-0.468506,0.171875,-1.02417,36.865234,60.066219,-0.297546,0.62793,-0.819336,0.318359,-86.837761,-84.312431,-67.047119
-0.500244,0.179443,-1.050293,35.682678,67.596436,1.373291,0.631104,-0.82373,0.272461,-86.509697,-82.031242,-59.494015
-0.480469,0.226074,-1.003662,32.600403,70.243835,8.537292,0.654541,-0.82959,0.28418,-86.868279,-78.826904,-53.359982
-0.438232,0.197998,-1.071533,42.854305,-9.063721,27.565001,0.631592,-0.831543,0.35498,-81.489555,-71.228027,-47.012325
-0.715088,-0.515381,0.846924,-69.168091,157.051086,37.376404,0.593506,-0.825195,0.443848,-71.266174,-64.094543,-41.313168
-0.733643,-0.533203,0.878174,-62.408443,149.101257,41.290279,0.556396,-0.841797,0.484131,-59.318539,-61.058041,-33.8974
-0.690918,-0.562256,0.850098,-67.527771,140.24353,51.773067,0.54834,-0.855469,0.466309,-47.904964,-64.071655,-25.665281
-0.660156,-0.571777,0.783691,-80.490105,133.377075,64.430237,0.580566,-0.851807,0.427002,-41.465755,-71.899414,-20.248411
-0.586914,-0.579834,0.526855,-121.421806,245.964035,99.853508,0.627441,-0.857666,0.356201,-33.699036,-96.16851,-7.629394
-0.68042,-0.59375,0.733887,-101.188652,167.205795,78.392029,0.607178,-0.608398,-0.883789,-32.341003,-249.992355,-101.135246
-0.685059,-0.57251,0.721436,-111.54937,208.47319,82.611076,1.135254,-0.774658,0.165283,76.759338,88.302605,11.932372
-0.613281,-0.538086,0.640869,-119.560234,237.808212,89.347832,1.302734,-0.881592,-0.260498,78.262329,63.781734,0.579834
-0.661377,-0.583496,0.752441,-91.522209,138.587952,73.539734,0.813232,-0.338379,0.198242,21.385191,249.992355,179.87059
-0.695068,-0.566162,0.844482,-75.393677,163.589462,37.208557,0.80249,-0.366699,0.196289,29.58679,249.992355,173.805222
-0.350586,-0.460449,0.707764,-57.624813,59.55505,13.381957,0.802002,-0.405518,0.198486,45.356747,249.992355,164.070114
-0.751709,-0.635742,0.838867,-72.158813,161.895737,36.6745,0.830322,-0.420654,0.154053,61.248775,249.992355,154.914856
-0.732178,-0.64502,0.857178,-63.888546,149.894714,30.632017,0.888916,-0.376953,0.099854,71.18988,249.992355,150.138855
-0.635498,-0.62085,0.879395,-53.855892,136.459351,25.650023,0.959961,-0.304932,0.058105,73.768616,249.992355,151.130676
-0.505859,-0.575439,0.89209,-46.867367,129.150391,19.439697,1.023193,-0.236084,0.031006,69.549561,249.992355,156.051636
-0.448975,-0.557617,0.9021,-43.80798,131.271362,15.548705,0.976074,-0.157715,-0.003662,57.861324,249.992355,161.537155
-0.509033,-0.568848,0.865479,-45.753475,136.306763,13.572692,0.806641,-0.068848,-0.008545,43.449398,249.992355,166.709885
-0.568359,-0.571045,0.806885,-50.888058,130.760193,13.633727,0.67334,-0.025146,0.010498,37.30011,249.992355,167.27446
-0.532227,-0.552002,0.747559,-53.909298,109.252922,16.098022,0.810547,-0.341797,0.233398,21.247862,247.970566,184.799179
-0.451416,-0.512451,0.743164,-53.405758,82.145683,12.222289,0.572998,-0.006104,0.002686,42.861935,249.992355,162.292465
-0.401367,-0.479248,0.73877,-54.420467,66.070557,10.330199,0.450195,0.015625,-0.224365,52.719112,249.992355,150.474548
-0.648926,-0.722656,0.420654,-126.16729,246.314987,119.36187,0.461914,0.012451,-0.344238,55.473324,249.992355,144.683838
-0.733887,-0.616455,0.844482,-76.278687,167.52623,40.145874,0.459961,-0.006836,-0.422363,56.640621,249.992355,144.134521
-0.785156,-0.841797,0.410156,-148.155212,249.969467,139.656067,0.355713,-0.016357,-0.453369,62.011715,249.992355,138.031006
-1.287598,-0.157959,-0.595459,-7.225036,219.993576,182.327255,0.153809,0.008057,-0.453369,65.391541,249.992355,128.364563
-0.907959,-0.7854,0.130859,-203.727707,249.93132,184.211716,-0.01709,0.022461,-0.331299,68.244934,249.793991,119.392387
-0.330322,-0.452393,0.699707,-59.394833,61.592098,16.372681,-0.104736,0.024902,-0.268311,71.792603,249.885544,111.984245
-0.794189,0.063232,-0.510498,-0.228882,87.60833,139.778137,-0.148682,0.052002,-0.303223,72.135925,249.992355,104.835503
-0.881836,0.038574,-0.510742,5.897521,101.97448,152.671814,-0.172852,0.083496,-0.343018,67.947388,242.965683,98.213188
-0.99292,0.000977,-0.544434,11.352538,116.71447,163.703903,-0.188232,0.118896,-0.397217,63.423153,213.058456,91.629021
-1.112061,-0.043701,-0.595459,15.808105,136.566162,173.56871,0.479248,0.016113,-0.084717,49.568172,249.992355,156.593323
-1.222656,-0.064697,-0.624512,19.958496,159.622192,184.905991,0.768799,-0.37793,0.269775,23.475645,216.377243,189.750656
-1.264648,-0.0896,-0.637695,22.315977,180.6259,194.595322,1.292725,-0.841064,-0.01709,79.368591,76.751709,6.706237
-1.273682,-0.129395,-0.644531,21.965025,197.685226,202.514633,0.688477,-0.428467,0.347656,27.854918,151.283264,194.297775
-1.339111,-0.195557,-0.677979,20.698545,214.317307,209.411606,1.291748,-0.899902,-0.384766,70.266724,53.245541,-9.590149
-1.427734,-0.218018,-0.718506,19.271851,226.127609,212.844833,1.185059,-0.900635,-0.418457,53.298946,50.849911,-21.072386
-0.910645,-0.83374,0.331543,-181.205734,249.992355,161.560043,0.988281,-0.909424,-0.262451,35.858154,46.562191,-19.851685
-1.421875,-0.203613,-0.707275,16.471863,229.972824,211.425766,0.860596,-0.936279,-0.062012,21.179197,37.086487,-17.677307
-1.326416,-0.155029,-0.604736,4.058838,221.45079,194.274887,0.776611,-0.970947,0.106201,12.184142,27.610777,-16.044617
-1.309814,-0.192139,-0.613525,-20.843504,229.438766,173.881516,0.721191,-1.000977,0.249512,10.95581,27.366636,-8.842468
-1.356934,-0.19165,-0.6604,-41.984554,240.943893,169.105515,0.720215,-0.415283,0.303467,24.833677,174.621567,193.244919
-1.275146,-0.188232,-0.75293,-76.766968,248.306259,171.485886,0.840576,-0.96582,0.358398,14.297484,69.000244,10.879516
-1.21582,-0.334473,-0.689941,-100.448601,249.992355,183.174118,0.879883,-0.943359,0.405029,11.070251,107.26165,10.726928
-1.293213,-0.301514,-0.706543,-131.996155,249.992355,199.66124,0.892334,-0.939453,0.512451,18.211365,140.678406,30.700682
-1.324951,-0.380615,-0.629639,-168.792709,249.992355,214.927658,0.906494,-0.94873,0.53418,36.956787,165.2603,72.822571
-1.151123,-0.500732,-0.445313,-190.483078,249.992355,215.66008,0.753906,-0.997314,0.348633,14.457702,40.64941,3.517151
-0.970459,-0.546387,-0.254883,-203.208908,249.992355,209.266647,0.876953,-0.866699,0.546387,58.052059,182.342514,113.800041
-0.866211,-0.684082,-0.078369,-210.74675,249.992355,199.66124,0.875244,-0.826172,0.578613,65.170288,186.561569,125.740044
-1.377197,-0.18335,-0.650146,12.08496,228.591904,205.047592,0.833496,-0.776855,0.604492,71.098328,193.809494,136.08551
-0.737061,0.064209,-0.482666,-7.781982,72.746277,128.463745,0.789551,-0.722656,0.625244,75.302124,194.686874,146.118164
-0.334717,-0.442871,0.729004,-55.351254,66.818237,19.691467,0.755615,-0.654785,0.63501,75.126648,187.400803,157.722473
-0.430908,-0.38623,0.787354,-37.315369,65.490723,33.493042,0.721436,-0.585205,0.614502,69.80896,173.103317,170.539841
-0.850098,-0.545898,0.8125,-56.846615,36.399841,-200.782761,0.669678,-0.524414,0.574951,60.874935,156.051636,180.686935
-1.020508,-0.64917,0.938477,-60.844418,8.232117,-212.188705,0.662109,-0.485596,0.515381,50.582882,141.677856,186.859116
-1.179199,-0.78418,1.059082,-51.139828,-24.604795,-212.051376,0.675293,-0.455322,0.456543,41.41235,136.070251,190.971359
-1.243652,-0.900391,1.149658,-36.338806,-66.589355,-207.702621,0.678955,-0.433105,0.394043,33.866882,139.73999,193.450912
-1.159912,-0.967529,1.195557,-19.004822,-114.807121,-206.08519,0.885254,-0.912598,0.534912,46.95892,180.732712,99.899284
-1.043701,-0.976807,1.210693,0.221252,-151.077271,-196.434006,0.201904,0.306641,-1.091064,34.65271,-10.177611,17.852783
-0.932617,-0.93335,1.203613,15.2359,-175.399765,-183.464035,0.196533,0.304688,-1.07373,33.874512,-14.556884,16.670227
-0.797363,-0.8479,1.181641,21.049498,-193.595871,-173.507675,0.191895,0.31543,-1.053223,32.928467,-15.304564,15.823363
-0.62085,-0.750977,1.10791,18.257141,-206.909164,-166.824326,0.197754,0.338135,-1.061279,33.065796,-12.145995,15.274047
-0.434326,-0.607178,0.927246,-3.234863,-215.942368,-156.768799,0.272949,0.279785,-1.171387,22.377012,9.803772,16.548157
-0.648438,-0.515869,0.720947,-39.459229,52.833553,-183.39537,0.260498,0.341064,-1.135986,32.981873,-2.555847,13.557433
-0.417725,-0.554932,0.842529,-17.311096,-221.542343,-154.083252,0.283447,0.321533,-1.155029,32.051086,1.548767,13.908385
-0.403564,-0.47876,0.672363,-43.319698,-249.18364,-149.208069,0.286133,0.288574,-1.168945,28.732298,6.065368,15.060424
-0.407227,-0.447754,0.618652,-58.952328,-249.992355,-147.148132,0.22168,0.349121,-1.106934,33.26416,-6.896972,14.335631
-0.430176,-0.435059,0.588379,-76.86615,-249.992355,-141.51001,0.203857,0.295166,-1.093994,34.629822,-4.364014,17.295837
-0.407959,-0.429443,0.570557,-91.796867,-249.992355,-129.890442,0.075195,0.231445,-0.776367,0.694275,25.993345,27.290342
-0.342285,-0.438477,0.551514,-95.893852,-249.992355,-115.287773,0.189941,0.29126,-1.078125,35.346985,12.252807,18.440247
-0.268555,-0.454834,0.565918,-81.855766,-249.992355,-104.728691,0.171875,0.28418,-1.060547,35.491943,21.194456,20.195005
-0.208252,-0.442871,0.549072,-52.169796,-249.992355,-102.371208,0.153809,0.293457,-1.057373,35.232544,30.151365,22.40753
-0.234619,-0.391602,0.516357,-22.918699,-249.992355,-114.967339,0.129395,0.276611,-1.016357,34.301758,36.773682,24.055479
-0.455078,-0.31958,0.504395,-4.417419,-249.992355,-133.544922,0.134766,0.25708,-0.983398,33.470154,39.31427,24.177549
-0.358887,-0.418701,0.761719,-46.676632,69.30542,24.528502,0.155029,0.247314,-0.974365,31.98242,40.039063,23.490904
-0.416016,-0.512451,0.757568,-30.731199,-236.221298,-151.71814,0.174561,0.247314,-0.966064,29.754637,39.741516,23.773191
-0.463623,-0.562256,0.62207,-19.996643,50.216671,-163.505539,0.154053,0.249023,-0.927979,24.665831,38.352966,25.024412
-0.490479,-0.669189,1.014404,9.338379,-213.104233,-161.163315,0.119385,0.249023,-0.866699,17.219543,34.759521,26.580809
-0.395264,-0.776611,0.467529,12.596129,27.259825,-111.999504,0.092773,0.236328,-0.814697,8.934021,29.800413,27.595518
-0.374023,-0.657959,0.523682,-1.815796,37.368774,-138.977051,0.261475,0.275635,-1.145996,16.868591,10.681151,18.363953
-0.568848,-0.318359,0.852051,-22.697447,32.577515,67.497253,0.207275,0.284668,-1.093994,35.232544,2.952575,16.685486
-0.668945,-0.354736,0.905273,-6.004333,3.14331,84.44976,0.245605,0.270264,-1.124512,12.519835,11.688231,19.805908
-0.767822,-0.357422,0.943115,12.733459,-33.187866,100.273125,0.30249,0.263916,-1.223877,-10.383605,19.981384,19.538879
-0.848633,-0.343262,0.979492,29.33502,-75.85907,118.080132,0.305176,0.263428,-1.171143,8.033752,16.395569,18.463135
-0.871826,-0.316406,1.021973,39.978027,-120.460503,133.270264,0.064941,0.259033,-0.784668,-6.16455,22.15576,26.252745
-0.830322,-0.3125,1.039063,43.495174,-164.703354,139.930725,0.431152,0.297852,-1.272217,-20.019531,21.659849,39.535522
-0.793945,-0.371826,1.033691,45.600887,-204.597458,139.701843,0.427734,0.298584,-1.317627,-18.417358,25.588987,39.329529
-0.749023,-0.482178,1.016357,53.558346,-234.596237,134.674072,0.415771,0.301025,-1.362305,-16.822815,29.266356,40.084839
-0.644043,-0.579834,0.976074,67.886353,-244.865402,124.198906,0.409424,0.294189,-1.395264,-15.686034,30.929564,39.916992
-0.479736,-0.613281,0.920166,80.001831,-225.013718,101.264946,0.415283,0.280762,-1.431396,-13.511657,30.662535,38.696289
-0.508545,-0.32959,0.808105,-30.914305,53.802486,50.369259,0.408936,0.275391,-1.449951,-10.421752,29.96826,36.895752
-0.313721,-0.632813,0.768799,86.570732,-119.453423,48.759457,0.397461,0.285889,-1.421631,-7.011413,29.151915,34.614563
-0.3479,-0.620361,0.855957,87.09716,-180.587753,75.485229,0.383057,0.314453,-1.366943,-4.829407,28.808592,32.691956
-0.551025,-0.939697,0.402832,20.294188,31.028746,-56.724545,0.353027,0.337891,-1.300781,-6.195068,28.808592,30.891417
-0.585205,-0.937012,0.408203,20.164488,25.741575,-41.069027,0.258057,0.268799,-1.142822,9.82666,14.656066,20.286558
-0.585693,-0.830566,0.557373,26.092527,9.231567,-31.196592,0.327881,0.337891,-1.245361,-8.415222,27.595518,28.060911
-0.538086,-0.832031,0.50708,37.307739,14.694213,-34.202576,0.305664,0.296143,-1.217285,-11.047362,22.094725,22.918699
-0.468506,-0.875488,0.450684,20.39337,26.763914,-85.014336,0.295166,0.256104,-1.223877,-9.620667,18.585205,15.594481
-0.499268,-0.768799,0.58667,47.58453,4.356384,12.687682,0.297363,0.262451,-1.207275,-8.766174,18.39447,12.573241
-0.450195,-0.729004,0.668945,64.819336,-19.14978,18.180847,0.29834,0.275146,-1.17749,-7.453918,19.889832,11.856078
-0.35376,-0.684814,0.686035,78.117371,-61.485287,26.138304,0.283203,0.294678,-1.143066,-7.156372,21.102903,12.519835
-0.487549,-0.831055,0.488281,38.9328,14.175414,-13.702392,0.266602,0.294434,-1.11084,-7.591247,20.210264,12.413024
-1.02832,0.484619,-0.771729,35.919189,8.743286,-25.840757,0.275879,0.271729,-1.105957,-7.331848,17.532349,11.909484
-0.959229,0.451416,-0.760254,18.569946,2.01416,-11.978148,0.301025,0.248779,-1.133301,-5.027771,15.663146,11.436461
-0.92627,0.443359,-0.721191,19.134521,5.470275,-12.001037,0.326172,0.238037,-1.166016,0.175476,15.510558,12.123107
-0.958252,0.457275,-0.70752,20.835875,7.293701,-11.283874,0.33374,0.251953,-1.184082,5.279541,16.189575,14.831542
-0.977051,0.473389,-0.714844,22.048948,8.506775,-10.81848,0.30957,0.324463,-1.223389,-10.055541,24.955748,25.238035
-0.982666,0.474854,-0.716064,22.827147,8.06427,-11.611938,0.060791,0.279541,-0.836182,-12.725829,16.75415,24.085997
-1.00415,0.454346,-0.727295,24.177549,6.91986,-14.083861,0.044922,0.242432,-0.837158,-17.448425,10.475158,21.377562
-1.020264,0.429199,-0.781738,17.63916,-1.38855,-14.137267,0.042236,0.21167,-0.818848,-19.302368,2.39563,19.241333
-1.029541,0.445557,-0.747314,27.542112,6.484985,-17.425537,0.119873,0.061035,-0.35083,-98.213188,23.300169,-36.659241
-1.036865,0.470703,-0.766846,31.616209,7.537841,-20.996092,0.159424,0.003906,-0.372559,-89.988701,19.477844,-42.625423
-1.047363,0.485352,-0.764893,42.427059,9.674072,-31.532286,0.215332,-0.021729,-0.440918,-81.977837,17.532349,-49.911495
-0.971436,0.547363,-0.693359,57.113644,6.576538,-37.315369,0.216553,0.026611,-0.549805,-80.184937,16.548157,-55.206295
-1.06543,0.509033,-0.766113,53.649899,8.766174,-37.612915,0.175049,0.07373,-0.565674,-85.479729,10.147094,-58.410641
-1.022217,0.528564,-0.751953,55.923458,8.430481,-37.17804,0.168213,0.05249,-0.537598,-88.920586,-4.623413,-62.568661
-0.977539,0.540283,-0.723145,57.060238,7.400512,-37.818909,0.185791,0.031006,-0.56665,-89.469902,-25.352476,-66.696167
-0.958008,0.568359,-0.675049,56.503292,7.827758,-35.400391,0.228516,0.004883,-0.5979,-87.936394,-48.194881,-71.060181
-0.914551,0.585205,-0.651855,54.244991,8.132935,-35.186768,0.280029,-0.032227,-0.647949,-85.182182,-72.570801,-74.745178
-0.91748,0.571045,-0.635498,53.352352,7.438659,-34.988403,0.332764,-0.05127,-0.705566,-83.297722,-97.541801,-78.636169
-0.924805,0.559814,-0.636475,52.688595,6.858825,-34.439087,0.098145,0.105469,-0.335693,-104.209892,28.648375,-33.447266
-0.926025,0.548584,-0.652832,52.574154,7.476806,-35.499573,0.371094,-0.040039,-0.788574,-84.686272,-120.727531,-83.06884
-0.92334,0.560547,-0.656006,52.963253,8.132935,-37.025452,0.445068,-0.119873,-0.896484,-82.412712,-172.256454,-90.835564
-1.025879,0.427246,-0.791748,13.832091,-4.852295,-15.640258,0.469238,-0.150879,-0.96582,-76.568604,-205.947861,-92.704765
-1.063721,0.492188,-0.768066,48.942562,8.972168,-36.064148,0.502441,-0.182129,-0.991699,-70.762634,-238.166794,-90.782158
-1.039307,0.473877,-0.835449,11.054992,-8.346558,-15.86151,0.55249,-0.2229,-0.985352,-64.071655,-249.992355,-90.339653
-0.908691,0.561279,-0.643555,51.284786,7.04956,-37.414551,0.587646,-0.275146,-0.990967,-59.120174,-249.992355,-93.490593
-1.122803,0.434082,-0.886719,6.622314,-17.326355,-21.583555,0.619141,-0.353271,-0.97998,-55.694576,-249.992355,-97.68676
-0.955078,0.252441,-0.610596,14.122008,-53.550716,-39.94751,0.642334,-0.416748,-0.991943,-50.682064,-249.992355,-100.028984
-0.998291,0.237549,-0.623535,14.442443,-41.610714,-35.865784,0.602295,-0.451416,-0.984863,-46.06628,-249.992355,-101.554863
-1.061279,0.23584,-0.641113,15.258788,-33.355713,-32.920837,0.618408,-0.491699,-0.966064,-43.533321,-249.992355,-103.805534
-1.099121,0.263916,-0.667725,13.694762,-30.776976,-28.900145,0.710693,-0.516113,-0.986328,-41.801449,-249.992355,-103.942863
-1.090576,0.284912,-0.680664,9.910583,-33.187866,-23.376463,0.407959,-0.070068,-0.83374,-86.158745,-143.783569,-86.97509
-1.077637,0.295166,-0.681885,5.889892,-35.888672,-20.004272,0.088379,0.13623,-0.36377,-106.460564,33.058167,-31.654356
-1.065918,0.302734,-0.677246,1.51062,-37.765503,-19.66095,0.728027,-0.5625,-0.947754,-37.139893,-249.992355,-102.676384
-1.057373,0.328125,-0.690186,-3.181457,-38.093567,-18.119812,0.166992,0.10376,-0.442871,-97.839348,17.822266,-30.616758
-1.03418,0.338623,-0.702637,-7.942199,-36.941528,-16.204834,0.040039,0.199463,-0.819824,-22.415159,-4.570007,15.998839
-1.03125,0.333496,-0.71875,-10.475158,-34.286499,-16.189575,0.034912,0.192383,-0.808105,-25.314329,-7.6828,12.947082
-1.09668,0.474365,-0.871338,9.963989,-12.367248,-18.058777,0.04126,0.201416,-0.754883,-29.754637,-6.965637,9.178162
-1.063477,0.330566,-0.756592,-11.58142,-31.219481,-17.356873,0.040283,0.201904,-0.697266,-37.17804,-7.652282,4.669189
-1.166992,0.331787,-0.836182,-11.688231,-24.604795,-18.127441,0.018799,0.198975,-0.653564,-47.248837,-9.857178,1.991272
-1.216064,0.358154,-0.861572,-11.650084,-21.987913,-18.562317,0.001465,0.185547,-0.604004,-56.648251,-12.733459,1.098633
-1.25,0.392578,-0.874512,-12.649535,-23.15521,-18.470764,0.120605,0.137695,-0.426025,-103.141777,30.731199,-30.448912
-1.265381,0.407471,-0.882568,-13.931273,-27.839659,-18.257141,0.015381,0.118164,-0.610596,-68.832397,-28.160093,-3.112793
-1.263184,0.404785,-0.900635,-14.900207,-33.760071,-19.523621,0.039551,0.085449,-0.62207,-70.94574,-35.263062,-5.966186
-1.230225,0.399902,-0.911621,-16.571045,-39.527893,-21.369932,0.057373,0.073486,-0.642578,-68.79425,-35.873413,-8.102417
-1.1604,0.393066,-0.921387,-16.921997,-41.41235,-22.697447,0.070557,0.078125,-0.63623,-70.426941,-33.14209,-11.337279
-1.106445,0.397705,-0.925049,-13.267516,-37.17041,-23.124693,0.000244,0.148193,-0.592529,-64.26239,-18.90564,-0.419617
-1.098389,0.401123,-0.910889,-7.026672,-30.792234,-21.759031,0.026611,0.077881,-0.559082,-81.085197,-26.81732,-15.129088
-1.113281,0.406982,-0.904785,0.167847,-23.658751,-22.201536,-0.026367,0.075195,-0.497559,-85.250847,-29.975889,-14.991759
-1.112061,0.325684,-0.798584,-12.145995,-28.19824,-17.921448,-0.014404,0.061768,-0.482422,-94.146721,-32.989502,-16.098022
-0.909668,0.540039,-0.650635,49.156185,4.875183,-37.536621,0.016113,0.044678,-0.47168,-99.609367,-36.476135,-18.592834
-0.958008,0.523438,-0.656982,47.775265,1.487732,-38.414001,0.029785,0.043945,-0.443359,-102.34832,-43.022152,-20.790098
-0.956787,0.519287,-0.643555,43.724056,-3.814697,-38.230896,0.052002,0.033447,-0.419922,-102.546684,-47.027584,-21.812437
-0.479492,0.261719,-0.292725,-51.689144,10.910033,56.571957,0.0896,0.023682,-0.388428,-99.723808,-45.387264,-22.888182
-0.493164,0.260254,-0.272949,-57.708736,8.209229,60.905453,0.119141,0.027344,-0.398926,-96.137993,-38.154602,-24.55139
-0.518311,0.234131,-0.324219,-58.113094,5.401611,62.355038,0.122803,0.045654,-0.422607,-95.657341,-23.979185,-27.549742
-0.442871,0.290283,-0.291748,-57.701107,3.684997,59.42535,0.151123,0.069336,-0.428711,-96.16851,-3.051758,-29.884336
-0.368652,0.269531,-0.225586,-59.730526,5.043029,60.157772,0.07959,0.076172,-0.5979,-77.278137,-28.671263,-14.839171
-0.405029,0.219971,-0.228516,-61.073299,11.108397,63.735958,0.643555,-0.879639,-0.209717,45.677181,65.139771,-45.1889
-0.470215,0.177734,-0.249023,-59.951778,20.172117,65.704346,0.704834,-0.922852,-0.213623,65.002441,57.167049,-43.243404
-0.490479,0.165527,-0.239502,-61.897274,25.970457,68.252563,0.701172,-0.926025,-0.15625,75.233459,46.890255,-31.784056
-0.496582,0.16626,-0.212891,-68.511963,23.933409,70.137024,0.657227,-0.873291,-0.053223,76.957703,44.212337,-18.249512
-0.498535,0.194092,-0.201416,-74.028015,16.166687,72.044373,1.127686,-0.26709,0.480713,37.849426,164.611801,-67.573547
-0.516846,0.251953,-0.282227,-49.743649,12.535094,55.252071,0.658447,-0.635254,0.266846,62.034603,82.878105,-5.332946
