ax,ay,az,gx,gy,gz,ax,ay,az,gx,gy,gz
-0.763428,-1.303223,-0.091553,-113.243095,83.213799,100.791924,-0.137207,-0.161133,-0.893311,-12.4588,30.418394,16.456604
-0.048584,-0.743652,0.509521,14.244079,29.251097,-31.440733,0.023438,-0.143311,-0.982666,39.619446,8.735657,6.980896
0.006348,-0.703857,0.413086,15.624999,47.508236,-33.226013,-0.139893,0.02002,-0.932617,-18.486023,29.609678,6.233215
-0.02417,-0.670654,0.338867,16.700745,65.910339,-33.050537,0.014404,-0.080078,-0.975098,-69.259644,-11.436461,-9.69696
-0.410645,-1.529541,-0.059082,134.078979,-129.379272,-65.765381,0.104248,-0.285889,-1.204346,50.498959,46.340939,-19.325256
-0.497559,-1.68457,-0.134033,155.204773,-149.406433,-73.58551,0.034424,-0.307373,-1.072998,49.781796,34.164429,-16.609192
-0.671875,-1.641602,-0.351318,156.517029,-176.177963,-79.605103,0.000488,-0.30249,-0.991699,54.168697,22.560118,-10.56671
-0.832275,-1.408203,-0.548828,133.255005,-210.586533,-94.314568,0.005615,-0.274414,-1.037842,60.470577,13.252257,-2.960205
-0.890625,-1.257324,-0.450684,102.34832,-243.988022,-80.688469,0.021729,-0.247803,-1.060791,63.690182,7.034301,3.40271
-0.709717,-1.269531,0.040283,106.056206,-249.992355,-50.621029,0.046387,-0.239014,-1.070557,62.622066,2.799988,7.057189
-0.317627,-1.37915,0.389404,148.986816,-232.559189,-37.223816,0.063721,-0.229004,-1.095215,59.654232,0.488281,9.429932
0.050049,-1.499023,0.299072,199.15007,-178.047165,-27.420042,0.083008,-0.197021,-1.124512,55.412289,0.404358,11.337279
0.19873,-1.563721,-0.025635,235.939011,-116.882317,-25.772093,0.113037,-0.135742,-1.104492,48.294064,2.502441,10.734557
0.062988,-1.553223,-0.349609,242.691025,-66.215515,-48.110958,-0.164063,-0.058594,-0.919678,-20.187376,26.725767,12.245177
-0.446045,-1.294189,-0.054199,114.715569,-111.335747,-50.941463,0.113525,-0.078125,-1.105469,39.527893,5.424499,8.18634
-0.215332,-1.432129,-0.675537,221.549973,-41.442867,-63.560482,0.038574,-0.107666,-1.066895,35.072327,8.514404,6.309509
-0.388916,-1.177734,-1.010498,166.90062,-70.838928,-42.320248,0.000732,-0.117188,-0.963135,42.16766,9.971619,7.911682
-0.322266,-1.261719,-0.610596,183.807358,-80.833427,-38.078308,-0.022705,-0.0271,-1.024902,37.246704,13.572692,7.766723
-0.117432,-1.312012,-0.131592,220.19957,-77.415466,-34.370422,-0.057861,0.066406,-1.0979,26.924131,19.844055,7.293701
0.070068,-1.266357,-0.035156,243.392929,-64.01062,-26.679991,-0.077393,0.085938,-1.129883,18.424988,24.688719,8.674622
0.063965,-1.135498,-0.231201,242.546066,-44.776913,-19.53125,-0.064209,0.022949,-1.046387,15.083312,28.07617,10.025024
-0.034912,-0.914551,-0.427979,219.902023,-28.57971,-17.570496,-0.022461,-0.033447,-0.985352,13.923644,33.096313,9.735107
-0.104248,-0.680176,-0.602783,179.939255,-21.90399,-10.604857,0.017822,-0.025635,-0.993896,10.406493,38.482666,7.568359
-0.12915,-0.549316,-0.737793,136.787415,-20.858763,-0.946045,-0.006348,0.008545,-1.007568,3.044128,40.542599,4.722595
-0.107178,-0.594971,-0.676758,108.489983,-20.675657,3.051758,-0.075439,0.037354,-0.987549,-7.865905,36.354065,3.692627
-0.067871,-0.75293,-0.436768,107.620232,-13.954162,0.190735,0.079346,-0.068115,-1.117432,34.133911,7.415771,6.385803
-0.401611,-1.236328,-0.96167,189.32341,-48.034664,-53.268429,-0.026123,-0.140381,-0.942383,-76.477051,-4.631042,-13.885497
-0.566895,-1.066162,-0.121338,106.918327,-89.935295,-43.228146,-0.07373,-0.246826,-0.896484,-77.728271,-9.19342,-15.701293
-0.056641,-0.894287,-0.257324,127.395622,-0.114441,-11.45172,-0.083008,-0.305664,-0.838379,-80.169678,-21.789549,-14.846801
-0.604004,-0.848145,-0.44873,150.9552,-50.178524,-41.870113,0.110596,-0.541016,-0.50293,-176.177963,26.336668,-30.105589
-0.130615,-0.649658,0.251953,19.90509,78.163147,-29.693602,0.109375,-0.548584,-0.455078,-178.764328,31.677244,-26.756285
-0.213379,-0.613281,0.18042,30.3421,74.363708,-25.024412,0.104004,-0.614014,-0.385986,-173.377975,36.491394,-24.131773
-0.310791,-0.542236,0.153809,37.979126,58.532711,-21.575926,0.112793,-0.71167,-0.313477,-163.169846,39.131165,-22.3999
-0.472412,-0.468018,0.119873,37.521362,38.764954,-16.25824,0.109863,-0.794189,-0.256104,-156.295776,38.116455,-20.76721
-0.56665,-0.329834,0.000488,30.052183,21.110533,-15.3656,0.089844,-0.861816,-0.247803,-154.983521,32.066345,-19.210815
-0.474121,-0.180908,-0.213623,2.906799,21.369932,-16.174316,0.079346,-0.914795,-0.297363,-154.884338,22.468565,-17.333984
-0.626709,-0.904785,-0.277588,118.247978,-69.412231,-43.907162,0.065918,-0.927002,-0.398193,-154.907227,11.665343,-15.800475
-0.414307,-0.625732,-0.333984,-3.913879,-1.815796,26.367186,0.050781,-0.906006,-0.479492,-156.112671,2.319336,-13.97705
-1.304443,-1.09082,-0.894287,57.861324,-73.455811,67.047119,0.06958,-0.909424,-0.513672,-155.731201,-3.166198,-12.481688
-2.306152,-1.125488,-1.498779,93.963615,-172.714218,76.873779,0.110352,-0.601318,-0.499023,-164.855942,21.057127,-32.196045
-2.313965,-0.995117,-1.463379,58.364864,-192.260727,21.354673,0.083252,-0.957764,-0.508545,-149.742126,-1.571655,-13.168334
-0.2771,-0.256836,-0.30127,-22.15576,26.779173,-5.043029,0.114258,-1.053223,-0.467773,-135.185242,-0.411987,-13.137816
-0.377686,-0.664307,-1.14502,152.427673,-79.719543,-12.130736,0.099365,-1.080078,-0.501221,-130.363464,-3.280639,-11.95526
-0.369629,-0.638428,-0.385254,149.215698,-89.721672,-36.003113,0.081787,-1.090088,-0.556152,-126.678459,-6.66809,-11.726378
-0.51123,-0.720215,-0.221436,147.659302,-97.099297,-50.262447,0.080322,-1.104492,-0.617676,-122.375481,-9.529114,-11.848449
-0.558105,-0.736328,-0.075684,155.586243,-96.191399,-39.093018,0.100342,-1.099609,-0.63623,-117.294304,-12.21466,-11.184691
-0.453613,-0.793457,0.014404,162.292465,-93.048088,-2.89154,0.106201,-1.081787,-0.63916,-112.030022,-14.930724,-10.131835
-0.269287,-0.925293,0.070068,185.020432,-79.01001,13.85498,0.101563,-1.072998,-0.652832,-105.758659,-18.745422,-7.659912
-0.199219,-1.044189,-0.070313,217.720016,-58.555599,9.017944,0.077637,-1.080566,-0.658691,-97.259514,-26.56555,-2.250671
-0.231934,-1.074463,-0.275635,236.938461,-43.937679,-8.483887,0.05957,-1.089111,-0.65332,-87.135307,-39.588928,5.455017
-0.373779,-0.998779,-0.444092,229.949936,-34.698486,-27.870176,0.04541,-1.095459,-0.642822,-77.507019,-55.160519,13.71765
-0.52417,-0.891602,-0.52002,195.701584,-35.78949,-38.05542,0.103516,-1.008301,-0.480713,-142.051697,0.091553,-13.84735
-0.837402,-0.894531,-1.38501,121.24633,-147.30835,-52.947994,0.120361,-0.713623,-0.414795,-150.421143,18.127441,-33.325195
-0.301758,-0.134033,-0.932373,36.048889,-43.571468,-26.046751,0.060547,-0.888428,-0.510254,-157.180786,-2.929687,-12.626647
-0.32666,-0.102051,-0.9375,28.96118,-26.931761,-11.871337,0.171387,-0.783936,-0.305664,-142.730713,11.413573,-28.915403
-0.385742,-0.050049,-0.953125,17.547607,-7.453918,-3.486633,0.158447,-0.794434,-0.32959,-144.950867,16.25061,-32.447815
-0.449707,-0.017578,-0.950439,11.047362,5.020141,-10.246276,-0.071289,-0.269531,-0.782227,-92.109673,-56.419369,-10.292052
-0.510742,-0.138428,-0.96875,47.71423,24.322508,-45.021053,-0.033936,-0.268555,-0.744873,-96.42791,-71.166992,-7.759094
-0.454102,0.032227,-1.028809,24.116514,7.194519,-46.203609,0.010254,-0.320557,-0.75293,-101.028435,-79.025269,-8.262634
-0.479248,0.022461,-1.056641,39.421082,12.847899,-49.949642,0.077637,-0.415527,-0.73999,-108.13903,-81.901543,-12.733459
-0.509033,-0.062012,-1.0,49.163815,21.125792,-45.333858,0.142334,-0.537842,-0.667725,-109.382622,-83.290092,-19.294739
-0.460938,0.000977,-0.962891,13.206481,6.965637,-29.121397,0.143555,-0.616699,-0.601563,-104.591362,-82.649223,-23.216246
-0.294678,-0.11084,-0.972656,30.937193,-51.040646,-32.455444,0.108887,-0.556396,-0.641113,-109.626762,-78.987122,-22.178648
-0.328369,-0.083252,-1.003418,-6.088256,-7.499694,4.592896,0.102295,-0.415771,-0.767334,-127.525322,-69.084167,-17.967224
-0.305664,0.08374,-1.032227,-10.833739,-31.997679,-4.020691,0.122314,-0.341797,-0.80542,-141.189575,-54.359432,-19.371033
-0.272461,0.143311,-0.986328,-26.260374,-18.470764,14.244079,0.152588,-0.367188,-0.717773,-140.602112,-39.108276,-28.045652
-0.248535,0.115723,-0.916992,-27.030943,-13.565063,21.842955,-0.084473,-0.301025,-0.818115,-85.868828,-38.711548,-13.252257
-0.251953,0.026611,-0.894287,-17.349243,-19.210815,16.838074,0.240967,-0.667725,-0.384277,-129.104614,-21.820066,-33.279419
-0.27417,-0.080322,-0.946777,-7.575988,-29.922483,4.470825,0.213379,-0.480957,-0.563721,-135.742188,-28.694151,-34.324646
-0.303467,-0.1604,-0.999512,-6.202697,-35.247803,-4.920959,0.105957,-0.520996,-0.427734,-139.511108,-0.434875,-25.993345
-0.327393,-0.175781,-1.01416,-13.168334,-29.71649,-7.019042,0.13208,-0.432617,-0.488037,-140.457153,-8.422852,-25.779722
-0.311035,-0.135254,-0.984619,-20.690916,-19.203186,-6.019592,0.148193,-0.378418,-0.601074,-149.154663,-18.569946,-25.207518
-0.269531,-0.100098,-0.939941,-21.690367,-12.565612,-5.92041,0.141846,-0.401367,-0.676025,-147.377014,-28.07617,-26.481627
-0.275879,-0.085205,-0.952148,-15.830993,-10.879516,-3.875732,0.138428,-0.671875,-0.349121,-141.136169,5.386352,-27.473448
-0.468018,-0.163086,-0.995361,41.389462,17.288208,-49.438473,0.127441,-0.717041,-0.498047,-123.031609,-37.055969,-30.357359
-0.304199,-0.023682,-1.023438,12.481688,-46.348568,-23.765562,0.121582,-0.792969,-0.399902,-124.229424,-31.906126,-28.503416
-0.420898,-0.171387,-0.993896,39.031982,0.617981,-51.269527,0.179443,-0.791016,-0.335205,-123.947136,-22.521971,-29.808043
-0.608643,-0.478271,-1.063232,108.482353,27.565001,-39.69574,0.141113,-0.544189,-0.628174,-132.095337,-35.079956,-29.197691
-0.470703,-0.146729,-0.969238,50.239559,-40.512081,-42.831417,0.826172,-0.925537,-0.10498,-62.667843,75.126648,20.011902
-0.347412,-0.071777,-1.055908,2.548218,-3.913879,13.336181,0.303955,-0.906006,-0.115723,-45.089718,-227.310165,30.242918
-0.219238,-0.496094,-1.131104,22.453306,94.322197,-6.774902,0.360107,-0.863037,-0.153809,-40.214535,-225.006088,33.042908
-0.152588,-0.547607,-0.999268,20.942686,72.113037,-20.164488,0.427734,-0.835205,-0.174316,-36.964417,-209.182724,32.875061
-0.198975,-0.667969,-0.741943,25.985716,53.421017,-43.80035,0.520996,-0.821045,-0.170898,-31.86035,-182.38829,33.622742
-0.310791,-0.751221,-0.720215,31.867979,27.534483,-54.603573,0.594971,-0.789795,-0.123047,-30.914305,-147.064209,36.4151
-0.408691,-0.763672,-0.862549,43.327328,-6.484985,-44.265743,0.624512,-0.772705,-0.083008,-37.208557,-103.645317,37.376404
-0.43457,-0.711426,-1.053223,55.664059,-36.087036,-20.103453,0.25415,-0.950928,-0.080566,-53.344723,-216.384872,23.590086
-0.39917,-0.598877,-1.302246,61.775204,-47.698971,-0.091553,0.648926,-0.804688,-0.049072,-45.295712,-54.206844,33.988953
-0.307129,-0.505371,-1.358643,63.400265,-35.858154,-1.251221,0.716553,-0.862549,-0.063477,-54.00848,4.547119,27.275084
-0.20459,-0.521729,-1.07251,68.817139,-9.536743,-18.913269,0.957031,-1.032471,-0.162354,-66.368103,164.779648,10.627746
-0.418701,-0.174072,-0.955811,42.518612,-21.263121,-48.240658,0.500732,-1.62793,-0.345459,110.458366,249.992355,28.686522
-0.218262,-0.579102,-0.832764,81.344597,15.892028,-33.073425,1.21167,-1.36792,-0.219482,-33.004761,249.992355,-6.347656
-0.507813,-0.55542,-0.946533,107.185356,33.195496,-36.140442,1.23877,-1.563721,-0.247314,5.859375,249.992355,-13.298034
-0.623291,-0.389404,-1.14502,96.717827,14.366149,-49.354549,0.991455,-1.740234,-0.253174,67.298889,249.992355,2.746582
-0.587891,-0.354248,-1.104004,78.636169,1.091003,-59.150692,0.350098,-1.456787,-0.708008,89.309685,249.992355,44.486996
-0.573486,-0.375977,-0.926514,64.949036,-3.112793,-60.287472,0.455811,-1.425049,-0.476563,74.134827,249.847397,49.674984
-0.562988,-0.372803,-0.807373,59.997555,-1.808166,-55.053707,0.437256,-1.404785,-0.285156,83.183281,249.992355,52.139278
-0.542236,-0.331543,-0.80835,62.400814,-3.669739,-51.147457,0.395508,-1.386963,-0.239014,94.779961,249.992355,45.356747
-0.563477,-0.287598,-0.84082,68.252563,-11.444091,-47.813412,0.401855,-1.349121,-0.239014,105.934135,242.996201,33.119202
-0.60376,-0.228516,-0.892822,72.288513,-23.979185,-42.259212,0.341553,-1.27124,-0.281738,112.129204,226.226791,31.35681
-0.586914,-0.160645,-0.957764,69.709778,-39.0625,-37.597656,0.225342,-0.99292,-0.057617,-62.301632,-193.22966,15.068053
-0.531982,-0.126709,-0.996338,60.661312,-47.58453,-38.146973,1.085205,-1.189453,-0.19751,-57.044979,240.715012,2.738952
-0.3479,-0.595703,-0.832275,95.939629,29.777525,-36.392212,0.20752,-1.020996,-0.053955,-70.785522,-161.697372,4.684448
-0.331055,-0.025146,-1.126709,6.401062,-4.585266,15.670775,0.240967,-0.823486,-0.209229,-105.560295,-46.463009,-87.265007
-0.270752,-0.546387,-0.931396,41.007992,115.669243,-23.53668,0.15625,-1.073975,-0.084473,-82.878105,-92.155449,-14.091491
-0.219727,-0.002686,-1.063477,-0.320435,-11.878966,15.457152,0.208008,-1.242432,-0.314453,117.652885,199.005112,31.501768
-0.151611,-0.54126,-0.021484,-133.827209,96.183769,85.372917,0.247559,-0.834961,-0.174561,-101.097099,-48.072811,-90.209953
-0.107666,-0.580566,-0.018799,-110.313408,124.534599,85.136406,0.260498,-0.838135,-0.160889,-99.456779,-51.094051,-90.957634
-0.218994,-0.501953,-0.154297,-111.061089,144.332886,83.206169,0.263916,-0.848389,-0.175781,-100.944511,-54.954525,-91.51458
-0.367432,-0.391846,-0.309082,-138.656616,149.230957,84.037773,0.271973,-0.859131,-0.236328,-105.400078,-58.723446,-92.025749
-0.4104,-0.345947,-0.352295,-172.157272,138.290405,88.584892,0.293701,-0.87915,-0.265381,-108.665459,-63.446041,-91.445915
-0.383545,-0.384033,-0.261719,-186.920151,126.9226,93.261711,0.296387,-0.90332,-0.226318,-107.170097,-68.16864,-91.278069
-0.334229,-0.47876,-0.138672,-178.367599,124.061577,99.32708,0.294678,-0.933105,-0.206543,-102.09655,-73.852539,-92.353813
-0.268311,-0.58374,-0.033447,-156.158447,129.264832,102.287285,0.289063,-0.951904,-0.200195,-95.66497,-79.727173,-92.8955
-0.224365,-0.657471,0.005371,-135.871887,138.633728,99.334709,0.279053,-0.947754,-0.214844,-88.813774,-82.084648,-91.995232
-0.229004,-0.680176,0.008545,-126.762383,146.957397,96.778862,0.279297,-0.921143,-0.229492,-84.83886,-77.796936,-90.75164
-0.293213,-0.406494,-0.160156,-167.358383,67.459106,85.121147,0.313477,-0.919189,-0.248535,-83.786003,-68.458557,-88.142387
-0.267578,-0.672119,0.026123,-130.935669,152.290344,97.320549,0.35083,-0.949219,-0.247803,-82.145683,-55.702206,-85.029594
-0.377197,-0.650146,0.058594,-162.460312,146.446228,101.21154,0.397705,-0.97998,-0.232666,-81.17675,-40.977474,-81.695549
-0.401611,-0.686035,0.053711,-177.131638,133.415222,105.514519,0.451904,-0.999268,-0.228516,-82.038872,-26.588438,-76.965332
-0.383301,-0.768066,0.01709,-182.220444,118.377678,109.916679,0.453857,-1.009033,-0.219971,-84.213249,-13.191222,-70.4422
-0.353027,-0.852539,-0.037354,-175.849899,106.597893,113.159172,0.423096,-1.025879,-0.210205,-86.318962,-6.858825,-62.347408
-0.36499,-0.921875,-0.035645,-165.725693,102.943413,116.34063,0.39209,-1.053467,-0.190674,-87.188713,-7.720947,-54.809566
-0.389648,-0.972656,0.056396,-156.455994,104.927055,123.146049,0.389893,-1.070557,-0.163818,-88.676445,-9.971619,-48.507687
-0.383301,-0.982178,0.121338,-146.606445,111.190788,126.800529,0.37085,-1.0896,-0.146973,-91.163628,-13.618468,-42.312618
-0.376465,-0.965332,0.131836,-140.449524,121.276848,124.618523,0.309326,-1.121338,-0.113037,-89.99633,-22.460936,-35.667419
-0.408203,-0.938721,0.128418,-144.927979,129.386902,122.734062,0.255371,-1.130127,-0.073486,-86.456291,-38.917542,-28.152464
-0.48291,-0.933594,0.095215,-159.14917,127.914421,124.588005,0.201904,-1.106445,-0.06665,-84.144585,-62.942501,-20.492552
-0.320801,-0.654053,0.042969,-144.638062,152.709961,98.94561,0.171143,-1.045898,-0.085449,-78.712463,-126.052849,-5.943298
-0.401611,-0.251221,-0.331543,-185.729965,53.146358,80.169678,0.174561,-1.234619,-0.308105,127.685539,160.339355,34.858704
-0.288086,0.007813,-1.128174,4.051208,-8.232117,14.465331,0.171387,-1.210205,-0.315674,140.098572,128.959656,42.449947
-0.432129,-0.105225,-0.475586,-150.71106,70.549011,67.909241,0.101318,-1.101807,-0.317139,151.199341,104.026787,62.690731
-0.161865,-0.009277,-1.044678,-4.577637,-11.642455,17.211914,-0.128174,-1.003418,0.111572,134.819031,64.422607,15.99121
-0.14502,-0.011963,-1.037598,-8.880615,-5.332946,15.060424,-0.074219,-1.088867,0.029785,154.052734,29.190062,14.320373
-0.170166,-0.040527,-1.017578,-10.375976,8.06427,9.132385,0.012451,-1.01709,-0.190918,162.277206,14.328002,9.208679
-0.198975,-0.089111,-1.005859,-6.904602,23.269651,5.325317,0.040283,-0.818359,-0.458252,149.261475,23.010252,7.492065
-0.21167,-0.114502,-1.037842,-0.740051,34.225464,6.950378,-0.028564,-0.60498,-0.708496,119.392387,43.55621,7.858276
-0.216064,-0.108643,-1.094971,3.860473,39.421082,12.992858,-0.1521,-0.516846,-0.842285,93.467705,53.596493,7.713317
-0.466309,-0.126953,-0.467041,-175.781235,58.54034,71.82312,-0.243652,-0.562012,-0.742188,86.97509,37.857056,7.362365
-0.213379,-0.073486,-1.058594,3.189087,32.920837,31.654356,-0.272217,-0.636963,-0.509766,95.504753,6.92749,6.439209
-0.243408,-0.060547,-1.000244,3.311157,24.688719,33.39386,-0.223145,-0.676025,-0.446533,111.351006,-23.376463,6.019592
-0.280518,-0.081787,-0.893555,7.141113,20.469664,27.6947,-0.140625,-0.654785,-0.486816,122.474663,-41.351315,5.119323
-0.313721,-0.12915,-0.790283,13.259887,25.291441,25.009153,-0.116455,-0.84082,0.095459,116.378777,109.367363,9.986877
-0.215332,-0.09375,-1.102539,4.341125,39.207458,22.308348,-0.076904,-0.612793,-0.647217,121.849052,-42.823788,2.624511
-0.335449,-0.101563,-0.813232,6.362915,52.810665,44.395443,-0.077637,-0.508301,-1.108154,106.086723,-10.246276,-6.317138
-0.299316,-0.033691,-0.851807,-10.009766,55.801388,55.259701,-0.078369,-0.451416,-1.193115,95.626823,9.056091,-11.726378
-0.263916,-0.008545,-0.788574,-25.703428,56.938168,54.450985,-0.075439,-0.406982,-1.157227,84.648125,18.325806,-14.328002
-0.275391,-0.054932,-0.71167,-36.323547,60.958858,49.232479,-0.124268,-0.383789,-1.07251,77.316284,15.396117,-13.572692
-0.285156,-0.111328,-0.665039,-46.554562,64.994812,43.952938,-0.184082,-0.405273,-1.023926,76.774597,4.524231,-11.795043
-0.313477,-0.134766,-0.613525,-54.76379,69.068909,45.600887,-0.172852,-0.44165,-1.013672,80.024719,-7.881164,-9.07135
-0.338135,-0.12085,-0.574707,-70.426941,75.820923,51.422115,-0.0979,-0.453857,-1.039307,82.054131,-12.916564,-4.798889
-0.309326,-0.12793,-0.520752,-95.977776,81.336967,57.083126,0.016846,-0.424316,-1.115723,81.321709,-5.050659,-1.068115
-0.281006,-0.150879,-0.440186,-114.906303,84.693901,64.163208,0.137207,-0.372559,-1.18042,76.61438,14.373778,-2.700805
-0.31958,-0.150146,-0.410645,-129.753113,80.162048,67.726135,0.202881,-0.308594,-1.218994,67.840576,36.354065,-9.819031
-0.345703,-0.141602,-0.78125,14.503478,40.351864,31.448362,-0.05957,-0.567383,-0.899414,114.860527,-30.570982,-1.13678
-0.369873,-1.340576,0.139893,-63.163754,-51.696774,156.669617,-0.032227,-0.703125,0.020508,107.719414,147.544861,2.616882
-0.39917,-1.340576,0.193115,-84.732048,-51.040646,169.113144,0.182373,-0.271484,-1.245361,57.357784,48.957821,-16.983032
-0.437012,-1.287598,0.191406,-103.347771,-44.364925,175.392136,0.209717,-0.762451,-0.158691,121.032707,171.592697,2.922058
-0.449219,-1.230957,0.182129,-115.295403,-31.036375,177.85643,0.171387,-0.9646,-0.361084,150.878906,75.469971,79.849243
-0.420654,-1.287109,0.013184,-51.269527,20.027161,160.934433,0.262207,-1.016602,-0.344727,147.30072,45.547482,64.598083
-0.411377,-1.086914,0.074707,-107.093803,2.593994,171.340927,0.190918,-1.099854,-0.220215,171.325668,19.493103,51.185604
-0.397217,-1.088867,0.058838,-84.434502,12.794494,165.550217,0.166748,-1.140381,-0.157959,197.746262,1.319885,67.78717
-0.410645,-1.187012,0.017822,-62.385555,16.159058,161.987289,0.235107,-1.161621,-0.143066,216.659531,-9.94873,73.280334
-0.44043,-1.151367,0.135254,-117.858879,-13.275146,176.300034,0.259521,-1.142822,-0.199707,241.409286,-10.971068,53.75671
-0.333252,-1.291992,0.102051,-44.876095,-49.194332,147.773743,0.102295,-0.665771,-0.101807,107.574455,169.120773,-0.480652
-0.624268,-0.909668,-0.109131,-43.685909,36.277771,-27.496336,0.234375,-0.975098,-0.37793,249.916061,11.779784,41.206356
-0.350586,-1.093018,0.0979,-26.351927,-42.472836,132.080078,0.144287,-0.94458,-0.390869,249.992355,32.020569,50.674435
-0.407715,-0.997803,0.006836,-26.176451,-43.006893,117.858879,0.126953,-1.005127,-0.362061,249.969467,43.189999,55.290218
-0.439941,-0.88916,-0.116455,-32.043457,-48.057552,105.613701,0.162109,-1.087891,-0.262207,249.992355,48.622128,60.104366
-0.449951,-0.772217,-0.162354,-41.610714,-50.163265,94.848625,0.266846,-1.066406,-0.333984,249.923691,-3.845215,39.749146
-0.425049,-0.694824,-0.115479,-50.895687,-45.272823,81.550591,0.290527,-1.108887,-0.199707,247.581467,71.342468,52.284237
-0.396973,-0.685547,-0.097412,-56.137081,-35.324097,66.02478,0.314453,-0.984131,-0.22168,238.555893,90.599052,41.41235
-0.39917,-0.707031,-0.119873,-58.616634,-21.827696,49.262997,0.273193,-0.781738,-0.250977,213.874802,110.305779,34.744263
-0.424561,-0.740234,-0.127441,-60.539242,-6.462097,31.761168,0.187012,-0.619141,-0.242188,179.473862,125.15258,31.929014
-0.465576,-0.789063,-0.111084,-59.204098,8.117676,13.374328,0.086914,-0.601807,-0.163818,154.556274,131.660461,31.661985
-0.536621,-0.84668,-0.108398,-53.573605,22.590635,-7.415771,0.048828,-0.74707,-0.038818,146.903992,130.241394,32.531738
-0.416504,-1.300781,0.056641,-52.87933,27.046202,161.788925,0.071777,-0.955322,0.060303,149.726868,127.16674,31.272886
-0.311523,-1.192139,0.116943,-33.096313,-45.82214,142.623901,0.137207,-1.092529,0.045166,156.021118,129.882813,25.68054
-0.407715,-1.247803,0.062256,-59.783932,31.539915,165.245041,0.218506,-1.082764,-0.022461,158.01239,141.395569,17.677307
-0.410156,-0.934326,0.001709,-82.94677,93.78051,154.136658,0.253418,-0.945068,-0.112061,144.454956,158.798218,9.819031
-0.356201,-1.16333,0.116211,-56.747433,27.740477,169.280991,0.227539,-1.135498,-0.213379,249.977097,56.77795,60.401913
-0.650391,-0.954102,-0.068848,-32.829285,48.995968,-44.158932,0.033691,-0.190186,-0.866699,-30.487059,-8.178711,4.119873
-0.433105,-0.94873,-0.085449,-77.865601,101.860039,81.336967,0.073242,-0.182861,-0.901123,-32.600403,-3.974914,8.239746
-0.454102,-1.131104,-0.092529,-56.396481,104.888908,82.06176,0.127686,-0.18042,-0.977539,-35.209656,-6.790161,13.107299
-0.475098,-1.197754,-0.114746,-41.198727,105.712883,84.57946,0.144775,-0.199219,-1.025879,-33.294678,-16.052246,20.568846
-0.474121,-1.105713,-0.124268,-38.879395,104.87365,90.980522,0.026855,-0.093994,-0.958252,2.616882,24.29199,24.757383
-0.456299,-0.914063,-0.084961,-50.559994,106.201164,100.45623,0.02417,-0.184814,-0.991943,-24.429319,-29.823301,31.524656
-0.377686,-0.772461,0.013916,-68.023682,108.825676,109.03167,-0.02124,-0.13501,-1.024658,-21.072386,-20.51544,30.158995
-0.319092,-0.720947,0.079102,-78.193665,111.686699,112.510674,-0.021729,-0.103027,-1.029541,-11.634826,0.610352,27.145384
-0.317627,-0.737549,0.077881,-77.362061,113.098137,113.807671,0.099609,-0.211182,-1.010742,-28.060911,-26.359556,28.160093
-0.341797,-0.785889,0.080566,-72.036743,110.137932,117.431633,0.023926,-0.192139,-0.894775,-33.195496,-16.593933,0.862122
-0.381836,-1.187256,0.083984,-61.492916,30.990599,168.212875,0.179443,-0.111572,-0.854004,-74.371338,-42.495724,-28.144835
-0.367188,-0.842041,0.054932,-69.160461,103.248589,125.740044,0.046143,-0.1875,-0.957031,-42.572018,-36.773682,-0.610352
-0.408447,-0.922119,0.000488,-76.278687,93.749992,146.224976,0.027832,-0.17627,-0.959961,-44.746395,-46.791073,-1.571655
-0.416992,-0.958008,0.049072,-89.576714,95.695488,161.483749,0.022705,-0.138916,-0.963623,-47.698971,-59.257504,-2.601623
-0.4104,-1.004395,0.11792,-89.523308,95.825188,165.588364,0.039795,-0.100342,-0.938477,-54.534908,-74.066162,-3.173828
-0.400635,-1.059082,0.177734,-80.856316,92.788689,166.984543,0.066895,-0.113525,-0.869385,-60.340878,-86.715691,-3.15094
-0.393066,-1.124023,0.208496,-69.839478,82.603447,171.05101,0.11377,-0.185791,-0.79126,-57.205196,-91.392509,-5.325317
-0.445068,-1.172852,0.169434,-61.462399,67.54303,174.354538,0.178223,-0.250732,-0.769775,-47.317501,-86.72332,-11.337279
-0.488281,-1.182129,0.099609,-57.746883,51.078793,176.185593,0.232666,-0.245605,-0.814453,-46.005245,-75.59967,-17.555237
-0.46582,-1.174316,0.087646,-55.107113,37.193298,175.994858,0.24292,-0.176025,-0.879395,-57.258602,-61.56921,-20.820616
-0.419678,-1.168457,0.129883,-51.696774,28.480528,173.088058,0.217285,-0.10376,-0.885254,-69.618225,-49.591061,-23.735044
-0.374512,-1.163818,0.141357,-51.689144,25.634764,170.272812,0.111084,-0.092285,-0.92041,14.213561,37.841797,24.841307
-0.403809,-0.887939,0.016846,-71.327209,97.290031,136.535645,0.039795,-0.189453,-0.939453,-38.322449,-26.80969,0.068665
-0.652588,-0.984619,-0.02124,-24.147032,60.951229,-53.276058,0.199707,-0.107178,-0.989014,20.03479,34.309387,26.344297
-0.429932,-0.787842,-0.084473,-95.390312,95.619194,85.601799,0.08374,-0.391357,-1.035645,72.105408,-12.809752,2.670288
-0.757813,-1.127197,0.097168,3.311157,68.954468,-67.016602,0.194824,-0.212158,-1.164551,31.036375,-3.829956,23.803709
-0.143799,-1.181152,-0.17749,239.555344,-249.992355,-68.649292,0.166504,-0.168213,-0.845215,-73.577881,-41.038509,-31.166075
-0.09668,-1.205811,-0.064453,243.476852,-249.626144,-57.006832,-0.0354,-0.475342,-0.640625,69.18335,47.07336,3.570556
-0.101318,-1.27002,0.054443,249.481186,-249.992355,-46.340939,-0.061035,-0.539795,-0.465332,65.39917,28.366087,5.378723
-0.092529,-1.268066,0.181152,249.992355,-249.992355,-38.032532,-0.050049,-0.638916,-0.398438,73.905945,3.517151,3.639221
-0.028564,-1.195313,0.229004,249.740585,-229.927048,-32.783508,0.029541,-0.674316,-0.36792,81.832878,-16.571045,-0.022888
0.036865,-1.088379,0.218994,249.992355,-197.105392,-28.190611,0.108643,-0.630859,-0.458984,87.783806,-23.338316,0.297546
0.06958,-0.991455,0.161621,249.992355,-161.735519,-25.489805,0.116455,-0.523193,-0.61084,93.261711,-16.815186,6.225585
0.047607,-0.928711,0.019287,238.189682,-124.450676,-24.108885,0.07251,-0.401611,-0.697021,92.26989,-2.662658,12.168883
0.047363,-0.890381,-0.145264,214.675888,-88.432304,-20.538328,0.0271,-0.329346,-0.724121,84.762566,9.162903,13.748168
0.088623,-0.900879,-0.19043,193.031296,-54.13055,-17.089844,0.009766,-0.312744,-0.755859,76.080322,10.864257,12.245177
-0.223145,-1.168457,-0.218506,241.905197,-249.992355,-79.76532,0.232178,-0.156006,-1.091553,24.459837,17.494202,26.19171
0.078857,-0.985352,-0.067383,181.671127,-19.165039,-18.081665,0.005615,-0.316406,-0.838867,69.290161,3.242492,9.140015
0.052734,-1.259277,0.097168,196.739182,39.131165,-31.570433,0.037598,-0.385254,-1.016602,68.107605,-13.22174,4.371643
-0.029785,-0.960938,-0.087891,186.027512,56.991573,-14.35089,0.119873,-0.32666,-1.095947,70.114136,-6.034851,1.89209
-0.054688,-0.586182,-0.232422,127.021782,75.363159,-13.114928,0.120117,-0.225342,-1.162598,60.9436,3.990173,1.342773
0.059814,-1.067871,-0.109131,102.355949,99.105827,-29.602049,0.097656,-0.159912,-1.19873,54.252621,10.612487,1.304626
0.060059,-1.124268,0.004395,89.195244,118.896477,-32.073975,0.089111,-0.165527,-1.152344,54.946896,7.919311,2.784729
0.003906,-1.150391,0.093018,105.758659,136.184692,-27.862547,0.100098,-0.200195,-1.063721,54.229733,-2.738952,5.821228
-0.030273,-1.016602,-0.03418,149.650574,152.694702,-51.261898,0.113525,-0.20752,-1.05542,47.889706,-16.067505,10.147094
-0.06665,-0.883789,-0.242432,148.635864,157.844543,-70.762634,0.121338,-0.206055,-1.110107,41.137691,-26.756285,14.640807
-0.0896,-0.755859,-0.444824,116.638176,146.652222,-76.881409,0.126953,-0.225342,-1.154785,37.757874,-29.800413,17.913818
-0.19458,-0.64624,-0.660889,75.675964,131.401062,-57.327267,0.146729,-0.237549,-1.177734,35.850525,-21.621702,20.606993
0.075684,-1.115723,0.05957,183.067307,11.810302,-26.016233,0.01123,-0.343506,-0.949463,65.986633,-6.431579,6.42395
-0.274902,-1.167725,-0.198486,248.80217,-249.565109,-91.76635,0.147705,-0.239258,-0.840332,-70.678711,-44.273373,-29.83856
-0.699463,-1.051025,0.047363,-12.115478,68.04657,-59.188839,0.108398,-0.302246,-0.845947,-65.185547,-51.803585,-26.763914
-0.170166,-1.30957,-0.02832,249.93132,-232.254013,-114.791862,0.093994,-0.355469,-0.852539,-58.624264,-65.887451,-25.894163
-0.793701,-1.162354,0.080566,13.786315,60.867306,-76.36261,0.366211,-1.046387,-0.57251,-73.936462,-22.315977,-86.242668
-0.83252,-1.162598,0.032959,16.578674,42.861935,-86.395256,0.278076,-0.840576,-0.667236,-97.854607,-23.79608,-72.853088
-0.877686,-1.155518,0.043945,15.747069,16.014099,-94.779961,0.212891,-0.709717,-0.640869,-115.241997,-31.143187,-53.367611
-0.90625,-1.162109,0.083984,14.640807,-17.349243,-101.028435,0.225098,-0.722168,-0.523926,-115.310661,-40.206905,-43.251034
-0.885986,-1.218262,0.10498,14.846801,-52.734371,-103.530876,0.279541,-0.874512,-0.393555,-100.46386,-49.423214,-48.835751
-0.89917,-1.356934,0.120361,25.741575,-85.411064,-103.301994,0.271484,-1.084961,-0.303711,-87.379448,-52.101131,-56.854244
-0.25,-1.220703,-0.133545,249.992355,-240.150436,-105.735771,0.3125,-1.19751,-0.271484,-80.039978,-50.567623,-60.722347
-0.982422,-1.575439,0.119141,85.815422,-156.448364,-109.947197,0.392578,-1.071533,-0.324951,-81.954948,-44.769283,-62.660213
-0.876953,-1.555664,0.074951,109.664909,-187.133774,-115.57769,0.379395,-0.818848,-0.428223,-96.504204,-38.703918,-64.460754
-0.825684,-1.486816,-0.005127,118.659966,-204.658493,-119.461052,0.314697,-0.666504,-0.477783,-105.567924,-36.766052,-66.612244
-0.786621,-1.384033,-0.016357,121.177666,-219.43663,-131.43158,0.441162,-1.169678,-0.410645,-58.937069,-29.151915,-86.21978
-0.984375,-1.503418,0.131104,52.383419,-118.72863,-104.431145,0.276123,-0.657471,-0.4104,-102.622978,-38.017273,-67.993164
-0.586182,-1.191162,0.077881,112.220757,-246.116623,-147.140503,0.270996,-0.91626,-0.249268,-97.579948,-35.568237,-71.624756
-0.55957,-1.180908,0.143311,108.070366,-249.847397,-144.615173,0.269531,-1.055908,-0.275879,-93.986504,-33.180237,-78.971863
-0.583984,-1.246826,0.187256,116.767876,-249.992355,-141.181946,0.284912,-1.0354,-0.321533,-92.224113,-34.637451,-86.769096
-0.556396,-1.266846,0.218018,132.347107,-249.992355,-135.658264,0.252197,-0.866699,-0.348145,-92.864983,-39.825439,-88.775627
-0.479492,-1.29126,0.256592,153.869629,-249.992355,-128.234863,0.202393,-0.693604,-0.307129,-95.329277,-46.173092,-84.609978
-0.386963,-1.348633,0.267578,187.538132,-249.992355,-125.366203,0.185547,-0.608643,-0.237793,-97.099297,-50.47607,-80.307007
-0.295898,-1.430908,0.291504,230.056747,-249.816879,-126.9226,0.197266,-0.614014,-0.262695,-98.831169,-51.689144,-77.682495
-0.205811,-1.495117,0.266357,249.67955,-249.992355,-125.885002,0.218506,-0.666504,-0.317627,-101.661674,-49.530025,-77.24762
-0.137207,-1.486816,0.198486,249.992355,-249.992355,-123.313896,0.229736,-0.738037,-0.342529,-104.148857,-46.836849,-79.124451
-0.114746,-1.417236,0.096191,249.954208,-239.585861,-121.299736,0.229248,-0.779541,-0.310547,-107.879631,-45.166012,-81.535332
-0.683594,-1.269531,0.026611,118.637077,-235.473618,-143.760681,0.265137,-0.740723,-0.30127,-100.5783,-37.811279,-68.405151
-0.412109,-0.204102,-0.803467,12.435912,-142.860413,42.213436,0.445068,-1.114746,-0.321777,-62.408443,-41.740414,-74.371338
-0.486084,-0.213623,-0.821777,20.545958,-172.080978,39.550781,0.231689,-0.803711,-0.261719,-109.443657,-45.372005,-83.786003
-0.578857,-0.271729,-0.753906,29.037474,-178.451523,31.22711,0.299072,-0.790283,-0.499512,-91.232292,-59.417721,-63.995358
-0.687256,-0.33252,-0.659668,24.757383,-158.981323,30.319212,0.10791,-0.381836,-0.8396,-57.754513,-86.181633,-26.657103
-0.57373,-0.309082,-0.755127,63.957211,90.057365,-24.955748,0.152344,-0.398682,-0.833984,-63.095089,-106.063835,-26.786802
-0.868896,-0.330322,-0.767822,32.554626,-62.812801,-7.896423,0.221191,-0.441162,-0.857422,-64.491272,-114.57061,-27.175901
-0.900879,-0.299805,-0.827148,47.622677,-0.587463,-25.42877,0.326172,-0.507324,-0.862061,-58.837887,-104.843132,-31.204222
-0.763184,-0.291504,-0.805908,52.131649,50.140377,-35.774231,0.408447,-0.534912,-0.848145,-53.63464,-81.18438,-37.590027
-0.795654,-0.351318,-0.689453,21.125792,-119.979851,17.593384,0.395752,-0.500977,-0.843262,-53.787228,-54.939266,-43.899532
-0.396973,-0.220459,-0.743896,10.31494,-102.684013,38.482666,0.391846,-0.943848,-0.368164,-77.804565,-54.870602,-64.888
-0.400879,-0.060791,-0.93042,-40.161129,-18.486023,-10.971068,0.270996,-0.451416,-0.819336,-61.035152,-40.885921,-52.330013
-0.533447,-0.226074,-0.806885,16.929626,-36.468506,10.269164,0.225342,-0.505371,-0.795166,-62.355038,-54.801937,-53.398129
-0.617432,-0.227783,-0.886719,16.304016,-17.181396,-4.325867,0.211182,-0.56958,-0.804688,-60.508724,-72.685242,-50.125118
-0.677002,-0.226807,-0.953613,11.32965,-7.80487,-9.109497,0.23877,-0.590332,-0.853271,-60.066219,-83.251945,-44.639584
-0.665283,-0.239502,-0.947998,7.530212,-9.628296,-9.056091,0.342773,-0.463135,-0.839111,-57.304379,-39.779663,-48.820492
-0.598877,-0.265625,-0.87915,9.941101,-22.979734,-12.626647,0.371582,-0.613037,-0.867188,-64.750671,-66.184998,-40.924068
-0.563232,-0.26709,-0.860352,15.045165,-39.047241,-19.981384,0.396484,-0.629639,-0.794434,-62.080379,-52.543636,-43.205257
-0.561768,-0.225342,-0.9104,13.137816,-46.936031,-26.290892,0.367676,-0.655029,-0.702637,-57.968136,-44.342037,-49.942013
-0.501953,-0.166504,-0.915527,0.724792,-46.417233,-28.175352,0.343506,-0.709717,-0.647461,-54.527279,-43.083187,-59.547421
-0.447998,-0.111084,-0.891357,-16.784668,-41.755672,-22.789,0.343506,-0.790283,-0.617676,-51.040646,-43.022152,-67.146301
-0.421387,-0.071533,-0.900391,-31.60095,-32.241821,-14.793395,0.372314,-0.862793,-0.628174,-44.860836,-38.871765,-70.877075
-0.389648,-0.298584,-0.730957,77.865601,107.284538,-13.641356,0.407959,-0.845215,-0.698242,-44.044491,-31.517027,-76.004028
-0.448242,-0.226318,-0.747314,13.710021,-65.39917,27.420042,0.36084,-0.74585,-0.79541,-59.837337,-31.85272,-82.969658
-0.281982,-0.25293,-0.835449,88.653557,103.996269,-9.231567,0.20752,-0.692871,-0.807129,-82.077019,-42.533871,-80.833427
-0.078369,-0.828857,0.050049,186.752304,-72.944641,-60.379025,0.185791,-0.709473,-0.678467,-94.245903,-53.588863,-71.19751
-0.342773,-0.290527,-0.931152,108.535759,73.043823,-18.257141,0.29541,-0.596436,-0.880371,-63.392635,-79.13208,-41.801449
-0.428223,-0.081543,-0.927734,-41.542049,-6.118774,-8.094788,0.618896,-0.729492,0.106445,-23.986814,-133.19397,-71.220398
-0.564941,-1.600098,-0.390381,200.370773,-99.525444,-140.907288,0.658691,-0.754883,0.088623,-8.659363,-124.740593,-99.723808
-0.266602,-1.365967,-0.224365,209.617599,-110.41259,-116.806023,0.75293,-0.824951,0.113037,7.141113,-120.155327,-127.532951
0.182861,-1.332275,0.144043,239.944443,-76.820374,-100.555412,0.846436,-0.952637,0.187256,25.924681,-117.362968,-153.045654
0.448486,-1.321777,0.192383,249.992355,-23.452757,-99.624626,0.875244,-1.255859,0.509521,97.43499,-113.838188,-228.454575
0.272461,-1.231934,-0.003906,249.992355,30.532835,-105.461113,0.874023,-1.158691,0.275391,60.897823,-114.265434,-185.096725
-0.064453,-1.121826,-0.152588,215.713486,52.215572,-112.876884,0.868408,-1.159424,0.3396,75.592041,-118.10302,-199.142441
-0.264648,-1.05542,-0.353271,159.011841,28.57971,-119.018547,0.822266,-1.19458,0.422607,87.7304,-118.400566,-214.01976
-0.297852,-1.049072,-0.669922,127.128593,-19.294739,-108.802788,0.881104,-1.086182,0.23999,43.457027,-114.830009,-172.378525
-0.246094,-1.069092,-0.790283,132.781982,-63.278194,-86.296074,0.681885,-0.708496,0.147705,-43.746944,-143.623352,-46.188351
-0.302979,-0.242432,-0.952881,98.899834,90.660088,-7.80487,0.931396,-0.798828,0.114746,-69.229126,120.903008,-7.04956
-0.110352,-1.027588,-0.459961,166.801437,-94.139091,-66.757202,0.851318,-0.768066,0.194824,-77.583313,-153.121948,2.89917
-0.003418,-0.861572,0.141113,209.022507,-96.031181,-56.129452,0.902588,-0.83667,0.213867,-92.170708,-146.705627,26.573179
-0.09668,-0.812744,-0.152832,167.007431,-58.212276,-63.102718,0.964111,-0.935059,0.249268,-105.422966,-133.079529,46.897884
-0.108887,-0.754883,-0.387939,167.098984,-47.531124,-51.650997,0.994141,-1.062012,0.311768,-113.731377,-113.212578,61.920162
-0.114502,-0.65918,-0.501709,173.995956,-35.469055,-33.988953,1.009521,-1.182861,0.352539,-116.34063,-88.882439,68.595886
-0.076172,-0.574463,-0.417236,166.870102,-20.187376,-32.76062,1.056396,-1.266846,0.370361,-110.328667,-61.614986,63.400265
-0.083496,-0.541016,-0.288818,146.697998,-3.288269,-45.783993,1.085693,-1.262939,0.342041,-98.518364,-30.448912,52.673336
-0.181152,-0.548096,-0.319336,129.554749,11.123656,-55.511471,1.085449,-1.1875,0.28418,-86.936943,7.125854,39.360046
-0.274658,-0.512695,-0.494385,121.009819,21.873472,-55.168148,1.091553,-1.081787,0.226074,-76.774597,48.423763,19.973755
-0.320313,-0.453369,-0.654297,117.85125,34.347534,-48.72131,1.016602,-0.931396,0.162598,-70.594788,87.867729,2.876281
-0.33667,-0.368896,-0.800293,115.310661,52.024837,-35.820007,0.948242,-1.289063,0.584473,100.868217,-113.067619,-238.708481
0.031738,-0.937744,-0.030273,202.751144,-109.664909,-58.937069,0.784668,-0.718506,0.179199,-62.042233,-151.618958,-22.041319
-0.83252,-1.87085,-0.288574,212.951645,-42.892452,-153.579712,0.924316,-1.313721,0.654785,101.34124,-116.180412,-244.674667
-0.440918,-0.113525,-0.922852,-37.902832,-1.800537,-5.638122,0.949951,-0.951416,0.802734,140.663147,-162.788376,-249.992355
-0.474365,-0.102783,-0.974609,-39.146423,-21.01898,-6.935119,0.918701,-1.35376,0.69873,96.786491,-122.184746,-249.992355
-0.520508,-0.529297,-0.650391,-65.200806,93.948357,31.013487,0.894531,-0.724854,0.090576,-65.414429,151.313782,-17.89856
-0.495361,-0.590332,-0.624512,-56.426998,93.948357,39.283752,0.65918,-0.624023,0.514893,199.821457,-179.36705,-146.247864
-0.437012,-0.649658,-0.654541,-53.070065,96.900932,47.180172,0.53833,-0.648438,0.56665,198.860153,-179.092392,-163.169846
-0.393066,-0.686279,-0.69751,-55.915829,100.784294,53.169247,0.533203,-0.63916,0.647461,201.576218,-175.659164,-180.488571
-0.366211,-0.692139,-0.701172,-64.743042,104.812614,55.458065,0.606445,-0.63501,0.713379,203.758224,-166.297897,-194.648727
-0.361816,-0.666992,-0.687988,-77.590942,108.345024,56.365963,0.69458,-0.656006,0.773438,204.57457,-152.22168,-207.267746
-0.391113,-0.635254,-0.618164,-88.676445,111.015312,59.43298,0.791504,-0.682861,0.807373,201.087936,-134.895325,-221.008286
-0.455322,-0.635498,-0.497803,-91.323845,111.846916,62.820431,0.903076,-0.700439,0.808105,190.658554,-115.554802,-232.315048
-0.51001,-0.717529,-0.411133,-85.983269,107.872002,64.483643,0.918457,-0.722656,0.790527,172.248825,-102.775566,-234.329208
-0.462158,-1.019775,-0.278564,-47.256466,99.655144,73.0896,0.824463,-0.797119,0.80127,156.028748,-108.894341,-232.398972
-0.516113,-0.478027,-0.739258,-74.951172,101.081841,25.169371,0.905273,-1.338867,0.697754,100.013725,-119.255058,-248.435959
-0.485596,-0.980713,-0.361572,-47.996517,104.454033,85.685722,0.74707,-0.898926,0.809082,152.633667,-128.089905,-240.043625
-0.433105,-0.718262,-0.473389,-112.892143,114.799492,88.172905,0.912109,-0.955811,0.89502,148.399353,-164.833054,-249.885544
-0.461182,-0.676514,-0.340576,-121.177666,125.770561,77.903748,0.995117,-1.014893,0.686768,130.332947,-151.550293,-249.992355
-0.487793,-0.727295,-0.266602,-108.512871,125.312798,66.78772,0.970215,-1.095459,0.594727,113.327019,-139.328003,-243.911728
-0.508789,-0.918213,-0.228027,-82.534782,111.473076,58.525082,0.924316,-1.150879,0.560547,99.082939,-126.945488,-241.783127
-0.558838,-1.120361,-0.194824,-50.811764,92.124931,55.740353,0.943604,-1.171875,0.5625,92.384331,-117.988579,-245.422348
-0.595215,-1.109863,-0.175781,-34.744263,76.156616,62.644955,0.938721,-1.179932,0.604004,89.813225,-117.820732,-245.002731
-0.60498,-0.912109,-0.188965,-52.474972,68.580627,77.095032,0.843262,-1.20752,0.656494,85.708611,-123.062126,-246.444687
-0.540527,-0.756836,-0.164063,-85.449211,70.335388,89.080803,0.829834,-1.273438,0.659424,85.960381,-128.585815,-248.649582
-0.467041,-0.732178,-0.103516,-100.769035,83.038322,90.919487,0.876953,-1.321533,0.659912,88.973991,-129.310608,-249.771103
-0.450928,-0.12793,-0.949707,-35.301208,-8.644104,-5.714416,0.907959,-1.347168,0.682861,92.8955,-125.968925,-249.992355
-0.474609,-0.826416,-0.505615,-80.230713,107.963554,92.666618,0.831543,-0.967285,0.85498,155.36499,-150.291443,-248.817429
-0.487793,-0.449951,-0.854492,-79.307556,112.915031,22.804258,0.811768,-0.665283,0.050781,-59.120174,190.223679,-28.549192
-0.501709,-0.876953,-0.348633,-69.770813,101.058952,66.90979,0.687744,-0.571289,0.491943,209.045395,-182.464584,-133.125305
-0.349365,-0.483887,-0.912109,-60.699459,121.917717,25.421141,0.823242,-0.64624,0.020264,-32.432556,249.732956,-58.601376
-0.435303,-0.458008,-0.913574,-73.234558,122.146599,23.025511,0.170654,-1.435791,-0.671387,199.66124,141.197205,25.199888
-0.435059,-0.068115,-0.864502,-57.426449,-30.769346,-2.426147,-0.068848,-1.43042,-0.675049,177.215561,110.900871,38.17749
-0.393311,-0.067871,-0.825684,-58.616634,-22.232054,-1.289368,-0.101074,-1.537109,-0.371338,180.236801,63.514706,47.5769
-0.353027,-0.074707,-0.796875,-51.818844,-12.550353,-0.236511,0.082031,-1.616211,-0.133545,191.101059,22.140501,53.016659
-0.338867,-0.098389,-0.769287,-39.886475,-8.453369,6.080627,0.265625,-1.584473,-0.151611,206.809982,4.898071,45.249935
-0.359863,-0.096924,-0.797852,-29.098509,-9.910583,20.874022,0.361572,-1.415283,-0.299316,218.43718,14.686584,28.015135
-0.393066,-0.057129,-0.880859,-25.917051,-10.925292,37.086487,0.282715,-1.146484,-0.555176,204.200729,40.832516,17.601013
-0.395264,-0.030029,-0.931152,-33.721924,-7.881164,43.067928,0.081787,-0.954346,-0.720703,169.586166,59.494015,21.179197
-0.350586,-0.056641,-0.864014,-46.920773,-1.76239,32.432556,-0.158936,-1.020752,-0.635498,150.749207,52.963253,32.569885
-0.310303,-0.119141,-0.837646,-59.30328,12.351989,20.03479,-0.300781,-1.258301,-0.378662,171.661362,26.733397,44.692989
-0.324951,-0.172119,-0.837402,-63.926693,35.232544,13.21411,0.36792,-1.576172,-0.495361,221.031174,141.830444,1.945495
-0.467041,-0.073975,-0.936035,-48.805233,-30.700682,-5.615234,-0.143555,-1.371338,-0.166504,207.313522,-0.816345,53.604122
-0.363281,-0.290039,-0.81958,-58.219906,67.359924,2.6474,0.26709,-1.125,-0.522217,210.639938,22.216795,34.851074
-0.353516,-0.23999,-0.82959,-61.508175,56.205746,7.209777,0.350098,-0.939453,-0.716309,178.680405,60.928341,16.685486
-0.322754,-0.452148,-0.918701,-53.840633,92.64373,30.746458,0.258301,-0.802246,-0.657959,144.607544,85.395805,2.296448
-0.365234,-0.412842,-0.88208,-55.152889,73.013306,30.517576,-0.005371,-0.800781,-0.422119,135.765076,81.527702,-4.760742
-0.368408,-0.375977,-0.831787,-57.418819,59.04388,26.832579,-0.235352,-0.852783,-0.159912,150.749207,52.848812,-1.930237
-0.383057,-0.315674,-0.840576,-62.934872,52.253719,24.139402,-0.313721,-0.839111,-0.077637,151.786804,28.343199,-1.403808
-0.296875,-0.483643,-0.910889,-52.925106,110.992424,28.602598,-0.20459,-0.781006,-0.319092,144.973755,17.463684,-2.815246
-0.440186,-0.240479,-0.893799,-65.879822,52.406307,21.354673,-0.088135,-0.676025,-0.508057,137.59613,21.980284,-1.121521
-0.422852,-0.272461,-0.837402,-62.69836,59.692379,12.992858,-0.068848,-0.570068,-0.646729,115.379326,39.848328,-0.022888
-0.385254,-0.302246,-0.810303,-59.333797,67.108154,4.455566,-0.059814,-0.495117,-0.75415,87.669365,52.696224,0.831604
-0.422363,-0.257568,-0.896973,-67.138672,50.384518,24.009703,0.100342,-1.282715,-0.230469,222.511276,-4.898071,50.765987
-0.71167,-1.650391,0.929199,180.679306,121.025078,240.829453,0.44458,-1.659668,-0.2854,224.494919,125.564568,5.645751
-0.54248,-1.303711,1.164307,210.945114,125.961296,228.492722,0.808594,-0.653076,0.009277,-50.209042,231.307968,-42.92297
-0.529297,-1.367676,1.108643,214.225754,126.731865,227.218613,0.260498,-1.416992,-0.05249,206.390366,115.58532,66.963196
-0.504395,-1.440918,1.039307,210.433945,125.083916,224.235519,0.766602,-0.599365,0.048828,-9.162903,249.992355,-61.859127
-0.52417,-1.526855,1.040771,197.875961,119.346611,232.009872,0.674561,-0.535156,0.031006,8.682251,249.992355,-45.028683
-0.585449,-1.594482,1.096436,191.032394,113.075249,240.386948,0.533936,-0.515625,-0.009766,20.019531,249.992355,-20.187376
-0.636963,-1.645752,1.104004,192.909225,109.466545,244.224533,0.381104,-0.526855,-0.057373,34.317017,249.992355,-3.501892
-0.542725,-1.248535,1.152344,210.044846,127.365105,220.664963,0.402344,-0.534424,-0.118652,51.74255,249.992355,4.196167
-0.63623,-1.65918,1.04248,194.526657,110.099785,239.700302,0.50293,-0.537842,-0.171875,64.949036,249.992355,7.736206
-0.641113,-1.662842,0.97876,188.644394,114.288322,237.922653,0.354736,-1.565918,-0.135986,218.147263,114.128105,39.543152
-0.707764,-1.649658,0.846436,175.7202,123.77166,241.813644,0.458252,-0.5271,-0.194092,89.469902,249.992355,0.175476
-0.789063,-1.394531,0.504639,119.430534,46.69952,249.969467,0.362305,-0.52124,-0.186279,103.431694,249.641403,3.181457
-0.662842,-1.628174,0.616211,162.559494,97.572319,235.794052,0.270752,-0.522217,-0.230469,110.481255,249.992355,10.437011
-0.754639,-1.601563,0.540527,151.832581,77.819824,236.373886,0.179932,-0.533447,-0.295898,108.924858,249.992355,13.008117
-0.837646,-1.515869,0.538086,132.774353,62.118526,248.435959,0.512451,-0.539551,-0.193115,77.24762,249.992355,4.798889
-0.748047,-1.309326,0.417236,108.703606,31.059263,249.832138,0.216553,-0.759277,-0.344238,116.676323,198.677048,6.080627
-0.739746,-1.241211,0.344238,101.394646,18.058777,249.992355,0.171631,-0.617676,-0.339355,109.848015,236.358627,11.238097
-0.666992,-1.171875,0.246582,94.703667,1.197815,249.717697,0.243652,-1.255371,-0.244873,170.822128,150.024414,44.410702
-0.640381,-1.059814,0.145508,80.245972,-19.454956,238.113388,0.330811,-1.140625,-0.388428,155.754089,159.080505,34.088135
-0.682861,-0.918457,0.059326,56.694027,-41.259762,225.1129,0.415771,-1.134033,-0.4375,158.493042,158.416748,24.55139
-0.703857,-0.773926,0.025879,27.130125,-64.38446,210.670456,0.443115,-1.192383,-0.430908,163.444504,147.460938,18.302917
-0.465576,-1.213623,1.128662,217.628464,127.838127,202.68248,0.206543,-1.354004,-0.07959,192.321762,132.568359,64.399719
-0.670898,-1.649902,0.744385,170.051559,116.485588,243.347153,0.337646,-1.195068,-0.358887,159.660339,131.286621,20.828245
-0.399902,-1.169434,1.112549,225.082382,127.395622,187.850937,0.270752,-1.121338,-0.38208,149.734497,138.61084,16.731262
-0.693115,-0.657471,0.032471,-7.93457,-83.229057,191.917404,0.235107,-1.016846,-0.381592,138.237,153.72467,10.437011
-0.444824,-1.054932,1.164307,219.299301,132.324219,176.269516,0.230957,-0.901855,-0.349609,127.464287,173.545822,6.111145
-0.227051,-0.365723,0.18457,169.563278,188.407883,-8.010864,0.407471,-1.228027,-0.391113,164.161667,134.841919,19.538879
-0.241943,-0.378906,0.261963,173.286423,194.435104,-7.095336,0.891602,-0.056396,-0.587891,24.253843,1.579285,30.937193
-0.181152,-0.389404,0.330078,181.274399,195.732101,-2.02179,0.941162,-0.059814,-0.573486,23.353575,8.934021,27.961729
-0.114258,-0.420166,0.38501,191.017136,194.663986,1.373291,1.018555,-0.066895,-0.590576,22.377012,10.719298,29.106138
-0.087402,-0.455322,0.416504,199.172958,192.741379,2.159119,1.079102,-0.093994,-0.58667,23.468016,9.544373,28.976439
-0.097412,-0.490967,0.45752,205.20018,192.657455,3.486633,1.13916,-0.091309,-0.592773,24.29962,6.080627,26.069639
-0.140625,-0.52124,0.507813,210.525497,193.519577,6.79779,1.183838,-0.069092,-0.599854,23.757933,1.693725,23.612974
-0.196045,-0.5354,0.564209,216.438278,189.727768,11.756896,1.205811,-0.039551,-0.599121,22.735594,-4.753113,22.926329
-0.219238,-0.537842,0.629639,221.214279,179.542526,20.164488,1.225342,-0.013916,-0.588623,20.530699,-12.825011,20.683287
-0.242432,-0.529785,0.675293,220.489487,167.938217,29.342649,1.253906,-0.000244,-0.570801,16.311646,-20.416258,16.677856
-0.406494,-1.122314,1.142822,223.625168,128.570557,183.067307,1.277344,0.018799,-0.560547,10.047912,-20.03479,10.307311
-0.272705,-0.508301,0.699951,209.213242,159.339905,40.367123,1.259277,-0.052979,-0.73877,16.456604,62.545773,-21.369932
-0.121582,-0.574707,0.892334,187.454208,160.27832,69.30542,1.256836,0.013916,-0.554688,-3.341675,4.989624,-6.752014
-0.082031,-0.651123,1.01709,189.277634,169.197067,77.552795,1.217773,0.019531,-0.569824,-8.758545,17.539978,-13.809203
-0.105225,-0.728027,1.095947,193.405136,179.573044,83.259575,1.156006,0.016602,-0.604492,-12.855529,25.596617,-19.760132
-0.182861,-0.800781,1.12793,197.563156,189.628586,91.911308,1.080078,-0.010742,-0.618652,-14.671325,29.518126,-23.910521
-0.270264,-0.858398,1.148193,204.368576,195.793137,98.663322,1.026611,-0.064209,-0.644043,-12.748717,31.318663,-25.817869
-0.397461,-0.901123,1.158691,212.989792,195.693954,102.684013,1.005127,-0.123047,-0.677734,-7.469177,30.029295,-24.681089
-0.48584,-0.934082,1.120361,221.763596,187.347397,108.551018,1.014404,-0.165771,-0.699707,-0.053406,27.44293,-21.987913
-0.506348,-0.948242,1.102295,225.654587,171.462997,123.542778,1.069092,-0.163086,-0.723877,7.156372,27.748106,-19.340515
-0.517334,-0.954102,1.135498,224.517807,154.99115,143.180847,1.161621,-0.137207,-0.746826,13.229369,32.814026,-17.807007
-0.499023,-0.983398,1.1604,221.321091,141.624451,161.460861,1.236572,-0.09375,-0.749512,16.609192,44.670101,-19.676208
-0.218018,-0.520264,0.77124,194.129929,156.433105,55.679317,0.780029,-0.106689,-0.529541,26.496885,-5.935668,42.175289
-0.679688,-0.588867,0.051025,-43.518063,-94.245903,168.937668,1.271484,0.018555,-0.553955,3.40271,-9.407043,1.533508
-0.645264,-0.591797,0.089355,-73.524475,-96.755974,143.867493,0.66626,-0.108887,-0.524414,27.481077,-10.482787,62.644955
-0.615967,-0.627197,0.115723,-99.777214,-90.25573,116.996758,0.743652,-0.571533,0.2854,91.590874,91.911308,133.995056
-0.503418,-0.672607,-0.001709,-29.312132,-228.736862,-69.259644,0.672607,-0.124023,-0.451904,31.867979,-27.809141,89.820854
-0.469482,-0.804932,0.060059,-25.138853,-247.238144,-62.026974,1.265625,-0.072998,-0.742432,17.807007,80.909721,-22.918699
-0.426758,-0.966553,0.112061,-13.153075,-249.992355,-60.714718,1.101074,-1.052246,0.235596,-227.333054,249.984726,110.855095
-0.385742,-1.127197,0.150146,6.790161,-249.992355,-62.69836,1.355469,-1.128174,0.242432,-202.81218,249.992355,66.215515
-0.359131,-1.228027,0.201904,30.410765,-249.992355,-65.635681,1.620361,-1.119141,0.287842,-184.333786,249.93132,10.101317
-0.35791,-1.268555,0.269775,54.687496,-249.992355,-67.955017,1.563965,-1.238281,0.332031,-174.430832,249.252304,-33.607483
-0.346924,-1.269287,0.277344,71.617126,-249.984726,-69.252014,1.187988,-1.426514,0.280273,-147.117615,249.992355,-35.125732
-0.28833,-1.265381,0.295166,82.588188,-249.595627,-72.105408,0.85376,-1.403564,0.158936,-107.795708,249.992355,30.799864
-0.201172,-1.285889,0.283447,90.652458,-249.992355,-75.027466,0.57373,-1.266357,0.156982,-59.837337,205.375656,132.606506
-0.122559,-1.368652,0.249756,102.401726,-249.992355,-75.302124,0.290771,-1.044678,0.15625,-25.184629,160.125732,201.91954
-0.513428,-0.578857,-0.061279,-24.627684,-204.3228,-75.828552,0.387695,-0.986084,0.198242,6.591796,128.875732,221.359238
-0.026855,-1.522705,0.238037,123.878471,-226.669296,-77.972412,0.638184,-0.097168,-0.521484,28.678892,-14.991759,77.682495
0.179199,-1.829102,0.263428,203.002914,-137.466431,-103.935234,0.670898,-0.861572,0.27124,34.835815,113.510124,193.962082
0.273926,-2.03418,0.250244,244.300827,-76.705933,-131.04248,0.774902,-0.618408,0.396484,83.145134,102.455132,138.023376
0.340576,-2.14502,0.200684,249.351486,-13.702392,-152.275085,0.822266,-0.568359,0.209717,104.415886,102.462761,122.230522
0.169678,-1.85791,0.000977,249.992355,29.602049,-168.319687,0.847168,-0.500488,0.135498,102.325432,115.95916,121.551506
-0.046143,-1.536377,-0.464844,239.288315,40.054321,-189.361557,0.739014,-0.444092,-0.005371,86.463921,115.760796,124.870293
-0.149902,-1.43457,-0.965088,167.961105,34.820557,-198.77623,0.68042,-0.397705,-0.119141,67.810059,100.059502,126.480095
-0.036377,-1.550293,-0.958984,119.552605,34.355164,-185.317978,0.655029,-0.37915,-0.214844,51.856991,75.233459,126.846306
0.151611,-1.80127,-0.355469,138.877869,47.149654,-185.913071,0.576416,-0.364014,-0.300049,44.204708,43.258663,120.704643
0.091797,-1.986816,0.334229,207.946762,63.690182,-211.029037,0.478027,-0.314209,-0.292236,46.157833,6.515502,112.495415
-0.337158,-2.010986,0.40332,249.992355,64.453125,-214.729294,0.692871,-0.2229,-0.319092,46.333309,-35.28595,110.725395
0.083984,-1.685303,0.248779,155.586243,-186.752304,-87.257378,0.690674,-0.15625,-0.457275,38.589478,-33.454895,101.577751
-0.489746,-0.517578,-0.110352,-11.734008,-183.074936,-77.522278,0.861816,-0.736328,0.39917,64.735413,110.069267,156.227112
-0.814941,-1.999268,0.044922,244.239792,27.297972,-182.228073,1.23999,-0.112061,-0.762695,21.308897,98.785393,-22.094725
-0.508789,-0.502686,-0.100586,31.158445,-132.232666,-77.400208,1.169678,-0.115967,-0.784424,26.855467,116.828911,-21.415709
-0.64209,-0.700195,0.152344,-121.055595,-75.881958,86.830132,0.579834,-0.552246,0.45752,219.367966,-195.068344,-120.475761
-0.732666,-0.817139,0.222412,-133.163452,-57.151791,56.442257,-0.004639,-0.37793,-0.422607,-22.377012,-64.247131,-18.501282
-0.848877,-0.986084,0.306396,-132.102966,-38.490295,27.412413,-0.154297,-0.425537,-0.492188,-11.642455,-93.261711,-17.883301
-0.955078,-1.214355,0.349854,-115.623466,-26.245115,-0.160217,-0.202148,-0.501709,-0.534912,3.936767,-123.497002,-15.914916
-1.010254,-1.4646,0.316406,-86.105339,-27.084349,-22.895811,-0.170898,-0.5896,-0.549561,26.573179,-148.017883,-15.846251
-1.013428,-1.65332,0.28125,-48.133846,-39.390564,-39.901733,-0.078857,-0.669922,-0.540283,56.854244,-164.009079,-18.058777
-0.488525,-0.49585,-0.11792,9.414673,-159.27887,-77.911377,0.054688,-0.708984,-0.509277,90.454094,-170.555099,-22.125242
-0.862549,-1.573242,0.208496,23.223875,-69.129944,-56.167599,0.141602,-0.671387,-0.442627,118.392937,-170.135483,-30.448912
-0.756348,-1.411865,0.169434,46.806332,-75.195313,-60.455318,0.164551,-0.544922,-0.350586,130.645752,-169.776901,-37.895203
-0.657715,-1.223145,0.14502,58.769222,-74.272156,-64.559937,0.161133,-0.410645,-0.167236,131.111145,-172.203049,-39.497375
-0.576904,-1.049805,0.13208,59.791561,-70.838928,-67.565918,0.070557,-0.358154,-0.010498,142.326355,-174.018845,-41.114803
-0.966064,-1.674072,0.245361,-10.047912,-55.541988,-50.933834,0.177979,-0.352051,-0.389648,-30.433653,-46.150204,-17.13562
-0.493408,-0.793457,0.046631,47.721859,-68.145752,-70.716858,0.026611,-0.322266,0.008301,147.491455,-179.351791,-44.105526
-0.469727,-0.719727,0.010742,44.761654,-69.137573,-73.028564,0.155518,-0.340576,0.100586,152.870178,-201.576218,-58.685299
-0.417236,-0.678711,0.00708,46.508785,-68.466187,-72.303772,0.223877,-0.39209,0.134521,161.239609,-209.091171,-65.811157
-0.361328,-0.678467,-0.011719,51.979061,-65.597534,-71.678162,0.260742,-0.440918,0.188965,175.315842,-218.872055,-68.267822
-0.360107,-0.691406,-0.02832,59.898373,-61.19537,-71.960449,0.2229,-0.476563,0.23584,191.253647,-232.460007,-68.962097
-0.371826,-0.697998,-0.026123,67.398071,-56.137081,-72.273254,0.169922,-0.495605,0.273682,205.497726,-243.194565,-72.525024
-0.376221,-0.680176,-0.026855,69.580078,-55.595394,-76.377869,0.215088,-0.49707,0.336426,216.728195,-247.276291,-77.453613
-0.412109,-0.640137,-0.019775,64.537048,-63.888546,-76.583862,0.32373,-0.512451,0.369141,222.900375,-242.462143,-82.740776
-0.47168,-0.582764,-0.03833,55.923458,-81.764214,-73.799133,0.43457,-0.536377,0.380371,224.876389,-230.255112,-90.576164
-0.518066,-0.533936,-0.061279,46.424862,-105.049126,-74.295044,0.50293,-0.550781,0.42041,224.769577,-213.64592,-103.759758
-0.522705,-0.904053,0.095215,53.909298,-68.763733,-69.023132,1.218506,-0.127197,-0.783691,24.55139,112.43438,-22.216795
-0.640381,-0.558838,0.081055,-165.695175,249.992355,-249.992355,0.062744,-0.301758,0.041504,149.337769,-191.009506,-50.010677
-0.548096,-0.669434,0.084229,-170.692429,249.992355,-249.732956,0.295898,-0.340576,-0.45166,-36.888123,-44.654842,-14.129638
-0.351318,-0.77124,0.032959,-167.533859,249.992355,-249.992355,0.135742,-0.366699,-0.030273,134.979248,-173.477158,-39.512634
-0.14624,-0.865234,-0.073975,-145.812988,249.992355,-249.992355,0.15625,-0.290771,-0.552979,-51.795956,-59.852596,-11.123656
-0.108398,-2.047119,0.228516,-91.865532,74.981689,-249.992355,0.280762,-0.328369,-0.531738,-43.739315,-53.825375,-11.550902
-0.026855,-1.364746,-0.173584,-90.446465,210.899338,-249.992355,0.928467,-0.094482,-0.779785,29.533384,87.394707,-12.878417
-0.052734,-1.653809,-0.079346,-75.782776,148.170471,-249.992355,0.818848,-0.086426,-0.775635,29.953001,58.235165,-7.873535
-0.07251,-1.870361,0.091309,-77.041626,104.911797,-249.992355,0.786133,-0.087402,-0.743896,33.13446,31.883238,-4.966736
-0.036865,-1.060059,-0.141846,-116.424553,248.588547,-249.992355,0.898926,-0.072266,-0.710205,36.193848,19.981384,-4.058838
-0.728027,-0.434814,0.130859,-160.560608,249.694809,-249.992355,1.070313,-0.037109,-0.658691,36.071777,23.269651,-2.906799
-1.149658,0.199707,0.925293,-34.576416,21.102903,-37.261963,1.152832,-0.004883,-0.624023,32.150269,37.612915,-3.181457
-0.806641,-0.224121,0.302734,-155.586243,249.992355,-216.026291,1.108643,0.002686,-0.592041,27.008055,59.188839,-6.187438
-0.836914,-0.146484,0.375732,-151.054382,237.876877,-195.198044,1.021729,-0.009033,-0.568359,21.64459,82.099907,-12.489318
-0.871582,-0.085449,0.440918,-139.24408,205.093369,-172.576889,0.918945,-0.003662,-0.550293,15.411376,98.419182,-22.064207
-0.888916,-0.033447,0.49707,-121.406548,171.791061,-150.596619,0.768799,0.031738,-0.536865,7.8125,102.767937,-31.089781
-0.92041,-0.00415,0.52832,-103.652946,140.235901,-131.92749,1.062744,-0.103271,-0.77832,28.83148,108.100883,-17.623901
-0.983643,0.021729,0.550293,-90.515129,112.640373,-116.500847,0.567383,0.019043,-0.484863,-7.17163,74.043274,-32.997131
-1.035889,0.04541,0.616211,-77.529907,89.057915,-99.32708,0.635986,0.057373,-0.518066,-0.984192,93.215935,-34.645081
-1.038818,0.078857,0.673096,-62.141415,69.046021,-81.359856,-0.069824,-0.054688,-0.513916,-57.769772,-18.4021,-11.421203
-1.054688,0.123535,0.72998,-49.385067,53.291317,-65.078735,0.060791,0.029541,-0.530762,-45.631405,39.253235,-34.347534
-1.102539,0.168701,0.82666,-40.390011,37.689209,-50.186153,0.414307,-0.003418,-0.490723,-27.732847,77.217102,-36.369324
-0.193115,-2.23999,0.333984,-103.72924,49.270626,-249.992355,0.666992,-0.030518,-0.412598,-13.97705,84.548943,-23.178099
-0.787842,-0.318848,0.235596,-157.806396,249.992355,-236.282333,0.054443,-0.213623,-0.542725,-57.66296,-53.62701,-7.789611
-0.340576,-2.459717,0.493408,-105.651848,28.968809,-249.992355,0.678467,-0.111572,-0.398682,2.380371,55.847164,-21.881102
-0.826416,-0.904297,0.649658,-232.17009,-249.992355,45.280453,0.637695,-0.119385,-0.419434,-0.061035,49.018856,-25.741575
-0.369141,-2.835938,0.780029,-124.877922,-28.884886,-249.992355,0.587891,-0.05957,-0.452148,-6.217956,55.709835,-28.95355
-1.153564,0.203857,0.949951,-29.693602,4.760742,-27.427671,0.727051,-0.067383,-0.380371,-2.89917,71.983337,-19.096375
-0.543945,-1.174561,0.857178,34.629822,-199.523911,-65.666199,0.576416,-1.107178,-0.496582,65.742493,-82.44323,-86.860649
-0.311523,-1.184326,0.724609,73.471069,-249.992355,-58.135983,0.369629,-1.273193,-0.597656,37.094116,-112.289421,-136.711121
-0.094482,-1.239014,0.602539,106.452934,-249.992355,-47.431942,0.381592,-1.279785,-0.577393,39.176941,-108.612053,-129.135132
-0.022217,-1.227539,0.453857,121.604912,-249.992355,-47.370907,0.379395,-1.296631,-0.519043,43.029781,-106.864922,-122.039787
-0.079102,-1.200195,0.282471,115.722649,-249.992355,-42.976376,0.412354,-1.308105,-0.442627,47.790524,-106.613152,-115.264885
-0.259033,-1.223877,0.085205,94.741814,-249.992355,-30.944822,0.446777,-1.304443,-0.412842,51.574703,-106.094353,-108.741753
-0.436035,-1.206543,-0.111084,72.944641,-249.992355,-15.258788,0.494385,-1.291016,-0.438232,55.801388,-102.958672,-103.637688
-0.558594,-1.115723,-0.241699,47.645565,-249.992355,0.068665,0.337646,-1.261719,-0.596436,34.370422,-117.378227,-142.730713
-0.656982,-0.981934,-0.292725,8.499146,-249.992355,14.85443,0.537598,-1.250488,-0.466797,60.997005,-96.405022,-98.960869
-0.457275,-2.695557,0.673584,-107.543938,9.109497,-249.992355,0.56665,-1.182373,-0.478027,64.346313,-88.874809,-93.460075
-0.796387,-0.801025,-0.253174,-44.410702,-249.992355,33.432007,0.559082,-1.04126,-0.486816,68.328857,-77.476501,-79.00238
-1.02124,-0.760986,0.313721,-172.744736,-249.992355,63.491817,0.649414,-0.809082,-0.41333,90.850822,-42.442318,-45.577999
-0.488525,-0.987305,0.833984,-249.954208,-249.992355,19.523621,0.571289,-0.969238,-0.368164,82.397453,-66.497803,-66.246033
-0.190918,-0.989014,0.996338,-249.382004,-249.977097,-23.803709,0.592285,-0.924316,-0.334473,89.828484,-60.363766,-59.631344
-0.171631,-1.202148,1.279785,-249.992355,-249.992355,-83.580009,0.615967,-0.87085,-0.35498,92.224113,-52.87933,-52.604671
-0.024414,-1.904297,1.583252,-249.992355,-249.992355,-141.51001,0.632813,-0.739014,-0.456787,88.150017,-28.877256,-36.766052
0.122314,-2.0896,1.38208,-215.133652,-248.977646,-210.952744,0.557617,-0.691895,-0.435547,84.976189,-13.458251,-26.069639
0.287109,-2.320313,1.175049,-181.701645,-249.992355,-249.320969,0.497314,-0.673584,-0.356445,81.459038,1.663208,-15.747069
0.276123,-2.552734,0.869141,-164.337143,-249.992355,-249.992355,0.486572,-0.683594,-0.287109,74.462891,16.777039,-5.432128
0.114746,-2.676514,0.686279,-161.59819,-212.593063,-249.992355,0.474121,-0.704102,-0.258545,63.591,31.723021,4.15802
-0.13623,-2.796387,0.756836,-150.306702,-100.555412,-249.992355,0.451172,-0.737549,-0.23291,50.140377,46.82159,11.260985
-0.96875,-0.675293,-0.016846,-104.423515,-249.992355,54.489132,0.313965,-1.229248,-0.588623,29.922483,-123.374931,-146.92688
-1.133789,0.196533,0.9021,-26.397703,-9.017944,-20.507811,0.546631,-0.999023,-0.431152,73.638916,-72.441101,-71.792603
-1.114258,0.193115,0.855469,-23.574827,-21.125792,-11.932372,0.300049,-1.196533,-0.579834,23.994444,-130.851746,-149.864197
-1.102051,0.180908,0.866943,-21.560667,-30.395506,-3.585815,0.45752,-0.781738,-0.186523,38.68103,60.714718,14.808654
-1.003662,-0.019775,0.13916,21.713255,-249.969467,81.192009,0.257813,-1.170898,-0.483643,10.749816,-149.917603,-153.190613
-0.864014,-0.08667,0.015869,30.021666,-249.763474,74.661255,0.005859,-0.675537,-0.306641,-124.748222,-148.475647,-51.315304
-0.782227,-0.138428,0.077148,41.15295,-249.992355,71.82312,0.020264,-0.768799,-0.25415,-120.925896,-155.586243,-68.061829
-0.736572,-0.157227,0.141357,51.010128,-249.992355,70.976257,0.010498,-0.781738,-0.25708,-118.553154,-166.90062,-85.494987
-0.667725,-0.143555,0.096191,56.678768,-234.481796,69.206238,-0.020508,-0.708252,-0.276367,-119.766228,-178.184494,-96.04644
-0.569336,-0.151611,0.010742,63.133236,-211.959824,62.973019,-0.0625,-0.626465,-0.278076,-122.360222,-187.461838,-103.172295
-0.49707,-0.177002,-0.115723,69.839478,-181.823715,58.79974,-0.089111,-0.597412,-0.302246,-123.207085,-196.273788,-106.353752
-0.417969,-0.186768,-0.257568,78.62854,-148.490906,60.096737,-0.104492,-0.637939,-0.304199,-121.147148,-202.026352,-106.674187
-0.343018,-0.186523,-0.355713,85.739128,-115.692131,61.126705,-0.08252,-0.744629,-0.255371,-117.637627,-204.841599,-110.824577
-0.291748,-0.187012,-0.359863,86.639397,-83.236687,57.54089,-0.02417,-0.857178,-0.222168,-113.113396,-206.481918,-119.033806
-1.199951,0.044189,0.324707,14.259337,-249.992355,84.037773,-0.003174,-0.919434,-0.218262,-108.612053,-207.870468,-127.090446
-0.269287,-0.205078,-0.307861,83.183281,-50.308224,52.337643,0.28418,-1.179199,-0.536865,17.845154,-139.74762,-151.954651
-0.194336,-0.24707,-0.259521,81.947319,24.101255,44.410702,-0.009766,-0.924561,-0.225586,-104.675285,-212.768539,-133.361816
-0.11084,-0.271729,-0.237549,85.350029,56.480404,38.574219,-0.06543,-0.871582,-0.229248,-97.343437,-237.106308,-138.870239
-0.112549,-0.289063,-0.188965,88.638298,86.105339,30.494688,-0.059814,-0.883057,-0.232422,-89.973442,-247.932419,-139.297485
-0.152832,-0.298096,-0.110107,93.879692,110.244743,23.849485,-0.01001,-0.921387,-0.273926,-80.093384,-249.992355,-140.136719
-0.184326,-0.310791,-0.04541,103.279106,125.976555,16.700745,0.061523,-0.983154,-0.339355,-68.702698,-249.992355,-141.731262
-0.213379,-0.329346,-0.00708,116.378777,135.192871,8.384705,0.158936,-1.050537,-0.377197,-56.297298,-242.179855,-142.63916
-0.194824,-0.352783,0.05249,132.843018,139.839172,4.03595,0.243652,-1.116699,-0.360107,-42.991634,-227.157578,-143.814087
-0.128906,-0.376709,0.102539,151.351929,142.242432,4.241943,0.283936,-1.166016,-0.36084,-28.671263,-209.930405,-147.575378
-0.103271,-0.378906,0.084229,165.031418,150.192261,4.03595,0.292236,-1.178467,-0.411133,-15.899657,-192.634567,-151.245117
-0.134766,-0.361328,0.092773,170.585617,164.741501,2.227783,0.278809,-1.170166,-0.455811,-6.378173,-176.193222,-152.900696
-0.267578,-0.226074,-0.275879,80.406181,-12.664794,48.156734,0.258789,-1.16748,-0.468506,2.174377,-161.811813,-153.450012
-1.383057,0.075439,0.439453,6.965637,-249.992355,79.948425,-0.033936,-0.896484,-0.233154,-101.577751,-223.213181,-137.443542
-0.175781,-0.354492,0.131104,170.516953,178.115829,-2.525329,0.492188,-0.795898,-0.108398,27.862547,73.104858,16.929626
-1.404785,0.092041,0.616943,0.038147,-239.929184,54.367062,-0.023438,-0.582275,-0.32666,-125.518791,-147.392273,-40.870663
-1.098389,0.176758,0.867676,-22.140501,-37.261963,2.555847,0.510254,-0.83667,0.024414,10.139464,88.058464,22.102354
-1.11792,0.144775,0.852051,-23.765562,-43.746944,8.232117,0.538086,-1.01123,0.316406,-172.782883,152.938843,176.834091
-1.170654,0.088135,0.840088,-20.111082,-52.131649,14.633178,0.550293,-1.051025,0.336182,-168.045029,182.060226,179.481491
-1.26001,0.033936,0.793701,-10.528563,-64.89563,18.348694,0.596436,-1.108887,0.327637,-164.131149,206.283554,180.038437
-1.371094,0.010254,0.756104,0.579834,-87.791435,19.035339,0.633057,-1.170166,0.317871,-159.347534,222.915634,181.503281
-1.40918,0.019531,0.745361,8.537292,-116.149895,21.713255,0.605713,-1.213623,0.327393,-153.282166,234.374985,183.799728
-1.434082,0.077881,0.540039,2.14386,-249.992355,69.68689,0.555664,-1.265137,0.340088,-146.911621,239.532455,187.576279
-1.166992,0.029541,0.679443,16.174316,-129.570007,18.928528,0.490967,-1.32373,0.331787,-142.967224,236.160263,189.308151
-1.198486,0.022461,0.698975,19.851685,-115.310661,16.784668,0.402832,-1.3479,0.30835,-142.692566,224.533066,191.59697
-1.212158,0.030518,0.709717,21.034239,-103.149406,19.180298,0.336914,-1.364258,0.266602,-147.972107,207.756027,194.854721
-1.254639,0.039795,0.688232,19.447327,-97.000114,18.638611,0.276123,-1.384766,0.20752,-155.380249,193.183884,197.738632
-1.272461,0.030029,0.709717,11.947631,-132.392883,23.139952,0.571533,-0.947998,0.303223,-176.773056,123.458855,168.342575
-1.274658,-0.004395,0.736328,19.485474,-91.728203,16.494751,0.22168,-1.409668,0.138916,-162.376389,182.540878,199.272141
-1.187012,0.001221,0.74707,27.381895,-80.810539,18.959045,0.151611,-1.330078,0.04126,-189.056381,170.021042,213.958725
-1.163574,0.031494,0.751709,35.652161,-64.338684,11.909484,0.171875,-1.2771,0.011963,-207.527145,165.588364,227.050766
-1.266602,0.089844,0.775635,40.237423,-52.330013,1.937866,0.252441,-1.241699,0.007324,-227.684006,165.283188,238.84581
-1.377441,0.155029,0.808105,41.007992,-58.013912,-0.312805,0.342285,-1.244141,0.075195,-240.142807,168.296799,242.042526
-1.425049,0.195068,0.818604,36.964417,-79.963684,0.030518,0.418457,-1.250732,0.160156,-243.2556,173.118576,233.749374
-1.442139,0.220215,0.773438,32.051086,-110.946648,5.363464,0.531006,-1.248047,0.185791,-241.020187,183.563217,216.445908
-1.427002,0.237061,0.678711,24.101255,-149.726868,17.036438,0.735107,-1.223145,0.181396,-234.123215,206.924423,187.606796
-1.419434,0.217773,0.599609,9.643555,-185.157761,29.640196,0.879883,-1.121826,0.199951,-227.767929,240.470871,162.536606
-1.401611,0.152588,0.595947,-0.358582,-212.715134,41.78619,0.910889,-0.994385,0.279541,-228.622421,249.992355,153.289795
-1.30957,0.023193,0.679199,17.059326,-94.833366,14.656066,0.981934,-0.967773,0.251953,-233.459457,249.992355,139.36615
-0.501465,-1.203369,0.049805,54.115292,249.847397,129.631042,0.190918,-1.384033,0.076172,-174.316391,174.873337,203.582748
-0.466553,-1.188477,0.114258,48.660275,249.877914,130.371094,0.583984,-0.859863,0.310303,-179.283127,95.268242,154.99115
-0.447754,-1.205322,0.148193,37.796021,249.992355,128.77655,0.530518,-0.814941,-0.036865,17.791748,83.328239,18.684387
-0.42334,-1.18335,0.159912,22.224424,249.992355,124.427788,0.506104,-0.729492,0.273926,-194.938644,54.962154,124.679558
-0.053223,-0.935547,0.059326,-36.827087,249.992355,122.734062,0.437012,-0.890381,0.087158,5.844116,83.625786,26.451109
-0.369873,-1.108154,0.007568,-7.240295,249.992355,117.637627,0.364502,-0.953857,0.149658,5.851745,70.960999,29.350279
-0.247314,-1.052734,-0.018799,-18.928528,249.992355,118.988029,0.342529,-0.993896,0.194092,8.842468,54.466244,28.984068
-0.13623,-0.991943,0.02417,-27.420042,249.992355,120.796196,0.345703,-1.006348,0.192871,10.650634,37.216187,26.298521
-0.414307,-1.143066,0.119141,7.064819,249.992355,119.308464,0.326416,-1.009033,0.156738,5.943298,19.393921,25.711058
-0.563477,-1.241211,0.010986,60.340878,249.992355,130.569458,0.274414,-0.995117,0.103516,-1.197815,1.51062,28.686522
-0.496582,-1.470459,-0.017578,91.735832,20.866392,136.444092,0.560059,-0.782959,0.312256,-184.562668,70.365906,139.656067
-0.61377,-1.293213,-0.052734,72.20459,223.808273,125.007622,0.155518,-0.877686,0.062988,-15.083312,-29.136656,30.235289
-0.683594,-1.348877,-0.066162,79.750061,195.25145,129.348755,0.186035,-0.852783,0.062256,-27.870176,-39.932251,27.244566
-0.759766,-1.384277,-0.10376,85.96801,157.142639,140.724182,0.240479,-0.830078,0.056641,-41.801449,-49.110409,27.038572
-0.776855,-1.390625,-0.119873,86.738579,113.212578,148.506165,0.252686,-0.776855,0.041504,-55.52673,-52.047726,27.458189
-0.733398,-1.403809,-0.110352,84.236137,73.577881,149.009705,0.209961,-0.932861,0.06543,-6.301879,-15.708922,30.97534
-0.668457,-1.419189,-0.101074,81.321709,44.296261,149.505615,0.288086,-0.592773,-0.06665,-93.543999,-37.200928,26.496885
-0.621094,-1.442871,-0.067139,80.833427,27.076719,153.823853,0.270508,-0.689697,-0.009766,-72.357178,-48.553463,26.901243
-0.630371,-1.473633,-0.011475,82.489006,18.760681,156.997681,0.390625,-0.556641,0.24585,-201.492294,55.992123,94.169609
-0.611328,-1.493408,0.01123,85.250847,14.251708,155.982971,0.285156,-0.503906,0.236328,-189.880356,64.186096,77.758789
-0.559814,-1.508545,-0.000732,88.836662,14.831542,149.131775,0.21582,-0.506348,0.218506,-178.390488,68.580627,65.505981
-0.006592,-0.866699,0.077881,-46.096798,249.992355,123.146049,0.226563,-0.538818,0.17041,-176.528915,68.527222,55.747982
-0.59082,-1.264648,-0.022217,67.222595,246.231064,129.112244,0.457275,-0.647705,0.248047,-203.826889,51.353451,109.916679
-0.031006,-0.807617,0.052734,-51.36871,249.992355,120.758049,0.237549,-0.536865,0.085938,-182.487473,59.913631,34.164429
-0.223633,-0.608887,-0.107666,-100.425713,67.443848,28.297422,0.225098,-0.473145,0.041992,-171.56218,43.441769,29.922483
-0.090576,-0.769287,0.005615,-58.013912,246.688828,104.896538,0.236572,-0.445801,-0.030518,-146.858215,16.494751,29.08325
-0.426758,-1.393555,-0.020996,90.896599,30.448912,122.055046,0.271729,-0.496094,-0.078857,-118.667595,-13.839721,27.755735
-0.31665,-0.580078,-0.529053,-20.622252,81.909172,-57.044979,0.237793,-0.5625,0.111084,-180.618271,66.604614,44.075008
-0.436035,-0.562988,-0.538574,-31.646727,80.093384,-58.807369,-0.299316,-0.843994,-0.786621,32.37915,-2.120972,0.061035
-0.52417,-0.553955,-0.508545,-41.954037,70.091248,-55.564877,-0.249512,-0.868408,-0.808105,38.9328,-2.822876,-3.623962
-0.554443,-0.535645,-0.444092,-50.155636,56.083675,-48.034664,-0.236084,-0.87207,-0.821045,43.601986,-0.63324,-5.264282
-0.507568,-0.527344,-0.344971,-54.458614,41.633602,-39.276123,-0.233154,-0.862793,-0.856201,43.075558,1.770019,-5.699157
-0.411621,-0.555176,-0.269043,-54.740902,32.409668,-31.265257,-0.223389,-0.841309,-0.909424,41.275021,1.014709,-6.866455
-0.294434,-0.583252,-0.263184,-54.214474,34.698486,-25.695799,-0.225342,-0.814209,-0.91748,40.077209,-3.684997,-6.553649
-0.205811,-0.547119,-0.30542,-63.83514,51.780697,-23.208616,-0.260254,-0.818848,-0.924072,40.64941,-10.887145,-3.410339
-0.240723,-0.487793,-0.351074,-88.378899,70.846558,-15.258788,-0.293213,-0.817627,-0.938721,44.372555,-20.874022,1.281738
-0.068359,-0.777344,0.024902,-54.191586,249.992355,114.463799,-0.298096,-0.812256,-0.944824,46.752926,-29.151915,4.737854
-0.319092,-0.450684,-0.381104,-115.287773,79.780579,1.525879,-0.266846,-0.814941,-0.957764,46.470638,-30.296324,5.020141
-0.297363,-0.488281,-0.260742,-123.229973,75.065613,23.04077,-0.160645,-0.768799,-0.920654,28.091429,-31.318663,-1.38092
-0.150391,-0.720703,-0.055176,-73.638916,66.02478,37.193298,-0.22876,-0.799805,-0.937256,43.388363,-16.937256,-3.623962
-0.086914,-0.7229,-0.136719,-62.042233,74.951172,50.918575,-0.213379,-0.789551,-0.916504,39.024353,-11.131286,-7.781982
-0.069092,-0.613037,-0.229492,-70.785522,97.30529,66.177368,-0.200195,-0.805664,-0.9104,36.300659,-7.637023,-8.682251
-0.080811,-0.501953,-0.24292,-89.576714,126.632683,76.416016,-0.191895,-0.812256,-0.922119,35.369873,-4.798889,-7.919311
-0.103027,-0.461182,-0.185547,-104.064934,154.273987,81.329338,-0.178223,-0.786133,-0.93457,33.210754,-3.852844,-4.592896
-0.111816,-0.498535,-0.124756,-106.1325,176.513657,83.244316,-0.195557,-0.770508,-0.947266,31.677244,-6.660461,-0.38147
-0.099609,-0.59082,-0.075928,-94.726555,191.688522,85.014336,-0.228271,-0.751465,-0.968994,31.539915,-11.428832,0.556946
-0.09375,-0.688721,-0.042969,-77.636719,205.337509,89.172356,-0.209229,-0.731445,-0.979248,30.96771,-17.929077,0.473022
-0.101807,-0.747803,-0.010986,-64.89563,225.654587,96.015923,-0.17627,-0.727783,-0.964355,28.900145,-24.116514,1.693725
-0.337891,-0.438477,-0.377441,-129.119873,80.894463,16.654968,-0.182373,-0.749023,-0.93335,28.106688,-29.144285,1.419067
-0.38916,-1.339844,-0.006104,89.889519,42.869564,108.116142,-0.333008,-0.818848,-0.76001,25.711058,3.639221,1.403808
-0.241943,-0.60498,-0.538086,-10.894774,75.012207,-50.834652,-0.237549,-0.80957,-0.958496,45.745846,-24.734495,1.861572
-0.458008,-1.289795,0.044678,97.579948,71.82312,84.465019,-0.324951,-0.793213,-0.737793,20.050049,13.305663,-1.029968
-0.52832,-0.555176,0.346924,20.668028,-111.358635,-105.239861,-0.257568,-0.759277,-0.347656,32.020569,147.911072,11.260985
-0.541748,-0.647217,0.231689,17.066956,-81.878654,-119.064323,-0.323975,-0.780518,-0.689209,15.792846,36.857605,-7.217407
-0.426025,-0.754395,0.000488,9.185791,-32.966614,-128.463745,-0.133545,-0.767578,-0.962646,26.863096,-25.917051,-4.501343
-0.270508,-0.779297,-0.211914,1.792908,30.410765,-131.233215,0.067139,-0.840332,-0.208984,62.57629,221.984848,93.040459
-0.210693,-0.663818,-0.161865,-9.674072,92.338554,-129.798889,0.064209,-0.84082,-0.20752,62.416073,227.668747,88.203423
-0.301025,-0.480225,-0.043701,-39.459229,140.87677,-132.225037,0.047852,-0.809814,-0.204346,62.011715,230.552658,82.160942
-0.351318,-0.312744,0.007813,-81.314079,171.081528,-141.700745,0.037354,-0.749756,-0.199463,61.859127,229.76683,75.088501
-0.153809,-0.182617,0.040283,-124.885551,180.12236,-152.97699,0.018555,-0.686523,-0.189453,60.066219,226.478561,68.344116
0.083984,-0.080322,-0.024414,-166.854843,182.373032,-159.240723,-0.022461,-0.654785,-0.181152,55.725094,221.20665,62.32452
0.166748,-0.050537,-0.098877,-204.368576,200.065598,-160.102844,-0.062988,-0.666748,-0.168701,52.543636,212.974533,56.648251
-0.422363,-0.520264,0.354492,15.373229,-123.77166,-84.396355,-0.084961,-0.687256,-0.171143,53.283688,200.515732,51.658627
0.124756,-0.109375,-0.104492,-231.071457,236.244186,-159.27124,-0.121094,-0.711426,-0.183594,51.399227,188.163742,45.112606
-0.011719,-0.40625,0.04541,-229.377731,249.992355,-151.725769,-0.324219,-0.779053,-0.723633,16.532898,24.986265,-4.394531
-0.127197,-0.544922,0.165039,-208.549484,249.992355,-143.508911,-0.157227,-0.75,-0.232666,46.676632,176.559433,36.384583
-0.289795,-0.591553,0.407959,-188.407883,249.977097,-133.216858,-0.227783,-0.766113,-0.329102,37.139893,156.074524,19.104004
-0.387207,-0.562256,0.717041,-179.62645,249.992355,-120.277397,-0.289795,-0.763428,-0.351074,27.267454,139.823914,4.646301
-0.482666,-0.531738,0.850098,-182.754501,249.771103,-104.064934,-0.31665,-0.785889,-0.343018,24.04785,131.118774,-1.747131
-0.635254,-0.603027,0.863281,-184.608444,248.283371,-94.91729,-0.333252,-0.807861,-0.342285,23.246763,121.37603,-7.751464
-0.748535,-0.77124,0.880371,-168.014511,249.992355,-91.50695,-0.326904,-0.805664,-0.368896,22.338865,110.275261,-11.398314
-0.816406,-0.935303,0.893799,-133.163452,249.04631,-84.915154,-0.309814,-0.793213,-0.419189,20.774839,97.900383,-12.5885
-0.85791,-1.093994,0.92041,-76.705933,131.187439,-71.807861,-0.313965,-0.777588,-0.461182,19.142151,85.189812,-12.33673
-0.770752,-1.17334,0.912109,-14.22882,-36.361694,-65.216064,-0.320801,-0.774902,-0.506592,17.532349,72.288513,-11.764525
0.05542,-0.25,-0.032715,-239.21965,249.992355,-156.929016,-0.320313,-0.782715,-0.56665,16.441345,59.440609,-10.871886
-0.369141,-0.526855,0.261475,10.124206,-129.112244,-57.189938,-0.318359,-0.786865,-0.62915,15.892028,47.904964,-9.422302
-0.416016,-1.312256,0.016602,92.857353,57.02972,95.321648,-0.191895,-0.770264,-0.287842,41.91589,165.328964,27.687071
-0.438721,-0.652588,0.249023,32.058716,-128.913879,-14.213561,-0.130859,-0.757568,-1.003174,25.42877,-15.754699,-6.782531
-0.463135,-1.250244,0.060791,101.661674,87.539665,76.156616,0.057129,-0.818848,-0.205322,62.240597,215.400681,96.946709
-0.453369,-1.186035,0.078369,103.782646,104.309074,69.114685,-0.230957,-0.727051,-1.045654,21.354673,-4.592896,-6.317138
-0.447021,-1.109619,0.084717,104.316704,122.047417,58.28857,-0.070801,-0.506104,-0.888184,28.182981,-121.917717,-13.771056
-0.425781,-1.030518,0.083984,102.996819,137.710571,43.609615,-0.060547,-0.539551,-0.863525,22.048948,-121.177666,-11.238097
-0.381348,-0.94873,0.102051,99.281303,144.325256,29.548643,-0.037842,-0.547363,-0.865723,13.870238,-114.70031,-8.964539
-0.389404,-0.888428,0.140869,95.230095,140.579224,18.157959,0.0,-0.512207,-0.856689,6.713867,-102.569572,-6.034851
-0.400146,-0.570068,0.20874,17.13562,-131.332397,-32.821655,0.016113,-0.456055,-0.81665,1.235962,-86.72332,-3.318786
-0.442383,-0.82666,0.23584,87.265007,116.500847,5.989074,0.026855,-0.423096,-0.769043,-0.961304,-69.869995,-3.738403
-0.416992,-0.830811,0.258789,82.473747,100.151054,5.722045,0.046143,-0.436035,-0.728516,-1.38092,-53.146358,-6.04248
-0.434082,-0.852295,0.25293,75.675964,83.061211,8.590698,0.044922,-0.491211,-0.717285,-3.105163,-39.825439,-7.690429
-0.48999,-0.869873,0.24585,66.482544,64.575195,14.259337,0.02832,-0.541016,-0.70752,-7.003784,-33.538818,-7.530212
-0.4375,-0.847656,0.193115,91.285698,130.477905,10.055541,0.013428,-0.568848,-0.705566,-13.534545,-32.814026,-8.018494
-0.508789,-0.949219,0.338623,52.314754,20.622252,28.07617,-0.087646,-0.486816,-0.915771,31.974791,-120.506279,-14.701842
-0.492432,-1.000977,0.411377,51.132198,-1.38092,33.081055,0.008789,-0.561279,-0.714844,-23.704527,-36.560059,-9.841919
-0.467773,-1.042725,0.481934,50.369259,-20.965574,37.239075,-0.037109,-0.4021,-0.602539,-51.376339,-45.989986,-3.005981
-0.441162,-1.054443,0.523682,47.431942,-38.642883,40.801998,-0.020996,-0.394775,-0.503906,-61.82098,-45.249935,0.411987
-0.416504,-1.039551,0.526123,43.533321,-54.862972,41.15295,-0.001465,-0.448486,-0.435791,-68.435669,-44.570919,-1.304626
-0.371582,-1.011719,0.50415,42.243954,-70.426941,36.506653,0.012207,-0.553467,-0.407959,-73.143005,-47.821041,-5.813598
-0.344238,-0.972168,0.484131,44.93713,-83.892815,27.275084,0.003906,-0.635254,-0.410156,-78.147888,-56.52618,-10.437011
-0.355225,-0.917969,0.466797,50.2243,-97.541801,20.164488,-0.029785,-0.640869,-0.427734,-85.266106,-72.174072,-15.449523
-0.404297,-0.835938,0.408691,51.834103,-110.321037,13.122558,-0.07666,-0.595215,-0.431396,-94.978325,-93.513481,-19.104004
-0.434814,-0.744629,0.320801,45.082088,-121.093742,0.572205,-0.102295,-0.533447,-0.401367,-105.300896,-116.424553,-20.942686
-0.523438,-0.901123,0.269531,57.197567,43.701168,21.781919,-0.094482,-0.504883,-0.352295,-113.639824,-135.795593,-24.574278
0.158447,-0.913574,-0.292969,15.930175,-108.802788,-51.574703,-0.058594,-0.519531,-0.318604,-121.025078,-146.034241,-31.875608
0.194824,-0.864258,-0.218994,4.951477,-133.468628,-45.837399,-0.012939,-0.474609,-0.6875,-37.597656,-42.617794,-8.308411
0.261475,-0.821777,-0.150391,-3.463745,-163.124069,-38.787842,-0.114014,-0.463867,-0.890625,35.720825,-118.629448,-12.954711
0.315186,-0.854248,-0.077637,-4.402161,-200.263962,-31.761168,-0.173828,-0.744385,-1.02417,23.864744,-7.850646,-7.408142
0.025879,-0.934814,0.157959,-41.450497,-249.992355,-42.999264,-0.224365,-0.422852,-0.835938,44.868465,-100.494377,-9.040833
0.291504,-0.959473,0.08252,-12.71057,-249.992355,-23.002623,-0.168945,-0.431885,-0.858154,40.939327,-112.503044,-10.57434
0.205566,-0.967773,0.126953,-21.797178,-249.755844,-26.031492,-0.233154,-0.691406,-1.043701,20.446775,-3.250122,-7.377624
0.119385,-0.964111,0.161377,-31.997679,-249.740585,-32.089233,-0.200684,-0.651855,-1.021484,19.119263,-1.541138,-10.543822
0.338867,-0.929688,0.01416,-5.348205,-241.760239,-25.703428,-0.193115,-0.651611,-1.001465,14.923095,0.213623,-10.81848
0.153076,-0.944824,-0.375488,23.582457,-87.333672,-53.695675,-0.224609,-0.690674,-0.991211,13.22174,2.586365,-8.827209
-0.170654,-0.860107,-0.861816,40.840145,-34.454346,-6.652832,-0.27124,-0.70166,-0.998535,14.717101,5.66101,-7.4234
0.101318,-0.948486,-0.53125,32.951355,-51.269527,-49.201962,-0.300781,-0.657471,-1.030518,13.114928,6.141662,-6.629943
0.065186,-0.930908,-0.606201,36.193848,-38.993835,-45.883175,-0.313477,-0.676514,-1.019287,8.033752,-0.175476,-12.268065
0.023926,-0.911621,-0.67627,35.987854,-31.990049,-41.442867,-0.25,-0.69043,-1.010254,16.410828,-4.302979,-14.213561
-0.026855,-0.908691,-0.726074,34.736633,-27.816771,-35.346985,-0.210938,-0.626221,-0.970703,17.875671,-3.471374,-14.22882
-0.074219,-0.916504,-0.746826,35.03418,-23.803709,-29.70886,-0.178711,-0.626465,-0.988281,17.341614,-1.075745,-13.603209
-0.109619,-0.908936,-0.744873,36.628723,-20.88928,-25.314329,-0.327881,-0.631592,-1.033447,8.117676,3.311157,-7.972717
-0.158936,-0.902588,-0.755127,38.742065,-20.988462,-22.010801,-0.160889,-0.607666,-0.953857,25.3067,-1.411438,-9.437561
-0.211426,-0.91333,-0.791016,42.327877,-24.978636,-18.424988,-0.173828,-0.567139,-0.913086,30.891417,-5.012512,-7.759094
-0.230225,-0.906982,-0.822021,43.960567,-31.303404,-14.244079,-0.19458,-0.55542,-0.905029,34.240723,-9.292603,-9.918213
-0.210693,-0.88916,-0.85083,42.213436,-35.453796,-9.910583,-0.260742,-0.44165,-0.834229,45.57037,-84.518425,-9.69696
-0.04834,-0.908691,0.13623,-44.624325,-249.992355,-58.128353,-0.177979,-0.579346,-0.952881,35.423279,-14.915465,-13.137816
0.133545,-0.955322,-0.459473,28.495787,-67.970276,-52.284237,-0.150879,-0.592773,-0.99585,35.03418,-20.675657,-15.586852
-0.111572,-0.901855,0.124268,-40.229794,-249.992355,-75.759888,-0.143799,-0.571045,-0.990723,36.735535,-28.320311,-19.462585
-0.268066,-1.136475,0.141602,-13.908385,-249.397263,-197.998032,-0.160889,-0.535889,-0.959229,39.581299,-39.024353,-23.208616
-0.211914,-0.931641,0.076172,-26.908873,-249.992355,-111.961357,-0.206787,-0.496582,-0.929443,41.801449,-52.238461,-21.507261
-0.148438,-0.850098,-0.839844,42.831417,-27.000425,-6.92749,-0.252686,-0.464355,-0.885742,44.18182,-67.825317,-14.572143
-0.159912,-1.009277,0.213623,-39.718628,-45.730587,-133.384705,-0.170166,-0.630127,-0.973633,20.111082,0.099182,-12.321471
-0.17334,-0.90332,0.207275,-48.599239,-43.106075,-140.426636,-0.030273,-1.264648,-0.037598,-104.957573,-80.871574,-91.567986
-0.216064,-0.848389,0.204346,-58.837887,-44.044491,-147.277832,-0.031494,-1.270264,-0.03125,-111.999504,-53.245541,-99.403374
-0.256104,-0.878662,0.211426,-62.294003,-48.179623,-154.945374,-0.078857,-1.261719,-0.043457,-117.553703,-29.220579,-106.674187
-0.27832,-0.980957,0.226074,-53.810116,-57.144161,-164.016708,-0.184082,-1.004395,0.000244,-126.937859,65.765381,-140.563965
-0.292969,-1.087646,0.220947,-39.100647,-72.006226,-173.713669,-0.144043,-1.199707,-0.025879,-122.192375,11.291503,-118.255608
-0.302002,-1.137939,0.188965,-29.724119,-90.446465,-182.197556,-0.180908,-1.139648,-0.015381,-124.710075,28.877256,-123.474113
-0.296631,-1.132813,0.161865,-29.067991,-112.701408,-187.065109,-0.195557,-1.071533,-0.008545,-126.296989,48.149105,-131.43158
-0.281006,-1.092285,0.153564,-31.089781,-139.701843,-190.238937,-0.061035,-1.255615,-0.051758,-98.640434,-111.518852,-84.922783
-0.171875,-0.928223,0.099854,-33.454895,-249.992355,-93.605034,-0.122314,-1.236816,-0.03833,-120.384209,-7.064819,-113.296501
-0.281738,-1.044922,0.14624,-31.257627,-169.074997,-192.985519,-0.026855,-1.268555,-0.064209,-91.13311,-138.847351,-83.114616
-0.294189,-1.07251,0.165771,-22.247313,-232.322678,-196.00676,0.263428,-1.003662,-0.331299,-49.34692,-76.019287,-54.603573
-0.241699,-1.180908,0.137939,-3.990173,-249.992355,-200.508102,0.041992,-1.266113,-0.167969,-75.370789,-158.210754,-77.667236
-0.214355,-1.194092,0.127441,3.578186,-249.992355,-202.17131,0.061035,-1.209717,-0.227051,-73.173523,-158.77533,-74.356079
-0.19751,-1.191162,0.087646,6.462097,-249.992355,-202.957138,0.114014,-1.143555,-0.214111,-70.358276,-159.988403,-72.761536
-0.196289,-1.1604,0.036133,5.973815,-249.992355,-199.592575,0.168701,-1.074463,-0.166504,-66.436768,-159.973145,-71.487427
-0.215576,-1.083984,0.019043,1.747131,-249.992355,-189.491257,0.20166,-1.025391,-0.14917,-63.07983,-156.410217,-70.152283
-0.239502,-1.008301,0.026855,-3.868103,-249.992355,-177.658066,0.203613,-0.99585,-0.160156,-61.218258,-149.047852,-68.54248
-0.22998,-0.972656,0.0354,-8.659363,-249.992355,-164.184555,0.207031,-0.982666,-0.185303,-60.478207,-138.923645,-66.78772
-0.220703,-0.961182,0.042236,-12.893676,-249.992355,-148.910522,0.223633,-0.978271,-0.22583,-58.92181,-126.831047,-64.445496
-0.214844,-0.940918,0.061035,-19.088745,-249.992355,-131.469727,0.244141,-0.974121,-0.268555,-56.510921,-112.098686,-61.752316
-0.299805,-1.029785,0.163574,-28.350828,-199.836716,-194.801315,0.255371,-0.983643,-0.30127,-53.665157,-94.810478,-58.433529
-0.142822,-0.850342,-0.800781,46.020504,-17.974854,-9.902954,-0.163574,-0.935791,0.00708,-127.578728,77.74353,-148.5672
-0.167969,-1.097412,0.209961,-37.849426,-50.033566,-126.342766,0.029541,-1.289551,-0.09375,-81.512444,-153.953552,-81.947319
-0.218506,-0.894043,-0.808105,49.842831,-7.019042,-13.22174,-0.1604,-0.868408,0.01001,-128.181458,83.045952,-153.671265
-0.459717,-0.76001,-0.91748,-3.173828,38.871765,28.526304,-0.018555,-0.758545,-0.220947,-70.106506,-71.075439,-65.216064
-0.47998,-0.692871,-0.938477,-9.269714,28.030394,38.536072,-0.192139,-0.722412,-0.061523,-125.312798,83.709709,-151.550293
-0.445068,-0.633301,-0.924805,-11.337279,18.615723,40.145874,0.260254,-0.708252,-0.469727,-66.040039,-15.2359,-84.548943
-0.349854,-0.638916,-0.80957,-5.432128,16.51001,34.317017,0.267334,-1.024902,-0.35791,-44.357296,-56.335445,-49.995419
-0.257813,-0.683594,-0.706299,2.876281,22.109983,26.741026,0.280029,-0.88916,-0.358887,-43.251034,-68.458557,-49.201962
-0.24585,-0.718506,-0.679443,9.803772,35.705566,23.979185,0.281494,-0.871582,-0.381836,-38.398743,-81.05468,-37.155151
-0.294922,-0.732666,-0.720947,14.152526,52.520748,26.130674,0.272949,-0.814941,-0.455078,-41.847225,-88.905327,-25.360106
-0.345215,-0.693848,-0.783447,13.763427,67.474365,24.29962,0.21582,-0.781006,-0.482422,-49.064632,-95.054619,-15.663146
-0.352295,-0.644287,-0.807129,10.238647,74.501038,17.158508,0.150391,-0.789307,-0.43335,-51.338192,-96.099846,-14.129638
-0.36792,-0.585449,-0.795166,5.302429,72.639465,9.841919,0.136963,-0.821045,-0.376221,-53.855892,-92.041008,-18.707275
-0.399902,-0.761963,-0.865723,-0.679016,46.669003,20.599363,0.106689,-0.87793,-0.353516,-57.876583,-85.84594,-27.763365
-0.404297,-0.580811,-0.771729,2.723694,71.105957,4.28772,0.061035,-0.934082,-0.332031,-58.090206,-81.420891,-38.719177
-0.472168,-0.720459,-0.675781,6.744384,75.004578,-5.432128,0.041748,-0.923584,-0.291016,-55.633541,-82.18383,-46.562191
-0.48999,-0.751465,-0.689209,8.491516,73.944092,-8.750916,0.029053,-0.851563,-0.249512,-55.6488,-85.59417,-50.209042
-0.516357,-0.731201,-0.739014,5.508422,69.572449,-7.942199,-0.014648,-0.773438,-0.229248,-59.875484,-86.34948,-53.581234
-0.566162,-0.675049,-0.75293,0.88501,65.254211,-5.493164,-0.060303,-0.727051,-0.235107,-67.03949,-80.955498,-58.738705
-0.567383,-0.611328,-0.707764,-2.990722,57.319637,-7.148742,0.074219,-0.808105,-0.169922,-68.748474,-58.189388,-74.668884
-0.528564,-0.591797,-0.678711,-4.013062,46.585079,-12.275695,0.108643,-0.816895,-0.169434,-69.587708,-43.022152,-86.174004
-0.493896,-0.608398,-0.642822,-2.01416,39.81781,-19.638062,0.074951,-0.773193,-0.187988,-74.447632,-28.755186,-96.611015
-0.428467,-0.638672,-0.606201,0.236511,39.810181,-28.381346,0.068115,-0.7146,-0.206543,-80.276489,-15.464782,-109.306328
-0.331299,-0.655273,-0.599854,0.205994,47.45483,-35.896301,0.084717,-0.648438,-0.221191,-87.135307,2.586365,-126.319878
-0.24707,-0.639404,-0.578125,-3.608703,61.141964,-42.930599,0.027344,-0.582031,-0.221436,-98.022453,25.650023,-136.21521
-0.435059,-0.644775,-0.718506,3.257751,72.845459,-0.816345,-0.064697,-0.559082,-0.216797,-109.619133,47.683712,-139.770508
-0.331543,-0.699951,-0.82251,-0.694275,52.581783,16.777039,-0.155029,-0.591797,-0.203125,-118.431084,65.101624,-143.051147
-0.169189,-0.85791,-0.786621,48.156734,-11.634826,-11.993407,-0.193848,-0.649902,-0.150146,-123.481743,77.445984,-147.415161
-0.270264,-0.633057,-0.878662,-2.075195,56.037899,16.944885,-0.179443,-0.798584,-0.002686,-127.067558,84.716789,-154.350281
-0.276855,-0.926514,-0.833496,50.956722,-3.639221,-13.84735,0.282715,-0.834473,-0.386963,-53.153988,-45.867916,-65.170288
-0.310059,-0.902344,-0.850586,48.828121,-3.013611,-13.671874,0.27832,-1.042969,-0.38208,-38.94043,-36.018372,-44.265743
-0.314941,-0.866211,-0.848877,45.738216,-1.091003,-15.731811,0.287354,-1.065186,-0.443115,-28.472898,6.530761,-33.470154
-0.279541,-0.821045,-0.7771,42.655941,3.64685,-18.630981,0.139893,-1.395996,-0.080566,97.778313,12.405395,92.247002
-0.24292,-0.801758,-0.753906,38.551331,11.924743,-19.767761,0.126709,-1.337891,-0.061279,92.109673,2.433777,88.951103
-0.248047,-0.798584,-0.786865,36.026001,23.193357,-23.071287,0.106934,-1.262939,-0.054932,86.326591,-6.980896,87.394707
-0.297119,-0.654785,-0.834717,-1.220703,57.53326,16.593933,0.099365,-1.179688,-0.066162,82.069389,-13.832091,86.830132
-0.300049,-0.793945,-0.811768,31.768797,39.047241,-30.281065,0.104492,-1.075684,-0.07373,78.277588,-16.960144,87.364189
-0.321045,-0.771973,-0.853516,23.117064,44.387814,-30.418394,0.106934,-1.002686,-0.061279,75.3479,-15.61737,89.683525
-0.378662,-0.787598,-0.888916,15.197753,45.82214,-28.503416,0.103271,-0.982666,-0.050781,75.332642,-10.116576,91.224663
-0.463623,-0.827393,-0.903076,13.008117,35.858154,-23.445127,0.102295,-0.966553,-0.054932,78.727722,-1.899719,90.858452
-0.280273,-0.801025,-0.802979,35.224915,32.836914,-27.832029,0.106689,-0.919434,-0.068359,81.619255,7.949829,90.2481
-0.545654,-0.836426,-0.90625,21.14868,-18.470764,-7.331848,0.142822,-0.74707,-0.155273,74.813843,30.662535,94.802849
-0.483887,-0.793457,-0.868164,25.985716,-46.150204,-3.440857,0.159912,-1.433105,-0.091309,104.843132,21.194456,96.748344
-0.324219,-0.727783,-0.826172,24.536131,-60.630795,-4.104614,0.169434,-0.693604,-0.203857,68.885803,46.936031,97.740166
-0.132568,-0.690918,-0.859619,18.585205,-57.266232,-6.965637,0.191895,-0.701904,-0.260742,67.077637,93.65081,99.739067
0.003662,-0.717773,-0.873291,21.049498,-40.702816,-13.000487,0.178223,-0.75415,-0.267334,65.193176,119.689934,100.112907
0.009033,-0.732666,-0.838623,29.098509,-17.181396,-20.599363,0.158447,-0.794678,-0.263428,63.903805,143.630981,99.441521
-0.037354,-0.691406,-0.85791,29.08325,6.935119,-26.252745,0.149902,-0.782715,-0.243164,62.553402,163.452133,98.716728
-0.065674,-0.669678,-0.898438,20.545958,23.506163,-25.260923,0.155273,-0.736816,-0.203857,60.661312,178.329453,98.464958
-0.147705,-0.674072,-0.909912,12.702941,35.667419,-11.276244,0.141846,-0.716309,-0.175049,59.082027,189.598068,98.335258
-0.235352,-0.641357,-0.905762,4.226685,48.179623,7.667541,0.122314,-0.728516,-0.180176,59.326168,197.76915,98.114006
-0.530029,-0.849365,-0.90332,15.86151,12.298583,-15.762328,0.098145,-0.751709,-0.193848,60.714718,203.30809,98.518364
-0.102051,-0.8479,0.156006,11.680602,225.242599,148.445129,0.068604,-0.783203,-0.19751,61.576839,208.85466,98.793022
-0.136475,-0.833008,0.138428,10.932921,193.09996,143.257141,0.283203,-1.060059,-0.411621,-33.279419,-15.167235,-38.391113
-0.17041,-0.836182,0.119873,9.605408,171.363815,134.780884,0.187012,-0.685059,-0.237549,67.237854,68.405151,99.044792
-0.192871,-0.838867,0.121826,6.988525,156.143188,124.740593,0.195313,-1.463135,-0.113037,113.800041,24.650572,102.561943
-0.166504,-0.77124,0.263672,-29.647825,101.814262,92.849724,0.117432,-0.842285,-0.101074,80.162048,18.363953,91.743462
-0.175049,-0.809082,0.144775,-4.753113,138.023376,111.412041,0.263184,-1.439453,-0.198486,123.580925,15.083312,116.447441
-0.171631,-0.786865,0.1604,-13.145446,127.845757,106.712334,0.236816,-1.478516,-0.151611,120.613091,22.071836,109.40551
-0.16748,-0.773193,0.195557,-21.942137,115.69976,100.349419,0.333496,-1.02417,-0.488037,-18.424988,50.834652,-26.298521
-0.193359,-0.829834,0.131348,2.288818,146.064758,116.409294,0.313477,-1.009521,-0.505859,-12.748717,69.259644,-22.506712
-0.061523,-0.893799,0.190186,15.251159,248.519882,151.451111,0.274658,-0.999023,-0.515381,-6.67572,82.328789,-17.883301
-0.492676,-1.593262,0.625,218.154892,249.992355,99.601738,0.220215,-0.992432,-0.514648,0.274658,88.409416,-11.184691
-0.009033,-1.042236,0.302246,31.539915,249.992355,151.924133,0.155029,-0.986328,-0.508545,8.148193,86.425774,-1.617432
-0.052246,-1.128906,0.362061,43.090816,249.992355,153.076172,0.094238,-0.983643,-0.49707,16.906738,76.881409,10.559081
-0.073975,-1.210205,0.410156,55.564877,249.992355,152.069092,0.044678,-0.993408,-0.484863,26.283262,64.025879,23.445127
-0.056152,-1.280518,0.445557,68.252563,249.992355,147.567749,0.030518,-1.001221,-0.495605,35.614014,50.590511,36.109924
-0.053711,-1.338135,0.495605,81.18438,249.992355,139.938354,0.070313,-1.000977,-0.529053,44.410702,36.056519,48.789974
-0.100098,-1.409668,0.557861,96.374504,249.992355,129.28009,0.125732,-0.99292,-0.515869,52.230831,22.216795,61.927792
-0.182617,-1.490234,0.65332,119.644157,249.992355,121.711723,0.313232,-1.049072,-0.465576,-23.689268,29.060362,-29.762266
-0.281006,-1.542236,0.689697,145.362854,249.992355,117.568962,0.139648,-0.949219,-0.457031,66.215515,-3.471374,86.013786
-0.394531,-1.578613,0.695801,170.051559,249.992355,115.547173,0.148926,-0.977539,-0.485352,59.05151,10.246276,74.462891
-0.471924,-1.606934,0.675781,195.198044,249.984726,111.404411,0.281006,-1.249268,-0.325684,127.311699,-8.300781,126.388542
-0.181885,-0.792969,0.328369,-33.752441,87.036125,80.963127,0.277832,-1.177734,-0.388916,130.607605,-21.720884,129.669189
-0.016113,-0.954102,0.235596,21.720884,249.992355,152.046204,0.247314,-1.126953,-0.384521,132.392883,-36.331177,132.858276
-0.247803,-0.83667,0.369629,-37.620544,74.356079,63.140865,0.187744,-1.085938,-0.335449,131.752014,-50.209042,133.06427
-0.954346,-0.634277,0.286377,23.66638,-82.900993,171.981796,0.277588,-1.348633,-0.254883,124.885551,4.005432,122.51281
-0.454346,-0.830811,0.334229,-76.637268,65.193176,39.611816,0.085205,-1.018311,-0.310791,107.89489,-56.343075,121.009819
-0.579834,-1.515869,0.513184,224.822983,249.992355,90.049736,0.084717,-0.957275,-0.352051,90.164177,-41.816708,109.947197
-0.973633,-0.420898,-0.043701,87.028496,18.081665,81.55822,0.108398,-0.931641,-0.407471,75.820923,-21.751402,97.55706
-0.958252,-0.351318,-0.070313,75.195313,-0.991821,91.735832,0.129395,-1.063232,-0.308838,124.15313,-59.013363,128.53241
-0.926514,-0.293213,-0.01709,61.56921,-24.879454,100.07476,-0.070801,-1.042969,-0.490967,37.590027,17.585754,16.487122
-0.953369,-0.282471,0.087402,49.629208,-53.184505,109.687798,0.044678,-1.061523,-0.243164,37.93335,115.432732,46.44775
-0.991455,-0.301514,0.197266,41.351315,-79.627991,123.184196,0.037109,-1.050781,-0.237305,37.773132,95.405571,42.831417
-0.94165,-0.324951,0.262207,34.721375,-100.158684,139.953613,0.017578,-1.055664,-0.238281,40.290829,76.133728,39.009094
-0.857666,-0.364258,0.226807,27.297972,-112.55645,153.091431,-0.010254,-1.072021,-0.255371,43.113705,58.92181,34.27124
-0.849609,-0.432373,0.118164,20.225523,-114.295952,159.362793,-0.021484,-1.088867,-0.308838,44.090267,45.501705,28.991697
-0.877686,-0.509277,0.065186,15.663146,-110.992424,164.939865,-0.036621,-1.074463,-0.378174,43.17474,35.591125,24.505613
-0.362305,-0.872559,0.36499,-50.941463,66.932678,47.531124,0.053711,-1.086182,-0.237061,39.634705,135.864258,50.422665
-0.891357,-0.565918,0.084717,13.839721,-106.941216,170.608505,-0.048828,-1.04834,-0.425537,40.512081,29.014585,20.706175
-0.928711,-0.642578,0.219971,22.109983,-92.941277,177.093491,-0.044434,-1.039551,-0.46875,38.711548,23.483274,18.028259
-0.952393,-0.609131,0.286377,14.564513,-67.03949,152.069092,-0.08374,-1.04248,-0.509277,37.17041,11.512755,13.008117
-0.80127,-0.582275,0.210449,-6.500244,-49.926754,117.614738,0.098877,-0.821045,-0.683838,21.568296,6.851196,-0.717163
-0.57959,-0.556641,0.106689,-34.629822,-37.094116,87.844841,0.012451,-0.916016,-0.596191,28.007505,6.355285,7.980346
-0.485596,-0.531738,0.057861,-64.422607,-23.895262,66.963196,0.009521,-0.890381,-0.620117,26.908873,3.433227,6.462097
-0.587402,-0.5271,0.079834,-86.357109,1.304626,44.349667,0.074219,-0.854248,-0.650635,26.580809,2.593994,1.464844
-0.653076,-0.523926,0.147217,-99.723808,34.40094,25.115965,0.099854,-0.838623,-0.713135,16.387939,7.43103,-1.930237
-0.560059,-0.519775,0.269043,-111.137383,58.219906,18.836975,0.130371,-0.898193,-0.733398,15.266418,1.922607,-2.708435
-0.456055,-0.573486,0.357422,-115.69976,66.505432,25.512693,0.161133,-0.965332,-0.780518,16.166687,-6.04248,-3.005981
-0.455811,-0.695557,0.351318,-103.584282,66.230774,34.469604,0.196533,-1.013184,-0.834961,17.814636,-13.076781,-3.280639
-0.910645,-0.616943,0.144775,16.548157,-100.730888,175.292953,0.240723,-1.022949,-0.870361,21.873472,-16.571045,-3.288269
-0.914551,-0.474854,0.024902,91.995232,35.163879,68.862915,0.279053,-1.006104,-0.898193,28.465269,-17.326355,-3.540039
-0.717529,-1.480957,0.377686,218.063339,249.267563,83.923332,0.058105,-1.104248,-0.213379,41.969296,154.86145,54.557796
-0.904785,-1.373535,0.279541,204.345688,249.992355,66.864014,-0.026611,-0.989014,-0.55249,33.821106,7.5531,8.766174
-0.486572,-0.803223,0.163574,16.235352,-125.289909,-120.231621,0.076904,-1.091553,-0.177002,46.333309,169.296249,59.349056
-0.465332,-0.77417,0.191895,5.722045,-132.377625,-126.579277,0.287354,-0.966309,-0.903076,38.230896,-19.836426,-4.669189
-0.461182,-0.78418,0.19873,-4.127502,-137.405396,-129.730225,0.111816,-1.07666,-0.120361,56.961056,189.590439,66.711426
-0.439697,-0.82251,0.217041,-13.519286,-141.098022,-129.951477,0.243896,-0.67041,-0.310059,63.003536,62.294003,80.276489
-0.405273,-0.87793,0.256592,-20.462034,-144.203186,-127.479546,0.241211,-0.656494,-0.342773,66.513062,56.632992,85.510246
-0.386475,-0.951416,0.292236,-23.468016,-145.759583,-123.939507,0.243408,-0.644287,-0.330811,67.878723,48.71368,91.430656
-0.362061,-1.026611,0.321045,-25.192259,-145.851135,-120.635979,0.245605,-0.672363,-0.296631,70.983887,42.869564,96.611015
-0.342529,-1.086914,0.360107,-29.70886,-145.545959,-116.035454,0.242188,-0.719971,-0.263672,74.035645,39.649963,102.180473
-0.322021,-1.145508,0.387207,-35.110474,-144.165039,-110.008232,0.242676,-0.780029,-0.231445,78.643799,42.617794,108.497612
-0.277344,-1.330811,0.416504,-39.550781,-133.956909,-96.771233,0.252686,-0.824707,-0.216309,84.510796,50.361629,114.349358
-0.50415,-0.861572,0.143555,25.833128,-118.408195,-111.099236,0.25,-0.83374,-0.207031,89.523308,57.449337,118.682854
-0.26416,-1.425781,0.424561,-37.475586,-126.571648,-91.369621,0.246582,-0.853027,-0.20752,91.51458,63.667294,122.177116
-0.212646,-1.443604,0.393799,-36.476135,-108.108513,-83.839409,0.274414,-0.877686,-0.218994,92.26989,74.981689,124.02343
-0.163818,-1.393555,0.377197,-38.414001,-96.885674,-82.557671,0.106689,-1.077393,-0.148682,52.688595,179.695114,63.575741
-0.12793,-1.333008,0.360596,-40.428158,-83.740227,-83.030693,0.297363,-0.905518,-0.216797,92.689507,92.842094,123.504631
-0.098389,-1.276855,0.334961,-43.830868,-69.80896,-85.327141,0.301758,-0.967285,-0.208984,89.736931,142.837524,118.370049
-0.08667,-1.21875,0.299805,-48.927303,-58.303829,-89.378349,0.299316,-0.989502,-0.212158,87.074272,168.724045,113.243095
-0.105713,-1.1604,0.255371,-54.794308,-51.918026,-93.574516,0.287842,-1.008545,-0.200928,84.732048,190.505966,107.620232
-0.144531,-1.132324,0.225586,-58.0368,-51.155087,-98.770134,0.26123,-1.026367,-0.179443,80.444328,207.374557,101.577751
-0.186035,-1.141113,0.213379,-53.611752,-53.306576,-106.521599,0.233398,-1.055176,-0.161621,75.660706,218.925461,94.940178
-0.189453,-1.140381,0.208496,-43.960567,-53.337093,-116.943352,0.206055,-1.062012,-0.151367,71.365356,223.960861,89.057915
-0.844727,-1.441406,0.294189,209.175095,249.992355,77.102661,0.174561,-1.052246,-0.131836,65.948486,223.625168,84.556572
-0.24292,-1.466064,0.412598,-35.629272,-118.003838,-86.898796,0.167725,-1.074219,-0.119873,63.217159,220.336899,78.735352
-0.486084,-0.924805,0.171143,32.394409,-112.907402,-99.891655,0.14502,-1.078369,-0.109863,61.401363,212.356552,73.83728
-0.29248,-1.227539,0.401123,-38.68866,-140.289307,-103.111259,0.114258,-1.071533,-0.107178,59.272762,200.729355,70.137024
-0.468018,-0.991211,0.21167,28.541563,-106.529228,-65.910339,0.304199,-0.9375,-0.206787,92.117302,116.073601,121.910088
-0.455322,-0.975098,0.209473,33.607483,-108.459465,-85.227959,0.257324,-0.901367,-0.896973,50.163265,-26.901243,-3.639221
-0.916504,-1.196289,0.227783,189.32341,158.233643,56.27441,0.276611,-0.675293,-0.274658,57.716366,59.951778,74.607849
-0.898682,-1.148682,0.202637,176.147446,106.62841,54.031368,0.215088,-0.831055,-0.987549,69.023132,-45.082088,6.347656
-0.887695,-1.114258,0.213135,166.603073,59.43298,52.291866,0.214844,-0.714111,-0.616943,0.701904,-78.536987,-11.413573
-0.885498,-1.078369,0.205078,158.859253,15.403747,50.659176,0.178711,-0.682861,-0.651123,-2.304077,-80.604546,-21.972654
-0.8479,-1.013428,0.174072,149.040222,-26.741026,52.505489,0.233398,-0.660156,-0.715576,-3.288269,-91.697685,-35.15625
-0.811279,-0.940186,0.134033,134.979248,-60.714718,53.88641,0.259766,-0.616455,-0.713379,-3.974914,-102.752678,-49.964901
-0.805908,-0.903809,0.117432,121.795647,-88.546745,52.330013,0.254639,-0.578613,-0.727051,-3.257751,-109.092705,-64.77356
-0.806885,-0.870361,0.12207,108.612053,-113.090508,52.734371,0.255127,-0.540039,-0.75293,-1.113892,-112.30468,-73.066711
-0.779785,-0.856201,0.133301,95.222466,-134.429932,53.710934,0.23291,-0.531006,-0.784912,3.204345,-110.54229,-78.643799
-0.766602,-0.848877,0.148193,82.328789,-150.70343,55.831905,0.20874,-0.535889,-0.819092,8.613586,-106.613152,-86.288445
-0.927246,-1.282959,0.284912,199.966415,217.315659,58.509823,0.225098,-0.549316,-0.827637,12.123107,-104.042046,-91.964714
-0.756592,-0.854492,0.157227,55.992123,-173.118576,63.720699,0.28833,-0.567139,-0.798828,10.391234,-104.728691,-95.367424
-0.772461,-0.846436,0.155273,68.733215,-163.192734,60.111996,0.251221,-0.657471,-0.652344,-4.463196,-74.829102,-3.089905
-0.630859,-0.881348,0.157959,14.389037,-110.717766,-20.347593,0.334229,-0.566162,-0.759277,3.799438,-109.52758,-97.953789
-0.614258,-0.837646,0.116699,11.634826,-121.086113,7.316589,0.405029,-0.460938,-0.756348,-4.707336,-130.661011,-90.476982
-0.574219,-0.823486,0.108887,11.383056,-136.360168,33.737183,0.419189,-0.390137,-0.734375,-13.22174,-150.604248,-83.869926
-0.580078,-0.821777,0.130371,14.938354,-153.022766,52.886959,0.451172,-0.418457,-0.728027,-27.137754,-158.500671,-86.944572
-0.559082,-0.953613,0.189697,20.271299,-106.857292,-44.486996,0.611572,-0.519775,-0.745605,-39.810181,-132.461548,-92.704765
-0.680664,-0.825684,0.169678,28.221128,-181.297287,68.397522,0.77002,-0.592285,-0.753662,-45.372005,-78.414917,-89.515678
-0.734375,-0.836426,0.171631,36.491394,-184.295639,67.779541,0.697754,-0.567627,-0.750732,-53.054806,-14.091491,-96.000664
-0.747559,-0.851563,0.156738,45.364376,-181.114182,65.803528,0.50293,-0.499512,-0.709961,-67.733765,32.829285,-109.100334
-0.62085,-0.821777,0.148438,20.980833,-170.036301,63.934322,0.355713,-0.472656,-0.661377,-81.413261,49.690243,-109.565727
-0.345459,-0.974609,0.221436,-78.018188,-133.918762,-123.428337,0.293945,-0.496826,-0.625488,-86.143486,41.168209,-104.690544
-0.375488,-1.025635,0.227539,-61.462399,-105.49926,-131.347656,0.249756,-0.576172,-0.561035,-78.895569,16.838074,-98.991386
-0.347168,-1.026855,0.216309,-61.050411,-119.720451,-126.838676,0.359863,-0.536377,-0.756104,-1.228333,-117.401115,-97.503654
-0.334473,-1.02417,0.203857,-61.904903,-132.18689,-123.329155,0.10376,-0.630859,-0.586426,6.79779,-64.346313,15.075683
-0.336914,-1.007568,0.19873,-64.056396,-142.471313,-120.23925,0.232422,-0.848633,-0.918945,61.721798,-36.78894,0.946045
-0.343018,-0.99292,0.205078,-67.008972,-149.414063,-118.087761,0.099121,-0.862305,-0.545898,25.939939,-44.357296,44.540401
-0.335449,-0.959473,0.216064,-71.838379,-151.130676,-119.079582,0.248535,-0.852295,-1.098389,71.205139,-51.094051,11.169433
-0.39917,-1.011719,0.235352,-62.499996,-89.965813,-137.397766,0.323486,-0.874512,-1.178955,69.030762,-54.359432,16.937256
-0.328125,-0.943115,0.220215,-77.209473,-148.155212,-122.337334,0.36792,-0.862793,-1.186523,65.788269,-51.277157,21.438597
-0.333008,-0.957031,0.224365,-79.826355,-141.944885,-124.366753,0.36377,-0.804688,-1.171143,59.394833,-43.594357,20.89691
-0.377686,-0.98877,0.216797,-72.883606,-124.870293,-123.718254,0.33374,-0.74292,-1.141602,46.943661,-32.684326,20.378111
-0.422119,-0.904785,0.089111,-48.187252,-77.003479,-87.944023,0.344971,-0.712158,-1.07666,37.353516,-15.434264,18.806458
-0.439941,-0.995361,0.168701,-61.347958,-110.16082,-116.798393,0.368408,-0.720459,-1.050049,30.85327,7.148742,13.46588
-0.428711,-0.977783,0.144287,-56.190487,-102.317802,-107.429497,0.358398,-0.785156,-1.074463,22.552488,31.723021,10.787963
-0.418457,-0.939941,0.116943,-51.61285,-91.201775,-97.412102,0.335693,-0.874023,-1.081543,16.441345,53.657528,15.151977
-0.424072,-0.894531,0.062744,-44.860836,-58.898922,-79.536438,0.190918,-0.966309,-1.026611,18.424988,74.737549,26.214598
-0.432617,-0.900635,0.030029,-39.18457,-36.781311,-73.669434,0.007324,-1.001221,-0.92041,21.965025,91.194145,45.158382
-0.442871,-0.914063,-0.006836,-32.699585,-14.175414,-70.56427,0.134277,-0.744873,-0.584961,18.501282,-55.328365,32.035828
-0.475586,-0.918701,-0.030518,-28.289793,3.440857,-68.79425,-0.205566,-0.966553,-0.737793,26.725767,96.511833,51.23901
-0.567627,-0.917725,-0.039795,-25.581358,15.823363,-67.03186,-0.019775,-0.953857,-0.713867,24.528502,91.598503,28.32794
-0.657959,-0.921631,-0.036133,-22.315977,22.300718,-64.956665,0.195557,-0.912842,-0.757324,27.893064,79.025269,21.080015
-0.415283,-0.993164,0.247803,-62.980648,-74.493408,-143.859863,0.209229,-0.899902,-0.787354,31.372068,65.994263,21.621702
-0.423584,-1.000488,0.194092,-66.688538,-116.828911,-122.718803,0.145508,-0.867676,-0.807617,23.03314,49.926754,29.754637
-0.409912,-0.9729,0.257568,-62.744137,-61.973568,-148.513794,0.037354,-0.886475,-0.796875,9.773254,29.449461,38.887024
-0.741943,-0.918701,-0.023682,-14.297484,24.162291,-60.768124,-0.022461,-0.926758,-0.768311,8.392334,6.072998,46.188351
-0.35498,-0.939453,0.286621,-62.58392,-51.597591,-154.525757,-0.088867,-0.968506,-0.666016,14.411925,-15.464782,56.27441
-0.386963,-0.988525,0.335205,-56.137081,-3.89862,-87.669365,-0.143066,-1.012695,-0.538574,23.300169,-30.456541,65.597534
-0.387207,-0.983154,0.326172,-43.319698,-5.516052,-91.76635,-0.064209,-0.987061,-0.495361,29.571531,-37.918091,60.859676
-0.39917,-0.925537,0.293945,-37.956238,-11.566161,-93.460075,-0.111328,-0.98584,-0.828369,24.963377,95.558159,60.783382
-0.407959,-0.829834,0.26416,-41.549679,-20.774839,-94.474785,-0.029541,-0.873535,-0.470703,-134.468079,-56.167599,-90.637199
-0.425049,-0.728271,0.23584,-49.926754,-32.554626,-96.656792,-0.022949,-0.757324,-0.499268,-142.51709,-50.216671,-92.063896
-0.450684,-0.6604,0.215088,-58.937069,-44.281002,-98.57177,0.017578,-0.701904,-0.533203,-148.086548,-42.03796,-96.328728
-0.480713,-0.641113,0.199463,-65.841675,-55.007931,-100.196831,0.061035,-0.730225,-0.545654,-149.131775,-33.348083,-101.280205
-0.491455,-0.662354,0.179688,-68.557739,-63.911434,-103.851311,-0.037598,-0.834473,-0.43457,-148.262024,-22.262571,-98.56414
-0.495361,-0.698486,0.171631,-67.001343,-69.313049,-109.748833,0.030762,-0.945313,-0.453125,-143.630981,-21.789549,-106.857292
-0.476074,-0.71875,0.167725,-65.376282,-70.549011,-117.767326,0.00293,-0.96167,-0.431885,-146.957397,-19.78302,-103.599541
-0.384766,-0.955078,0.271973,-62.461849,-54.38995,-151.855469,-0.015625,-0.921875,-0.419678,-147.857666,-20.072937,-99.777214
-0.447266,-0.725586,0.169434,-65.90271,-65.826416,-126.052849,0.010986,-0.980225,-0.459961,-127.532951,-59.059139,-92.628471
-0.436035,-0.732666,0.185059,-69.885254,-43.601986,-140.235901,0.065186,-0.839111,-0.504883,-145.240784,-26.214598,-104.988091
-0.452393,-0.739502,0.195313,-71.105957,-32.104492,-145.210266,0.069092,-1.054688,-0.456787,-123.710625,-60.676571,-94.627373
-0.478271,-0.76001,0.19458,-73.21167,-24.681089,-147.567749,0.125,-1.075439,-0.470215,-98.861687,-99.052422,-81.794731
-0.503174,-0.795166,0.202148,-74.584961,-23.506163,-147.232056,0.062744,-1.039795,-0.433105,-111.251823,-80.871574,-86.410515
-0.496582,-0.833984,0.210449,-74.012756,-27.961729,-147.727966,0.028809,-1.03125,-0.440674,-106.101982,-90.171806,-82.672112
-0.464844,-0.862793,0.225586,-72.189331,-33.508301,-149.787903,0.042969,-1.044922,-0.459717,-101.84478,-97.145073,-81.588737
-0.423828,-0.884277,0.233887,-70.739746,-37.719727,-153.251648,0.177979,-1.070068,-0.475098,-97.18322,-96.458427,-82.122795
-0.378174,-0.903076,0.247803,-69.213867,-40.290829,-156.356812,0.178955,-1.033936,-0.475098,-96.16851,-93.421928,-81.512444
-0.341064,-0.923096,0.272705,-66.307068,-43.823238,-156.87561,0.166016,-1.003174,-0.459961,-94.268791,-90.660088,-80.169678
-0.335938,-0.934814,0.293945,-63.171383,-49.156185,-155.899048,0.1521,-0.98584,-0.437256,-89.11132,-88.371269,-79.368591
-0.436035,-0.730225,0.172607,-67.573547,-55.641171,-133.636475,0.150879,-0.987061,-0.400146,-82.626335,-86.326591,-78.422546
-0.827637,-0.891357,-0.007813,-5.012512,23.071287,-55.076595,0.177002,-1.005371,-0.382324,-77.613831,-84.57946,-76.820374
-0.393066,-0.959961,0.318604,-65.574646,-7.583618,-83.023064,-0.025879,-0.741211,-0.463867,-146.942139,-26.077269,-96.214287
-0.918213,-0.805176,-0.009521,3.364563,14.183043,-43.785091,0.086182,-1.065918,-0.442627,-116.035454,-71.517944,-91.25518
-1.223877,-0.837646,-0.345215,-13.771056,20.576475,-39.924622,0.020264,-0.686768,-0.464844,-146.17157,-30.891417,-91.522209
-1.286865,-0.61792,0.028809,11.528014,27.923582,-49.22485,0.048828,-0.353027,-0.570557,-106.552116,-23.460386,-32.096863
-1.254883,-0.561523,0.148682,15.213012,23.66638,-48.97308,0.03833,-0.608643,-0.522461,-150.520325,-44.769283,-76.194763
-1.197754,-0.640137,0.152588,18.943787,12.741088,-44.05975,0.150635,-0.353516,-0.702637,-28.381346,-45.043941,-3.14331
-1.214844,-0.745117,0.111084,27.236937,-9.918213,-36.048889,0.182129,-0.397217,-0.739258,-32.112122,-32.913208,-8.430481
-1.327881,-0.803223,0.099854,38.482666,-43.502804,-28.068541,0.168701,-0.331299,-0.758301,-42.243954,-15.335082,-9.69696
-1.35498,-0.807129,0.134033,50.781246,-81.30645,-17.26532,0.128418,-0.248047,-0.742432,-53.50494,2.838135,-8.979797
-1.273193,-0.795898,0.085693,59.516903,-108.329765,1.998901,0.103027,-0.213135,-0.672607,-59.410091,14.411925,-10.810851
-1.201416,-0.781494,-0.018066,60.623165,-116.973869,22.804258,0.083496,-0.24292,-0.567627,-58.250423,16.448975,-16.113281
-1.131592,-0.751953,-0.099854,57.189938,-111.556999,30.548094,0.060059,-0.321045,-0.491211,-54.878231,10.620116,-21.682737
-1.002441,-0.969971,-0.544434,-49.865719,2.037048,-23.048399,0.055664,-0.416016,-0.506104,-54.901119,1.434326,-26.725767
-0.998291,-0.689209,-0.093018,54.824825,-96.862785,25.894163,0.072754,-0.454834,-0.578125,-59.417721,-6.912231,-30.555723
-0.839355,-0.584717,0.034424,64.933777,-72.013855,22.605894,0.093262,-0.421387,-0.644775,-71.899414,-11.741637,-31.539915
-0.97998,-0.605225,-0.01001,77.796936,-48.789974,29.129026,0.05127,-0.647217,-0.473389,-148.979187,-37.963867,-83.717339
-0.936768,-0.623779,-0.004639,92.155449,-25.970457,35.522461,0.096924,-0.375,-0.678223,-88.310234,-14.175414,-30.731199
-0.910889,-0.608154,-0.042236,101.249687,7.148742,36.125183,0.196533,-1.034424,-0.400635,-72.555542,-83.251945,-75.424194
-0.823486,-0.52417,-0.04834,98.44207,43.182369,28.800962,0.020996,-0.415771,-0.490967,-109.687798,-25.177,-34.591675
-0.762695,-0.424561,-0.039307,84.33532,69.778442,20.942686,0.019531,-0.491943,-0.455322,-111.831657,-23.063658,-38.597107
-0.780273,-0.377441,-0.03125,70.327759,82.458488,17.776489,0.045898,-0.523438,-0.442627,-114.212029,-19.096375,-43.487545
-0.847412,-0.391357,-0.005615,65.811157,83.206169,22.27783,0.059814,-0.521729,-0.437256,-118.85833,-16.319275,-48.889156
-0.857178,-0.450195,0.042236,73.554993,71.624756,35.263062,0.046631,-0.541016,-0.440674,-124.793999,-16.799927,-54.832455
-0.857666,-0.491211,0.063232,85.998528,53.359982,52.74963,0.042725,-0.576904,-0.457275,-128.692627,-21.675108,-59.974667
-0.825439,-0.612061,0.021729,56.838985,-84.083549,21.789549,0.039307,-0.602051,-0.482422,-131.713867,-30.3421,-62.599178
-0.965332,-0.834961,-0.487549,-54.672237,-12.290954,-25.596617,0.019287,-0.60083,-0.526611,-138.366699,-39.871216,-65.383911
-0.881104,-0.849854,-0.003662,1.266479,19.340515,-48.751827,0.015625,-0.591797,-0.549805,-146.400452,-45.928951,-70.4422
-1.153076,-0.679932,-0.178955,3.433227,-17.814636,-68.145752,0.076904,-0.34668,-0.651611,-100.341789,-18.64624,-30.525206
-0.972412,-0.762695,-0.028076,2.983093,7.92694,-40.107727,0.201416,-1.054443,-0.424805,-66.459656,-82.748405,-74.34845
-1.030518,-0.729004,-0.053955,1.800537,-1.235962,-33.309937,0.096436,-1.080811,-0.453613,-120.063774,-64.292908,-94.245903
-1.089111,-0.717285,-0.087646,-1.045227,-10.551452,-23.986814,0.197754,-1.05249,-0.494141,-58.753963,-81.016533,-72.921753
-1.123779,-0.729248,-0.092285,-0.610352,-17.379761,-15.99121,0.366699,-1.156494,-0.190918,-11.871337,112.838737,52.833553
-1.137939,-0.741455,-0.095215,2.777099,-20.751951,-8.575439,0.348633,-1.190186,-0.147461,-19.454956,121.147148,49.758907
-1.146484,-0.750977,-0.099121,6.965637,-21.171568,-2.212524,0.296631,-1.196045,-0.101318,-27.618406,126.007072,46.546932
-1.105957,-0.668701,-0.35083,-23.025511,-21.202085,-49.766537,0.268066,-1.175293,-0.090088,-34.759521,123.970024,42.785641
-1.214355,-0.780273,-0.013428,17.814636,-21.057127,1.63269,0.253906,-1.117676,-0.11377,-41.854855,116.989128,38.215637
-1.264893,-0.756104,0.018311,19.943237,-22.216795,-3.112793,0.251221,-1.039795,-0.140625,-49.21722,108.322136,32.814026
-1.290039,-0.697266,0.014648,16.479492,-23.590086,-11.245727,0.264648,-0.973389,-0.157471,-54.855343,102.09655,27.854918
-1.273193,-0.624756,0.008057,7.644653,-22.994993,-21.232603,0.28125,-0.913086,-0.16748,-58.357235,101.46331,23.551939
-1.161621,-0.774658,-0.062744,12.741088,-21.026609,1.800537,0.294922,-0.852783,-0.155029,-59.333797,104.507439,22.079466
-1.169922,-0.604004,0.083252,3.936767,-18.264771,-44.128414,0.272217,-0.816895,-0.115234,-56.106564,107.307426,22.964476
-1.136963,-0.645508,0.106445,13.534545,-11.398314,-52.131649,0.351074,-1.07959,-0.23999,-7.995605,103.691093,54.199215
-1.119385,-0.696289,0.125732,26.44348,1.304626,-54.809566,0.212891,-0.82959,-0.063721,-46.585079,105.010979,24.383543
-1.12207,-0.714111,0.145752,39.520264,21.102903,-54.718014,0.169189,-0.849365,-0.042969,-15.823363,86.524956,29.33502
-1.162598,-0.661621,0.126953,47.111507,42.587276,-55.107113,0.180664,-0.804932,-0.093262,-7.003784,78.445435,32.020569
-1.253906,-0.567871,0.075928,43.891903,59.188839,-59.547421,0.1875,-0.743896,-0.180664,-1.00708,69.229126,34.675598
-1.344727,-0.492676,0.039307,31.425474,65.391541,-64.781189,0.168213,-0.654785,-0.246582,4.615784,54.321285,39.657593
-1.348389,-0.472412,0.018311,15.73944,55.244442,-65.376282,0.157471,-0.587891,-0.2771,8.964539,34.957886,46.56982
-1.29248,-0.514404,-0.05127,3.578186,31.692503,-66.520691,0.184814,-0.578125,-0.287842,14.85443,18.928528,51.460262
-1.233398,-0.61084,-0.12915,2.441406,4.257202,-70.3125,0.217529,-0.593994,-0.303955,22.40753,11.970519,55.290218
-1.213135,-0.588867,0.039307,1.693725,-21.354673,-32.691956,0.230469,-0.608643,-0.306885,28.907774,12.901305,57.052608
-0.340576,-0.533936,-0.270752,-81.916801,131.202698,115.394585,0.306152,-0.654785,-0.300293,37.590027,23.559568,57.075497
-0.31543,-0.664307,-0.211182,-67.596436,125.694267,103.569023,0.206543,-1.056641,-0.463135,-61.775204,-81.817619,-73.814392
-0.287842,-0.739746,-0.126709,-69.168091,118.453972,93.597404,0.161621,-0.854736,-0.025879,-31.066893,96.694939,26.382444
-0.297119,-0.640381,-0.125488,-89.683525,114.143364,87.745659,0.303223,-0.987549,-0.279541,-6.195068,96.984856,54.13818
-0.341553,-0.504639,-0.333496,-48.896786,42.846676,65.155029,0.342041,-0.693359,-0.27417,49.85046,44.55566,64.239502
-0.303223,-0.339111,-0.368652,-123.352043,95.626823,87.783806,0.218506,-0.894287,-0.172852,-4.920959,93.521111,49.377438
-0.306396,-0.316162,-0.44458,-110.893242,77.400208,87.051384,0.246338,-0.938232,-0.252441,-4.364014,93.894951,53.0014
-0.31665,-0.391357,-0.415039,-79.185486,57.739254,78.605652,0.181641,-1.087891,-0.48877,-48.377987,-91.110222,-66.467285
-0.310059,-0.467041,-0.226563,-112.983696,108.116142,86.616508,0.171875,-1.113037,-0.44458,-40.344234,-103.668205,-60.989376
-0.337891,-0.464844,-0.276611,-96.763603,134.544373,120.887749,0.179199,-1.143555,-0.409668,-30.784605,-118.400566,-54.77142
-0.415527,-0.935059,-0.198242,-43.991085,110.420219,167.060837,0.194336,-1.176514,-0.399658,-20.64514,-131.225586,-49.110409
-0.352051,-0.571777,-0.185547,-94.863884,139.022827,113.304131,0.226563,-1.199951,-0.421387,-12.573241,-138.046265,-45.56274
-0.342773,-0.697266,-0.116211,-80.688469,138.725281,113.586418,0.280029,-1.198975,-0.488281,-9.185791,-136.741638,-43.55621
-0.341797,-0.831787,-0.103027,-68.04657,137.023926,118.270866,0.31543,-1.185547,-0.554688,-8.201599,-128.234863,-42.129513
-0.381836,-0.926025,-0.143311,-60.974117,133.735657,125.259392,0.316895,-1.167236,-0.548828,-5.867004,-117.073051,-41.336056
-0.421387,-0.928955,-0.18042,-59.341427,126.808159,133.583069,0.321045,-1.143311,-0.492188,-1.724243,-105.834953,-40.420528
-0.432861,-0.883789,-0.197998,-60.592648,118.270866,140.968323,0.310303,-1.099609,-0.438965,2.02179,-95.466606,-37.406921
-0.412109,-0.841797,-0.166992,-61.866756,110.229485,147.163391,0.187744,-1.066895,-0.513672,-54.588314,-83.328239,-70.709229
-0.389893,-0.840088,-0.109619,-59.669491,105.812065,152.961731,0.30542,-1.040283,-0.421387,4.78363,-84.091179,-32.226563
-0.392334,-0.86499,-0.071533,-53.192135,105.743401,159.042358,0.306396,-0.970947,-0.441162,5.096435,-67.329407,-27.687071
-0.403076,-0.901367,-0.124268,-47.050472,107.223503,164.863571,0.308594,-0.89917,-0.491943,2.487183,-43.205257,-24.398802
-0.373535,-0.549561,-0.256348,-39.993286,35.766602,54.153439,0.313477,-0.816406,-0.562012,-3.868103,-13.633727,-19.203186
-0.341553,-0.486572,-0.250244,-101.921074,137.588501,118.110649,0.321777,-0.732666,-0.59375,-13.664245,15.998839,-11.657714
-0.427734,-0.468506,-0.318848,-50.369259,37.788391,49.148556,0.325684,-0.694824,-0.5354,-23.406981,43.067928,-3.89862
-0.41748,-0.410156,-0.590088,-26.031492,68.328857,11.276244,0.330566,-0.714111,-0.416992,-26.367186,66.246033,1.88446
-0.477051,-0.344727,-0.581787,-51.284786,52.825924,39.237976,0.349854,-0.731934,-0.290527,-24.757383,83.084099,8.087158
