ax,ay,az,gx,gy,gz,ax,ay,az,gx,gy,gz
-0.297363,0.219482,0.72168,10.971068,-30.403135,-23.612974,-0.030273,0.099609,0.631592,-20.416258,-41.41235,-4.592896
-0.282227,0.147461,0.703857,11.741637,-19.90509,-17.974854,-0.04834,0.10791,0.604736,-26.31378,-37.452698,-3.257751
-0.234131,0.256836,0.924316,22.636412,-6.103515,-27.557371,-0.052979,0.125488,0.610352,-31.845091,-30.731199,-1.937866
-0.318848,0.150879,0.687256,12.641906,-17.76123,-13.877868,-0.064697,0.145264,0.932861,8.522034,-3.051758,-19.248962
-0.36499,0.227783,0.675537,16.50238,-22.102354,-3.166198,-0.059326,0.169678,0.957031,-1.235962,33.973694,1.342773
-0.359619,0.239502,0.695557,20.675657,-24.917601,2.677917,-0.089355,0.171143,0.940674,-1.976013,33.027649,3.15094
-0.337891,0.230469,0.703613,25.398252,-25.177,7.583618,-0.110596,0.175293,0.923584,-3.082275,31.494139,4.241943
-0.317871,0.212646,0.700195,29.304502,-22.65167,11.054992,-0.106934,0.188232,0.923584,-4.53186,29.533384,4.562378
-0.313965,0.17334,0.716064,33.432007,-17.494202,14.320373,-0.122559,0.173584,0.937256,-10.055541,12.199401,15.426635
-0.308594,0.13916,0.731201,37.597656,-12.176513,17.097473,-0.062012,0.194092,0.915283,-7.469177,24.375914,7.919311
-0.282959,0.125,0.74585,40.771481,-9.185791,18.249512,-0.081055,0.189453,0.914307,-8.476257,21.354673,11.428832
-0.291748,0.116699,0.781494,43.891903,-7.148742,19.264221,-0.111328,0.183838,0.924072,-9.208679,17.26532,13.961791
-0.29126,0.104736,0.813232,47.386166,-6.362915,19.775391,-0.08252,0.190186,0.917725,-6.347656,26.977537,5.470275
-0.167725,0.712402,1.285645,55.168148,1.495361,1.449585,-0.029785,0.162354,0.973633,-1.060486,34.14917,-0.923157
-0.340088,0.189209,0.678467,14.274596,-19.203186,-8.956909,0.13623,0.424561,0.979736,1.907349,17.059326,-45.257565
-0.228516,0.248535,0.963379,24.604795,-9.262085,-26.43585,0.018066,0.147461,1.016602,-0.465393,29.548643,-4.440308
-0.278564,0.171631,0.714844,11.550902,-24.848936,-20.774839,0.050537,0.151855,1.022949,-0.595093,23.262022,-7.141113
-0.224854,0.247803,0.948242,26.512144,-16.548157,-23.91815,0.062988,0.165039,1.010254,-1.281738,16.288757,-9.986877
-0.231201,0.247314,0.961426,25.611876,-12.802123,-25.581358,0.064941,0.194336,1.002197,-1.739502,10.536193,-12.573241
-0.204346,0.636963,1.220459,65.170288,29.579161,-11.108397,0.082764,0.230469,0.996826,-2.098083,5.874633,-16.197205
-0.216064,0.614502,1.188477,68.359375,18.501282,-16.815186,0.104248,0.265381,0.996338,-1.998901,2.220154,-20.950315
-0.219482,0.598633,1.194336,72.151184,-1.708984,-23.269651,0.109375,0.289307,1.0,-1.403808,0.991821,-26.428221
-0.229004,0.59668,1.211182,76.004028,-24.887083,-29.006956,0.110107,0.320068,0.992432,-0.518799,2.799988,-32.455444
-0.237061,0.605713,1.238037,78.804016,-46.257015,-32.455444,0.10498,0.351318,0.990479,0.892639,7.003784,-37.834167
-0.248291,0.606934,1.265869,80.80291,-62.911983,-33.508301,0.114746,0.389648,0.983154,1.731872,12.443542,-42.106625
-0.243408,0.576172,1.288818,81.794731,-71.990967,-32.318115,-0.119141,0.157959,0.945557,-10.864257,7.331848,16.929626
-0.198975,0.513916,1.258301,80.520622,-70.724487,-30.174253,-0.010986,0.151611,0.999512,-0.671387,33.027649,-2.716064
-0.144287,0.442871,1.166992,75.332642,-60.836788,-28.511045,-0.116943,0.150391,0.950195,-11.047362,3.791809,18.310547
-0.146729,0.391602,1.060791,66.871643,-47.988888,-25.924681,-0.038818,0.254639,1.064209,-15.762328,12.535094,37.887573
-0.190186,0.666748,1.258301,61.729427,28.350828,-6.790161,-0.077637,0.161133,0.945557,-12.054442,0.564575,19.950867
-0.17334,0.327148,1.005615,49.751278,-32.798767,-19.40155,0.158447,0.429199,0.981445,1.068115,19.416809,-47.599789
-0.170654,0.350342,0.996582,57.266232,-37.940979,-22.087095,0.098145,0.440674,0.833008,-19.889832,-8.506775,34.683228
-0.207275,0.268311,0.972412,28.816221,-26.374815,-18.058777,0.096436,0.42627,0.848145,-21.919249,-7.972717,34.645081
-0.222168,0.286377,0.996338,30.319212,-31.044004,-15.11383,0.07251,0.405762,0.875488,-22.560118,-6.584167,34.667969
-0.241699,0.304199,1.026611,32.13501,-34.049988,-13.015746,0.037354,0.381104,0.916504,-21.682737,-3.097534,35.15625
-0.255615,0.318359,1.058838,33.988953,-34.446716,-12.21466,0.005615,0.35791,0.958252,-19.844055,2.006531,35.751343
-0.208496,0.255859,0.949707,27.511595,-21.27075,-21.423338,-0.017334,0.346436,0.987061,-18.005371,7.469177,36.300659
-0.251953,0.348145,1.076172,37.92572,-29.983519,-13.267516,-0.031982,0.344971,0.991699,-15.624999,12.481688,38.192749
-0.240234,0.346191,1.062988,41.328426,-28.892515,-14.945983,-0.019287,0.328613,0.997314,-14.205932,15.708922,40.40527
-0.209717,0.331787,1.04248,45.227047,-30.029295,-17.166138,0.017578,0.307861,1.011719,-15.747069,16.357422,41.023251
-0.258789,0.333252,1.080566,35.636902,-32.516479,-12.222289,-0.0979,0.155518,0.951172,-11.436461,1.548767,18.920898
-0.311279,0.157471,1.000732,15.2359,-10.009766,28.900145,0.034912,0.29126,1.0271,-18.218994,14.61029,40.321346
-0.339111,0.11377,0.857178,6.744384,6.309509,27.290342,-0.003906,0.271729,1.055176,-18.058777,11.337279,38.627625
-0.3479,0.11499,0.88501,6.317138,4.470825,26.199339,-0.054688,0.236084,1.072266,-12.001037,15.045165,37.460327
-0.361328,0.119141,0.905029,6.408691,-0.053406,25.474546,-0.053223,0.212891,1.071289,-8.712769,17.715454,36.384583
-0.368408,0.125977,0.92627,7.04956,-6.324768,24.993895,-0.040283,0.195068,1.042969,-7.110595,19.058228,34.248352
-0.370605,0.136475,0.945068,8.216858,-12.702941,25.100706,-0.02002,0.180176,1.003906,-8.148193,17.562866,31.34918
-0.358154,0.151123,0.955078,9.597778,-17.570496,25.3067,-0.016357,0.171631,0.980469,-10.810851,13.526916,28.732298
-0.343506,0.107666,0.837158,7.942199,5.569458,28.678892,-0.040039,0.170654,0.970459,-13.038634,8.903503,26.550291
-0.344482,0.157471,0.978027,11.474608,-19.256592,25.787352,-0.075195,0.179199,0.962646,-14.045714,5.310058,24.932859
-0.332031,0.157227,0.994141,13.671874,-16.723633,27.175901,-0.089355,0.183594,0.948975,-13.549804,3.120422,24.04785
-0.307129,0.147949,1.003418,15.937804,0.061035,31.013487,-0.084229,0.171875,0.939209,-12.565612,1.274109,22.384642
-0.360596,0.14917,0.994141,10.780334,44.242855,43.037411,0.020264,0.286133,1.044434,-18.974304,12.321471,39.56604
-0.327393,0.140381,0.987061,14.305114,21.293638,36.193848,0.149414,0.414795,0.995361,-0.305176,19.561768,-47.95837
-0.334961,0.146973,0.986084,12.725829,30.265806,38.673401,0.07959,0.430176,0.825928,-17.684937,-8.972168,34.484863
-0.35083,0.152832,0.991699,11.390685,38.238525,40.870663,0.137695,0.394287,1.035889,-1.174927,12.634276,-44.677731
-0.365234,0.143555,0.987793,9.918213,47.340389,45.509335,0.320313,0.358887,0.935059,18.188477,-7.637023,-14.045714
-0.380859,0.138916,0.98584,8.331299,45.730587,47.45483,0.325195,0.351563,0.921631,18.745422,-8.399963,-12.695312
-0.40625,0.129395,0.99585,7.202148,39.245605,48.225399,0.334473,0.353027,0.917725,18.928528,-9.391785,-11.108397
-0.416504,0.125488,0.990234,6.202697,29.617308,47.370907,0.347656,0.352051,0.908203,18.501282,-10.238647,-10.421752
-0.399658,0.131348,0.964355,3.860473,19.927979,44.982906,0.349365,0.353027,0.903076,17.448425,-10.559081,-9.994507
-0.363525,0.128418,0.947021,1.159668,12.641906,41.145321,0.337646,0.359375,0.903564,16.677856,-10.269164,-9.57489
-0.366699,0.102783,0.838867,9.57489,3.562927,29.998777,0.331543,0.363037,0.902344,16.204834,-9.384155,-9.124756
-0.317139,0.139404,0.993164,15.495299,11.085509,33.409119,0.333984,0.362793,0.897461,15.823363,-7.980346,-9.010315
-0.38208,0.104248,0.842529,11.45935,1.220703,30.59387,0.337402,0.354492,0.892578,15.655517,-6.54602,-8.934021
-0.330322,0.124512,0.927979,-0.930786,8.987427,37.132263,0.334961,0.348633,0.881104,15.480041,-5.378723,-8.758545
-0.386475,0.116211,0.879639,15.99121,-0.259399,32.63092,0.325928,0.368896,0.949463,16.616821,-7.026672,-15.228271
-0.124023,0.179688,1.09375,-2.342224,28.930662,16.410828,0.324219,0.342285,0.865479,14.968871,-4.516602,-8.407593
-0.146729,0.179443,1.104492,-3.303528,28.541563,19.27948,0.312256,0.331787,0.888184,13.793944,-4.501343,-6.210327
-0.168457,0.183105,1.112061,-3.570556,27.19116,22.201536,0.315674,0.316162,0.893311,13.740539,-6.263732,-4.997253
-0.182129,0.187988,1.121094,-2.89154,25.024412,25.154112,0.321289,0.299805,0.90332,13.694762,-8.598328,-3.875732
-0.198486,0.192383,1.128662,-1.434326,22.28546,28.20587,0.317627,0.289795,0.908936,14.060973,-10.658263,-3.250122
-0.218506,0.198975,1.132813,1.091003,19.454956,31.272886,0.309326,0.294434,0.907715,14.10675,-12.397765,-2.906799
-0.238525,0.209717,1.123291,3.936767,16.716003,34.286499,0.29541,0.305664,0.899658,13.755797,-14.083861,-2.319336
-0.25293,0.223633,1.11792,6.912231,14.259337,36.811829,0.28418,0.318604,0.891113,12.611388,-16.143799,-0.869751
-0.275391,0.238037,1.121094,10.06317,12.20703,38.81073,0.28125,0.339111,0.887695,11.528014,-17.944336,0.564575
-0.30249,0.244873,1.136475,13.351439,10.154723,40.237423,0.273682,0.360596,0.88501,11.054992,-18.486023,1.449585
-0.394531,0.112305,0.858398,13.565063,0.152588,31.440733,0.243896,0.377441,0.895508,11.161803,-16.960144,3.364563
-0.333252,0.244385,1.148438,16.784668,8.605957,41.145321,0.317871,0.340576,0.874268,14.198302,-4.081726,-7.67517
-0.363037,0.206787,1.125977,23.132322,7.469177,42.739864,0.337891,0.374756,0.962646,14.701842,-5.767822,-15.73944
-0.370361,0.195068,1.085449,24.574278,7.972717,43.350216,0.131348,0.403564,1.019043,-0.846863,17.311096,-46.524044
-0.378174,0.189453,1.042969,25.024412,8.110046,43.16711,0.325928,0.391113,0.973633,11.978148,-1.678467,-15.678405
-0.396484,0.1875,1.005859,25.535582,7.751464,42.129513,0.151123,0.384277,1.042236,-1.663208,6.370544,-42.66357
-0.419678,0.183105,0.9646,24.902342,7.278442,40.939327,0.159424,0.376709,1.045654,-2.105713,0.007629,-40.702816
-0.428223,0.158691,0.940918,23.857115,6.469726,39.848328,0.168945,0.372803,1.05249,-2.738952,-5.073547,-39.306641
-0.420898,0.128906,0.929688,22.888182,4.966736,38.253784,0.169434,0.364258,1.056152,-3.112793,-8.766174,-38.078308
-0.409668,0.117676,0.913086,21.537779,2.777099,36.613464,0.177246,0.36499,1.035645,-3.517151,-11.909484,-36.91864
-0.40332,0.117188,0.905762,19.729614,1.159668,35.690308,0.201904,0.391113,0.986328,-4.524231,-14.884948,-36.170959
-0.386719,0.116943,0.894775,17.959595,0.12207,34.324646,0.33667,0.384766,0.969482,13.038634,-3.784179,-15.73944
-0.356201,0.227539,1.149414,20.286558,7.720947,42.022701,0.254395,0.508057,0.878906,-8.163452,-19.187927,-35.766602
-0.29834,0.115967,0.908936,-2.006531,8.781433,33.172607,0.265381,0.551758,0.891357,-9.58252,-19.683838,-35.369873
-0.103271,0.180908,1.086426,-0.930786,27.8244,13.893126,0.253662,0.557373,0.94043,-10.353087,-17.929077,-34.194946
-0.20166,0.072021,0.901123,-3.959656,12.039184,22.567747,0.238037,0.547363,0.986084,-9.727478,-14.694213,-32.325745
-0.118652,0.154053,0.571533,-68.084717,-35.03418,-7.415771,0.232422,0.44458,0.922119,-6.217956,-17.318726,-35.850525
-0.115234,0.161133,0.530273,-69.328308,-41.275021,-11.680602,0.258789,0.552979,1.006104,-5.775451,-7.568359,-29.006956
-0.100342,0.165283,0.518555,-70.877075,-45.791622,-16.288757,0.280762,0.553711,0.999756,-4.051208,-4.882813,-27.908323
-0.089355,0.172607,0.516846,-72.105408,-48.927303,-20.462034,0.290039,0.549805,0.996582,-2.89917,-3.532409,-26.344297
-0.089111,0.180664,0.521973,-73.120117,-50.445553,-22.865294,0.292969,0.53833,1.003174,-0.923157,-3.074646,-24.818419
-0.077637,0.189453,0.547119,-72.868347,-51.277157,-23.956297,0.285156,0.518066,1.0,1.838684,-2.609253,-23.15521
-0.069824,0.203369,0.578369,-71.228027,-51.338192,-24.29199,0.275391,0.498779,0.988037,4.554749,-1.937866,-21.27075
-0.070068,0.218262,0.591797,-68.740845,-49.789425,-23.719786,0.272217,0.474365,0.980225,6.889343,-1.319885,-19.294739
-0.070313,0.222168,0.594238,-65.52124,-46.95892,-22.636412,0.281494,0.447266,0.977539,9.07135,-0.610352,-18.005371
-0.077881,0.218994,0.593506,-61.668392,-44.715878,-22.560118,0.290527,0.419434,0.976807,10.597228,-0.030518,-16.975403
-0.143555,0.155029,0.585449,-67.863464,-25.032042,-2.685547,0.309082,0.4021,0.9729,11.344909,-0.312805,-16.021729
-0.094482,0.216064,0.590332,-57.960506,-45.486446,-24.131773,0.237061,0.545898,1.004883,-7.835388,-11.100768,-30.296324
-0.136475,0.236816,0.63623,-50.262447,-54.031368,-27.725218,0.081055,0.670166,1.169922,29.441832,-11.726378,-0.198364
-0.13208,0.234863,0.723389,-43.594357,-60.111996,-31.425474,0.078613,0.680664,1.187988,30.364988,-13.71765,-0.25177
-0.142578,0.244629,0.78125,-35.102844,-64.620972,-34.797668,0.066406,0.684082,1.213135,30.868528,-14.907836,-0.488281
-0.151855,0.266602,0.798828,-27.603148,-65.200806,-35.758972,0.053711,0.679443,1.22583,31.082151,-15.174865,-2.471924
-0.134277,0.272949,0.826904,-21.347044,-62.240597,-35.629272,0.113525,0.759033,1.271729,31.272886,-8.499146,-20.988462
-0.137939,0.260986,0.860107,-15.61737,-56.205746,-34.431458,0.036865,0.691406,1.250488,32.066345,-12.428283,-9.101868
-0.13501,0.267578,0.833984,-12.7182,-46.806332,-32.325745,0.037354,0.708008,1.253906,32.157898,-10.597228,-13.328551
-0.131592,0.287109,0.775391,-14.442443,-33.103943,-29.403685,0.067383,0.734619,1.257324,31.768797,-9.262085,-17.868042
-0.12793,0.296387,0.726563,-18.997192,-18.333435,-27.076719,0.042725,0.680176,1.231201,31.669615,-14.251708,-5.676269
-0.141846,0.301758,0.703125,-22.720335,-9.58252,-27.267454,0.075439,0.654541,1.153076,28.724669,-9.880066,0.205994
-0.126709,0.223389,0.593018,-54.481503,-48.728939,-25.657652,0.138184,0.587646,0.924316,16.448975,-28.694151,-6.057739
-0.158691,0.148926,0.570557,-66.917419,-12.96997,0.793457,0.052979,0.637939,1.112061,27.015684,-8.728027,1.25885
-0.251221,0.10083,0.900146,-2.89917,10.093688,28.312681,0.025146,0.630371,1.084473,26.908873,-7.4234,3.219604
-0.128418,0.105713,0.578125,-60.646053,14.846801,6.431579,0.029785,0.618896,1.05835,26.931761,-6.301879,4.066467
-0.162109,0.037354,0.931641,-4.447937,14.175414,16.891479,0.054199,0.605957,1.038574,26.18408,-6.54602,4.348755
-0.133301,0.007813,0.968994,-4.173279,15.579223,12.649535,0.068359,0.599365,1.015137,25.482176,-8.18634,4.981995
-0.117188,-0.01123,1.002686,-3.425598,16.189575,10.345458,0.082031,0.601318,1.006836,25.520323,-10.124206,5.126953
-0.099854,-0.018555,1.025146,-2.258301,16.212463,8.934021,0.104248,0.596924,0.993896,24.345396,-12.420653,3.952026
-0.087891,-0.016602,1.0354,-1.197815,15.99121,7.568359,0.128662,0.587891,0.983887,22.712706,-16.220093,1.838684
-0.078857,-0.02002,1.044678,-0.114441,16.395569,6.347656,0.144287,0.574219,0.975342,20.416258,-20.874022,-0.701904
-0.14624,0.129395,0.56958,-64.323425,0.816345,3.547668,0.148193,0.567139,0.951904,18.39447,-25.253294,-3.669739
-0.060547,-0.025635,1.053955,1.609802,16.639709,4.03595,0.125244,0.779785,1.28125,31.379698,-9.468079,-21.369932
-0.059326,-0.018066,1.039795,1.609802,15.800475,2.838135,0.075439,0.644775,1.136475,27.732847,-9.185791,0.236511
-0.060547,-0.021484,1.023682,1.76239,15.312194,2.296448,0.10498,0.806641,1.29126,30.677794,-13.824462,-20.530699
-0.065186,-0.02124,0.984375,1.144409,16.342163,2.723694,0.226807,0.91626,1.3396,10.864257,-27.336119,-12.21466
-0.068848,-0.026367,1.058594,1.106262,16.944885,5.264282,0.092773,0.84668,1.272949,25.794981,-32.25708,-19.165039
-0.058105,-0.017334,0.891113,-5.760192,23.620604,4.043579,0.128174,0.632813,0.900391,15.541076,-31.707762,-7.392883
-0.060059,-0.017822,0.856445,-10.871886,27.801512,4.447937,0.212158,0.807617,1.235352,-24.780272,-2.349854,3.257751
-0.062012,-0.008789,0.824219,-16.166687,30.487059,4.470825,0.221436,0.823975,1.272949,-23.101805,-2.029419,2.113342
-0.080322,0.006836,0.794189,-21.133421,32.684326,4.432678,0.213379,0.829346,1.305176,-21.27075,-1.945495,2.029419
-0.102539,0.019775,0.766846,-26.168821,34.912109,5.355834,0.216553,0.830811,1.331543,-19.14978,-2.227783,1.853943
-0.101563,0.03125,0.734131,-31.799314,36.613464,7.621765,0.214111,0.830811,1.352539,-16.235352,-2.6474,0.717163
-0.072754,0.043457,0.693848,-37.788391,36.735535,8.674622,0.196777,0.845215,1.359131,-12.260436,-2.944946,0.38147
-0.079346,0.055664,0.656494,-44.364925,35.797119,9.101868,0.199707,0.86792,1.351563,-7.522583,-3.356933,-0.236511
-0.095215,0.068359,0.624268,-50.720211,32.714844,9.178162,0.233154,0.878418,1.335449,-3.997802,-5.134582,-3.234863
-0.109619,0.085449,0.591553,-56.175228,25.978086,8.361816,0.245361,0.894531,1.333984,-0.946045,-8.056641,-6.309509
-0.060303,-0.015381,0.931396,-1.541138,19.27948,3.372192,0.090576,0.831055,1.296143,28.434752,-22.041319,-20.011902
-0.552979,0.195801,0.897217,7.186889,23.620604,15.129088,0.22998,0.902344,1.326416,3.082275,-12.184142,-8.44574
-0.534668,0.191406,0.893555,8.865356,20.26367,15.388488,0.236328,0.898682,1.318359,7.720947,-23.719786,-11.505126
-0.538574,0.188721,0.910889,10.231017,14.419555,15.380858,0.216797,0.926514,1.368896,15.052794,-27.45056,-13.496398
-0.541992,0.197998,0.928711,10.490417,8.590698,15.472411,0.225098,0.911865,1.380127,18.852234,-25.695799,-16.181946
-0.507813,0.22168,0.9729,10.887145,-4.943848,18.112183,0.244873,0.885254,1.371582,21.484373,-24.986265,-19.371033
-0.54126,0.212891,0.952393,10.711669,-1.991272,16.166687,0.246826,0.871094,1.355957,23.208616,-26.924131,-22.193907
-0.535156,0.213379,0.954102,10.719298,-5.439758,16.487122,0.231689,0.878662,1.328369,23.902891,-31.188963,-23.361204
-0.520508,0.216309,0.955566,10.841369,-6.187438,17.234802,0.196533,0.893311,1.294434,24.063108,-36.697388,-22.125242
-0.540039,0.208984,0.94165,10.589599,3.158569,15.922545,0.176758,0.895752,1.258545,23.391722,-41.78619,-21.049498
-0.579102,0.188965,0.913574,5.905151,22.422789,15.441894,0.155518,0.886475,1.240723,22.384642,-43.609615,-19.935608
-0.344727,0.136963,0.974609,-5.996704,14.312743,-10.482787,0.116211,0.873779,1.247559,23.300169,-40.267941,-18.928528
-0.579834,0.168945,0.924316,3.913879,9.880066,15.182494,0.232422,0.891113,1.307861,5.676269,-17.799377,-10.246276
-0.559814,0.168457,0.929688,3.593445,3.364563,13.404845,0.131592,0.670898,0.861328,15.541076,-34.667969,-8.407593
-0.532959,0.177979,0.923584,2.63977,-0.465393,10.803222,0.193359,0.790771,1.204834,-26.542662,-3.334045,5.432128
-0.504395,0.190918,0.921875,1.434326,-0.839233,7.789611,0.08374,0.633057,0.766357,14.183043,-30.067442,-7.545471
-0.475586,0.190918,0.926758,0.068665,1.983642,4.806519,0.041504,0.192871,0.655029,33.668518,0.312805,1.205444
-0.454346,0.178955,0.930908,-1.327515,6.79779,1.571655,0.043213,0.184814,0.659424,32.234192,2.006531,1.754761
-0.432861,0.162109,0.940674,-2.288818,12.046813,-1.739502,0.046387,0.178955,0.662598,30.738829,2.159119,2.601623
-0.399414,0.138184,0.948242,-3.311157,16.288757,-5.0354,0.040039,0.171875,0.655762,28.770445,1.281738,4.432678
-0.368164,0.125977,0.947754,-4.806519,18.371582,-7.858276,0.033691,0.157715,0.648193,25.688169,-0.12207,7.698059
-0.356201,0.127197,0.958008,-5.92041,17.616272,-9.70459,0.041504,0.156738,0.652832,21.865843,-1.731872,10.787963
-0.51709,0.229004,1.010498,10.124206,-2.563476,18.562317,0.042969,0.176758,0.665039,18.218994,-2.716064,13.862609
-0.589111,0.177979,0.915527,4.577637,17.097473,15.800475,0.044434,0.195068,0.687012,15.60974,-2.525329,16.571045
-0.516357,0.258789,1.026123,8.010864,-1.014709,18.119812,0.044678,0.200195,0.719238,13.534545,-1.373291,19.012451
-0.39917,0.314453,1.12207,-21.080015,-9.346008,19.836426,0.04541,0.190186,0.743164,11.306762,0.083923,21.14105
-0.481445,0.297119,1.03833,3.684997,-0.396728,20.225523,0.04834,0.196533,0.633301,34.65271,-2.777099,0.961304
-0.329102,0.148193,0.984375,-5.477905,10.078429,-10.917663,0.048096,0.185059,0.752197,9.368896,1.609802,22.720335
-0.252197,0.097412,0.828125,-9.32312,-25.794981,9.742737,0.070068,0.220459,0.746338,4.547119,2.326965,25.917051
-0.261963,0.131592,0.832031,-14.129638,-24.917601,12.123107,0.08667,0.240967,0.739746,0.869751,0.549316,26.916502
-0.266602,0.154541,0.848633,-18.356323,-25.093077,13.481139,0.083252,0.251709,0.744629,-3.051758,-2.372742,28.70941
-0.273926,0.174316,0.869385,-21.919249,-25.459288,14.060973,0.077637,0.254395,0.746582,-6.66809,-6.233215,30.479429
-0.2854,0.186035,0.907227,-24.681089,-24.322508,15.014647,0.080078,0.26001,0.760742,-9.971619,-10.383605,31.822203
-0.281738,0.193604,0.960938,-26.290892,-21.858213,16.151428,0.07959,0.276855,0.780518,-12.535094,-13.740539,32.524109
-0.285645,0.208008,1.001953,-27.297972,-18.577576,17.295837,0.068115,0.302002,0.802002,-13.702392,-15.243529,33.226013
-0.299316,0.229004,1.027588,-27.999876,-14.663695,18.493652,0.056396,0.327148,0.812256,-13.885497,-14.648437,33.180237
-0.313232,0.260498,1.043701,-28.289793,-10.726928,19.493103,0.057861,0.36084,0.821533,-14.457702,-12.382506,32.852173
-0.497559,0.287842,1.022705,5.653381,-0.320435,18.516541,0.061768,0.401367,0.827148,-15.686034,-10.284423,33.52356
-0.336182,0.287842,1.064941,-27.679441,-7.873535,19.767761,0.052979,0.200684,0.75708,7.347106,2.716064,24.688719
-0.385986,0.311279,1.113037,-23.872374,-7.911682,19.90509,0.055176,0.201416,0.605225,35.583496,-5.905151,0.862122
-0.409424,0.313477,1.126465,-17.860413,-10.643004,19.767761,0.101807,0.665771,0.803711,15.029906,-35.324097,-8.255005
-0.414551,0.31665,1.122314,-15.472411,-11.276244,20.38574,0.040039,0.200684,0.607666,38.139343,-8.361816,0.244141
-0.415039,0.313965,1.125,-13.496398,-11.413573,20.957945,0.077393,0.5896,0.767334,14.48059,-19.599915,-8.605957
-0.43042,0.309326,1.117676,-11.07788,-10.589599,20.919798,0.075195,0.552246,0.772461,15.579223,-7.110595,-10.734557
-0.459473,0.305176,1.099365,-8.850098,-9.254456,20.912169,0.069092,0.531006,0.780029,17.028809,5.279541,-11.878966
-0.480713,0.307373,1.081787,-6.629943,-7.995605,21.797178,0.069824,0.510742,0.783447,18.325806,15.144347,-11.627196
-0.479004,0.321777,1.067627,-4.898071,-6.530761,23.03314,0.080566,0.503662,0.780029,19.432068,21.52252,-10.986327
-0.470947,0.314697,1.065918,-2.487183,-4.15802,23.124693,0.091309,0.488037,0.765869,20.13397,24.864195,-10.536193
-0.466797,0.300781,1.062012,0.953674,-1.716614,22.02606,0.051758,0.204102,0.598389,37.117004,-7.759094,0.549316
-0.364014,0.30542,1.095215,-26.06201,-6.996154,19.729614,0.057861,0.417236,0.73291,21.202085,24.429319,-6.637573
-0.307129,0.161865,0.977051,-5.821228,6.492614,-11.489867,0.029541,0.360352,0.710693,22.201536,22.567747,-2.792358
-0.277588,0.171875,0.982422,-6.248474,5.584716,-11.482238,0.018311,0.319336,0.71167,24.635313,21.987913,-1.365662
-0.23999,0.190918,1.001465,-6.477355,8.773804,-10.871886,0.007568,0.282471,0.732178,28.137205,23.017881,-1.594543
-0.002686,0.199951,0.958252,-1.571655,-10.261535,-4.470825,0.084717,0.46167,0.753174,20.507811,25.55084,-9.742737
0.000488,0.200684,0.956299,-1.487732,-11.20758,-6.317138,0.005859,0.22998,0.78125,35.621643,27.137754,0.366211
0.000244,0.202393,0.960205,-1.342773,-11.650084,-7.438659,-0.003174,0.251465,0.759277,31.929014,25.42877,-0.823975
0.011963,0.206543,0.960938,-1.518249,-11.627196,-8.125305,0.02002,0.173584,0.614258,37.986755,-9.628296,-1.274109
0.020996,0.203857,0.962158,-1.533508,-11.154174,-9.002686,0.03418,0.164795,0.608398,36.834717,-9.82666,-2.105713
0.013672,0.202148,0.961914,-1.365662,-10.44464,-9.613037,0.047607,0.161865,0.603271,35.583496,-8.255005,-1.64032
-0.006592,0.208984,0.960449,-1.235962,-9.651184,-9.437561,0.050293,0.162842,0.606201,34.53064,-4.074097,-0.679016
-0.014648,0.218994,0.965332,-1.029968,-9.651184,-8.918762,0.023438,0.183838,0.612061,38.261414,-8.781433,-0.167847
-0.026611,0.238525,0.974609,-0.701904,-10.620116,-8.209229,0.07251,0.218262,0.618652,35.476685,10.002136,-1.831055
-0.046143,0.25293,0.979736,-0.152588,-12.382506,-7.209777,0.077881,0.244141,0.640869,37.811279,17.494202,-2.662658
-0.011963,0.192383,0.96582,-1.670837,-8.972168,-2.975464,0.075928,0.242188,0.696533,39.253235,22.987364,-2.563476
-0.061523,0.259033,0.991455,1.167297,-14.678954,-5.851745,0.046387,0.230469,0.757813,38.398743,26.321409,-0.88501
-0.065918,0.266113,0.986572,4.03595,-21.125792,-3.379822,0.05542,0.184082,0.612549,34.248352,2.258301,-0.63324
-0.065918,0.263428,0.997803,4.508972,-24.276731,-3.166198,0.258545,0.066895,0.931641,13.633727,5.195617,-8.277893
-0.067871,0.252686,1.025635,5.455017,-26.069639,-3.15094,0.286865,0.055664,0.924316,12.199401,5.424499,-7.408142
-0.069824,0.240723,1.049316,6.683349,-25.360106,-2.342224,0.298828,0.044678,0.90332,10.162353,3.677368,-6.759643
-0.068359,0.236328,1.05957,7.67517,-21.89636,-1.060486,0.311768,0.042969,0.890381,7.339477,0.587463,-6.278991
-0.059082,0.231201,1.066406,7.759094,-15.693664,0.450134,0.316406,0.046387,0.881104,5.294799,-3.089905,-5.950927
-0.05249,0.217041,1.075195,7.17926,-7.110595,1.556396,0.314453,0.042969,0.874023,3.631592,-6.401062,-5.760192
-0.057861,0.209961,1.078613,6.103515,2.441406,2.861023,0.31665,0.041992,0.865234,1.899719,-8.880615,-6.607055
-0.072021,0.210693,1.078613,4.234314,11.589049,5.081176,0.311279,0.04541,0.857666,0.526428,-10.131835,-8.010864
-0.088379,0.202148,1.084961,2.166748,19.302368,8.110046,0.294189,0.046875,0.853516,-0.350952,-9.620667,-8.987427
-0.067871,0.262207,0.993652,2.861023,-17.601013,-4.295349,0.276123,0.05127,0.857178,-1.686096,-7.713317,-9.994507
-0.01709,0.185059,0.973877,-1.777649,-7.865905,-2.441406,0.15918,0.040527,0.733887,-23.170469,-12.649535,2.838135
-0.097168,0.188965,1.0896,0.663757,24.780272,11.260985,0.256836,0.052979,0.843262,-5.432128,-5.134582,-11.871337
-0.020264,0.172852,0.981201,-1.89209,-4.203796,-1.518249,0.22998,0.048584,0.820557,-6.767272,-4.753113,-11.520385
-0.218262,0.218018,1.016602,-6.362915,15.014647,-9.651184,0.200195,0.047119,0.803467,-7.980346,-4.03595,-10.498046
-0.216553,0.243408,1.033447,-5.66101,21.575926,-7.614135,0.177002,0.053711,0.799316,-8.934021,-2.197266,-8.590698
-0.217773,0.261963,1.049561,-4.455566,25.718687,-5.889892,0.167969,0.052246,0.794678,-9.414673,0.564575,-7.148742
-0.219238,0.262207,1.062256,-3.097534,27.107237,-4.714966,0.176025,0.045166,0.798096,-10.231017,3.250122,-6.149292
-0.210449,0.252686,1.055908,-2.731323,26.824949,-4.02832,0.185547,0.036865,0.80249,-11.672973,4.150391,-4.325867
-0.194092,0.237793,1.046631,-2.822876,25.619505,-3.89862,0.204834,0.027832,0.805908,-14.533996,1.815796,-2.326965
-0.016846,0.175293,0.980713,-1.823425,-6.401062,-1.991272,0.221924,0.032471,0.810547,-17.738342,-3.318786,-0.999451
-0.161621,0.243164,1.031006,-3.067016,23.300169,-4.211426,0.205811,0.036133,0.782959,-20.469664,-9.033203,0.63324
-0.15625,0.243408,1.022705,-3.028869,20.820616,-5.317688,0.234619,0.078613,0.933594,14.10675,2.27356,-9.063721
-0.139648,0.218994,1.02124,-2.563476,16.998291,-6.782531,0.269043,0.053223,0.857178,-3.669739,-5.935668,-11.32965
-0.121338,0.178955,1.022217,-1.861572,13.122558,-8.31604,0.244385,0.080811,0.942871,13.114928,-2.624511,-9.971619
-0.178223,0.233887,1.037842,-2.876281,24.574278,-3.814697,0.27124,0.075928,0.925537,16.014099,-3.40271,-11.619567
-0.10083,0.158203,1.025879,-0.823975,9.552002,-7.843017,0.282471,0.055176,0.958984,11.001586,-9.33075,-8.705139
-0.085938,0.152832,1.028809,0.076294,10.055541,-6.462097,0.113281,0.049316,0.695313,-25.489805,-13.282775,5.203247
-0.074219,0.14502,1.015381,1.068115,11.177062,-5.187988,0.215088,0.126221,0.864746,23.750303,14.884948,-8.102417
-0.066406,0.139893,0.98877,1.350403,12.161254,-4.196167,0.214844,0.121094,0.865234,23.262022,12.527465,-6.935119
-0.067383,0.141113,0.968262,0.747681,12.351989,-3.051758,0.212158,0.112549,0.871826,23.620604,11.390685,-6.446838
-0.061035,0.147949,0.961914,-0.297546,11.19995,-2.082825,0.216553,0.098633,0.882324,23.429869,12.054442,-6.607055
-0.054688,0.157959,0.960205,-1.312256,9.101868,-1.686096,0.223633,0.094727,0.896484,23.28491,13.97705,-7.270813
-0.053467,0.160645,0.968506,-1.686096,6.034851,-1.457214,0.234375,0.099854,0.9021,23.109434,16.38031,-8.94165
-0.048584,0.166504,0.97583,-1.792908,2.342224,-1.228333,0.243896,0.109863,0.908691,22.789,18.104553,-10.498046
-0.031494,0.172119,0.977295,-2.044678,-1.235962,-1.113892,0.250732,0.104736,0.911133,22.201536,17.692566,-10.742187
-0.109863,0.157471,1.023926,-1.289368,10.467528,-8.705139,0.274658,0.094727,0.911621,20.76721,14.152526,-10.841369
-0.363281,0.897705,1.186035,17.700195,29.289244,18.119812,0.268555,0.072266,0.95459,11.741637,-7.057189,-10.06317
-0.351563,0.908936,1.192627,16.517639,30.067442,19.332886,0.29126,0.087891,0.911621,19.004822,8.003235,-10.986327
-0.345947,0.906494,1.221436,15.907287,28.129576,19.050598,0.28418,0.077637,0.914795,16.807556,-2.357483,-10.978698
-0.352539,0.899658,1.258545,14.785766,24.993895,18.348694,0.253418,0.080811,0.930908,15.724181,-1.953125,-11.917113
-0.389648,0.881836,1.298096,7.347106,27.992247,14.091491,0.242432,0.080078,0.941162,16.082764,0.686645,-11.764525
-0.361572,0.881104,1.283691,10.391234,20.675657,17.425537,0.250732,0.072998,0.95166,15.86914,2.708435,-11.665343
-0.365967,0.879639,1.27002,8.728027,21.331785,16.357422,0.260498,0.068848,0.958252,15.144347,2.922058,-10.986327
-0.373535,0.872559,1.278564,8.277893,24.177549,15.068053,0.268799,0.059814,0.950439,14.091491,1.213074,-9.82666
-0.358398,0.887207,1.285889,12.908935,22.079466,17.913818,0.274414,0.05542,0.949707,12.924193,-1.63269,-8.728027
-0.37793,0.869629,1.180176,19.836426,25.672911,16.25061,0.273926,0.049805,0.963135,11.795043,-4.737854,-8.338928
-0.187744,0.657227,1.030273,29.647825,58.212276,11.604308,0.267578,0.044434,0.974854,10.841369,-7.217407,-7.949829
-0.36499,0.828857,1.170654,24.16992,14.85443,16.044617,0.273682,0.044678,0.969238,10.765075,-9.063721,-7.766723
-0.355225,0.818115,1.182861,25.482176,7.202148,16.677856,0.290283,0.082275,0.91333,17.539978,1.800537,-10.871886
-0.364746,0.800537,1.197266,27.030943,-0.679016,17.860413,0.226318,0.137207,0.864746,24.894712,17.662048,-9.300232
-0.368652,0.776611,1.189697,28.846739,-5.432128,20.019531,0.065918,0.070801,0.622559,-31.883238,-7.736206,11.268615
-0.335449,0.756836,1.168701,30.120848,-5.332946,22.041319,0.095703,0.088867,0.602295,-37.277222,-5.386352,13.526916
-0.293945,0.744873,1.133789,30.46417,-0.106812,22.987364,0.104004,0.340088,0.730957,-54.779049,-25.688169,8.560181
-0.249268,0.731689,1.099121,30.509947,9.70459,22.583006,0.099854,0.393555,0.760498,-50.903316,-25.29907,11.970519
-0.202637,0.719238,1.071777,30.296324,23.422239,21.01898,0.104736,0.409424,0.760498,-46.539303,-23.361204,14.778136
-0.186035,0.698975,1.052734,30.22003,38.719177,18.768311,0.117188,0.402832,0.761475,-46.585079,-19.844055,16.067505
-0.175293,0.673828,1.03833,30.143736,50.964352,15.083312,0.131104,0.425049,0.803955,-47.149654,-17.929077,17.204285
-0.405273,0.905029,1.294922,5.943298,31.417845,13.206481,0.145752,0.443848,0.852783,-46.051022,-18.119812,19.340515
-0.385254,0.843018,1.175049,22.354124,20.690916,15.624999,0.166992,0.453613,0.861816,-44.540401,-20.317076,20.187376
-0.393555,0.92041,1.282959,5.149841,33.546448,12.481688,0.169922,0.458252,0.845947,-43.968197,-23.29254,19.622803
-0.364746,0.900146,1.300293,-11.45172,0.862122,-8.270264,0.138428,0.467529,0.849854,-44.914242,-24.16992,19.035339
-0.334717,0.919678,1.296631,4.760742,29.434202,13.336181,0.070801,0.545654,0.917725,-46.44775,-16.403198,19.920349
-0.203613,0.660645,1.028564,28.572081,60.417171,9.315491,0.122803,0.332275,0.709473,-55.213924,-26.81732,7.308959
-0.386963,0.748291,1.178223,-37.590027,-22.40753,-18.959045,0.072266,0.587402,0.958252,-45.349117,-9.57489,19.607544
-0.402344,0.769531,1.200439,-33.851624,-24.337767,-18.119812,0.123779,0.647461,1.032959,-40.710445,3.27301,18.424988
-0.390625,0.782715,1.224609,-30.235289,-26.222227,-17.204285,0.168945,0.65625,1.054688,-39.070129,6.599426,17.059326
-0.364014,0.789307,1.24292,-28.015135,-28.129576,-16.540527,0.215088,0.664063,1.077393,-38.604736,6.835937,14.366149
-0.36499,0.788086,1.261963,-27.023314,-28.106688,-15.533446,0.226807,0.668457,1.0896,-38.230896,4.379272,12.062072
-0.37085,0.78125,1.282959,-25.535582,-25.230406,-14.289855,0.204834,0.679688,1.108154,-37.796021,1.022339,11.146544
-0.349609,0.786865,1.282959,-23.315428,-19.599915,-12.420653,0.172852,0.695801,1.133789,-36.857605,-2.067566,10.910033
-0.317139,0.826416,1.247803,-22.361753,-14.22882,-12.847899,0.156738,0.722656,1.155273,-34.706116,-4.142761,10.765075
-0.369385,0.865234,1.241211,-20.904539,-10.086059,-13.496398,0.163818,0.749023,1.177002,-31.98242,-5.020141,9.719849
-0.361816,0.920166,1.289795,4.882813,33.493042,12.519835,0.17749,0.772705,1.192139,-29.106138,-4.501343,7.904052
-0.400391,0.88501,1.245361,-18.157959,-7.453918,-12.641906,0.077881,0.057861,0.656982,-28.282164,-11.230468,8.087158
-0.363037,0.891357,1.272705,-13.191222,-2.670288,-10.06317,0.093262,0.623291,0.99707,-43.090816,-2.563476,19.081116
-0.378418,0.911133,1.319092,-9.437561,4.570007,-5.638122,0.133301,0.348389,0.709961,-57.006832,-27.374266,9.086609
-0.401611,0.929199,1.311768,-7.93457,6.17218,-3.540039,0.097412,0.500244,0.880615,-46.302792,-21.583555,19.554138
-0.432861,0.936523,1.319092,-6.576538,4.753113,-0.938415,0.075684,0.296631,0.697266,-62.873837,-24.024961,12.374877
-0.444824,0.931152,1.330322,-4.676819,2.830505,2.761841,0.108643,0.332764,0.710938,-60.661312,-26.084898,11.604308
-0.431641,0.919189,1.354492,-1.770019,1.609802,6.759643,0.186523,0.123535,0.549561,-48.637386,-9.117126,14.160155
-0.393311,0.924072,1.353516,1.014709,1.518249,10.025024,0.199219,0.133789,0.515869,-54.847713,-13.435363,12.748717
-0.366211,0.936768,1.338623,2.838135,4.684448,12.283324,0.179199,0.150146,0.503418,-60.485836,-17.982483,12.290954
-0.356689,0.937256,1.332275,3.768921,12.290954,13.877868,0.138184,0.166748,0.500244,-64.445496,-21.690367,13.023376
-0.333252,0.926025,1.321777,4.394531,21.492002,14.068603,0.10376,0.182373,0.49707,-67.909241,-23.29254,13.908385
-0.390869,0.88623,1.257324,-15.312194,-5.104064,-11.245727,0.07373,0.204834,0.512207,-69.831848,-21.949766,14.366149
-0.21582,0.668945,1.031738,28.099058,58.555599,7.911682,0.062256,0.206055,0.521973,-71.113586,-19.180298,14.511107
-0.224609,0.664063,1.032227,28.663633,53.771969,7.362365,0.071045,0.191406,0.52417,-73.043823,-16.426086,14.183043
-0.20752,0.635254,1.007324,30.509947,47.149654,7.080078,0.072754,0.171143,0.533447,-74.97406,-13.84735,13.305663
-0.097656,0.166992,0.532227,51.818844,-0.526428,12.527465,0.062256,0.164307,0.545166,-75.691223,-10.337829,12.420653
-0.098877,0.144287,0.552979,48.828121,0.549316,11.428832,0.14917,0.110352,0.584717,-43.113705,-6.080627,14.60266
-0.091797,0.137695,0.576416,45.31097,2.601623,10.925292,0.05127,0.19458,0.561035,-73.921204,-0.610352,9.719849
-0.06665,0.143555,0.609619,42.144772,3.883362,9.773254,0.051758,0.170166,0.551514,-75.424194,-5.645751,11.192321
-0.056885,0.137939,0.648682,39.855957,4.646301,8.407593,0.070313,0.198486,0.687256,-64.277649,-20.187376,12.161254
-0.047363,0.128662,0.670898,38.162231,5.66864,7.156372,0.07959,0.156006,0.713135,-65.208435,-16.403198,13.648986
-0.044434,0.127686,0.675537,36.071777,6.507873,5.828857,0.077393,0.139404,0.720703,-66.383362,-11.024474,14.671325
-0.072266,0.13501,0.68457,33.432007,6.439209,4.692078,0.071533,0.147705,0.702637,-67.108154,-5.516052,14.09912
-0.121826,0.136963,0.695313,31.417845,3.318786,4.53949,0.063965,0.249512,0.682373,-63.598629,-22.216795,11.741637
-0.170654,0.134521,0.69873,30.273436,-3.013611,5.844116,0.07666,0.208496,0.655762,-69.267273,2.380371,11.573791
-0.107178,0.191162,0.515625,54.878231,-0.541687,13.992309,0.067627,0.222168,0.609131,-70.915222,3.738403,10.269164
-0.187256,0.135986,0.706055,29.495237,-11.604308,7.8125,0.056641,0.21582,0.575195,-72.257996,2.883911,9.368896
-0.160156,0.153076,0.719482,26.992796,-27.893064,10.429381,0.078125,0.177734,0.683105,-67.886353,-0.869751,12.779235
-0.148926,0.154297,0.72583,24.749754,-33.103943,10.795592,0.137451,0.353027,0.961182,32.279968,-7.369995,-6.134033
-0.128174,0.146484,0.733643,23.231504,-36.582947,9.407043,0.138428,0.358154,1.154297,24.375914,-0.770569,-4.135132
-0.131592,0.131592,0.743896,21.347044,-37.895203,6.713867,0.141113,0.34082,1.143311,26.535032,-1.472473,-4.837036
-0.146973,0.097412,0.767578,19.02771,-37.475586,3.723144,0.13916,0.340332,1.118652,28.07617,-4.081726,-4.730225
-0.171143,0.055176,0.801025,16.525269,-35.118103,1.64032,0.130859,0.346436,1.09082,30.136106,-6.965637,-4.646301
-0.196289,0.021729,0.817383,13.526916,-31.455992,0.526428,0.121826,0.35083,1.061768,32.554626,-8.743286,-4.737854
-0.233154,0.007568,0.827881,9.971619,-28.297422,1.586914,0.120361,0.347412,1.023438,33.477783,-9.628296,-4.821777
-0.244385,0.015137,0.831787,5.432128,-26.657103,3.479004,0.138672,0.392578,1.156494,21.858213,-2.609253,-2.960205
-0.233643,0.032471,0.840332,1.00708,-27.091978,4.989624,0.131348,0.347412,0.998535,32.974243,-9.82666,-5.020141
-0.176514,0.144043,0.711914,28.770445,-20.240782,9.437561,0.130127,0.356689,0.983643,32.432556,-8.880615,-4.997253
-0.110596,0.217041,0.511475,58.235165,-0.335693,14.785766,0.140381,0.343018,0.943848,32.737732,-5.859375,-7.606506
-0.246826,0.062744,0.833008,-4.02832,-26.603697,7.270813,0.131592,0.281494,0.865723,28.419493,-15.602111,-6.683349
-0.096924,0.246582,0.485352,62.995907,1.441955,16.136169,0.120605,0.305176,0.909668,33.821106,-5.500793,-8.148193
-0.181641,0.596924,0.960938,32.752991,38.986206,6.774902,0.135254,0.297119,0.89209,32.623291,-8.293152,-7.781982
-0.158936,0.572266,0.916748,34.538269,29.106138,6.698608,0.140137,0.29248,0.878174,30.4718,-12.145995,-7.492065
-0.13501,0.564697,0.880859,35.697937,19.065857,5.867004,0.109863,0.266113,0.871338,27.206419,-16.921997,-5.966186
-0.10791,0.558105,0.861572,36.819458,10.513305,3.440857,0.092529,0.252441,0.865723,26.657103,-15.846251,-6.019592
-0.09668,0.540771,0.85791,38.749695,6.271362,-0.358582,0.079834,0.250244,0.851807,26.18408,-13.412475,-5.607605
-0.082031,0.522217,0.857422,42.373653,5.966186,-5.134582,0.066162,0.257324,0.833008,25.718687,-9.941101,-4.470825
-0.10498,0.23291,0.509277,60.93597,0.358582,15.3656,0.068848,0.267578,0.820557,24.719236,-6.095886,-3.753662
-0.088623,0.487549,0.73877,49.47662,13.748168,-9.094238,0.080322,0.268311,0.814453,22.773741,-3.417969,-2.487183
-0.077148,0.445557,0.685059,53.047176,15.830993,-9.658813,0.129395,0.425781,1.147217,18.890381,-6.980896,-1.327515
-0.095215,0.404297,0.64209,55.854794,14.549254,-8.483887,0.127197,0.324951,0.93042,33.729553,-4.821777,-8.209229
-0.12207,0.366211,0.61792,57.907101,10.375976,-4.798889,0.126221,0.435791,1.133301,15.190124,-13.618468,1.289368
-0.090576,0.51123,0.808838,46.058651,9.223938,-8.010864,0.300049,0.314209,0.879883,4.951477,-1.190186,12.367248
-0.11499,0.348633,0.593018,62.767025,0.541687,4.058838,0.145752,0.420654,1.131348,7.141113,-26.916502,8.293152
-0.13623,0.384521,0.566406,64.674377,-1.243591,8.392334,0.295898,0.318848,0.870605,3.64685,-4.074097,13.183593
-0.151855,0.409912,0.536865,65.513611,-2.906799,10.971068,0.291992,0.336426,0.875488,1.76239,-6.034851,13.763427
-0.169922,0.398193,0.510498,65.818787,-4.867554,11.734008,0.273193,0.355713,0.880371,0.938415,-7.354736,14.320373
-0.183838,0.36792,0.494385,66.078186,-5.439758,13.061522,0.253906,0.358154,0.886475,-0.030518,-8.43811,15.098571
-0.168213,0.333496,0.509521,66.650391,-4.074097,15.495299,0.239258,0.357666,0.908691,-1.12915,-9.994507,16.517639
-0.120605,0.304688,0.516602,67.581177,-2.197266,16.555786,0.230957,0.351563,0.938232,-2.037048,-12.138366,18.112183
-0.102295,0.278564,0.51416,68.519592,0.152588,16.51001,0.219482,0.336426,0.963135,-2.586365,-14.35089,18.852234
-0.101563,0.251221,0.506104,68.717957,1.701355,16.441345,0.181396,0.319336,0.981201,-2.27356,-14.98413,20.080564
-0.096924,0.246582,0.481201,66.192627,2.220154,16.555786,0.131836,0.308105,0.992676,-1.617432,-12.519835,22.53723
-0.121094,0.341064,0.606445,60.165401,4.722595,-0.358582,0.111816,0.310059,1.008057,-1.029968,-8.262634,24.681089
-0.321777,0.003418,0.937988,-2.670288,15.510558,9.780884,0.136719,0.427002,1.128906,11.039733,-21.14868,4.432678
-0.322021,-0.003906,0.942627,-1.792908,15.342711,7.614135,0.108398,0.321533,1.025635,-0.1297,-3.784179,26.161192
-0.29834,-0.000732,0.940674,-1.579285,12.901305,5.271911,0.105713,0.335449,1.038818,0.793457,1.571655,29.113768
-0.27417,0.006592,0.929199,-1.243591,8.720398,4.104614,0.109131,0.335693,1.046143,0.427246,1.556396,30.189512
-0.255371,0.00415,0.947266,1.739502,-11.70349,1.770019,0.119141,0.32666,1.041992,-0.282288,-1.251221,30.128477
-0.280273,0.0,0.926758,0.183105,-2.731323,2.433777,0.135986,0.320068,1.041748,-1.899719,-6.67572,29.319761
-0.274902,0.001953,0.938232,1.045227,-8.140564,1.602173,0.147217,0.33252,1.050781,-3.059387,-13.504027,27.534483
-0.26001,0.007568,0.949463,1.434326,-11.444091,1.541138,0.139648,0.355469,1.057617,-3.036499,-20.027161,24.887083
-0.272461,0.000732,0.927979,-0.518799,3.227234,3.364563,0.128662,0.377441,1.068115,-2.624511,-25.367735,22.53723
-0.327881,0.008057,0.943359,-3.616333,13.992309,11.634826,0.125,0.398193,1.091309,-1.556396,-29.090879,20.202635
-0.273682,-0.010986,0.810303,-20.172117,8.277893,13.572692,0.133789,0.409668,1.11084,0.259399,-30.6015,16.899109
-0.340332,0.009766,0.95874,-4.165649,5.882263,13.671874,0.144043,0.418945,1.124023,3.211975,-29.914854,12.672423
-0.338867,0.009033,0.95166,-4.127502,0.114441,13.900756,0.104492,0.332275,1.02832,0.724792,-0.305176,27.618406
-0.330811,-0.006592,0.950439,-4.676819,-5.249023,13.793944,0.085205,0.265137,0.806641,20.774839,-2.182007,-0.465393
-0.316406,-0.030029,0.947021,-5.638122,-9.529114,13.282775,0.101318,0.256836,0.793457,18.318176,-2.441406,0.846863
-0.307617,-0.044678,0.937988,-6.843566,-11.344909,13.038634,0.109863,0.240234,0.768799,12.260436,-6.721496,2.14386
-0.306152,-0.050537,0.922363,-8.491516,-9.841919,13.916015,0.167725,0.30542,1.106934,7.583618,12.649535,1.480102
-0.287354,-0.052979,0.907959,-10.047912,-6.477355,15.014647,0.164551,0.310059,1.102051,9.101868,13.359069,0.907898
-0.263428,-0.04541,0.883057,-11.83319,-2.082825,14.976501,0.157227,0.306641,1.10791,11.177062,15.457152,0.640869
-0.265137,-0.029541,0.852783,-14.091491,2.952575,14.747619,0.168701,0.302979,1.117432,13.34381,17.402649,-0.190735
-0.270264,-0.017334,0.825439,-16.952515,6.828308,14.22882,0.173584,0.305664,1.115967,15.3656,18.882751,-0.869751
-0.258057,-0.007813,0.95459,2.380371,-9.69696,1.548767,0.169922,0.302002,1.111328,17.105103,19.935608,-1.144409
-0.33374,0.008057,0.954102,-4.180908,10.726928,12.916564,0.163086,0.293701,1.112305,18.737793,20.874022,-1.152039
-0.263916,-0.015625,0.956299,3.326416,-6.149292,1.419067,0.16748,0.28125,1.108154,19.752502,21.720884,-1.823425
-0.284668,-0.000977,0.929932,16.540527,-7.133483,2.182007,0.177002,0.272705,1.094482,20.278929,21.743773,-2.746582
-0.260742,-0.013916,0.95459,5.41687,1.190186,1.266479,0.17627,0.266357,1.074219,21.324156,20.736692,-2.807617
-0.286377,-0.010254,0.799561,-23.53668,6.484985,13.381957,0.158447,0.302246,1.10791,6.462097,13.191222,2.288818
-0.29834,0.061279,0.89917,31.692503,-9.437561,-0.587463,0.18042,0.257813,1.046631,22.666929,19.798279,-2.510071
-0.293945,0.057129,0.903809,30.136106,-11.268615,-0.335693,0.213135,0.253174,0.989746,24.955748,18.074036,-5.599975
-0.284668,0.048584,0.915039,29.113768,-12.290954,-0.50354,0.19751,0.233643,0.955566,24.909971,16.487122,-5.233764
-0.286133,0.033691,0.915283,28.678892,-12.870788,-0.595093,0.1875,0.204346,0.921631,24.269102,15.144347,-4.653931
-0.284424,0.018066,0.901611,27.885435,-13.534545,-0.259399,0.183594,0.187744,0.896973,24.574278,14.495849,-5.226135
-0.276611,0.010254,0.896973,26.336668,-14.678954,-0.007629,0.173096,0.176514,0.887207,25.489805,15.571593,-5.828857
-0.277344,0.009033,0.899658,24.993895,-15.548705,-0.137329,0.16333,0.167969,0.884277,26.56555,17.623901,-6.156921
-0.282715,0.018799,0.907227,23.811338,-14.968871,-0.350952,0.17749,0.164307,0.884521,26.977537,19.699097,-6.721496
-0.287598,0.025879,0.914307,22.621153,-13.488769,-0.358582,0.205811,0.162598,0.888184,26.718138,21.224974,-7.705688
-0.267578,-0.018799,0.965332,4.341125,-2.235413,1.12915,0.226563,0.159912,0.887451,26.237486,21.583555,-8.987427
-0.286133,0.019531,0.923096,21.408079,-11.611938,0.289917,0.23584,0.151123,0.880127,25.688169,20.103453,-9.880066
-0.273926,-0.000732,0.914795,18.211365,-7.850646,1.571655,0.198486,0.256836,1.02124,23.956297,19.294739,-3.868103
-0.287842,0.002686,0.937744,15.35797,-6.469726,2.655029,0.156982,0.301758,1.108643,6.134033,13.916015,2.120972
-0.28125,0.000977,0.946533,14.450072,-5.630493,2.685547,0.113525,0.248535,0.779785,15.289306,-4.196167,1.38855
-0.278076,-0.002686,0.94751,13.931273,-5.012512,2.586365,0.154541,0.296387,1.094727,4.493713,14.022826,2.357483
-0.278076,0.000244,0.935059,13.648986,-4.211426,2.403259,0.097656,0.230225,0.753174,9.536743,-7.67517,3.448486
-0.276367,0.001953,0.925293,12.725829,-2.861023,2.746582,0.091797,0.228027,0.756104,7.278442,-5.752563,3.784179
-0.255859,0.005127,0.925293,11.093139,-0.907898,2.967834,0.094727,0.229736,0.777832,5.699157,-2.532959,3.089905
-0.247803,0.002197,0.937744,9.552002,1.533508,2.487183,0.0896,0.233643,0.79248,4.882813,1.13678,2.914428
-0.256836,-0.005615,0.951416,8.453369,3.372192,2.029419,0.080811,0.233643,0.799316,4.127502,5.0354,3.463745
-0.259277,-0.010498,0.950195,6.973266,3.372192,1.861572,0.093994,0.235596,0.80957,2.510071,7.80487,3.631592
-0.275879,0.009033,0.917969,20.1416,-9.529114,0.984192,0.112305,0.241943,0.820068,0.679016,8.468628,3.662109
-0.277344,-0.008545,0.789795,-26.588438,1.953125,13.488769,0.11792,0.248047,0.832275,-0.328064,7.904052,3.974914
-0.256592,0.015869,0.760742,-30.09033,-3.036499,12.71057,0.114502,0.243896,0.833252,-1.167297,7.308959,4.295349
-0.260742,0.054443,0.723877,-34.095764,-5.996704,10.95581,0.110352,0.236328,0.844971,-2.922058,7.354736,4.776001
-0.166992,0.404785,0.698486,-66.108704,-5.393981,0.602722,0.119141,0.242432,0.871582,-4.165649,7.568359,4.905701
-0.17334,0.416016,0.704834,-65.010071,-9.376526,0.038147,0.1604,0.303711,1.105469,5.653381,14.457702,1.876831
-0.175781,0.43457,0.726807,-64.659119,-11.932372,-0.785828,0.123779,0.254883,0.931641,-5.134582,9.19342,3.959656
-0.163818,0.45752,0.758057,-65.086365,-13.130187,-3.074646,0.12085,0.259521,0.962646,-4.776001,10.932921,3.517151
-0.166992,0.469482,0.802979,-65.254211,-12.313842,-6.553649,0.119141,0.272705,0.987549,-4.051208,12.428283,3.410339
-0.183594,0.468018,0.842041,-65.040588,-9.567261,-9.910583,0.130859,0.2854,1.00415,-3.555298,12.84027,3.265381
-0.192871,0.462891,0.870361,-64.353943,-6.91986,-12.924193,0.150391,0.282471,1.018555,-3.662109,11.520385,2.738952
-0.199463,0.471191,0.881592,-63.133236,-5.233764,-15.846251,0.156494,0.272705,1.035156,-3.540039,8.995056,2.128601
-0.229004,0.492676,0.883057,-62.049862,-4.585266,-18.127441,0.135498,0.27002,1.045166,-2.075195,7.339477,2.029419
-0.276123,0.521729,0.876953,-62.118526,-4.516602,-18.89801,0.113281,0.270996,1.046143,0.488281,7.720947,2.845764
-0.154785,0.398438,0.693604,-68.214417,0.289917,1.144409,0.114746,0.279297,1.061035,2.616882,10.06317,3.173828
-0.294434,0.549805,0.882568,-63.369747,-5.943298,-19.256592,0.13501,0.287842,1.080811,3.662109,12.565612,2.906799
-0.303467,0.591553,0.967529,-63.072201,-13.336181,-19.859314,0.125732,0.250732,0.904053,-4.760742,8.102417,4.455566
-0.304932,0.61499,1.00293,-61.813351,-16.75415,-19.927979,0.126465,0.340576,0.865479,3.471374,-5.569458,2.990722
-0.293457,0.634277,1.044434,-60.218807,-19.271851,-20.309446,0.111084,0.351318,0.852051,4.470825,-0.648498,6.004333
-0.277832,0.648193,1.075439,-58.494564,-20.935057,-21.240232,0.09668,0.339355,0.838379,4.829407,3.341675,8.163452
-0.283691,0.654297,1.117188,-55.488583,-21.171568,-22.666929,0.100098,0.329346,0.818848,5.0354,6.355285,10.589599
-0.299072,0.661621,1.136963,-52.612301,-20.004272,-23.002623,0.041992,0.335938,0.678223,6.507873,13.938903,21.339415
-0.322754,0.669678,1.143799,-50.598141,-18.714905,-22.125242,0.090332,0.343506,0.753418,6.637573,12.916564,16.090393
-0.336182,0.675293,1.16333,-48.385616,-18.379211,-21.301268,0.071045,0.339355,0.705078,8.255005,14.923095,17.669678
-0.346191,0.683838,1.175293,-45.867916,-19.012451,-20.225523,0.042236,0.341064,0.68457,8.987427,15.556334,19.836426
-0.363281,0.701172,1.167725,-43.106075,-19.584656,-19.40918,0.10083,0.30127,0.884521,2.532959,-9.307861,0.648498
-0.298096,0.568359,0.926025,-63.705441,-9.368896,-19.599915,0.094971,0.333496,0.791748,5.676269,9.605408,13.839721
-0.149414,0.380127,0.677734,-70.266724,6.256103,1.731872,0.031494,0.25293,0.901855,3.005981,-9.414673,0.221252
-0.377197,0.722412,1.16748,-40.52734,-20.507811,-19.142151,-0.031738,0.098145,1.000244,10.162353,19.950867,-3.417969
-0.096436,0.261475,0.70752,-71.754456,13.328551,0.419617,-0.045654,0.151611,0.955811,6.881713,5.874633,-0.526428
-0.291504,0.092041,0.679199,-37.864685,-5.599975,9.529114,-0.04126,0.128418,0.986084,7.995605,12.290954,-1.663208
-0.322266,0.116211,0.63501,-41.603085,-2.319336,10.82611,-0.033447,0.108398,1.005127,9.269714,16.929626,-2.532959
-0.293701,0.133057,0.594482,-45.860287,2.372742,12.863158,-0.04541,0.096191,0.988281,10.833739,21.537779,-4.302979
-0.25,0.137451,0.551514,-50.682064,8.43811,13.679503,-0.068848,0.092529,0.983887,11.749267,21.52252,-3.669739
-0.21582,0.137695,0.515137,-56.037899,15.594481,13.381957,-0.080322,0.08667,0.984863,12.664794,19.920349,-1.815796
-0.209961,0.151611,0.480957,-61.935421,22.117613,12.847899,-0.070313,0.076172,0.980957,12.84027,16.937256,-0.587463
-0.11377,0.324219,0.694336,-71.044922,9.95636,1.13678,-0.044922,0.075928,0.971191,12.145995,12.191772,-0.518799
-0.246826,0.198975,0.487305,-70.343018,22.888182,11.184691,-0.036621,0.088867,0.960693,11.32965,6.538391,-1.12915
-0.259521,0.205078,0.522705,-72.013855,16.052246,10.95581,0.062012,0.321045,0.659424,2.693176,10.459899,22.5296
-0.240967,0.189209,0.548828,-72.906494,7.080078,10.307311,-0.025879,0.211426,0.911377,4.585266,-6.195068,0.404358
-0.220459,0.173584,0.557373,-73.539734,-0.747681,8.918762,0.077881,0.319824,0.633301,-0.358582,6.111145,25.459288
-0.225342,0.174805,0.475342,-66.940308,25.207518,12.130736,0.060547,0.226074,0.498291,6.286621,-3.562927,27.343748
-0.191895,0.177979,0.561035,-74.195862,-9.712219,5.241394,0.054199,0.325684,0.564941,-4.364014,-2.319336,29.121397
-0.19165,0.19458,0.545898,-74.745178,-8.163452,5.516052,0.01416,0.474609,0.611328,24.581907,-12.08496,-10.238647
-0.154053,0.193604,0.541504,-74.607849,-5.676269,5.096435,-0.001221,0.441162,0.596436,26.290892,0.579834,-6.576538
-0.125977,0.201416,0.533936,-74.241638,-3.036499,5.043029,0.022949,0.417969,0.584473,27.206419,12.657165,-3.433227
-0.100098,0.224854,0.523926,-74.371338,-0.50354,5.073547,0.039551,0.406494,0.585938,28.533934,24.154661,-0.289917
-0.070801,0.249268,0.541748,-75.35553,2.204895,4.219055,0.040527,0.387451,0.572754,29.953001,33.943176,2.624511
-0.068848,0.241211,0.595947,-75.645447,5.844116,2.632141,0.054932,0.366699,0.551758,29.739378,40.756222,5.180358
-0.08374,0.212158,0.665771,-74.195862,10.627746,1.396179,0.068848,0.34668,0.532227,27.267454,44.448849,8.323669
-0.086914,0.200928,0.684326,-72.998047,14.434813,0.610352,0.076904,0.328857,0.520264,23.78845,44.883724,11.795043
-0.094727,0.220459,0.69458,-72.395325,15.464782,0.282288,0.075684,0.307373,0.512451,20.248411,41.275021,14.915465
-0.189697,0.166992,0.56543,-73.829651,-7.156372,6.530761,0.073486,0.288086,0.520264,16.586304,33.546448,17.715454
-0.177734,0.384277,1.04541,46.417233,10.31494,7.698059,0.07251,0.327637,0.600342,-3.097534,1.441955,28.289793
-0.19751,0.395752,1.077148,47.256466,12.580871,7.888793,0.06543,0.272949,0.528809,13.534545,22.163389,21.011351
-0.189453,0.406738,1.10376,47.538754,13.687133,7.392883,-0.038086,0.111816,0.949219,10.475158,1.533508,-0.907898
-0.177979,0.417236,1.133545,47.607418,14.579772,7.843017,0.047119,0.217041,0.499023,4.40979,-11.795043,27.938841
-0.200928,0.540527,1.206787,37.055969,0.465393,14.183043,0.023438,0.224854,0.531738,5.485534,-14.533996,27.717588
-0.174561,0.458008,1.18042,44.929501,11.550902,9.757996,0.015137,0.245605,0.545898,6.355285,-14.015197,27.732847
-0.17041,0.487549,1.202148,42.510983,7.438659,11.123656,0.030273,0.289063,0.560059,6.813049,-13.687133,27.435301
-0.185791,0.519531,1.209229,39.779663,3.410339,12.741088,0.049805,0.318848,0.568359,6.713867,-13.801574,26.847837
-0.182861,0.432617,1.158691,46.775814,14.335631,8.827209,0.04248,0.316895,0.563477,5.805969,-12.435912,27.19879
-0.170654,0.367432,1.020996,45.600887,8.010864,6.996154,0.035156,0.303955,0.554688,3.707886,-9.773254,27.725218
-0.117432,0.210205,0.836182,31.967161,4.066467,-5.088806,0.044922,0.308105,0.547363,0.404358,-7.034301,28.228758
-0.143311,0.311768,1.009521,44.532772,3.883362,6.67572,0.048828,0.31665,0.547852,-2.830505,-4.974365,28.823851
-0.127686,0.29834,0.99292,45.120235,3.211975,6.057739,0.059326,0.252441,0.517822,10.253905,8.918762,24.711607
-0.125732,0.297852,0.961914,45.82214,4.486084,5.065917,-0.025391,0.136475,0.926758,9.338379,-2.548218,-1.052856
-0.122559,0.297119,0.915771,45.417782,6.851196,3.784179,-0.044434,0.181641,0.930176,5.935668,-0.778198,0.267029
-0.116699,0.2854,0.894043,43.891903,8.888245,2.540588,0.037354,0.204834,0.849854,5.706787,-7.377624,-4.699707
-0.108643,0.260986,0.884033,42.579647,9.407043,1.205444,0.289063,0.621582,0.848389,-14.671325,7.713317,-16.609192
-0.101563,0.235596,0.874023,41.374203,8.644104,-0.465393,0.284912,0.604248,0.852051,-16.822815,4.379272,-13.778686
-0.109375,0.219238,0.864502,39.93988,7.339477,-1.777649,0.286865,0.57251,0.857666,-18.15033,0.762939,-11.230468
-0.118408,0.213379,0.860107,37.895203,5.897521,-2.63977,0.293457,0.534912,0.859863,-18.585205,-1.976013,-9.872437
-0.11792,0.213135,0.852783,35.270691,4.570007,-3.692627,0.292236,0.511475,0.871338,-17.494202,-2.670288,-9.490967
-0.2146,0.55249,1.212646,34.584045,-1.319885,15.830993,0.286621,0.497803,0.876953,-15.449523,-1.075745,-9.475708
-0.166504,0.341553,1.013672,44.81506,5.836486,6.752014,0.286621,0.486328,0.875488,-13.320922,2.113342,-9.315491
-0.223145,0.562256,1.219727,31.723021,-2.098083,17.631531,0.301758,0.473389,0.883301,-10.841369,5.516052,-9.468079
-0.192871,0.458252,1.042725,-10.57434,-6.118774,23.368834,0.315186,0.45459,0.897949,-7.904052,7.858276,-10.025024
-0.24585,0.605469,1.20166,23.376463,-0.198364,21.385191,0.311279,0.42627,0.903076,-4.776001,8.361816,-9.552002
-0.12085,0.19751,0.817383,28.57971,3.410339,-6.881713,0.301758,0.385742,0.902588,-1.617432,7.789611,-8.163452
-0.079346,0.139404,0.975098,-8.033752,-8.796692,16.38031,0.300293,0.34668,0.903076,1.335144,6.645202,-7.095336
-0.087402,0.140381,0.964111,-9.757996,-8.613586,16.105652,0.300781,0.323975,0.908447,3.974914,6.004333,-6.721496
-0.092773,0.155762,0.952881,-12.390136,-7.156372,16.365051,0.282471,0.321777,0.919434,6.950378,7.240295,-5.043029
-0.074707,0.172119,0.966797,-15.129088,-3.868103,16.471863,0.280762,0.317139,0.910889,9.368896,10.093688,-2.708435
-0.076172,0.191162,0.987061,-16.571045,1.312256,16.807556,0.315674,0.318848,0.901367,10.353087,13.34381,-1.594543
-0.097656,0.225342,0.980225,-17.562866,7.453918,18.165588,0.335449,0.32251,0.892822,11.344909,16.662598,-0.389099
-0.108887,0.262695,0.976563,-18.447876,11.734008,19.508362,0.328613,0.308838,0.881592,12.367248,19.958496,1.068115
-0.129395,0.293213,0.986572,-18.64624,12.580871,20.538328,0.325928,0.296143,0.878418,12.519835,21.484373,2.89154
-0.171875,0.324951,1.005127,-17.829895,9.979248,21.881102,0.330811,0.293945,0.881836,11.230468,19.851685,5.233764
-0.231445,0.582275,1.220459,27.763365,-1.838684,19.599915,0.334961,0.300537,0.880859,9.086609,14.923095,7.583618
-0.196045,0.359619,1.007813,-16.807556,5.187988,23.376463,0.325684,0.304688,0.886963,7.186889,8.483887,9.757996
-0.197998,0.428223,1.0271,-13.21411,-4.219055,23.963926,0.010986,0.166992,0.890625,7.67517,-5.599975,-2.571106
-0.194824,0.481934,1.05835,-8.071899,-5.53894,22.53723,0.268311,0.625488,0.838623,-12.176513,9.971619,-19.050598
-0.194092,0.49707,1.073975,-5.897521,-3.02124,21.743773,0.226807,0.62915,0.830322,-8.430481,9.689331,-22.079466
-0.192627,0.503418,1.088135,-3.379822,0.144958,21.041868,0.311523,0.308594,0.884277,5.760192,2.914428,11.45935
-0.202393,0.520752,1.088867,-0.167847,3.089905,21.263121,0.154541,0.588623,0.888428,-4.142761,0.030518,-28.20587
-0.20752,0.551514,1.070801,2.63977,5.081176,21.995543,0.186279,0.626953,0.848145,-4.989624,6.134033,-25.512693
-0.209473,0.576172,1.087158,5.783081,5.699157,21.697996,0.076172,0.246582,0.812012,-2.13623,-7.057189,-10.978698
-0.231689,0.596191,1.118408,10.246276,5.561828,21.179197,0.084473,0.240234,0.816895,-6.355285,-6.561279,-15.075683
-0.261719,0.613037,1.143311,14.831542,4.562378,21.476744,0.083984,0.245605,0.827637,-9.841919,-5.767822,-18.997192
-0.262695,0.618164,1.167725,18.989563,2.418518,22.010801,0.077637,0.268555,0.84668,-12.023925,-4.470825,-22.315977
-0.199219,0.393799,1.011719,-15.441894,-0.106812,23.994444,0.08252,0.292969,0.855957,-12.893676,-3.234863,-25.93231
-0.122803,0.186768,0.789307,24.963377,3.082275,-8.544922,0.082031,0.289063,0.86499,-13.47351,-1.945495,-29.945372
-0.057617,0.139404,0.965332,-5.714416,-9.819031,16.777039,0.066162,0.262939,0.885742,-13.549804,0.602722,-33.401489
-0.131592,0.17041,0.756836,16.838074,3.288269,-9.658813,0.04541,0.23999,0.90332,-12.542724,4.600525,-36.727905
-0.227539,0.271973,1.192871,3.761291,-18.554688,-0.389099,0.038818,0.237061,0.911377,-10.940551,10.147094,-40.199276
-0.233887,0.276367,1.189697,5.622863,-19.226074,0.297546,0.03833,0.249268,0.929932,-8.796692,17.51709,-43.830868
-0.227295,0.2771,1.196533,7.537841,-19.630432,0.480652,0.057129,0.238281,0.820557,2.212524,-7.575988,-7.484436
-0.220947,0.271973,1.209473,10.108947,-19.538879,-0.167847,0.047607,0.263916,0.961426,-6.355285,25.749205,-47.279354
-0.226074,0.261963,1.205811,13.137816,-18.310547,-1.037598,0.053711,0.273926,1.005371,-3.601074,32.478333,-49.118038
-0.23291,0.255127,1.193604,15.99121,-15.876769,-1.144409,0.064209,0.287598,1.029053,-0.87738,35.331726,-49.308773
-0.227295,0.25293,1.18335,17.936707,-13.771056,-0.968933,0.092529,0.306885,1.027588,0.38147,32.89032,-48.500057
-0.230957,0.247314,1.174072,19.500732,-12.527465,-0.747681,0.122314,0.317627,1.019043,-0.434875,24.826048,-46.112057
-0.244141,0.232666,1.156006,20.462034,-10.719298,0.160217,0.128174,0.325928,1.012451,-2.876281,13.46588,-41.610714
-0.24292,0.213379,1.143555,21.430967,-8.552551,1.983642,0.123291,0.337891,1.000244,-5.363464,1.724243,-37.30011
-0.216064,0.270508,1.189697,1.701355,-18.379211,-0.999451,0.12915,0.359863,0.981689,-7.453918,-7.980346,-34.538269
-0.226074,0.208496,1.121582,22.491453,-6.896972,3.15094,0.127686,0.394287,0.961426,-7.965087,-13.587951,-32.63092
-0.236084,0.202881,1.084229,23.841856,-3.417969,3.944397,0.116455,0.442383,0.94751,-6.996154,-13.084411,-30.937193
-0.241699,0.180176,1.078857,24.917601,-2.563476,3.791809,0.12915,0.516357,0.927002,-5.485534,-7.308959,-29.785154
-0.237061,0.144043,1.064697,26.908873,-2.89154,3.234863,0.223389,0.578125,0.766602,-60.44006,-24.635313,16.082764
-0.236084,0.11792,1.039795,29.273985,-3.570556,2.868652,0.231201,0.55957,0.741455,-61.576839,-22.979734,16.670227
-0.234131,0.109131,1.012695,31.303404,-4.53186,2.319336,0.262939,0.542725,0.69751,-61.843868,-18.295288,15.60974
-0.233887,0.107666,0.993652,33.103943,-5.203247,0.900268,0.296143,0.532227,0.638916,-60.096737,-12.016295,14.930724
-0.257813,0.10791,0.974854,34.385681,-4.600525,-0.099182,0.173584,0.452148,0.50293,-53.932186,-15.090941,25.703428
-0.27417,0.099365,0.953125,34.698486,-3.715515,-0.335693,0.284668,0.536621,0.522461,-54.794308,-4.241943,18.257141
-0.285889,0.085938,0.922852,34.210205,-4.348755,-0.686645,0.246582,0.534424,0.481445,-52.894588,-5.92041,20.706175
-0.299316,0.070557,0.904053,33.111572,-6.622314,-0.701904,0.212646,0.506348,0.475342,-52.444454,-10.261535,23.025511
-0.220703,0.207275,1.096924,23.147581,-5.28717,3.555298,0.303223,0.531494,0.581787,-57.327267,-6.54602,16.00647
-0.210205,0.270264,1.178955,-0.038147,-19.363403,-1.518249,0.213379,0.602051,0.78833,-58.998104,-22.499083,14.617919
-0.131348,0.180908,0.765625,20.866392,3.593445,-9.384155,0.363525,0.851318,1.008301,-49.804684,-3.64685,8.560181
-0.197754,0.27124,1.132324,-2.571106,-22.15576,-2.693176,0.230469,0.697998,0.860107,-56.144711,-10.81848,11.314391
-0.130615,0.170654,0.748047,12.5885,1.800537,-10.116576,0.261963,0.770996,0.919922,-53.298946,-5.088806,10.757445
-0.132813,0.180664,0.745361,8.735657,-0.038147,-10.917663,0.311523,0.821777,0.960693,-50.956722,-2.548218,9.895325
-0.147217,0.186768,0.755127,6.004333,-1.205444,-11.161803,0.309082,0.950928,1.221436,-28.656004,-18.257141,0.572205
-0.154297,0.191895,0.758301,3.89862,-1.724243,-10.437011,0.383545,0.860107,1.049561,-48.240658,-7.194519,6.721496
-0.141357,0.195068,0.754395,1.983642,-3.036499,-9.82666,0.380127,0.862061,1.089355,-45.806881,-11.779784,5.073547
-0.136963,0.193604,0.752197,-0.511169,-4.814148,-9.658813,0.359375,0.874268,1.122803,-42.655941,-15.563964,3.913879
-0.20752,0.274902,1.158447,-1.365662,-20.751951,-1.976013,0.332031,0.888184,1.141113,-39.222717,-17.700195,2.807617
-0.162842,0.179443,0.786621,-5.027771,-7.064819,-9.216309,0.314209,0.901855,1.159912,-36.125183,-18.676758,1.945495
-0.168213,0.185791,0.797363,-6.271362,-10.368346,-9.101868,0.309814,0.925293,1.187012,-32.897949,-19.020081,1.213074
-0.169434,0.206543,0.805908,-7.240295,-15.892028,-9.643555,0.124756,0.374023,0.525635,-56.40411,-19.859314,27.8244
-0.189453,0.221191,0.837891,-7.339477,-21.530149,-9.521484,0.209717,0.63501,0.809082,-57.777401,-17.402649,12.687682
-0.146973,0.185791,0.765625,-3.097534,-5.874633,-9.613037,0.079102,0.286377,0.533691,-57.815548,-24.681089,27.816771
-0.185547,0.217285,0.915283,-4.714966,-29.380796,-9.376526,0.119385,0.158447,0.490967,-58.79211,20.500181,16.25824
-0.185303,0.224609,0.918945,-4.692078,-30.532835,-8.69751,0.099365,0.177979,0.47168,-58.326717,-31.616209,24.55139
-0.179932,0.22876,0.942383,-5.294799,-30.738829,-7.873535,0.309814,0.973145,1.263184,-24.070738,-16.365051,-0.137329
-0.174072,0.23291,0.963379,-5.950927,-29.96063,-6.958007,0.365234,0.272461,0.632324,-39.100647,1.281738,18.081665
-0.173096,0.233643,0.979736,-6.896972,-27.931211,-6.011962,0.399902,0.285889,0.58667,-46.340939,-4.470825,15.792846
-0.16626,0.233887,1.005615,-7.514953,-25.939939,-5.531311,0.373047,0.287109,0.516602,-52.070614,-13.71765,13.900756
-0.174561,0.23584,1.030762,-7.469177,-24.520872,-5.210876,0.275146,0.272461,0.447998,-53.596493,-21.408079,14.86206
-0.183105,0.242432,1.057617,-6.805419,-23.902891,-4.470825,0.183105,0.240479,0.391113,-55.229183,-23.361204,15.60974
-0.183105,0.250244,1.082275,-5.66101,-23.689268,-3.738403,0.130615,0.240234,0.377686,-58.349606,-19.210815,14.877318
-0.182373,0.258789,1.109375,-4.142761,-23.277281,-3.356933,0.084961,0.250732,0.387939,-60.9436,-10.459899,14.381408
-0.196289,0.224365,0.888428,-6.340026,-26.229856,-9.361267,0.051758,0.258057,0.405762,-62.492367,0.892639,15.083312
-0.169434,0.371826,0.893311,-14.831542,32.058716,31.494139,0.057129,0.259766,0.428467,-62.423702,11.512755,15.846251
-0.17749,0.3479,0.87915,-19.226074,37.849426,33.401489,0.073242,0.222412,0.51001,-58.235165,-29.182432,26.397703
-0.164795,0.319092,0.850098,-22.857664,40.52734,33.38623,0.090332,0.250488,0.438232,-62.049862,19.058228,15.693664
-0.143555,0.286133,0.845459,-25.382994,42.259212,32.997131,0.118896,0.208252,0.4729,-59.776302,24.085997,15.510558
-0.173584,0.204102,0.747803,-29.670713,29.808043,22.712706,0.116699,0.092773,0.505371,-58.753963,13.206481,16.815186
-0.132324,0.226563,0.823486,-27.740477,42.366024,31.166075,0.104736,0.044189,0.503418,-59.196468,5.363464,17.623901
-0.128662,0.20752,0.812256,-28.030394,38.284302,28.068541,0.08252,0.040039,0.490723,-58.959957,-1.045227,18.234253
-0.153076,0.203369,0.783447,-28.739927,33.729553,25.138853,0.062744,0.071777,0.481934,-57.746883,-5.653381,18.348694
-0.132324,0.25415,0.835205,-27.099607,43.487545,32.814026,0.061768,0.114258,0.460938,-56.480404,-9.544373,19.287109
-0.19751,0.407959,0.861816,-11.83319,25.032042,29.479979,0.089844,0.150635,0.44043,-55.656429,-14.518737,20.256041
-0.144287,0.333984,0.976807,8.750916,-5.187988,-6.477355,0.120361,0.165527,0.432129,-55.366512,-20.751951,21.202085
-0.223877,0.447754,0.868164,-9.07135,11.20758,27.030943,0.137939,0.159912,0.423584,-56.320187,-26.977537,21.881102
-0.2229,0.448975,0.893066,-6.988525,3.364563,24.917601,0.130371,0.15918,0.433105,-57.556149,-31.10504,22.956846
-0.226074,0.441406,0.902588,-4.951477,-3.913879,22.857664,0.119385,0.236816,0.457031,-61.325069,23.338316,15.266418
-0.21167,0.421143,0.913086,-3.097534,-10.116576,20.408628,0.317871,0.990479,1.309814,-19.378662,-15.007018,-0.328064
-0.184082,0.400879,0.934326,-1.655578,-14.160155,17.036438,0.252441,0.584229,1.02124,45.196529,14.747619,-13.633727
-0.162598,0.381592,0.953369,0.297546,-15.090941,13.153075,0.328857,1.005859,1.350342,-8.209229,-15.48767,-2.456665
-0.150879,0.368896,0.947998,2.227783,-13.710021,8.872986,0.368164,0.845703,1.211426,39.810181,-34.599304,-19.821167
-0.155518,0.355225,0.945557,4.226685,-11.390685,4.440308,0.365967,0.799316,1.224365,37.185669,-36.567688,-20.64514
-0.155029,0.341064,0.952637,5.775451,-8.651733,0.671387,0.335205,0.759521,1.239258,36.560059,-40.496822,-18.913269
-0.14209,0.332764,0.968506,7.324218,-6.576538,-3.166198,0.310547,0.727539,1.233398,37.666321,-46.440121,-16.700745
-0.194336,0.210449,0.692139,-31.112669,28.144835,21.102903,0.289795,0.702393,1.209717,39.855957,-49.682613,-16.029358
-0.23291,0.440186,0.842773,-10.490417,18.569946,28.57971,0.209717,0.687012,1.171143,44.044491,-43.373104,-15.518188
-0.217529,0.227539,0.601074,-31.501768,27.832029,19.302368,0.128662,0.678467,1.121826,48.728939,-26.878355,-14.656066
-0.185547,0.241699,0.543945,41.740414,-30.021666,1.914978,0.122314,0.659424,1.059814,51.162716,-7.217407,-14.495849
-0.117676,0.171143,0.412109,-20.347593,31.295774,14.938354,0.172852,0.630859,1.026611,50.491329,9.773254,-15.304564
-0.156494,0.349121,0.981201,9.483337,-4.714966,-9.20105,0.304932,0.556885,1.036865,41.481014,-1.655578,-11.283874
-0.008789,0.355225,0.796143,21.987913,6.332397,-16.876221,0.355957,0.87207,1.230469,41.343685,-33.988953,-17.753601
-0.039307,0.372559,0.773926,26.519773,3.936767,-15.594481,0.330566,0.516602,1.039063,37.147522,-27.114866,-8.94928
-0.077881,0.401367,0.729004,30.09796,-1.991272,-13.664245,0.246826,0.448486,0.935303,32.905579,-76.950073,-6.896972
-0.129883,0.408691,0.714844,34.156799,-10.910033,-9.933472,0.143799,0.45166,0.826904,35.621643,-84.533684,-8.346558
-0.140137,0.421875,0.696289,37.315369,-21.369932,-5.783081,0.067139,0.475342,0.720459,37.155151,-76.530457,-10.108947
-0.11499,0.446289,0.67627,39.016724,-32.081604,-4.180908,0.071289,0.520752,0.661621,34.912109,-61.477657,-12.496947
-0.12793,0.473633,0.673096,40.27557,-37.979126,-4.051208,0.146484,0.577881,0.674805,30.746458,-48.065182,-14.495849
-0.149414,0.4729,0.678955,42.015072,-37.101746,-4.379272,0.199707,0.60791,0.689697,27.153013,-39.93988,-15.518188
-0.153809,0.434326,0.675781,43.640133,-30.738829,-3.40271,0.210693,0.588867,0.67749,24.29962,-35.430908,-15.99121
-0.169434,0.223389,0.465576,-28.549192,28.404234,16.693115,0.166748,0.55542,0.654541,22.918699,-31.288145,-15.380858
-0.134521,0.364014,0.669678,44.067379,-22.628782,-1.556396,0.080078,0.512451,0.625732,23.048399,-23.681639,-13.366698
-0.139893,0.249756,0.613525,44.425961,-21.827696,0.259399,0.331543,1.006348,1.342773,-13.763427,-15.144347,-1.037598
-0.189697,0.226807,0.517822,37.956238,-40.733334,2.380371,0.312744,0.473633,1.007813,33.485413,-55.183407,-7.04956
-0.183838,0.213867,0.529297,34.339905,-49.21722,2.006531,0.326172,0.868164,1.263428,42.083736,-34.706116,-15.556334
-0.162842,0.210449,0.543213,30.204771,-51.910397,2.189636,0.2146,0.604736,1.01709,48.156734,18.432617,-15.419005
-0.135498,0.208008,0.547852,25.665281,-47.698971,2.540588,0.274414,0.818604,1.307129,38.772583,-33.996582,-12.435912
-0.099854,0.212402,0.530273,19.638062,-36.331177,2.372742,0.320557,1.006348,1.350586,-3.929138,-15.274047,-3.875732
-0.067383,0.204102,0.498535,11.19995,-18.043518,1.571655,0.290039,0.851074,1.294434,41.259762,-34.896851,-13.442992
-0.059082,0.168213,0.484375,2.616882,3.387451,2.342224,0.337402,1.040283,1.328125,2.296448,-20.713804,-7.797241
-0.095459,0.131348,0.466309,-4.707336,21.90399,6.767272,0.312012,1.050293,1.335449,5.569458,-25.138853,-9.437561
-0.12793,0.122803,0.429199,-11.657714,31.677244,12.191772,0.278809,1.053223,1.356934,9.315491,-27.984617,-10.398864
-0.108398,0.290527,0.660645,44.464108,-18.882751,-0.640869,0.246582,1.057373,1.378906,13.755797,-28.900145,-10.253905
-0.168213,0.369629,0.98584,9.544373,-5.355834,-11.604308,0.219238,1.072021,1.399658,18.875122,-26.130674,-8.834839
-0.178223,0.400391,0.980713,8.712769,-6.210327,-14.320373,0.231445,1.09668,1.401367,23.841856,-21.194456,-6.950378
-0.184814,0.452393,0.96875,6.889343,-5.561828,-16.944885,0.299805,1.124756,1.363525,27.603148,-17.684937,-6.469726
-0.125488,0.178467,0.866455,-10.108947,-11.276244,-37.521362,0.336182,1.125977,1.324219,30.456541,-15.876769,-6.713867
-0.123291,0.139893,0.874512,-12.771605,-12.21466,-34.202576,0.310059,1.083008,1.296631,31.806944,-13.557433,-6.576538
-0.118408,0.108398,0.887939,-14.892577,-13.679503,-30.387877,0.258057,1.010986,1.291016,33.13446,-10.131835,-5.981445
-0.114258,0.082031,0.906738,-16.174316,-14.61029,-26.542662,0.325195,1.017578,1.341309,-0.679016,-16.830444,-5.592346
-0.097656,0.074951,0.930176,-16.624451,-15.022277,-23.124693,0.282471,0.806152,1.305176,36.888123,-31.883238,-11.840819
-0.091309,0.083984,0.962158,-15.762328,-15.975951,-20.301817,0.277588,0.935059,1.328369,36.132813,-7.583618,-6.622314
-0.099365,0.085693,0.986084,-13.938903,-17.89856,-17.295837,0.289307,0.968506,1.34375,39.047241,-9.895325,-7.255554
-0.083496,0.080322,1.003906,-12.054442,-20.248411,-14.205932,0.318848,1.002441,1.336426,40.328976,-12.741088,-6.965637
-0.061279,0.067139,1.02417,-9.971619,-22.071836,-11.764525,0.361572,1.025391,1.337402,40.138245,-16.769409,-8.003235
-0.051514,0.058105,1.042725,-7.377624,-23.094175,-9.643555,0.36084,1.01416,1.320068,39.68811,-21.408079,-8.399963
-0.150391,0.23999,0.848633,-7.217407,-10.154723,-40.321346,0.328125,0.963379,1.280518,38.536072,-25.222776,-7.278442
-0.053711,0.067871,1.054932,-4.600525,-22.331236,-6.66809,0.321533,0.894287,1.266357,37.063599,-27.847288,-8.31604
-0.050537,0.112793,1.064453,0.473022,-15.838622,-0.205994,0.309814,0.833496,1.286133,36.399841,-29.876707,-10.44464
-0.060303,0.131592,1.05957,2.593994,-10.780334,3.211975,0.243652,0.94458,1.30542,34.713745,-7.591247,-5.851745
-0.062012,0.151855,1.046875,3.288269,-5.767822,6.187438,0.125977,0.196045,0.681885,16.227722,34.294128,-7.537841
-0.074219,0.163574,1.048096,3.89862,-1.716614,8.110046,0.131592,0.166504,0.630371,14.60266,32.615662,-5.111694
-0.105225,0.170654,1.03833,4.211426,1.556396,10.520934,0.150879,0.127197,0.600342,14.060973,31.440733,-2.204895
-0.116699,0.169678,1.017578,3.562927,2.105713,12.687682,0.175293,0.115967,0.580322,15.99121,32.226563,1.312256
-0.116699,0.162598,1.005859,2.677917,-1.106262,14.236449,0.207275,0.186768,0.778076,20.019531,21.377562,-0.244141
-0.123291,0.151855,0.999512,1.739502,-5.363464,15.769958,0.196045,0.227295,0.591797,24.948118,38.993835,5.195617
-0.111572,0.136719,1.0,1.159668,-8.903503,17.059326,0.166504,0.279053,0.602051,27.999876,41.648861,4.730225
-0.090088,0.128174,0.985596,-0.053406,-10.475158,18.005371,0.121094,0.216797,0.722656,18.676758,33.638,-8.712769
-0.055176,0.091309,1.053955,-2.14386,-19.721985,-3.303528,0.156982,0.2854,0.596436,29.357908,40.710445,2.746582
-0.166016,0.298584,0.842285,-3.684997,-8.262634,-42.892452,0.197754,0.1521,0.575439,19.973755,35.057068,4.203796
-0.063477,0.131836,0.969482,-2.540588,-10.536193,17.677307,0.115967,0.218262,0.73291,22.109983,30.441282,-8.537292
-0.117432,0.289795,0.843994,2.853393,0.099182,-46.188351,0.116211,0.171143,0.752686,27.603148,22.308348,-3.074646
-0.187256,0.511963,0.950195,4.356384,-2.235413,-19.699097,0.129395,0.220215,0.70874,27.45056,22.895811,-6.248474
-0.183594,0.548584,0.937744,1.838684,2.830505,-22.430418,0.13623,0.210449,0.706543,28.671263,20.469664,-5.348205
-0.186523,0.551514,0.928711,-0.137329,8.216858,-24.909971,0.131104,0.195313,0.717529,28.968809,19.836426,-4.722595
-0.18457,0.533203,0.925049,-1.411438,12.138366,-26.893614,0.122314,0.177734,0.734131,28.305052,20.736692,-4.310608
-0.180908,0.520996,0.925293,-3.051758,14.22882,-28.022764,0.123047,0.169189,0.759277,27.557371,23.963926,-2.372742
-0.172852,0.537354,0.935791,-4.40979,13.549804,-29.518126,0.148193,0.167969,0.766602,26.992796,25.05493,-2.525329
-0.140625,0.317871,0.844482,-0.37384,-4.615784,-44.822689,0.165527,0.166504,0.767822,26.214598,24.612425,-2.304077
-0.19458,0.605957,0.955322,-4.463196,5.706787,-35.247803,0.177734,0.164063,0.763916,24.92523,23.620604,-1.655578
-0.188477,0.624023,0.95874,-4.180908,0.50354,-38.604736,0.196289,0.174561,0.768799,22.53723,22.628782,-0.991821
-0.165283,0.602295,0.974365,-3.341675,-5.607605,-42.892452,0.165771,0.277344,0.578369,30.570982,35.896301,1.327515
-0.158936,0.560059,0.980469,-1.930237,-12.855529,-47.340389,0.123779,0.21582,0.719971,24.894712,26.596067,-7.530212
-0.188477,0.574707,0.947021,-4.722595,10.368346,-32.165527,0.172363,0.26001,0.554443,31.295774,28.121946,2.296448
-0.127197,0.470947,0.960938,0.457764,-27.725218,-53.88641,0.104004,0.55249,1.004639,17.944336,-38.948059,5.249023
-0.110352,0.438721,0.970215,2.6474,-32.600403,-56.02264,0.136475,0.211182,0.467773,38.9328,9.346008,8.796692
-0.102539,0.422363,0.968506,5.386352,-32.936096,-56.556698,0.219482,0.187744,0.795654,17.539978,20.26367,0.289917
-0.072266,0.412109,0.957275,7.202148,-28.45764,-57.205196,0.097656,0.544189,0.979736,25.024412,-36.277771,2.990722
-0.046143,0.40332,0.948975,7.93457,-21.347044,-58.28857,0.08374,0.558594,0.937012,32.096863,-27.633665,-0.1297
-0.055176,0.387939,0.938965,8.285522,-12.863158,-58.105465,0.078613,0.591064,0.885986,38.856506,-15.670775,-2.380371
-0.067871,0.342529,0.923584,8.476257,-4.585266,-56.350704,0.110352,0.632813,0.849854,44.30389,-4.211426,-3.921509
-0.073975,0.279297,0.910889,8.415222,1.63269,-53.833004,0.125244,0.652588,0.825195,49.140926,4.234314,-3.067016
-0.087891,0.237549,0.887451,7.598876,4.150391,-51.437374,0.116699,0.628174,0.819336,52.482601,9.269714,-0.068665
-0.10498,0.247314,0.859131,5.691528,3.303528,-48.683163,0.117432,0.575928,0.820068,53.642269,12.268065,3.082275
-0.151367,0.515137,0.965332,-0.679016,-20.591734,-50.73547,0.109131,0.522217,0.810791,54.466244,14.900207,5.722045
-0.286377,0.637695,0.745117,-71.350098,-5.058288,-18.211365,0.092529,0.493652,0.795166,56.854244,19.790649,7.4234
-0.276611,0.610107,0.717773,-69.915771,-8.125305,-20.347593,0.072266,0.473877,0.760254,60.577389,27.648924,8.31604
-0.262939,0.585938,0.685791,-68.603516,-9.216309,-21.575926,0.070557,0.449463,0.723389,63.018795,38.047791,8.834839
-0.251709,0.561035,0.65625,-66.566467,-8.468628,-22.056578,0.082275,0.422607,0.686279,64.38446,47.195431,9.32312
-0.205322,0.40332,0.404297,-48.683163,-1.182556,-16.342163,0.10083,0.390137,0.657959,64.27002,52.635189,10.475158
-0.220459,0.507568,0.553223,-61.828609,-3.341675,-20.339964,0.128662,0.345459,0.634766,62.301632,52.192684,11.680602
-0.211914,0.47998,0.491943,-58.273312,-0.541687,-18.531799,0.155762,0.283203,0.619141,58.326717,46.157833,12.512206
-0.208252,0.448486,0.436768,-54.023739,0.602722,-16.975403,0.146484,0.228271,0.599121,53.817745,36.842346,13.946532
-0.229736,0.531738,0.615967,-64.498901,-6.393432,-21.827696,0.129883,0.212646,0.59375,51.307674,26.763914,15.670775
-0.290039,0.672852,0.780273,-72.906494,-1.426697,-15.563964,0.132813,0.230225,0.591797,51.017757,16.921997,16.38031
-0.335449,0.908447,1.315186,-45.455929,25.665281,8.750916,0.14624,0.242676,0.569336,49.842831,7.8125,16.365051
-0.310547,0.729736,0.873047,-73.181152,4.127502,-10.45227,0.159668,0.240967,0.536377,47.843929,1.13678,16.00647
-0.32373,0.75293,0.909668,-71.403503,5.020141,-8.903503,0.153076,0.22583,0.498047,46.089169,-1.564026,14.701842
-0.346191,0.773193,0.95752,-68.42041,3.349304,-8.003235,0.14209,0.214844,0.462891,43.342587,1.571655,12.123107
-0.360352,0.784424,1.016357,-64.575195,-0.572205,-6.965637,0.156494,0.224854,0.501953,33.843994,18.737793,5.1651
-0.353516,0.793457,1.062988,-60.890194,-4.768372,-5.874633,0.225342,0.182129,0.818115,14.823913,19.187927,1.083374
-0.342041,0.810059,1.125488,-57.54089,-8.018494,-4.776001,0.322021,0.194824,0.903564,-0.770569,-3.868103,-2.128601
-0.348633,0.833252,1.185547,-54.237362,-7.354736,-3.067016,0.248779,0.169189,0.845215,11.352538,17.997742,0.160217
-0.34375,0.848145,1.228027,-51.445004,-2.13623,-0.564575,0.282471,0.152832,0.898926,7.270813,9.986877,4.081726
-0.332031,0.864258,1.255615,-49.72839,6.134033,2.441406,0.319336,0.156006,0.907471,6.752014,10.345458,4.844666
-0.330078,0.878418,1.291504,-47.874447,16.036987,5.424499,0.351318,0.149414,0.898926,4.508972,7.186889,5.554199
-0.174316,0.335449,0.415283,-43.014523,-6.034851,-17.692566,0.371582,0.148926,0.88208,1.266479,1.091003,6.050109
-0.299072,0.704834,0.827393,-73.661804,1.777649,-12.878417,0.397217,0.155273,0.868652,-1.739502,-6.874084,4.943848
-0.13501,0.250244,0.453613,-37.780762,-12.123107,-19.142151,0.388184,0.167969,0.875488,-3.692627,-13.885497,3.379822
-0.167969,-0.035156,0.498779,-27.816771,-10.040282,-2.807617,0.3479,0.176025,0.888672,-3.707886,-17.356873,2.731323
-0.125732,0.122314,0.45752,-27.549742,-26.412962,-20.912169,0.316406,0.175781,0.898193,-2.807617,-16.403198,1.876831
-0.345947,0.939941,1.330811,-42.236324,33.050537,11.817931,0.318848,0.182129,0.902832,-2.304077,-11.421203,-0.137329
-0.282715,0.310791,0.821289,-23.117064,-0.465393,-1.953125,0.320557,0.194824,0.910156,1.64032,4.776001,-3.295898
-0.291504,0.283691,0.800537,-25.199888,-5.455017,-3.463745,0.324219,0.180908,0.914307,4.371643,12.741088,-3.753662
-0.274902,0.246582,0.769775,-26.451109,-9.536743,-4.005432,0.343994,0.1604,0.913574,6.401062,18.02063,-4.241943
-0.240234,0.21582,0.726807,-27.923582,-12.7182,-4.570007,0.367676,0.133301,0.906006,7.133483,17.936707,-3.913879
-0.217529,0.204834,0.692627,-29.624937,-13.526916,-5.226135,0.40332,0.103027,0.878174,5.256652,10.917663,-3.005981
-0.21875,0.202393,0.668701,-30.6015,-11.45172,-5.378723,0.42749,0.083984,0.847168,0.427246,-1.098633,-1.945495
-0.224121,0.202881,0.640137,-30.96771,-7.461547,-4.478455,0.402588,0.084717,0.814941,-5.828857,-14.068603,-0.236511
-0.231445,0.191162,0.594238,-31.753538,-2.464294,-2.357483,0.325195,0.085449,0.793945,-10.665893,-23.139952,4.638672
-0.213623,0.145996,0.57251,-32.722473,0.411987,-0.617981,0.242188,0.080322,0.782227,-13.305663,-24.375914,10.391234
-0.127686,0.175293,0.468262,-32.691956,-18.661499,-19.866943,0.228516,0.068604,0.769287,-16.998291,-18.867493,13.763427
-0.17749,0.074707,0.555176,-32.653809,-0.167847,-0.564575,0.260986,0.089844,0.747314,-22.125242,-10.940551,15.327453
-0.165771,-0.018311,0.495117,-30.380247,-6.118774,-2.89917,0.286133,0.145264,0.715088,-27.511595,-3.608703,16.609192
-0.140869,-0.044189,0.498291,-24.665831,-14.572143,-3.303528,0.282227,0.153564,0.893799,7.17926,7.011413,2.494812
-0.113525,-0.056885,0.50708,-20.721434,-19.798279,-4.951477,0.309082,0.159912,0.89502,7.255554,4.325867,1.342773
-0.102051,-0.051025,0.51001,-16.456604,-25.688169,-7.194519,0.322021,0.219727,0.677734,-33.081055,1.251221,17.807007
-0.112305,-0.025391,0.480225,-13.542174,-30.204771,-8.682251,0.318115,0.176758,0.906738,8.323669,4.28009,2.243042
-0.112061,0.005371,0.454102,-12.504577,-33.676147,-10.604857,0.318359,0.169678,0.905029,7.850646,3.311157,1.853943
-0.104004,0.031738,0.443604,-12.893676,-38.30719,-14.10675,0.248779,0.175049,0.844727,10.040282,18.692017,-0.968933
-0.126709,0.055908,0.421875,-14.923095,-40.550228,-17.242432,0.258057,0.179932,0.854492,8.666992,18.814087,-2.182007
-0.131836,0.063477,0.421143,-18.241882,-39.024353,-19.676208,0.271484,0.181885,0.868164,7.67517,17.456055,-3.288269
-0.124268,0.080566,0.443848,-22.346495,-34.057617,-21.224974,0.269043,0.179688,0.87793,6.706237,16.532898,-4.127502
-0.154053,0.016846,0.515869,-32.012939,-2.792358,-1.998901,0.253906,0.184814,0.885986,5.447387,16.456604,-4.79126
-0.371582,0.957275,1.358398,-37.757874,35.469055,14.022826,0.247803,0.19043,0.886475,4.333496,16.433716,-5.104064
-0.277588,0.311279,0.842773,-19.699097,5.378723,0.793457,0.247559,0.186768,0.890625,3.311157,16.120911,-4.501343
-0.374756,0.973145,1.433105,-27.183531,29.815672,17.738342,0.256592,0.183105,0.900391,2.63977,15.808105,-3.944397
-0.28418,0.763672,1.299072,46.127316,67.733765,28.350828,0.283691,0.184082,0.911133,2.281189,14.976501,-4.40979
-0.254639,0.714111,1.269287,47.920223,74.478149,25.619505,0.296631,0.185791,0.917969,2.532959,12.626647,-4.333496
-0.238037,0.684814,1.207275,48.675533,76.469421,22.193907,0.296143,0.180908,0.92627,2.662658,9.689331,-4.081726
-0.24585,0.662109,1.197021,48.934933,72.891235,18.974304,0.239258,0.172363,0.838379,12.725829,18.241882,1.12915
-0.250977,0.639648,1.207275,49.072262,64.506531,16.700745,0.259277,0.187256,0.924316,4.432678,5.432128,-3.433227
-0.237549,0.627441,1.182373,47.111507,53.771969,14.648437,0.241699,0.190674,0.912354,6.706237,4.730225,-2.105713
-0.240967,0.609131,1.157471,43.525692,43.685909,13.740539,0.24585,0.188232,0.90332,8.720398,5.111694,-1.373291
-0.222412,0.583252,1.133057,39.619446,35.324097,13.34381,0.253662,0.192383,0.904053,9.69696,6.973266,-1.480102
-0.158936,0.551025,1.099365,36.430359,27.816771,10.986327,0.23584,0.205566,0.907227,10.780334,10.032654,-0.862122
-0.120117,0.519531,1.041992,33.744812,22.78137,8.285522,0.233398,0.208496,0.908203,11.840819,13.328551,0.671387
-0.309082,0.811279,1.326172,45.94421,58.601376,29.502867,0.263916,0.201904,0.903076,11.95526,14.526366,1.556396
-0.086182,0.502441,0.982422,30.815123,20.629881,5.813598,0.300293,0.192871,0.907471,10.749816,13.427733,1.876831
-0.026123,0.472412,0.914551,25.878904,20.019531,-0.457764,0.317139,0.189453,0.910645,9.788513,10.406493,1.968384
-0.025146,0.460205,0.901611,22.598265,17.700195,-4.257202,0.32251,0.183594,0.906982,8.903503,6.91986,2.090454
-0.045166,0.432617,0.908447,20.652769,13.801574,-8.163452,0.287109,0.183594,0.928955,2.998352,7.118225,-3.967285
-0.064941,0.402344,0.884521,19.805908,10.688781,-9.910583,-0.061035,-0.285889,0.742188,-1.495361,-3.120422,6.79779
-0.032227,0.383789,0.845459,17.852783,7.43103,-10.871886,0.133057,0.438477,0.62793,-94.551079,24.864195,19.004822
0.011475,0.390381,0.819336,15.86151,4.859924,-11.940001,0.176514,0.416504,0.582275,-96.733086,22.27783,17.532349
0.023193,0.406738,0.783447,14.60266,4.501343,-12.741088,0.214844,0.38916,0.525146,-97.55706,22.598265,18.600464
0.02124,0.416504,0.762939,14.137267,5.1651,-14.343261,0.116455,0.344727,0.461426,-96.946709,48.96545,34.210205
0.015137,0.401611,0.769775,15.1062,5.332946,-16.769409,0.245361,0.36084,0.43457,-95.207207,31.883238,24.696348
-0.001953,0.369873,0.785645,17.791748,6.256103,-17.593384,0.206543,0.361572,0.443115,-94.245903,39.497375,28.244017
-0.047607,0.486084,0.947266,28.396605,20.248411,2.738952,0.154785,0.358154,0.459229,-94.566338,45.56274,31.929014
-0.335938,0.842285,1.366699,47.225948,50.918575,28.366087,0.244385,0.368164,0.46875,-96.717827,25.871275,21.40045
-0.391846,0.96582,1.393555,-32.661438,33.706665,16.319275,0.107178,0.456787,0.664795,-92.468254,28.266905,22.201536
-0.357178,0.891113,1.362305,50.193783,46.356197,23.956297,0.209473,0.573242,0.731445,-91.407768,33.889771,23.689268
-0.357666,0.97583,1.473877,-21.415709,25.375364,17.852783,0.166016,0.508545,0.742432,-91.38488,32.112122,26.023863
-0.35376,0.963379,1.513184,-15.403747,21.980284,17.494202,0.202393,0.52417,0.75708,-91.789238,31.486509,25.978086
-0.334717,0.935547,1.546143,-9.605408,20.095823,17.059326,0.218506,0.546143,0.746094,-91.995232,31.22711,25.032042
-0.306885,0.897217,1.570801,-4.356384,19.569397,16.609192,0.099854,0.317627,0.427246,-100.189201,49.560543,35.057068
-0.287598,0.88916,1.583984,0.076294,20.51544,16.021729,0.18335,0.59668,0.756836,-90.858452,40.061951,23.406981
-0.28125,0.91748,1.580811,3.601074,23.246763,15.251159,0.157471,0.606201,0.788818,-91.155998,47.363277,25.245665
-0.355713,0.871826,1.365967,48.355099,47.050472,26.092527,0.186768,0.620361,0.827881,-91.880791,51.757809,27.458189
-0.283936,0.997314,1.531006,10.559081,28.472898,14.152526,0.261475,0.633789,0.873779,-93.40667,51.315304,28.190611
-0.278564,1.00293,1.498047,14.091491,27.366636,12.145995,0.321533,0.648193,0.921387,-95.809929,47.050472,27.94647
-0.262207,0.951416,1.496582,17.951965,22.171019,9.07135,0.359619,0.669434,0.954346,-98.06823,40.603634,27.610777
-0.264404,0.860596,1.524902,23.941038,15.022277,6.843566,0.380615,0.700439,1.002686,-100.151054,34.561157,27.305601
-0.282471,0.960205,1.560059,6.935119,26.56555,14.823913,0.121826,0.480469,0.705811,-91.369621,31.082151,24.826048
-0.283936,0.849854,1.550049,34.767151,2.89154,8.590698,0.121826,0.280518,0.366455,-102.127068,47.363277,35.942078
-0.310303,0.919678,1.560547,35.926819,1.808166,13.47351,0.040527,0.245361,0.336914,-102.645866,67.344666,50.552364
-0.323486,0.97876,1.549805,35.430908,4.79126,18.310547,0.197266,0.249512,0.270264,-102.485649,43.289181,41.999813
-0.317383,0.983887,1.502197,35.736084,11.291503,21.072386,0.39624,0.746338,1.084473,-101.104729,30.227659,26.588438
-0.306641,0.947021,1.448975,37.780762,20.904539,21.514891,-0.104492,-0.310791,0.700684,-7.858276,-11.45935,17.166138
-0.300537,0.905029,1.422852,40.946957,31.181334,20.324705,-0.092773,-0.33252,0.682617,-14.549254,-17.425537,24.772642
-0.296875,0.866943,1.427979,44.441219,39.787292,19.683838,-0.04126,-0.340088,0.650879,-22.796629,-23.323057,25.711058
-0.292725,0.852783,1.437012,48.011776,45.288082,20.210264,-0.005371,-0.31665,0.604248,-33.004761,-28.95355,24.80316
-0.304688,0.866943,1.422607,50.209042,47.256466,20.76721,-0.021484,-0.274414,0.537354,-41.641232,-31.829832,25.840757
-0.339844,0.883301,1.403564,51.300045,46.920773,21.942137,-0.05249,-0.226563,0.464355,-49.34692,-30.166624,27.404783
-0.268311,0.813965,1.542236,30.677794,7.827758,6.385803,-0.090576,-0.18335,0.393555,-57.579037,-25.0473,29.739378
-0.387695,0.342041,0.550293,45.021053,17.692566,-15.914916,-0.115967,-0.140137,0.348877,-66.726685,-17.913818,33.287048
-0.34082,0.336914,0.553711,50.827023,22.132872,-20.004272,-0.121582,-0.093018,0.322998,-75.3479,-10.833739,37.506104
-0.297119,0.325684,0.588135,53.894039,27.923582,-21.339415,0.165283,0.251953,0.306396,-102.943413,44.326778,37.994385
-0.374512,0.308838,0.534668,54.687496,34.118652,-20.683287,-0.111328,-0.053711,0.290527,-83.030693,-4.478455,41.496273
-0.259033,0.393555,0.485107,66.688538,17.105103,-9.216309,-0.04834,0.019043,0.242676,-95.512383,5.088806,46.363827
-0.346924,0.276855,0.437256,60.714718,26.985167,-25.444029,-0.025879,0.079834,0.213623,-105.37719,19.271851,48.156734
-0.294678,0.30249,0.409912,63.262936,22.552488,-21.957396,-0.022705,0.12793,0.221191,-107.925407,30.311583,47.561642
-0.263184,0.351318,0.427734,65.299988,19.78302,-14.808654,-0.023438,0.167236,0.237305,-108.512871,42.350765,46.920773
-0.401367,0.286133,0.478271,57.365414,32.691956,-23.124693,-0.014404,0.198975,0.258789,-107.933037,53.314205,46.585079
-0.365967,0.342285,0.582031,38.757324,12.069701,-12.176513,-0.007324,0.222656,0.286133,-106.445305,61.82098,47.58453
-0.236572,0.272461,0.942383,13.893126,1.091003,-11.108397,0.008301,0.238281,0.320068,-104.507439,66.925049,49.232479
-0.346436,0.331543,0.667236,26.954649,6.256103,-3.601074,0.095215,0.254395,0.331299,-101.46331,62.767025,50.720211
-0.31543,0.310791,0.705811,22.865294,4.165649,-0.762939,0.158203,0.265869,0.298584,-101.097099,54.191586,49.293514
-0.289551,0.289795,0.736328,19.989014,2.662658,0.640869,0.194336,0.258545,0.265625,-101.509087,46.531673,46.493526
-0.273193,0.282227,0.758057,17.196655,2.700805,1.319885,-0.080811,-0.013672,0.264648,-89.721672,0.686645,44.486996
-0.23877,0.273682,0.788086,15.182494,4.714966,1.029968,-0.033203,0.048096,0.225098,-100.807182,10.559081,47.828671
-0.207031,0.25415,0.811035,14.953612,6.278991,-1.51062,0.395508,0.792725,1.152344,-98.709099,27.359007,26.069639
-0.217041,0.24292,0.817871,15.350341,6.568908,-4.341125,0.401367,0.840576,1.226807,-89.096062,28.984068,26.351927
-0.231689,0.247559,0.81665,14.541625,5.989074,-6.256103,0.418701,1.04126,1.351563,90.3778,-49.758907,-15.068053
-0.233887,0.256592,0.845215,13.206481,4.760742,-7.820129,0.404053,1.031982,1.271729,90.927116,-47.920223,-12.351989
-0.237061,0.26416,0.900635,13.275146,2.662658,-9.483337,0.433105,1.002197,1.196533,87.722771,-46.371456,-10.513305
-0.278076,0.412842,0.560547,67.016602,12.908935,-6.637573,0.486816,0.976807,1.124023,79.826355,-47.8363,-9.07135
-0.366699,0.34082,0.620361,32.493591,8.44574,-7.911682,0.50415,0.947754,1.061768,69.68689,-52.757259,-6.759643
-0.303223,0.423096,0.615234,66.902161,6.385803,-7.148742,0.487549,0.911865,0.986816,58.212276,-58.067318,-3.723144
-0.057617,0.445801,0.827881,34.14917,-68.42804,-18.638611,0.456299,0.883057,0.93042,47.07336,-61.492916,-0.495911
-0.254883,0.430664,0.651611,67.489624,-9.185791,-9.910583,0.43457,0.853027,0.892822,36.560059,-65.010071,2.944946
-0.236816,0.276367,0.958252,14.488219,1.190186,-12.252807,0.434814,0.808838,0.854004,25.871275,-70.579529,5.493164
-0.272949,0.60498,0.831299,5.828857,24.002073,9.58252,0.376709,0.762939,0.804688,7.67517,-79.391479,6.988525
-0.264404,0.651611,0.820801,7.797241,9.895325,9.45282,0.474121,1.052002,1.428467,87.997429,-48.881527,-17.38739
-0.252686,0.695557,0.796387,8.407593,-3.433227,8.995056,0.318359,0.782715,0.810547,3.845215,-76.385498,7.957458
-0.22583,0.710449,0.800781,9.010315,-14.213561,6.607055,0.291748,0.800781,0.861572,4.615784,-57.899471,6.256103
-0.184326,0.697021,0.80249,9.628296,-22.140501,1.365662,0.254395,0.771484,0.873535,5.813598,-45.677181,5.332946
-0.167725,0.6604,0.785156,9.422302,-26.69525,-3.234863,0.233398,0.71582,0.877686,5.493164,-35.736084,5.004883
-0.151855,0.605713,0.787109,8.834839,-29.617308,-6.690979,0.239014,0.643066,0.881592,3.555298,-30.166624,4.127502
-0.119873,0.539307,0.831543,10.108947,-34.660339,-10.177611,0.216064,0.566162,0.895996,1.846313,-27.44293,3.433227
-0.10498,0.48291,0.848145,14.495849,-41.496273,-13.145446,0.178955,0.512939,0.925781,1.686096,-26.718138,2.555847
-0.294922,0.428955,0.639648,67.092896,-1.495361,-8.857727,0.149414,0.519287,0.952148,3.791809,-28.70178,2.159119
-0.103271,0.466797,0.82251,19.752502,-49.873348,-15.075683,0.124756,0.552734,0.981445,7.881164,-32.806396,2.853393
-0.087402,0.452393,0.799072,29.373167,-66.230774,-18.920898,0.104736,0.558838,0.999023,12.268065,-37.124634,4.66156
-0.034912,0.441895,0.852783,38.482666,-65.498352,-18.043518,0.381348,0.828857,1.188232,-93.772881,27.229307,26.634214
-0.026855,0.424072,0.850342,42.572018,-59.219357,-17.333984,0.297852,0.801758,0.835938,3.364563,-68.557739,7.965087
-0.033936,0.402832,0.812988,46.730038,-50.621029,-17.532349,0.522217,1.077393,1.483887,85.098259,-44.380184,-18.577576
-0.066895,0.395508,0.753906,51.307674,-40.809628,-18.829346,0.422607,0.76709,0.819336,15.388488,-76.751709,6.538391
-0.120605,0.411621,0.68457,55.52673,-31.570433,-18.783569,0.583008,1.18042,1.613037,79.139709,-30.502317,-19.996643
-0.175537,0.434082,0.633301,58.616634,-24.070738,-16.540527,0.431152,0.847168,1.26123,-85.571281,30.364988,24.009703
-0.194336,0.441895,0.640869,61.729427,-19.989014,-14.038085,0.562012,1.12085,1.540283,82.405083,-37.605286,-19.416809
-0.21582,0.438965,0.665527,65.010071,-17.38739,-11.634826,0.428223,0.871582,1.285645,-81.977837,31.22711,22.315977
-0.228271,0.433838,0.67334,67.115784,-14.465331,-10.345458,0.376953,0.907959,1.321533,-76.393127,31.929014,23.178099
-0.099609,0.466064,0.797852,24.375914,-59.257504,-17.50946,0.372314,0.933105,1.371094,-71.708679,31.555174,24.932859
-0.241699,0.273926,0.960449,15.014647,2.929687,-13.168334,0.430664,0.948242,1.448486,-68.359375,28.846739,26.138304
-0.271973,0.57959,0.813477,4.02832,36.140442,9.056091,0.475586,0.970703,1.492432,-63.743587,26.31378,25.733946
-0.258789,0.268799,0.949707,17.723083,4.692078,-13.137816,0.485596,1.05542,1.57373,-45.585629,29.228209,21.568296
-0.309326,0.196045,0.874512,4.577637,-1.014709,-1.907349,0.505859,1.091064,1.60498,-33.950806,34.133911,17.936707
-0.310303,0.200195,0.876221,3.837585,-2.441406,-2.075195,0.54126,1.123535,1.656982,-21.789549,39.31427,12.557982
-0.311035,0.201172,0.869873,2.090454,-2.059937,-2.174377,0.561279,1.123047,1.681152,-11.657714,41.229244,8.850098
-0.300049,0.19751,0.863281,0.335693,-0.343323,-1.976013,0.490967,1.015869,1.541992,-56.091305,26.222227,23.651121
-0.302246,0.203613,0.845459,-1.953125,2.403259,-0.999451,0.615723,1.11084,1.673828,0.045776,18.867493,-0.648498
-0.296631,0.216309,0.850098,-4.127502,3.593445,-0.564575,0.567871,1.224121,1.662598,74.432373,-24.307249,-19.668579
-0.306885,0.226074,0.856934,-5.722045,3.578186,0.106812,0.601074,1.10498,1.691162,-5.241394,34.645081,4.814148
-0.307129,0.233154,0.865234,-7.469177,2.807617,0.839233,0.534668,1.179688,1.71875,58.082577,-22.338865,-17.799377
-0.298584,0.234131,0.889648,-8.781433,0.152588,0.732422,0.547119,1.136475,1.753662,48.72131,-23.231504,-13.526916
-0.290527,0.231934,0.906982,-9.483337,-3.684997,0.549316,0.545166,1.135986,1.775146,39.421082,-22.483824,-7.751464
-0.313477,0.198975,0.871826,4.936218,1.815796,-1.625061,0.541016,1.226563,1.689453,67.405701,-21.751402,-19.470215
-0.282471,0.220703,0.930908,-9.475708,-7.392883,0.419617,0.412598,1.161865,1.685547,24.353025,-14.083861,0.25177
-0.256104,0.197266,0.962402,-7.67517,-10.780334,0.022888,0.408447,1.166992,1.638672,17.01355,-7.843017,-1.419067
-0.24585,0.185547,0.97998,-6.851196,-9.33075,0.442505,0.5354,1.143066,1.641846,7.789611,2.426147,-3.479004
-0.232178,0.177979,0.982422,-6.782531,-5.775451,1.25885,0.50708,1.150391,1.756836,30.754087,-18.814087,-2.098083
-0.22168,0.169434,0.982666,-6.866455,-0.541687,2.39563,0.137939,0.267822,0.408691,67.237854,56.625362,17.280579
-0.219238,0.169678,0.981445,-7.003784,5.203247,3.517151,0.03833,0.594971,0.695068,59.692379,-43.54858,8.720398
-0.231934,0.184326,0.968018,-7.8125,10.032654,4.440308,0.07251,0.563965,0.605469,59.036251,-28.060911,12.077331
-0.249512,0.206055,0.956055,-9.086609,12.916564,4.737854,0.072266,0.524414,0.560303,59.265133,-9.880066,14.999389
-0.263916,0.231934,0.94165,-10.589599,14.007567,4.417419,0.050781,0.474365,0.546631,61.622616,10.482787,17.700195
-0.273193,0.259033,0.920166,-12.504577,13.031005,3.631592,0.054932,0.407227,0.51123,63.934322,30.311583,18.1427
-0.280518,0.287109,0.88208,-15.716552,10.330199,2.922058,0.091309,0.367188,0.498047,64.987183,46.897884,17.044067
-0.264648,0.208008,0.948242,-8.69751,-10.086059,0.0,0.11792,0.352539,0.481934,66.055298,56.793209,15.975951
-0.313477,0.199463,0.865479,5.310058,4.699707,-1.808166,0.131104,0.327881,0.450439,66.207886,60.18829,16.052246
-0.249512,0.267822,0.963135,16.036987,4.241943,-13.832091,0.131348,0.302002,0.431396,66.146851,59.638973,17.166138
-0.310059,0.221191,0.874756,7.003784,8.094788,-2.906799,0.159668,0.230957,0.390625,68.17627,52.8717,14.770507
-0.256836,0.268555,0.945557,20.706175,4.203796,-11.825561,0.095947,0.077637,0.518311,63.751217,-11.062621,-8.972168
-0.244385,0.262207,0.923828,24.757383,4.631042,-10.643004,0.108154,0.180664,0.421387,70.755005,48.896786,10.597228
-0.209229,0.255615,0.907227,28.633116,5.569458,-11.543273,0.080322,0.171631,0.462891,73.547363,48.324581,9.681702
-0.210205,0.254639,0.895752,31.60858,6.111145,-14.892577,0.079346,0.147705,0.483398,76.263428,46.340939,8.232117
-0.233887,0.259521,0.912842,33.630371,3.15094,-18.028259,0.105469,0.112793,0.502197,76.896667,41.877743,5.706787
-0.247314,0.273926,0.936768,34.294128,-2.670288,-19.851685,0.125977,0.084961,0.508301,75.790405,34.14917,3.15094
-0.314453,0.205322,0.870605,5.996704,7.148742,-2.220154,0.119629,0.062012,0.493652,73.348999,24.253843,0.488281
-0.270508,0.275391,0.996338,32.310486,-8.224487,-21.52252,0.097412,0.055176,0.486816,70.449829,14.663695,-1.88446
-0.286865,0.272461,0.98291,32.356262,-6.553649,-20.301817,0.080566,0.067383,0.495117,68.580627,5.981445,-3.959656
-0.299805,0.281738,0.92749,30.555723,-3.707886,-18.051147,0.08252,0.071533,0.495117,66.65802,-2.784729,-6.446838
-0.311523,0.293701,0.900146,27.214048,-0.938415,-15.61737,0.003174,0.620361,0.817871,59.463497,-57.205196,3.326416
-0.253174,0.286377,0.96167,32.943726,-6.942749,-21.263121,0.146484,0.200684,0.394531,69.137573,50.155636,12.20703
-0.298828,0.28125,0.918213,21.057127,1.472473,-12.496947,0.027832,0.633545,0.954102,57.258602,-67.390442,-3.044128
-0.288818,0.264648,0.935303,19.424438,2.410889,-10.620116,0.426758,1.293945,1.45459,70.838928,-50.270077,-13.198852
-0.281738,0.255859,0.954346,18.65387,2.685547,-8.94928,0.165771,0.554443,1.139893,57.975765,-75.271606,-9.147644
-0.282227,0.260498,0.961182,17.76886,1.747131,-8.499146,0.094971,0.096436,0.558105,61.286922,-18.783569,-10.437011
-0.296631,0.266846,0.95166,16.487122,-0.305176,-8.811951,0.493408,1.215088,1.369873,73.295593,-55.229183,-18.371582
-0.30835,0.265625,0.934326,15.11383,-2.204895,-8.781433,0.516113,1.108887,1.298828,71.975708,-59.852596,-25.520323
-0.311768,0.257813,0.915771,13.420104,-2.197266,-7.659912,0.408691,1.021729,1.247314,71.647644,-60.607906,-28.854368
-0.296631,0.251465,0.904785,11.749267,-0.259399,-6.362915,0.256836,0.947021,1.216064,73.158264,-55.091854,-27.084349
-0.291992,0.245361,0.893555,10.139464,3.166198,-5.226135,0.201904,0.89209,1.222412,72.174072,-47.195431,-23.857115
-0.298828,0.235596,0.879883,8.422852,6.538391,-4.013062,0.2771,0.873779,1.260742,65.811157,-44.250484,-22.979734
-0.307617,0.292725,0.904541,23.849485,0.526428,-13.793944,0.385986,0.918945,1.323242,60.264584,-47.630306,-23.757933
-0.348633,0.297119,0.711914,-88.340752,-48.21777,-28.022764,0.421143,0.943359,1.349609,61.637875,-54.489132,-25.825499
-0.331299,0.275146,0.721924,-86.799614,-51.734921,-28.678892,0.399902,0.915771,1.302002,66.184998,-57.571407,-28.411863
-0.349854,0.263672,0.694336,-86.174004,-55.694576,-30.502317,0.333496,0.87085,1.289307,70.739746,-54.275509,-29.617308
-0.359619,0.255371,0.645996,-85.754387,-58.525082,-33.988953,0.269531,0.841064,1.293457,74.935913,-47.653194,-29.21295
-0.361572,0.244141,0.30127,-78.903198,-38.734436,-48.919674,0.245361,0.820801,1.329834,78.330994,-40.237423,-29.014585
-0.368164,0.245117,0.503418,-85.113518,-55.412289,-38.078308,0.416504,1.328369,1.518799,64.476013,-45.867916,-12.351989
-0.371582,0.246094,0.425781,-84.190361,-50.369259,-40.443417,0.235596,0.783691,1.366699,79.658508,-33.683777,-29.96826
-0.375244,0.243164,0.359863,-81.779472,-44.342037,-44.128414,0.218506,0.736572,1.376953,77.9953,-30.273436,-30.509947
-0.364258,0.250732,0.580811,-85.693352,-58.326717,-36.529541,0.198975,0.703369,1.377197,76.087952,-30.868528,-29.350279
-0.398193,0.316406,0.685791,-91.278069,-45.768734,-26.733397,0.171143,0.659912,1.357666,73.928833,-36.026001,-27.427671
-0.576904,0.643066,0.995605,-104.270927,-78.582764,-25.566099,0.156494,0.615234,1.318359,71.022034,-45.738216,-25.634764
-0.414551,0.328125,0.730713,-96.794121,-49.995419,-24.574278,0.111328,0.590576,1.289795,69.923401,-56.304928,-20.1416
-0.419434,0.339355,0.767822,-99.159233,-55.313107,-24.79553,0.052734,0.549316,1.27002,68.79425,-63.117977,-12.474059
-0.441406,0.359375,0.803223,-100.685112,-62.156673,-24.971006,0.083008,0.520264,1.251465,65.292358,-68.244934,-7.629394
-0.461914,0.402832,0.828613,-102.073662,-70.06073,-24.848936,0.152588,0.524902,1.207275,61.759945,-72.929382,-6.881713
-0.486328,0.457764,0.846924,-103.500359,-76.850891,-25.382994,0.107422,0.60376,1.060547,55.671688,-73.448181,-8.44574
-0.516602,0.497803,0.894043,-103.187553,-81.466667,-25.939939,0.090576,0.104736,0.586182,59.906002,-26.496885,-11.32965
-0.541748,0.525635,0.911621,-102.081291,-83.618156,-25.55084,0.036377,-0.202148,0.968994,27.351377,11.619567,-10.086059
-0.554688,0.553467,0.910889,-101.943962,-83.625786,-24.665831,0.051758,0.09375,0.645996,56.373592,-36.949158,-10.345458
-0.554932,0.577148,0.936768,-102.661125,-82.68737,-25.276182,0.102051,-0.142578,0.962402,31.967161,6.088256,-10.017395
-0.570068,0.60791,0.960938,-103.683464,-81.314079,-25.901793,0.091797,-0.154785,0.961914,32.035828,3.479004,-10.643004
-0.334229,0.244141,0.247559,-76.850891,-35.377502,-53.543087,0.062256,-0.178223,0.948975,32.325745,0.259399,-8.987427
-0.419922,0.32251,0.698486,-94.215385,-46.241756,-25.207518,0.05127,-0.196289,0.951416,31.745909,-2.624511,-6.835937
-0.315674,0.253662,0.203125,-75.523376,-35.02655,-57.472225,0.075928,-0.212402,0.945557,29.632566,-5.92041,-6.561279
-0.124268,0.05542,0.168701,-89.279167,-28.70941,-41.267391,0.094971,-0.211914,0.959961,26.275633,-8.43811,-6.698608
-0.264404,0.263428,0.231689,-73.616028,-41.313168,-62.248226,0.083984,-0.198486,0.965088,25.604246,-8.285522,-6.942749
-0.599609,0.676758,1.009766,-104.049675,-72.982788,-24.67346,0.063477,-0.203857,0.968262,26.199339,-3.990173,-8.026123
0.067871,-0.29541,0.832275,19.439697,-6.385803,-13.427733,0.046143,-0.208008,0.969971,26.56555,3.372192,-9.376526
0.062256,-0.276367,0.781494,10.520934,12.725829,-17.921448,0.050049,-0.196533,0.968994,27.114866,16.677856,-10.467528
0.069824,-0.257568,0.745117,1.586914,28.594969,-22.827147,0.097412,-0.13916,0.951416,32.150269,6.309509,-8.872986
0.012451,-0.250244,0.67627,-8.19397,43.228146,-25.80261,0.099609,-0.197266,0.966064,24.932859,15.563964,-11.268615
-0.034912,-0.232422,0.556152,-21.003721,57.189938,-25.817869,0.139404,-0.207275,0.92041,17.608643,-1.899719,-15.701293
-0.003906,-0.188232,0.449707,-36.186218,62.240597,-28.343199,0.051758,-0.220215,0.888916,15.670775,-10.879516,-13.107299
-0.057617,-0.140137,0.404785,-49.743649,56.678768,-31.936644,-0.051758,-0.243896,0.858154,15.1062,-13.153075,-7.369995
-0.114502,-0.092529,0.350586,-61.515804,44.776913,-33.050537,-0.074707,-0.250488,0.852539,15.060424,-8.583069,-4.646301
-0.120605,-0.063232,0.31665,-70.610046,29.197691,-34.27887,-0.040283,-0.241943,0.865234,14.739989,-1.38855,-5.424499
-0.297119,0.262695,0.196289,-74.180603,-37.42981,-60.592648,-0.024658,-0.225342,0.870361,14.747619,6.942749,-5.432128
-0.110596,-0.037842,0.272461,-76.911926,11.611938,-36.613464,-0.014893,-0.22168,0.867432,14.694213,14.579772,-4.814148
-0.125488,0.022705,0.194092,-85.311882,-18.692017,-41.053768,0.010498,-0.231689,0.851807,13.122558,18.104553,-4.570007
-0.120605,0.081055,0.174561,-91.522209,-35.598755,-40.695187,0.031982,-0.243652,0.827148,9.613037,14.739989,-3.982544
-0.104248,0.105957,0.188965,-92.491142,-41.046139,-42.358395,0.082031,0.099365,0.614746,58.197018,-33.340454,-11.436461
-0.134277,0.132813,0.206299,-93.040459,-46.012875,-46.882626,0.151123,-0.202637,0.950684,21.217344,8.613586,-13.618468
-0.216309,0.148926,0.228027,-90.667717,-50.331112,-52.810665,0.075439,-0.14917,0.940674,32.112122,4.348755,-7.255554
-0.308594,0.173096,0.236084,-85.929863,-53.741451,-59.722897,0.001465,-0.258789,0.785889,4.631042,6.568908,-0.213623
-0.389648,0.196777,0.236816,-81.138603,-55.587765,-64.01062,0.058105,-0.12915,0.925781,31.867979,-3.02124,-5.584716
-0.422119,0.213135,0.225098,-77.941895,-52.719112,-62.995907,0.058105,-0.141602,0.933594,32.37915,0.526428,-5.699157
-0.364502,0.231689,0.23291,-76.393127,-47.729488,-61.141964,0.009277,0.06665,0.66626,54.122921,-32.859802,-9.811401
-0.280518,0.248779,0.254395,-74.691772,-44.197079,-61.775204,-0.00708,0.069092,0.689209,53.977962,-25.756834,-10.490417
-0.111328,-0.009277,0.225342,-81.443779,-4.997253,-39.451599,-0.026855,0.07373,0.71582,54.595943,-16.822815,-10.856627
0.063721,-0.295898,0.877197,26.504515,-23.376463,-8.514404,-0.034424,0.070068,0.733887,54.939266,-8.453369,-10.437011
-0.595947,0.704834,1.011963,-103.363029,-67.985535,-26.138304,-0.027588,0.063721,0.751465,54.855343,-2.845764,-9.216309
-0.665771,0.748535,1.056396,-99.945061,-62.286373,-29.449461,0.014648,0.014648,0.752686,53.0014,-2.388,-5.340576
-0.76416,0.949219,1.640381,71.06781,44.486996,21.987913,0.019043,-0.013672,0.741211,50.514217,-5.821228,-3.623962
-0.719238,0.964844,1.550537,74.333191,55.511471,23.574827,0.003174,-0.032471,0.742676,47.973629,-8.834839,-1.571655
-0.668701,1.001221,1.441162,72.395325,76.469421,25.077818,-0.005615,-0.035645,0.750244,45.600887,-10.383605,-0.328064
-0.617432,1.049805,1.336426,65.666199,106.25457,26.794432,-0.007813,0.044678,0.759521,54.473873,-0.88501,-7.164001
-0.578857,1.099365,1.22876,55.046078,139.938354,26.733397,-0.025146,-0.05127,0.793945,42.442318,-6.820678,0.236511
-0.595947,1.129639,1.134521,43.739315,170.097336,22.369383,-0.014404,-0.04248,0.762451,44.082638,-9.681702,0.343323
-0.699219,1.134766,1.030762,34.477234,191.390976,15.281676,0.05127,-0.108154,0.89209,31.929014,-7.186889,-5.172729
-0.81665,1.126709,0.911133,26.359556,197.998032,8.506775,0.050293,-0.09668,0.885986,32.38678,-7.453918,-5.020141
-0.87793,1.102295,0.81665,20.378111,185.203537,3.860473,0.058594,-0.089355,0.882324,33.340454,-5.424499,-5.371093
-0.812988,1.05957,0.682617,9.101868,120.74279,3.532409,0.067139,-0.07666,0.861328,34.759521,-2.624511,-5.508422
-0.776123,0.948486,1.706299,63.491817,40.817257,20.851133,0.059814,-0.115479,0.909424,31.921385,-5.332946,-5.714416
-0.70459,1.011963,0.682861,4.463196,87.814323,3.562927,0.02832,-0.05835,0.826172,38.238525,0.106812,-2.700805
-0.54126,0.86377,0.678955,0.679016,45.81451,-1.434326,0.000488,-0.052979,0.827393,39.756775,-1.235962,-1.457214
-0.504395,0.786133,0.637207,-0.274658,35.636902,-3.913879,-0.017578,-0.053955,0.821045,40.916439,-3.608703,-0.556946
-0.445557,0.705566,0.623535,-0.274658,30.052183,-4.447937,0.057373,-0.064209,0.835693,36.247253,-0.457764,-4.478455
-0.358887,0.643555,0.609619,0.221252,28.099058,-3.631592,0.025146,0.07666,0.65918,55.297848,-36.697388,-9.597778
-0.298096,0.606934,0.600586,-0.221252,30.2124,-1.716614,0.02002,0.191406,0.420898,-103.393547,-4.875183,22.6593
-0.257324,0.583984,0.636719,-0.816345,35.163879,0.839233,0.078613,-0.061035,0.588623,-48.110958,-8.178711,22.941587
-0.241699,0.587158,0.676758,-1.686096,41.778561,3.77655,0.103027,-0.044189,0.575439,-55.892941,-10.620116,24.200438
-0.248047,0.584229,0.733643,-0.938415,45.577999,5.91278,0.121826,-0.036865,0.55542,-63.3316,-14.09912,24.139402
-0.260742,0.571533,0.791016,2.01416,43.785091,7.720947,0.114746,-0.030273,0.53418,-70.358276,-17.501831,24.070738
-0.640625,0.726318,1.020996,-101.173393,-64.178467,-27.755735,0.084717,-0.01123,0.519775,-76.60675,-19.363403,23.887632
-0.611572,0.94043,0.698975,1.968384,62.637325,1.815796,0.043213,0.008057,0.484131,-83.557121,-19.241333,24.696348
-0.78833,0.945801,1.763916,53.604122,40.77911,20.370481,0.017822,0.044189,0.469971,-90.888969,-17.242432,25.451658
-0.882813,1.081299,0.738525,14.961242,156.272888,2.799988,0.021484,0.094482,0.467529,-96.54998,-14.160155,24.497984
-0.821045,0.987549,1.806641,32.546997,46.096798,17.532349,0.024414,0.141113,0.446289,-100.524895,-10.276793,23.193357
-0.809326,0.958252,1.79126,42.640682,42.404171,19.241333,0.050781,0.327881,0.583984,-89.233391,13.633727,11.245727
-0.686523,0.799072,1.203125,-99.426262,-59.42535,-31.692503,0.109863,0.326172,0.437744,-103.172295,12.245177,15.762328
-0.690186,0.827637,1.244385,-98.922722,-55.046078,-31.661985,0.0896,0.311768,0.446045,-102.920525,15.708922,14.373778
-0.704834,0.846436,1.27832,-97.358696,-48.286434,-30.136106,0.060303,0.296631,0.458496,-103.813164,18.280029,14.541625
-0.700684,0.86377,1.308594,-94.993584,-44.464108,-30.899046,0.044434,0.300537,0.480225,-103.813164,19.798279,15.327453
-0.750488,0.885254,1.308594,-92.826836,-40.794369,-29.632566,0.048096,0.299561,0.499268,-102.928154,19.546509,14.823913
-0.755615,0.910645,1.323975,-89.836113,-37.834167,-27.885435,0.053467,0.298828,0.512207,-101.989738,17.814636,14.236449
-0.774658,0.937012,1.37207,-84.663383,-35.667419,-25.711058,0.059814,0.305908,0.534668,-100.395195,15.663146,14.060973
-0.792725,0.978271,1.422119,-78.025818,-33.821106,-22.6593,0.067627,0.322998,0.565674,-96.748344,13.740539,13.259887
-0.814697,1.023193,1.473633,-71.022034,-31.219481,-18.989563,0.064697,0.323486,0.568848,-92.658989,12.870788,11.970519
-0.823242,1.048828,1.538086,-62.538143,-28.839109,-15.892028,0.061035,-0.079834,0.607666,-39.916992,-5.821228,19.927979
-0.694092,0.771973,1.131104,-100.036613,-61.279293,-30.982969,0.079346,0.307861,0.437012,-104.423515,7.652282,18.798828
-0.83374,1.045898,1.531006,-42.144772,-26.107786,-9.94873,0.050537,-0.092529,0.634033,-31.341551,-3.40271,15.808105
-0.820801,1.051025,1.544678,-52.421566,-27.709959,-13.496398,0.104248,-0.044189,0.90332,17.684937,-25.337217,-15.777587
-0.77832,1.035645,1.813477,15.007018,49.491879,13.786315,0.06543,-0.092285,0.675049,-14.640807,-0.183105,4.440308
-0.747803,1.029541,1.811035,7.5531,43.685909,12.054442,0.109375,-0.012939,0.966064,20.256041,3.204345,-3.280639
-0.731201,1.013916,1.796631,0.572205,32.836914,9.567261,0.106934,-0.010986,0.97583,19.53125,4.814148,-4.234314
-0.733154,1.014404,1.749023,-6.401062,17.875671,6.111145,0.119873,0.001221,0.987549,19.485474,6.309509,-5.859375
-0.80835,1.016602,1.812012,23.345945,49.682613,15.792846,0.128174,0.00708,1.002197,20.1416,7.156372,-7.858276
-0.73584,1.036377,1.612061,-19.91272,-11.573791,1.38092,0.127441,0.007813,1.010742,21.568296,7.202148,-9.208679
-0.772217,1.033447,1.55249,-25.955198,-19.332886,-0.999451,0.123779,0.005371,0.999756,22.727964,6.713867,-9.651184
-0.8125,1.03418,1.540039,-33.081055,-23.559568,-5.462646,0.133789,0.003418,0.976563,23.429869,5.264282,-10.169982
-0.730713,1.02417,1.702637,-12.985229,1.449585,3.089905,0.149902,0.000732,0.945801,23.811338,2.944946,-11.489867
-0.06958,0.346191,0.640625,91.629021,-41.427608,3.334045,0.154053,0.004883,0.930908,24.505613,0.564575,-13.710021
-0.291504,0.648682,0.614014,49.797054,27.488707,5.805969,0.137695,-0.005615,0.918213,25.085447,-2.212524,-15.434264
-0.25708,0.597412,0.598145,49.873348,12.481688,7.110595,0.117432,-0.023926,0.909424,24.391172,-6.134033,-15.693664
-0.217285,0.556885,0.602051,52.795406,-0.984192,8.392334,0.106201,-0.030518,0.909668,22.720335,-11.970519,-15.373229
-0.155762,0.528076,0.625,58.029171,-10.520934,9.353638,0.104248,-0.036133,0.909424,20.370481,-19.004822,-15.380858
-0.098633,0.516602,0.644531,62.934872,-16.273499,8.804321,0.044922,0.331055,0.602783,-85.59417,15.35797,11.192321
-0.074463,0.494873,0.669678,68.252563,-20.568846,6.980896,0.103027,-0.041992,0.901367,15.266418,-29.769896,-16.929626
-0.292236,0.71875,0.662109,51.467892,40.672298,4.768372,0.089355,-0.042236,0.880127,13.702392,-32.25708,-17.593384
-0.05127,0.450928,0.686523,75.035095,-26.702879,3.829956,0.074219,-0.048828,0.863037,12.596129,-31.936644,-17.456055
-0.056396,0.389404,0.671387,83.038322,-34.095764,1.907349,0.069336,-0.058594,0.847412,11.505126,-29.289244,-17.654419
-0.031982,0.337646,0.606934,98.785393,-49.270626,4.66156,0.055664,-0.063721,0.82251,10.635375,-24.009703,-16.830444
0.030273,0.265869,0.672119,117.97332,-17.425537,-0.518799,0.023926,-0.071289,0.786865,9.223938,-16.677856,-13.687133
0.008301,0.295654,0.614258,110.870354,-49.591061,3.875732,0.009766,-0.071777,0.75293,5.683898,-8.880615,-8.979797
0.057129,0.283447,0.626221,114.746086,-39.916992,3.02124,0.036133,-0.073975,0.727783,-0.083923,-3.14331,-4.806519
0.07251,0.280762,0.635986,116.104118,-27.755735,1.602173,0.067627,-0.081299,0.703369,-7.30133,-0.465393,-0.701904
-0.040527,0.240723,0.660156,121.314995,-11.520385,-2.63977,0.054443,-0.095459,0.650635,-22.743223,-1.434326,10.398864
-0.0896,0.219727,0.598389,123.115532,-9.941101,-2.914428,0.039307,0.326172,0.619385,-82.252495,18.180847,11.245727
-0.112061,0.224854,0.540771,121.040337,-10.490417,-0.50354,0.036377,0.257813,0.432129,-104.644768,1.625061,21.591185
-0.128418,0.244141,0.541748,116.531364,-11.58142,2.548218,0.021973,0.286621,0.664307,-76.835632,24.162291,13.389586
-0.166992,0.258545,0.599609,112.113945,-10.421752,5.249023,0.216797,0.924805,1.200195,-47.515865,9.58252,-6.027221
-0.202393,0.269287,0.653564,107.51342,-5.393981,7.919311,0.202393,0.947266,1.207275,-44.860836,13.412475,-5.691528
-0.275391,0.787842,0.773682,53.276058,49.713131,6.088256,0.196533,0.968506,1.217285,-42.533871,16.288757,-3.77655
-0.013184,0.321533,0.599854,104.888908,-53.237911,4.493713,0.208008,0.98999,1.229004,-40.206905,16.746521,-0.930786
-0.292969,0.857666,0.892822,54.428097,53.733822,8.651733,0.225586,1.009033,1.253418,-36.979675,15.090941,0.846863
-0.210205,0.271484,0.682373,102.516167,3.784179,10.383605,0.199707,1.020264,1.280762,-32.524109,13.999938,2.89154
-0.293457,0.925293,1.055176,62.393185,50.117489,10.101317,0.144287,1.029053,1.302734,-26.985167,16.098022,6.942749
-0.401855,1.126221,1.281738,20.38574,33.14209,10.383605,0.130615,1.037354,1.335205,-21.926878,20.400999,9.902954
-0.386475,1.083252,1.295166,22.750853,48.652645,12.741088,0.162842,1.064209,1.392822,-18.226624,24.406431,11.230468
-0.375244,1.037842,1.298584,26.290892,65.124512,14.335631,0.21582,1.124023,1.443848,-9.674072,21.965025,13.938903
-0.394287,1.010498,1.307373,29.975889,80.482475,15.335082,0.228027,0.912842,1.195313,-50.651546,6.04248,-5.424499
-0.42627,1.020264,1.308594,33.119202,91.949455,17.234802,0.239258,1.147217,1.44873,-5.653381,15.998839,13.702392
-0.464111,1.0354,1.300049,35.850525,99.517815,21.469114,0.284912,1.199463,1.459229,4.692078,-1.12915,14.083861
-0.476074,1.019531,1.30542,40.878292,100.9674,26.19171,0.364258,1.214111,1.458252,9.849548,-14.343261,11.444091
-0.450684,0.98291,1.275391,47.996517,91.76635,27.313231,0.389404,1.218506,1.429688,15.213012,-26.824949,5.607605
-0.440918,0.950439,1.186035,53.695675,71.411133,25.039671,0.319336,1.233643,1.414063,23.551939,-32.577515,0.167847
-0.427002,0.940186,1.131104,54.794308,42.083736,21.377562,0.23584,1.229004,1.418457,32.997131,-31.654356,-2.578735
-0.29834,0.917725,0.980225,57.220455,53.192135,9.895325,0.250977,1.233154,1.45166,39.970398,-28.915403,-3.562927
-0.418945,0.946533,1.191406,52.986141,9.857178,17.76886,0.331543,1.260742,1.515381,44.914242,-29.045103,-5.210876
-0.365967,0.95459,1.404053,55.511471,-31.745909,12.130736,0.412842,1.302246,1.578125,49.766537,-33.065796,-8.308411
-0.318115,0.950195,1.426025,57.891842,-32.020569,10.19287,0.436768,1.332031,1.570313,56.823727,-39.894104,-11.45935
-0.25415,0.924805,1.414063,59.593197,-22.132872,8.720398,0.033447,0.307373,0.644043,-79.605103,21.385191,11.512755
-0.207275,0.879883,1.4021,62.339779,-8.705139,6.408691,0.24707,1.173096,1.447021,-0.648498,8.590698,13.648986
-0.205566,0.834961,1.356445,66.589355,5.66864,4.394531,0.2229,0.894775,1.181396,-54.183956,3.52478,-4.806519
-0.2229,0.794434,1.299316,70.411682,18.661499,4.356384,0.185303,1.102051,1.435303,-13.648986,25.29907,12.779235
-0.224609,0.778076,1.259521,71.876526,28.549192,6.240844,0.244873,0.823242,1.088135,-60.111996,-0.648498,-4.02832
-0.230469,0.796387,1.218994,71.052551,35.430908,8.544922,0.222168,0.860596,1.140869,-57.479855,1.13678,-4.638672
-0.250732,0.834961,1.180908,69.091797,40.611263,10.223388,0.020264,0.281006,0.686035,-71.166992,26.977537,17.074585
-0.261719,0.885742,1.131348,66.749573,45.06683,10.108947,0.026367,0.287598,0.671631,-68.092346,26.81732,18.089294
-0.407715,0.948486,1.323486,53.512569,-16.906738,14.953612,0.031982,0.302734,0.650879,-65.77301,26.168821,19.973755
-0.210938,0.261475,0.699951,97.763054,13.923644,11.680602,0.042725,0.330322,0.640869,-63.690182,26.405333,22.338865
-0.416748,1.149414,1.29541,19.996643,19.607544,8.171082,0.074463,0.34375,0.625488,-63.194271,28.045652,22.78137
-0.240479,0.199707,0.641357,89.958183,24.322508,10.017395,0.121338,0.359131,0.634033,-63.705441,29.922483,21.736143
-0.234375,-0.107666,0.929443,39.741516,-10.856627,10.0708,0.154053,0.381592,0.6604,-64.338684,32.211304,20.355223
-0.187256,-0.117676,0.968994,39.0625,-5.66101,11.95526,0.165771,0.401855,0.682861,-65.193176,34.233093,19.721985
-0.167236,-0.135254,0.979004,38.30719,3.471374,13.175963,0.173584,0.424561,0.728516,-65.368652,35.736084,20.103453
-0.160889,-0.161621,0.97168,37.155151,10.971068,11.83319,0.182861,0.456055,0.789795,-63.873287,36.6745,19.615173
-0.224121,-0.182617,0.943604,34.927368,13.198852,10.45227,0.013672,0.274902,0.682617,-74.211121,26.077269,15.724181
-0.272461,-0.19043,0.933105,33.065796,7.347106,11.520385,0.193604,0.519287,0.862793,-58.845516,36.964417,17.562866
-0.261719,-0.188721,0.964844,31.684874,-8.31604,12.031554,0.188232,0.489014,0.838379,-61.157223,37.315369,18.264771
-0.250488,-0.192383,1.014648,31.47888,-27.275084,13.198852,0.302002,0.750488,0.969482,-63.362118,4.096985,-0.38147
-0.215332,-0.186523,1.051025,31.150816,-41.15295,16.838074,0.27417,0.711426,0.936035,-63.995358,11.177062,1.831055
-0.152344,-0.169922,1.049316,30.616758,-44.479366,20.751951,0.24292,0.672119,0.922607,-64.14032,17.471313,3.044128
-0.260498,-0.109131,0.887939,39.787292,-11.940001,8.338928,0.245361,0.638428,0.9021,-63.858028,21.049498,3.433227
-0.112549,-0.164063,1.020752,29.289244,-35.736084,24.063108,0.287598,0.791992,1.02832,-61.912533,-0.190735,-2.761841
-0.067383,-0.200684,0.991211,26.359556,0.999451,21.537779,0.269775,0.572021,0.848145,-61.56921,26.596067,9.44519
-0.082764,-0.209717,0.978027,25.367735,18.127441,19.203186,0.254883,0.553711,0.851563,-59.494015,30.685423,13.511657
-0.089111,-0.213135,0.980225,23.773191,25.154112,18.180847,0.217773,0.54248,0.865234,-58.280941,34.698486,16.342163
-0.088867,-0.228516,1.009521,24.314878,19.821167,17.631531,0.262939,0.604736,0.868652,-63.293453,23.689268,5.508422
-0.064209,-0.254639,1.022217,27.6947,5.584716,16.76178,0.273193,0.943848,1.007568,-39.138794,-25.009153,9.750366
-0.007568,-0.277588,1.016846,29.808043,-11.772155,14.823913,0.392578,1.013672,1.104004,67.726135,-25.924681,-7.949829
0.022949,-0.2854,1.015137,30.334471,-27.114866,11.276244,0.426514,0.980713,1.091797,67.001343,-26.43585,-7.881164
0.013916,-0.290771,1.003662,31.425474,-37.42981,6.111145,0.451904,0.966309,1.087402,66.28418,-27.519224,-8.209229
-0.003906,-0.293213,0.963623,31.837461,-40.618893,0.869751,0.470215,0.954346,1.104004,65.559387,-29.350279,-9.132385
0.021484,-0.290283,0.914063,30.502317,-35.438538,-3.662109,0.499512,0.927246,1.120117,63.880917,-33.615112,-12.184142
-0.077637,-0.179688,1.000244,27.412413,-18.577576,24.42169,0.524902,0.883301,1.119873,61.286922,-41.389462,-18.066406
-0.229492,-0.104248,0.87793,39.772034,-9.819031,7.293701,0.366211,1.064697,1.143555,68.161011,-25.138853,-9.338379
-0.225342,0.239258,0.687988,93.620293,21.240232,10.803222,0.488037,0.836426,1.099854,58.761593,-49.865719,-23.139952
-0.253418,-0.103516,0.859863,40.321346,2.456665,4.844666,0.397949,0.80249,1.073486,57.464596,-56.800838,-24.589537
-0.252686,0.175293,0.583496,85.365288,23.941038,11.505126,0.361816,0.769775,1.020508,56.007381,-63.865658,-21.385191
-0.240479,0.164551,0.572021,80.00946,20.13397,13.252257,0.383789,0.649658,1.003662,55.6488,-33.714294,-38.482666
-0.217773,0.161377,0.596436,74.691772,15.930175,13.732909,0.369385,0.712891,1.031494,57.006832,-55.984493,-26.31378
-0.226074,0.168213,0.619141,68.328857,17.227173,14.465331,0.361328,0.674072,1.036377,57.113644,-46.974178,-29.167173
-0.196289,0.168213,0.664063,61.172482,23.605345,15.2359,0.375977,0.65625,1.031006,56.632992,-38.566589,-33.752441
-0.153076,0.157471,0.687256,55.091854,32.943726,14.427184,0.378662,0.654053,0.976074,53.497311,-32.875061,-42.152401
-0.141846,0.129395,0.691162,50.941463,42.91534,12.573241,0.341797,0.658447,0.938721,52.284237,-34.088135,-43.525692
-0.153076,0.099121,0.663818,47.134396,51.536556,10.917663,0.272461,0.648682,0.898438,53.138729,-34.362793,-42.198177
-0.153564,0.076416,0.620361,41.809078,51.086422,9.719849,0.205322,0.616943,0.864258,55.168148,-32.00531,-38.291931
-0.214844,0.057129,0.631836,37.002563,40.046692,9.918213,0.174561,0.602295,0.842285,57.655331,-26.626585,-34.53064
-0.26123,0.047119,0.717041,33.691406,23.872374,10.383605,0.150146,0.605713,0.826172,60.928341,-17.127991,-32.096863
-0.220215,-0.10083,0.876221,40.092468,-4.379272,6.599426,0.381592,1.116699,1.223145,66.53595,-23.674009,-11.062621
-0.227783,0.023193,0.859131,29.693602,7.087707,13.46588,0.384033,0.748291,1.017578,56.457516,-62.32452,-23.895262
-0.140381,0.002686,0.901123,31.326292,4.150391,14.312743,0.435547,1.14502,1.315918,62.126156,-22.216795,-10.253905
-0.131104,0.002441,0.884766,34.103394,3.303528,13.023376,0.293213,0.952148,1.031494,-38.230896,-12.908935,7.621765
-0.16626,0.019531,0.852295,34.545898,7.659912,12.351989,0.46582,1.172363,1.411621,51.353451,-21.080015,-0.144958
-0.163818,0.00708,0.868408,34.805298,14.320373,10.078429,0.320557,0.973633,1.073242,-36.865234,0.396728,3.959656
-0.189209,-0.033203,0.882568,36.476135,21.636961,7.8125,0.333252,1.015625,1.120117,-33.660889,12.138366,0.076294
