ax,ay,az,gx,gy,gz,ax,ay,az,gx,gy,gz
-0.076904,0.532959,0.887695,67.54303,9.651184,0.976562,0.220215,0.066162,0.843994,-9.254456,1.098633,9.925842
-0.064453,0.525879,0.867676,69.252014,8.094788,1.89209,0.235107,0.056152,0.823242,-13.755797,-1.38092,12.825011
-0.04126,0.460693,0.808105,42.213436,9.857178,-5.393981,0.237061,0.057373,0.799805,-18.783569,-5.104064,16.548157
-0.108643,0.488037,0.521973,22.232054,18.714905,-6.622314,0.217773,0.065918,0.780029,-24.29199,-9.391785,21.64459
-0.376221,1.251221,0.689209,75.866699,72.914124,21.118162,0.204834,0.075684,0.777588,-29.815672,-14.343261,26.908873
-0.099609,0.551514,0.500488,24.993895,19.599915,-6.103515,0.187744,0.083008,0.768311,-35.194397,-19.241333,32.00531
-0.300293,1.167725,0.761719,73.478699,63.613888,20.332335,0.149902,0.093018,0.734131,-40.489193,-21.965025,37.315369
-0.263916,1.129395,0.780029,72.692871,63.58337,18.783569,0.253174,0.13208,0.877197,0.289917,-1.693725,-2.174377
-0.23584,1.088623,0.775391,71.708679,64.697266,16.899109,0.087646,0.127197,0.623047,-50.582882,-16.456604,46.440121
-0.209229,1.027832,0.759521,70.419312,66.131592,14.648437,0.111328,0.10498,0.67749,-45.501705,-21.278379,42.320248
-0.170654,0.959473,0.759766,69.709778,67.138672,11.268615,0.143066,0.28125,0.511475,-66.856384,36.949158,64.743042
-0.157715,0.915283,0.750977,68.901062,67.977905,8.117676,0.139648,0.288086,0.51416,-66.162109,37.17041,61.56921
-0.100098,0.510498,0.51001,23.574827,19.546509,-6.874084,0.130127,0.299805,0.527588,-65.429688,34.866333,58.837887
-0.191406,0.898438,0.684326,65.345764,64.414978,6.118774,0.119873,0.295898,0.538574,-65.223694,29.228209,56.770321
-0.198975,0.877686,0.665771,62.118526,56.716915,4.768372,0.160156,0.282959,0.501953,-67.314148,34.973145,67.138672
-0.206299,0.844971,0.657959,59.707638,45.967098,2.6474,0.102051,0.237061,0.540039,-63.674923,10.459899,53.38287
-0.213623,0.809814,0.641602,57.388302,36.712646,1.342773,0.100586,0.192871,0.552734,-60.539242,0.328064,51.422115
-0.169434,0.902832,0.728271,67.893982,67.573547,6.713867,0.086914,0.156982,0.572998,-55.824276,-8.811951,49.446102
-0.144287,0.754639,0.611328,53.215023,28.694151,-1.113892,0.107422,0.275635,0.538574,-65.071106,20.629881,55.099483
-0.122559,0.726318,0.575195,50.552364,27.488707,-2.670288,0.239502,0.546631,0.665039,19.004822,-29.624937,-22.644041
-0.118896,0.68335,0.552002,47.019955,26.138304,-3.952026,0.313965,0.709961,0.656982,18.539429,-17.539978,-28.95355
-0.124756,0.631836,0.547363,42.968746,24.398802,-4.600525,0.348389,0.681152,0.671143,16.639709,-12.344359,-27.488707
-0.126221,0.58374,0.556885,39.794922,22.53723,-4.79126,0.403564,0.65332,0.701904,14.648437,-13.21411,-27.023314
-0.140625,0.55127,0.551025,37.322998,21.65222,-4.463196,0.408936,0.624512,0.704834,12.168883,-18.730164,-25.405882
-0.143311,0.544434,0.526611,34.675598,21.224974,-3.829956,0.383545,0.607422,0.721436,10.986327,-26.084898,-22.613523
-0.121094,0.557129,0.503174,31.173704,20.584105,-3.753662,0.355957,0.593262,0.722412,11.398314,-32.913208,-19.805908
-0.107178,0.574951,0.500732,28.503416,19.477844,-4.310608,0.361328,0.753906,0.697754,19.287109,-27.57263,-30.998228
-0.108398,0.577393,0.50293,26.771544,19.309998,-4.951477,0.341064,0.582275,0.705322,12.748717,-37.307739,-18.959045
-0.191162,0.778564,0.633789,55.305477,31.387327,0.350952,0.307617,0.572998,0.688721,15.602111,-36.979675,-20.568846
-0.402344,0.246338,0.955811,2.27356,-12.260436,-1.060486,0.178955,0.533936,0.655762,22.415159,-16.685486,-23.818968
-0.410889,0.243164,0.956299,1.731872,-11.657714,-1.167297,0.306396,0.539307,0.63916,39.001465,3.738403,-21.690367
-0.420166,0.240234,0.976563,1.159668,-9.963989,-1.541138,0.21167,0.597412,0.689209,30.891417,9.399414,-26.451109
-0.422607,0.23877,0.990234,0.37384,-7.377624,-2.082825,0.270996,0.634033,0.703125,35.331726,13.412475,-26.618956
-0.394531,0.241699,0.938965,-2.861023,-5.226135,-0.534058,0.305908,0.610352,0.687744,38.627625,10.261535,-24.681089
-0.408936,0.256592,0.979492,-1.670837,-4.28772,-2.029419,0.265137,0.465088,0.598389,37.80365,-2.250671,-18.722534
-0.405273,0.255371,0.968994,-2.388,-4.142761,-1.502991,0.213867,0.421875,0.580322,37.651062,-5.088806,-17.341614
-0.399902,0.251221,0.953125,-2.838135,-4.508972,-0.976562,0.167969,0.393799,0.575439,38.764954,-3.349304,-18.081665
-0.418457,0.249268,0.992432,-0.602722,-5.195617,-2.220154,0.130371,0.362305,0.589844,40.557858,2.227783,-19.248962
-0.401367,0.249756,0.964111,2.662658,-11.96289,-0.984192,0.129395,0.341064,0.621582,42.564388,9.017944,-21.026609
-0.438232,0.241943,0.955078,15.373229,-1.182556,0.968933,0.164795,0.365479,0.659424,45.44067,13.984679,-23.597715
-0.414795,0.24585,0.990723,4.653931,-9.170532,-1.251221,0.429932,0.783203,0.744873,18.531799,-37.506104,-31.402586
-0.415283,0.236328,0.996338,5.683898,-6.538391,-1.373291,0.171387,0.553955,0.668213,26.69525,-1.953125,-25.070189
-0.412109,0.229492,0.996582,6.156921,-3.372192,-1.647949,0.462158,0.818115,0.770508,17.76886,-44.593807,-30.72357
-0.417725,0.225098,1.002197,6.355285,-0.221252,-1.63269,0.662109,1.074707,1.0354,37.666321,-4.829407,-10.520934
-0.419189,0.220215,1.015381,7.141113,2.082825,-1.296997,0.484619,0.87793,0.784424,17.082214,-57.907101,-30.34973
-0.411377,0.224121,1.018066,8.514404,3.074646,-1.289368,0.200439,0.409424,0.662354,49.163815,15.312194,-25.360106
-0.410156,0.230469,1.010986,10.231017,3.227234,-1.434326,0.623779,1.054443,1.011963,39.016724,-10.261535,-9.437561
-0.417969,0.235596,1.002686,11.848449,2.670288,-1.518249,0.611084,1.06543,0.986084,40.588375,-17.425537,-7.797241
-0.428711,0.240234,0.988525,13.206481,1.686096,-1.12915,0.608887,1.089355,0.96582,41.923519,-27.122496,-5.844116
-0.437988,0.240723,0.974121,14.595031,0.434875,-0.083923,0.605469,1.122314,0.959473,42.304989,-38.581848,-3.837585
-0.389404,0.23291,0.935059,-2.807617,-6.126403,-0.541687,0.591553,1.163574,0.976074,42.320248,-48.332211,-0.686645
-0.405029,0.247803,0.976807,3.540039,-10.978698,-1.174927,0.594727,1.211182,0.990479,41.511532,-55.27496,1.609802
-0.388672,0.229736,0.93457,-2.677917,-6.820678,-0.640869,0.63916,1.251709,0.969971,38.169861,-60.104366,1.907349
-0.396729,0.237305,0.898193,2.738952,-1.014709,4.211426,0.699951,1.301025,0.950928,34.01947,-63.392635,-0.221252
-0.386475,0.239258,0.933838,-2.5177,-6.41632,-0.778198,0.733887,1.347412,0.942871,31.562803,-65.1474,-4.974365
-0.435791,0.248047,0.931641,15.800475,-2.914428,1.472473,0.726807,1.367432,0.925781,30.319212,-65.452576,-9.674072
-0.401855,0.244385,0.870117,12.268065,-4.638672,2.883911,0.708252,1.343262,0.898682,27.893064,-64.422607,-12.992858
-0.40332,0.243164,0.864014,11.222838,-5.149841,2.479553,0.702393,1.328125,0.917236,27.503965,-63.102718,-16.555786
-0.40625,0.242188,0.858154,9.941101,-5.065917,2.418518,0.679199,1.297119,0.934326,30.288694,-61.416622,-20.004272
-0.405273,0.244385,0.856445,8.125305,-4.463196,2.441406,0.657959,1.226074,0.896973,30.838011,-60.249325,-22.727964
-0.404053,0.248047,0.862793,6.584167,-3.356933,2.388,0.662109,1.181396,0.892334,30.822752,-61.599728,-25.352476
-0.410889,0.247559,0.866943,5.699157,-1.548767,2.693176,0.665283,1.141357,0.89209,30.586241,-64.758301,-27.626036
-0.412109,0.245605,0.870117,4.608154,-0.007629,3.40271,0.651611,1.099121,0.879883,29.487608,-68.946838,-28.984068
-0.404785,0.246094,0.876465,3.486633,1.373291,3.52478,0.625244,1.055908,0.84668,27.832029,-73.173523,-29.769896
-0.403564,0.244629,0.880371,2.853393,2.090454,3.410339,0.596924,1.009521,0.802002,25.726316,-75.836182,-30.319212
-0.387207,0.232422,0.939941,-2.502441,-6.92749,-0.778198,0.55127,0.955811,0.749512,22.560118,-75.027466,-30.265806
-0.409912,0.243652,0.889648,2.471924,1.647949,3.326416,0.52002,0.925781,0.734375,19.14978,-71.174622,-30.265806
-0.408691,0.240967,0.895996,2.326965,-0.221252,4.150391,0.503662,0.905029,0.762695,17.555237,-64.994812,-30.364988
-0.389404,0.237793,0.887939,2.212524,-1.251221,4.089355,0.470703,0.848877,0.788574,17.242432,-50.750729,-30.319212
-0.391357,0.235107,0.889648,1.609802,-1.243591,4.005432,0.238037,0.438721,0.622314,52.711483,12.519835,-25.856016
-0.392578,0.237549,0.891113,0.976562,-1.419067,3.768921,0.265625,0.435303,0.561035,54.031368,6.690979,-25.466917
-0.394775,0.237305,0.889648,0.114441,-2.098083,3.257751,0.261719,0.41333,0.514648,53.184505,0.068665,-24.185179
-0.392822,0.235107,0.897949,-0.709534,-3.364563,2.593994,0.259277,0.278564,0.777344,31.257627,-12.374877,-19.493103
-0.39502,0.237305,0.907227,-1.350403,-4.508972,1.777649,0.267578,0.277588,0.7854,30.616758,-11.749267,-18.638611
-0.391846,0.237793,0.915039,-1.831055,-5.187988,0.701904,0.277588,0.268555,0.790283,30.143736,-12.21466,-18.157959
-0.383301,0.237793,0.921143,-2.151489,-5.554199,-0.152588,0.27832,0.250732,0.785645,29.106138,-12.878417,-17.448425
-0.384277,0.238281,0.926514,-2.372742,-5.897521,-0.640869,0.263184,0.236084,0.775635,27.381895,-12.855529,-16.540527
-0.413574,0.244385,0.893799,2.243042,0.617981,3.684997,0.261963,0.231689,0.773438,25.909422,-12.275695,-15.518188
-0.408447,0.249756,0.867188,13.336181,-3.860473,3.379822,0.270996,0.235107,0.779785,24.841307,-11.878966,-14.846801
-0.444336,0.249756,0.915039,15.998839,-4.249573,1.800537,0.270996,0.233887,0.794189,23.79608,-11.756896,-14.053344
-0.443115,0.235107,0.910156,15.983581,-6.256103,1.800537,0.264404,0.232666,0.819092,23.193357,-11.016845,-13.023376
-0.348633,0.228516,0.462402,-95.611565,-31.936644,-75.027466,0.265381,0.224121,0.835938,22.880552,-9.94873,-12.092589
-0.381104,0.284424,0.475586,-97.923271,-31.967161,-74.676514,0.260254,0.280518,0.762207,32.012939,-14.045714,-20.439146
-0.408203,0.339355,0.489014,-99.266045,-32.737732,-74.050903,0.273193,0.213379,0.840332,22.293089,-8.865356,-11.390685
-0.425293,0.39502,0.510986,-99.563591,-33.851624,-73.410034,0.287598,0.208496,0.842529,20.736692,-7.415771,-10.131835
-0.434814,0.446777,0.516357,-99.189751,-34.133911,-73.051453,0.289551,0.208008,0.841553,19.989014,-6.744384,-9.651184
-0.446533,0.492676,0.515625,-98.915092,-32.745361,-73.074341,0.28833,0.206055,0.841553,19.241333,-5.638122,-9.063721
-0.456787,0.530518,0.517578,-98.678581,-29.510496,-73.135376,0.290527,0.203125,0.851318,18.615723,-4.577637,-8.262634
-0.468262,0.555908,0.510498,-98.449699,-24.993895,-72.746277,0.299805,0.198975,0.858643,18.386841,-3.921509,-7.789611
-0.469238,0.580078,0.509521,-98.251335,-20.072937,-71.762085,0.3125,0.188232,0.859619,17.700195,-3.768921,-7.629394
-0.454834,0.630127,0.534668,-97.381584,-10.032654,-68.733215,0.314941,0.185059,0.861084,16.822815,-3.997802,-7.415771
-0.336426,0.18457,0.455811,-92.277519,-33.554077,-74.356079,0.314941,0.182617,0.866455,16.12854,-4.623413,-7.369995
-0.449707,0.650146,0.551758,-95.642082,-5.683898,-66.711426,0.310791,0.186768,0.869141,15.426635,-5.027771,-7.026672
-0.44873,0.693359,0.491455,-95.741264,0.617981,-60.600277,0.312012,0.193848,0.875977,15.213012,-4.974365,-6.599426
-0.460693,0.705322,0.479736,-96.336357,2.13623,-56.991573,0.279785,0.209229,0.841064,21.430967,-8.049011,-10.635375
-0.460693,0.723877,0.468018,-97.290031,2.128601,-53.733822,0.270508,0.282959,0.747559,32.539368,-15.708922,-20.950315
-0.451904,0.759277,0.459229,-99.174492,1.281738,-50.903316,0.312744,0.188721,0.881592,15.182494,-4.776001,-6.225585
-0.442627,0.796387,0.491211,-100.196831,0.88501,-48.637386,0.262207,0.294434,0.719727,34.767151,-18.135071,-21.095274
-0.44165,0.804932,0.537842,-98.525993,1.38092,-46.798702,0.248779,0.386963,0.493896,51.429745,-6.134033,-23.109434
-0.433838,0.804443,0.533447,-96.717827,2.182007,-44.952389,0.24292,0.364258,0.500977,49.659725,-10.856627,-23.590086
-0.408936,0.8125,0.504395,-96.633904,2.960205,-43.601986,0.227783,0.351074,0.529785,48.706051,-13.244628,-25.100706
-0.383301,0.828369,0.493896,-97.351067,3.799438,-43.30444,0.214111,0.338379,0.55542,48.202511,-13.549804,-26.725767
-0.451416,0.243164,0.913574,16.136169,-5.271911,2.059937,0.217773,0.348877,0.57666,48.59161,-12.573241,-28.266905
-0.449219,0.674316,0.529053,-95.092766,-1.945495,-63.705441,0.231201,0.37085,0.577393,49.201962,-11.383056,-29.495237
-0.330811,0.172852,0.42749,-88.272087,-38.223267,-73.33374,0.272949,0.28833,0.73291,33.409119,-17.127991,-21.049498
-0.465576,0.607178,0.515381,-98.1903,-14.938354,-70.236206,0.276123,0.412109,0.552979,49.896236,-12.741088,-29.991148
-0.305176,0.19751,0.362061,-77.293396,-54.824825,-68.351746,0.285156,0.405273,0.554199,49.247738,-15.762328,-29.014585
-0.310303,0.179688,0.391113,-83.274834,-45.936581,-71.746826,0.271973,0.379395,0.553223,47.485348,-18.753052,-27.282713
-0.414551,0.201172,0.898682,15.419005,-3.14331,0.839233,0.260254,0.356689,0.564209,45.715328,-21.27075,-25.611876
-0.398926,0.186035,0.876221,14.526366,1.304626,0.419617,0.253418,0.398438,0.560791,49.751278,-11.177062,-30.2124
-0.381592,0.177002,0.845703,12.657165,7.30133,-0.724792,0.246826,0.331787,0.599365,42.892452,-23.963926,-24.490355
-0.378174,0.172607,0.808594,9.422302,14.236449,-2.082825,0.239502,0.32251,0.623779,41.992184,-23.269651,-24.368284
-0.381348,0.161621,0.783691,5.310058,20.858763,-3.005981,0.241455,0.324463,0.642822,41.679379,-22.041319,-24.337767
-0.384277,0.152588,0.759277,1.083374,25.169371,-3.982544,0.249023,0.328857,0.65332,41.442867,-20.835875,-24.528502
-0.386719,0.149658,0.715332,-3.64685,26.580809,-4.959106,0.255371,0.328369,0.65918,40.878292,-20.088194,-24.314878
-0.396484,0.149414,0.668213,-8.781433,24.902342,-6.210327,0.260254,0.317871,0.672852,40.107727,-19.729614,-23.841856
-0.399658,0.150391,0.630859,-13.786315,19.340515,-8.575439,0.261963,0.307129,0.680664,39.016724,-19.592285,-23.376463
-0.405029,0.154541,0.587402,-19.294739,9.719849,-12.023925,0.256104,0.299561,0.682861,37.742615,-19.180298,-22.827147
-0.429688,0.218506,0.905518,15.693664,-5.844116,1.220703,0.25293,0.300293,0.691162,36.659241,-18.791199,-22.293089
-0.41626,0.173584,0.515625,-31.60858,-17.776489,-20.370481,0.258301,0.300537,0.70874,35.736084,-18.440247,-21.636961
-0.408936,0.165771,0.544922,-25.329588,-3.02124,-16.044617,0.253662,0.340332,0.57959,44.326778,-23.429869,-24.818419
-0.308105,0.217529,0.382324,-64.498901,-73.600769,-60.081478,0.260498,0.158203,0.5354,-93.971245,26.321409,54.687496
-0.320313,0.213379,0.428467,-60.44006,-79.948425,-55.01556,0.245605,0.117676,0.537598,-90.492241,23.582457,51.48315
-0.345215,0.210449,0.452393,-57.975765,-82.290642,-49.682613,0.248535,0.078857,0.543945,-85.975639,20.935057,47.508236
-0.383545,0.202637,0.45752,-54.817196,-79.879761,-44.837948,0.256348,0.054932,0.559082,-81.085197,19.172668,43.334957
-0.311279,0.216064,0.354736,-70.526123,-64.52179,-64.361572,0.276611,-0.037598,0.623047,-57.861324,14.450072,27.923582
-0.420654,0.176514,0.464355,-45.425411,-62.316891,-36.170959,0.278076,-0.000488,0.585449,-71.876526,16.357422,36.499023
-0.426758,0.168213,0.484375,-41.137691,-48.84338,-31.005857,0.293213,-0.017822,0.603516,-66.947937,14.869689,33.027649
-0.425049,0.171387,0.499023,-37.132263,-33.561707,-25.459288,0.291748,-0.02832,0.619873,-62.599178,14.556884,29.991148
-0.406738,0.190674,0.450684,-50.529476,-73.112488,-40.702816,0.261963,0.024658,0.57251,-76.652527,18.051147,39.978027
-0.278564,0.649414,0.666748,15.777587,62.45422,16.860962,0.282471,0.192627,0.537109,-97.236626,28.602598,56.510921
-0.465332,0.862549,0.63623,27.214048,34.637451,37.254333,0.313721,0.441895,0.5,-89.851372,74.401855,64.842224
-0.45459,0.818848,0.640869,23.986814,38.520813,34.851074,0.313721,0.271729,0.531494,-101.71508,30.776976,59.204098
-0.437744,0.766602,0.646973,21.423338,45.623775,32.867432,0.313965,0.30127,0.50708,-102.767937,31.974791,60.760494
-0.386475,0.727783,0.634521,18.791199,53.840633,31.005857,0.303223,0.321045,0.481201,-103.843681,35.057068,61.653133
-0.316406,0.705811,0.621582,16.799927,62.309261,28.526304,0.28833,0.3479,0.465576,-105.155937,40.618893,61.706539
-0.26416,0.693604,0.61377,15.480041,69.229126,25.352476,0.273682,0.387207,0.46582,-105.583183,47.927853,61.882015
-0.489746,0.889404,0.642578,31.089781,34.797668,39.253235,0.273682,0.429199,0.490479,-104.545586,55.259701,61.965939
-0.253906,0.685791,0.622314,14.945983,72.45636,22.087095,0.278564,0.464844,0.509521,-101.72271,62.240597,62.133785
-0.268311,0.670166,0.645264,15.151977,70.251465,19.371033,0.284912,0.486084,0.510742,-97.526543,67.649841,63.392635
-0.27124,0.62915,0.682129,16.395569,50.262447,14.419555,0.294922,0.479736,0.510254,-93.811028,71.19751,65.284729
-0.210449,0.671875,0.60083,27.481077,-4.66156,5.470275,0.318115,0.456543,0.510986,-91.232292,73.295593,65.315247
-0.244629,0.641602,0.70459,20.38574,23.864744,11.505126,0.276123,-0.045898,0.617676,-51.61285,14.10675,25.764463
-0.229248,0.669678,0.686035,23.567198,12.519835,10.06317,0.299316,0.232422,0.540039,-99.807732,30.075071,57.762142
-0.21875,0.686279,0.63916,26.115416,2.944946,8.110046,0.294434,-0.053955,0.628174,-45.928951,14.587401,22.476194
-0.200928,0.624756,0.596191,29.258726,-10.353087,3.761291,0.181641,-0.062256,0.852539,-2.235413,-0.526428,8.94928
-0.20874,0.582031,0.61499,32.585144,-14.671325,4.753113,0.282227,-0.094238,0.658936,-36.750793,23.391722,17.456055
-0.214355,0.552002,0.63623,37.04071,-18.814087,7.705688,0.29834,0.456055,0.503418,-88.943474,73.928833,65.567017
-0.206055,0.510254,0.649658,41.503902,-23.193357,10.253905,0.221436,-0.034424,0.905029,8.68988,-10.795592,-2.14386
-0.195313,0.476318,0.669922,46.211239,-26.55792,12.184142,0.21875,-0.034668,0.916016,7.659912,-7.369995,-2.311707
-0.203613,0.473877,0.666504,51.155087,-27.175901,14.755248,0.205322,-0.024902,0.928467,7.354736,-2.250671,-2.777099
-0.518311,0.910889,0.649658,33.813477,39.474487,40.390011,0.182861,-0.01709,0.932861,7.93457,3.684997,-2.311707
-0.261475,0.626953,0.700439,17.707825,36.514282,12.550353,0.190674,-0.016602,0.926025,8.407593,8.491516,-2.433777
-0.551025,0.937256,0.628418,35.499573,48.71368,41.069027,0.20874,-0.018555,0.918945,8.392334,11.45172,-2.540588
-0.223389,0.506592,0.635498,54.779049,-25.245665,17.631531,0.211182,-0.019043,0.911377,8.132935,11.573791,-1.602173
-0.633545,1.005859,0.599854,38.879395,70.487976,39.550781,0.218262,-0.030762,0.9021,7.347106,9.040833,-0.389099
-0.7146,1.308838,0.895264,22.735594,49.957272,-12.672423,0.212891,-0.04248,0.881836,6.225585,5.256652,1.800537
-0.729492,1.317871,0.912109,24.536131,53.184505,-17.021179,0.299805,-0.071045,0.642822,-41.572567,17.89856,19.729614
-0.753418,1.338379,0.907715,27.885435,54.412838,-20.736692,0.192627,-0.05542,0.865234,4.638672,1.976013,4.394531
-0.774414,1.370605,0.896484,33.531189,54.38232,-22.796629,0.196533,-0.063721,0.851807,-0.213623,-2.296448,7.17163
-0.787842,1.406006,0.883545,41.023251,54.092403,-24.345396,0.19043,-0.060059,0.861816,-3.684997,3.494262,8.743286
-0.805664,1.443115,0.858643,48.019405,55.27496,-25.55084,0.195068,-0.057373,0.873047,-5.027771,9.902954,7.843017
-0.826416,1.460938,0.845703,54.420467,57.929989,-24.444578,0.168701,-0.052246,0.883301,-6.629943,18.882751,6.904602
-0.839111,1.476563,0.844971,60.760494,59.494015,-21.064756,0.15918,-0.042236,0.875732,-8.010864,29.121397,5.126953
-0.844727,1.497559,0.85498,66.688538,57.090755,-16.357422,0.161133,-0.044434,0.84668,-9.895325,38.238525,3.730774
-0.822266,1.526123,0.861816,71.235657,50.651546,-11.215209,0.175537,-0.060303,0.816406,-13.404845,43.479916,3.250122
-0.601807,0.966553,0.621094,37.155151,60.18829,41.015621,0.202148,-0.080322,0.779541,-17.967224,42.778011,4.951477
-0.786133,1.553223,0.843994,72.929382,43.762203,-5.317688,0.216797,-0.095459,0.728516,-23.483274,37.788391,9.620667
-0.720215,1.527344,0.804688,67.565918,44.670101,6.187438,0.24707,-0.101563,0.687012,-30.021666,30.616758,14.22882
-0.730713,1.446289,0.76001,61.485287,51.063534,9.117126,0.19458,-0.061035,0.846436,2.456665,-0.968933,5.744934
-0.729736,1.337402,0.706543,55.786129,56.915279,12.115478,0.3125,0.487549,0.518555,-87.066643,70.983887,66.314697
-0.718262,1.240723,0.666748,51.818844,61.073299,15.724181,0.244385,-0.032715,0.89502,9.658813,-12.367248,-3.120422
-0.695068,1.179443,0.647949,49.964901,63.171383,19.767761,0.36084,0.520508,0.468506,-83.57238,59.494015,67.253113
-0.681396,1.153564,0.618164,48.919674,65.719604,24.16992,0.516602,0.851318,0.752686,-26.649473,25.375364,14.450072
-0.681641,1.141602,0.591797,47.630306,70.06073,28.320311,0.533203,0.874268,0.776611,-24.665831,22.750853,13.671874
-0.683838,1.123535,0.590576,45.837399,75.256348,32.13501,0.564941,0.896484,0.798828,-22.857664,19.706726,13.122558
-0.67041,1.092773,0.581299,43.388363,78.422546,35.232544,0.599854,0.925049,0.822754,-20.744322,16.921997,11.924743
-0.648438,1.052734,0.579834,40.893551,77.163696,37.513733,0.611572,0.960205,0.859619,-17.76123,15.998839,9.712219
-0.749756,1.558105,0.828369,71.640015,41.41235,1.403808,0.601074,0.991943,0.89624,-12.992858,17.379761,7.919311
-0.228271,0.523193,0.613281,58.280941,-23.483274,19.096375,0.589844,1.010986,0.918457,-7.522583,20.378111,5.653381
-0.242432,0.515869,0.577393,60.867306,-21.850584,19.218445,0.594971,1.022705,0.927734,-2.182007,23.773191,2.906799
-0.253418,0.485107,0.547607,61.866756,-20.1416,19.355774,0.630859,1.030518,0.925537,2.441406,23.704527,0.366211
-0.391846,0.34082,0.763184,35.65979,13.298034,16.151428,0.743408,1.036865,0.891113,6.729125,5.653381,-3.89862
-0.389648,0.336426,0.775635,34.118652,13.328551,15.251159,0.506592,0.842041,0.733887,-28.70178,27.473448,16.517639
-0.382813,0.330566,0.786865,32.577515,13.404845,14.305114,0.757324,1.05249,0.874268,7.850646,-8.979797,-5.599975
-0.37793,0.325928,0.787109,31.22711,13.809203,13.488769,0.628662,1.043457,0.874268,11.138915,-28.518675,-6.17218
-0.373291,0.322021,0.787598,29.58679,14.312743,12.641906,0.55249,1.026855,0.891113,13.389586,-28.038023,-5.119323
-0.367188,0.316895,0.789551,27.732847,14.396667,11.886596,0.53418,1.014404,0.928467,15.792846,-23.124693,-4.745483
-0.365723,0.312988,0.797607,26.290892,14.091491,11.146544,0.57666,1.022949,0.9729,17.814636,-16.540527,-5.928039
-0.368164,0.303955,0.810059,25.413511,13.641356,10.711669,0.608887,1.043457,1.015137,21.179197,-8.934021,-7.5531
-0.371582,0.295166,0.827881,24.80316,12.535094,10.246276,0.621826,1.063477,1.039551,25.665281,-1.625061,-8.857727
-0.371826,0.29541,0.840576,24.681089,10.559081,9.468079,0.64502,1.080078,1.049561,29.777525,3.067016,-9.803772
-0.389893,0.34668,0.749756,37.368774,13.534545,17.166138,0.671875,1.090088,1.048584,32.981873,3.158569,-9.95636
-0.382813,0.29541,0.850586,24.765013,8.605957,8.720398,0.684082,1.088379,1.045898,35.484314,-0.076294,-10.391234
-0.386475,0.291504,0.853027,25.032042,5.241394,7.598876,0.336914,0.512695,0.506592,-84.922783,65.811157,66.688538
-0.386719,0.28833,0.851807,24.772642,3.52478,7.141113,0.711182,1.059814,0.874023,9.796143,-21.911619,-6.401062
-0.386963,0.278809,0.845703,24.29962,2.220154,6.851196,0.49585,0.836182,0.710449,-30.891417,29.296873,18.081665
-0.383057,0.270264,0.832275,23.506163,1.579285,6.431579,0.687744,1.032959,0.915039,5.546569,17.547607,-1.701355
-0.382568,0.264893,0.824707,22.247313,1.029968,5.958557,0.488037,0.805664,0.666748,-35.301208,30.014036,21.369932
-0.392578,0.265381,0.825684,20.980833,0.328064,5.805969,0.48999,0.825684,0.685791,-33.218384,30.265806,19.294739
-0.399414,0.26416,0.830566,19.615173,-0.38147,5.874633,0.403564,0.502441,0.438477,-83.312981,47.775265,66.123962
-0.393311,0.261963,0.83667,18.203735,-1.243591,5.577087,0.409668,0.47583,0.450928,-84.32769,43.632504,63.644405
-0.396973,0.262207,0.847412,16.891479,-1.953125,4.78363,0.395264,0.46582,0.484375,-85.395805,41.41235,60.264584
-0.409912,0.261475,0.85083,15.624999,-2.555847,3.959656,0.373291,0.472412,0.532959,-85.105888,40.687557,57.044979
-0.391602,0.29248,0.85376,24.940489,7.026672,8.026123,0.349365,0.487549,0.572998,-83.290092,40.077209,54.954525
-0.390137,0.35376,0.740967,39.138794,13.656615,18.135071,0.327148,0.510498,0.595703,-80.154419,39.382935,53.901669
-0.417236,0.255371,0.859375,14.389037,-3.089905,3.601074,0.317871,0.528809,0.595947,-77.102661,38.658142,52.818295
-0.381104,0.375488,0.715088,42.091366,13.09204,19.447327,0.323242,0.544434,0.574707,-74.539185,37.29248,52.597042
-0.261475,0.448242,0.545166,62.362667,-18.890381,20.439146,0.335205,0.558105,0.572998,-71.601868,35.400391,52.055355
-0.26001,0.431885,0.560059,63.072201,-17.745972,22.048948,0.360107,0.556885,0.580811,-68.885803,33.02002,51.010128
-0.255859,0.424805,0.582031,64.682007,-16.403198,23.345945,0.383301,0.520508,0.44458,-83.076469,53.283688,67.367554
-0.259521,0.424805,0.599854,66.459656,-14.60266,24.29199,0.38501,0.550537,0.556885,-66.53595,28.236387,48.927303
-0.262207,0.43457,0.606445,67.520142,-12.275695,24.597166,0.372803,0.552246,0.563721,-67.306519,30.570982,49.919125
-0.278564,0.445557,0.608643,67.985535,-8.621216,24.528502,0.466309,0.764404,0.653564,-39.497375,28.556822,27.511595
-0.38501,0.36792,0.726318,40.512081,13.450622,18.760681,0.432861,0.750977,0.662354,-42.091366,27.473448,31.044004
-0.307617,0.455566,0.593506,66.940308,0.190735,25.001524,0.417236,0.730957,0.65332,-46.173092,26.367186,33.744812
-0.306152,0.443115,0.588867,65.185547,2.441406,24.490355,0.405029,0.707275,0.642822,-50.788876,25.505064,36.437988
-0.321777,0.430908,0.585693,62.95776,3.570556,24.375914,0.486328,0.781006,0.647461,-37.55188,29.220579,24.147032
-0.330322,0.425049,0.598633,61.370846,3.65448,25.077818,0.409424,0.629395,0.598877,-60.111996,23.010252,41.435238
-0.30127,0.457275,0.60083,67.932129,-3.791809,24.833677,0.429443,0.587891,0.587891,-63.598629,23.490904,44.067379
-0.351807,0.432861,0.621826,59.524532,3.410339,26.130674,0.414795,0.561279,0.575195,-65.460205,25.741575,46.997066
-0.353271,0.436035,0.62915,58.235165,3.295898,26.100157,0.397705,0.672607,0.619873,-55.435177,24.230955,39.237976
-0.352051,0.440918,0.638916,56.640621,3.585815,25.611876,0.250244,0.311279,0.683105,55.488583,-22.117613,-33.126831
-0.356445,0.443604,0.640625,54.832455,4.592896,24.368284,0.272949,0.405273,0.598633,59.013363,-31.85272,-32.165527
-0.366943,0.437744,0.638672,53.009029,6.217956,22.964476,0.275635,0.395508,0.576172,61.256405,-30.670164,-35.461426
-0.379883,0.427734,0.641602,50.811764,8.232117,21.720884,0.255127,0.38208,0.55835,61.82098,-27.961729,-37.200928
-0.387207,0.412842,0.6521,48.767086,10.19287,21.072386,0.233154,0.371826,0.561523,61.43951,-24.963377,-36.766052
-0.386475,0.398438,0.669434,46.852108,11.528014,20.523069,0.248047,0.363037,0.581543,59.387203,-24.055479,-35.964966
-0.382813,0.387207,0.684814,45.135494,12.367248,20.195005,0.273682,0.352051,0.62207,56.381222,-24.696348,-35.240173
-0.381104,0.379883,0.700439,43.586727,12.832641,19.950867,0.261475,0.406006,0.606201,56.426998,-31.73065,-29.647825
-0.3396,0.428711,0.615234,60.371395,3.440857,25.764463,0.26001,0.341553,0.652344,54.824825,-24.612425,-34.194946
-0.376465,0.150635,0.5979,-125.648491,-39.611816,-79.864502,0.248047,0.328613,0.678467,54.901119,-23.399351,-33.569336
-0.33252,0.116455,0.614014,-121.101372,-30.372618,-77.438354,0.256348,0.300537,0.689453,56.495663,-21.118162,-32.859802
-0.280762,0.101318,0.604248,-116.355888,-26.855467,-74.325562,0.290039,0.256104,0.746582,53.222652,-30.456541,-28.060911
-0.223145,0.083252,0.58667,-110.267632,-25.848387,-69.114685,0.261963,0.283447,0.697754,56.388851,-21.354673,-32.409668
-0.22168,-0.113037,0.665283,-78.971863,-33.851624,-53.680416,0.267334,0.280029,0.712646,55.725094,-23.353575,-30.96771
-0.268066,0.008789,0.597656,-95.649712,-30.204771,-61.996456,0.277832,0.268555,0.730713,54.725643,-26.824949,-29.052732
-0.259521,-0.034424,0.626221,-88.943474,-35.308838,-59.959408,0.27832,0.250244,0.750488,51.62048,-31.616209,-28.07617
-0.248291,-0.079102,0.657959,-84.121696,-37.483215,-56.747433,0.242676,0.250488,0.749756,50.47607,-29.106138,-27.793882
-0.255371,0.039795,0.600098,-102.72979,-25.878904,-63.774105,0.219727,0.249268,0.760254,49.949642,-24.864195,-26.718138
-0.44165,0.204102,0.586426,-130.470276,-52.818295,-80.635063,0.234863,0.241943,0.787842,48.912045,-21.026609,-25.856016
-0.486328,0.418457,0.640381,-133.995056,-88.890068,-94.261162,0.26416,0.237549,0.809814,47.767635,-18.699646,-25.382994
-0.507324,0.303955,0.642334,-134.338379,-78.437805,-80.54351,0.280273,0.228516,0.821045,46.501156,-17.723083,-25.032042
-0.519775,0.351074,0.643799,-134.613037,-88.027946,-81.451408,0.254639,0.392334,0.611572,54.222103,-30.273436,-28.350828
-0.527344,0.376465,0.635986,-135.375977,-94.932549,-82.405083,0.256836,0.291504,0.693604,56.938168,-20.568846,-32.76062
-0.528809,0.393799,0.616699,-136.283875,-98.968498,-83.473198,0.24585,0.371094,0.594482,53.550716,-27.19879,-26.756285
-0.519775,0.420654,0.59375,-137.069702,-100.822441,-85.693352,0.36499,0.696045,0.633301,31.249998,-22.171019,-37.54425
-0.530029,0.453369,0.595703,-137.306213,-101.08947,-88.195793,0.18457,0.338623,0.571289,55.381771,-19.40155,-22.186277
-0.546387,0.473877,0.61792,-137.168884,-99.739067,-90.293877,0.270508,0.215576,0.816162,45.043941,-16.929626,-24.101255
-0.536865,0.481689,0.625732,-136.756897,-98.213188,-92.697136,0.352539,0.690186,0.649414,30.166624,-27.6947,-35.53772
-0.526367,0.470703,0.632568,-135.879517,-96.084587,-94.200127,0.296631,0.669434,0.65625,31.410215,-31.265257,-32.997131
-0.516113,0.442627,0.643066,-134.857178,-92.796318,-94.551079,0.22168,0.628906,0.64502,33.569336,-30.555723,-30.670164
-0.185303,-0.159424,0.683838,-72.120667,-26.641844,-50.178524,0.160645,0.580322,0.632568,35.720825,-24.116514,-29.441832
-0.495361,0.25708,0.611816,-133.81958,-66.055298,-80.116272,0.131104,0.555664,0.626221,38.261414,-14.343261,-29.518126
-0.14917,-0.206787,0.7229,-66.009521,-19.485474,-45.379635,0.149658,0.550781,0.62207,40.359493,-4.798889,-30.3421
-0.254883,-0.267822,0.920166,1.930237,-30.830381,14.427184,0.205078,0.578613,0.633789,42.572018,1.869202,-31.257627
-0.109863,-0.248047,0.762451,-57.632442,-14.266967,-33.798218,0.270508,0.608887,0.645508,44.593807,3.715515,-31.120298
-0.462646,0.405029,0.633301,-132.743835,-84.19799,-93.460075,0.330566,0.615479,0.640137,45.249935,-0.762939,-30.227659
-0.321533,-0.206787,0.952881,18.547058,1.12915,4.920959,0.359375,0.605957,0.634521,45.455929,-10.543822,-30.082701
-0.336914,-0.221924,0.952148,17.654419,-2.449036,4.928589,0.303223,0.595215,0.634766,47.637936,-19.622803,-29.45709
-0.355469,-0.22583,0.918945,17.601013,-6.782531,5.15747,0.170166,0.550781,0.596436,50.888058,-21.095274,-27.038572
-0.370361,-0.222168,0.889648,17.028809,-9.849548,7.331848,0.057617,0.489258,0.533203,52.940365,-12.954711,-24.459837
-0.362305,-0.209717,0.873779,16.143799,-11.322021,11.20758,0.032715,0.438232,0.508789,54.313656,0.061035,-23.91815
-0.346436,-0.185547,0.877441,13.015746,-11.146544,14.450072,0.093994,0.419434,0.537598,54.702755,11.764525,-25.138853
-0.360352,-0.172119,0.89624,9.689331,-8.110046,16.38031,0.163086,0.443115,0.554199,55.343624,17.372131,-25.688169
-0.399902,-0.167969,0.92627,8.392334,-3.196716,17.608643,0.22583,0.469238,0.564941,56.373592,15.945434,-24.742125
-0.419922,-0.172363,0.962158,7.957458,-0.259399,18.989563,0.283447,0.472168,0.578369,57.586666,8.399963,-24.353025
-0.125244,-0.234863,0.752441,-61.325069,-15.182494,-39.69574,0.288086,0.446533,0.587158,58.631893,-1.083374,-24.29199
-0.405029,-0.186035,0.98999,7.820129,-4.142761,20.423887,0.223633,0.411133,0.573486,59.135433,-8.071899,-22.994993
-0.294922,-0.215332,0.95166,4.470825,-27.275084,15.960692,0.163818,0.370361,0.553711,58.837887,-12.573241,-21.484373
-0.160156,-0.303467,0.837891,-0.610352,-30.960081,10.528563,0.161865,0.342773,0.549316,57.151791,-16.25061,-21.263121
-0.127686,-0.313477,0.728271,-3.166198,-27.6947,4.79126,0.213867,0.348145,0.574707,54.298397,-23.147581,-24.177549
-0.137939,-0.312012,0.654053,-7.453918,-20.973204,-0.076294,0.248535,0.210449,0.81543,43.663021,-15.556334,-22.40753
-0.140869,-0.30127,0.633789,-14.160155,-13.900756,-3.799438,0.226074,0.199463,0.815674,42.045589,-13.381957,-20.072937
-0.138916,-0.279297,0.623291,-22.369383,-10.757445,-7.263183,0.223389,0.191895,0.815186,40.672298,-11.116027,-17.959595
-0.143799,-0.27002,0.646729,-29.800413,-12.329101,-11.627196,0.276123,0.060547,0.936768,23.468016,-9.674072,-5.554199
-0.141602,-0.252686,0.665283,-37.162781,-14.968871,-16.990662,0.268311,0.067383,0.944824,23.239134,-10.276793,-4.951477
-0.125488,-0.237061,0.709229,-46.005245,-16.220093,-22.857664,0.260742,0.066895,0.947266,22.987364,-10.124206,-3.913879
-0.125244,-0.244385,0.762207,-53.314205,-14.915465,-28.099058,0.267822,0.064941,0.945557,23.109434,-10.009766,-3.486633
-0.345459,-0.193848,0.98584,7.080078,-15.99121,18.951416,0.278076,0.056641,0.939453,23.056028,-10.116576,-3.593445
-0.45459,0.408447,0.626709,-130.66864,-79.360962,-92.491142,0.27417,0.05542,0.936279,22.697447,-9.811401,-3.692627
-0.447021,0.424805,0.606934,-127.944939,-74.790955,-91.415398,0.279053,0.052979,0.938477,22.331236,-9.414673,-4.15802
-0.446289,0.440918,0.579834,-125.137321,-70.152283,-89.988701,0.286865,0.045898,0.943115,22.178648,-9.674072,-4.699707
-0.525879,0.954346,0.617188,-41.198727,-5.210876,-10.276793,0.28418,0.040283,0.942139,21.965025,-9.811401,-4.920959
-0.523193,0.980225,0.631104,-38.246155,-4.356384,-7.43103,0.271973,0.0354,0.939209,21.667479,-9.170532,-4.890442
-0.517822,1.011475,0.643311,-34.706116,-3.723144,-4.760742,0.267822,0.052002,0.937744,23.971556,-8.399963,-6.065368
-0.525391,1.049316,0.644775,-31.410215,-3.204345,-2.510071,0.262207,0.034424,0.936768,21.720884,-7.865905,-4.722595
-0.542725,1.091309,0.641846,-28.663633,-2.63977,-0.343323,0.266602,0.026855,0.919678,21.972654,-5.905151,-4.104614
-0.549316,1.124512,0.643066,-26.252745,-2.63977,1.350403,0.266602,0.016113,0.910889,21.697996,-5.119323,-3.936767
-0.557373,1.148193,0.653076,-24.276731,-3.326416,2.433777,0.274414,-0.001465,0.894775,21.286009,-4.241943,-4.486084
-0.571289,1.161621,0.668457,-22.048948,-4.676819,3.135681,0.256836,-0.01001,0.895752,20.39337,-2.662658,-4.669189
-0.58667,1.168701,0.681885,-19.485474,-6.225585,4.341125,0.246094,-0.005127,0.915283,19.668579,-1.083374,-4.40979
-0.591797,1.17334,0.695068,-16.677856,-8.178711,5.355834,0.27002,-0.013672,0.926514,18.669128,-1.045227,-4.936218
-0.530273,0.934082,0.610596,-44.250484,-5.622863,-12.847899,0.282471,-0.021484,0.932861,17.669678,-1.953125,-5.554199
-0.600342,1.178467,0.703125,-12.733459,-10.482787,6.17218,0.280273,-0.029541,0.920898,16.540527,-3.669739,-5.821228
-0.622803,1.177734,0.693359,-4.600525,-16.624451,6.744384,0.274658,-0.033447,0.899902,14.85443,-6.179809,-5.699157
-0.628662,1.167969,0.704102,-0.900268,-18.882751,6.523132,0.272217,-0.030518,0.888916,12.924193,-9.109497,-5.012512
-0.637695,1.162842,0.723633,3.013611,-18.806458,6.500244,0.266846,0.030518,0.926514,22.079466,-6.881713,-4.470825
-0.634033,1.169922,0.744629,6.91986,-16.670227,6.744384,0.266113,0.04834,0.941406,24.337767,-6.553649,-7.034301
-0.624268,1.190674,0.756836,10.543822,-12.908935,6.149292,0.26709,-0.033936,0.883057,11.085509,-11.695861,-4.02832
-0.622559,1.219482,0.779297,13.488769,-6.874084,4.699707,0.281494,0.076904,0.954834,25.543211,-3.768921,-8.605957
-0.63623,1.24292,0.804443,16.441345,1.976013,2.731323,0.231445,0.174561,0.81665,39.260864,-9.57489,-16.326904
-0.642578,1.262695,0.823486,19.309998,12.657165,0.160217,0.24707,0.15625,0.817139,37.117004,-8.529663,-15.449523
-0.655518,1.286865,0.830078,20.469664,24.780272,-2.525329,0.256592,0.152588,0.841309,35.011292,-7.93457,-14.85443
-0.672607,1.300537,0.853027,21.095274,35.766602,-5.142211,0.255859,0.154053,0.866943,33.462524,-7.705688,-14.335631
-0.613525,1.182129,0.692871,-8.537292,-13.328551,6.744384,0.259033,0.146973,0.884277,32.50885,-7.606506,-13.633727
-0.535156,0.918213,0.612061,-47.790524,-6.057739,-15.274047,0.250488,0.138916,0.887939,31.524656,-7.362365,-12.71057
-0.69043,1.306152,0.878174,21.888731,44.113155,-8.628845,0.283203,0.056885,0.952637,25.05493,-4.989624,-8.239746
-0.515381,0.897217,0.573486,-55.671688,-8.460999,-19.927979,0.246582,0.136475,0.908936,29.853819,-5.622863,-11.611938
-0.447754,0.451416,0.55542,-122.726433,-65.383911,-87.776176,0.244629,0.140625,0.911621,29.495237,-4.318237,-11.169433
-0.443359,0.454834,0.544434,-120.353691,-60.951229,-85.311882,0.249023,0.137207,0.911133,29.617308,-3.242492,-10.421752
-0.426758,0.460205,0.551758,-118.064873,-57.945248,-83.663933,0.268311,0.129883,0.914307,29.533384,-2.426147,-10.505675
-0.434814,0.466309,0.575928,-115.753166,-55.244442,-82.710258,0.245361,0.135498,0.895996,30.578611,-6.713867,-11.993407
-0.458008,0.469727,0.598145,-113.227837,-52.299496,-81.031792,0.273682,0.115967,0.938477,27.793882,-1.373291,-10.780334
-0.474854,0.469727,0.626953,-109.985344,-49.011227,-79.025269,0.276367,0.118164,0.948242,27.641294,-1.907349,-10.169982
-0.528564,0.909424,0.598633,-51.963802,-7.041931,-17.631531,0.291016,0.117676,0.955322,27.70233,-2.975464,-10.169982
-0.489746,0.482666,0.642334,-101.264946,-42.404171,-74.943542,0.292236,0.111572,0.955322,27.458189,-3.967285,-10.581969
-0.487549,0.522705,0.612793,-97.137444,-38.253784,-72.021484,0.282471,0.099121,0.949707,26.908873,-4.684448,-10.871886
-0.486084,0.572266,0.582764,-93.879692,-33.805847,-69.259644,0.272949,0.083984,0.942383,26.275633,-5.40924,-10.223388
-0.490479,0.611084,0.574219,-89.454643,-30.6015,-66.856384,0.270508,0.075684,0.930664,25.978086,-6.240844,-9.643555
-0.48291,0.468018,0.648682,-105.926506,-45.82214,-77.23999,0.273926,0.075195,0.923828,25.444029,-5.752563,-9.513855
-0.515869,0.674072,0.508789,-82.107536,-27.122496,-60.157772,0.272705,0.080566,0.927246,24.856565,-4.341125,-9.20105
-0.523438,0.692627,0.481445,-79.963684,-27.282713,-55.961605,0.275391,0.085693,0.94458,24.993895,-3.372192,-8.720398
-0.522705,0.712158,0.466553,-78.330994,-28.32794,-51.811214,0.282471,0.11792,0.925537,28.663633,-1.853943,-11.146544
-0.523682,0.730469,0.467285,-76.774597,-28.556822,-47.294613,0.315674,0.972168,0.666992,-26.847837,3.189087,14.152526
-0.521973,0.757813,0.495117,-74.867249,-27.183531,-42.060848,0.381104,0.935059,0.695313,-29.495237,-0.488281,13.389586
-0.520508,0.782959,0.535889,-72.250366,-23.994444,-36.92627,0.430908,0.906006,0.714355,-31.723021,1.708984,14.633178
-0.510986,0.807373,0.560059,-68.580627,-19.882202,-32.592773,0.431396,0.888916,0.723633,-32.844543,7.835388,16.525269
-0.509766,0.830078,0.566162,-64.537048,-15.800475,-28.564451,0.405029,0.799316,0.713135,-42.648312,21.865843,21.835325
-0.50708,0.854492,0.562744,-61.042782,-12.428283,-24.894712,0.407959,0.85791,0.709717,-36.026001,18.966675,17.242432
-0.505371,0.87915,0.557617,-58.41827,-10.0708,-22.178648,0.405518,0.838867,0.705322,-38.383484,21.324156,17.829895
-0.500244,0.647461,0.549805,-85.060112,-28.533934,-64.01062,0.407959,0.81958,0.713135,-40.618893,22.109983,19.65332
-0.33667,0.280029,0.784912,85.533134,21.347044,5.348205,0.419189,0.873291,0.72168,-33.889771,14.35852,17.38739
-0.343018,0.294434,0.793945,85.189812,22.28546,5.561828,0.315186,1.013672,0.656982,-24.444578,10.795592,14.144897
-0.3479,0.307129,0.809326,84.022514,22.171019,6.477355,0.469727,1.161133,0.7229,-13.771056,14.450072,8.148193
-0.351074,0.319824,0.843506,81.863396,20.820616,7.011413,0.438965,1.086914,0.69165,-21.560667,23.086546,11.70349
-0.342773,0.332275,0.745361,67.810059,19.233704,2.02179,0.471191,1.098877,0.702148,-21.125792,23.391722,10.963439
-0.359619,0.341797,0.833008,73.974609,17.669678,6.690979,0.485596,1.099365,0.705322,-20.217894,20.797728,10.108947
-0.320313,0.346924,0.790527,70.991516,17.63916,6.019592,0.485596,1.099609,0.703369,-19.744873,16.441345,9.841919
-0.326172,0.338867,0.761475,69.465637,18.692017,4.890442,0.481201,1.115234,0.695068,-19.477844,10.353087,10.177611
-0.366699,0.330078,0.863037,78.201294,18.959045,7.102966,0.486084,1.138184,0.677979,-18.951416,3.074646,10.032654
-0.322998,0.270996,0.767334,83.923332,19.577026,5.760192,0.469482,1.148193,0.660889,-18.39447,-2.716064,9.513855
-0.338623,0.101074,0.824463,59.028622,7.751464,8.621216,0.400391,1.153809,0.635498,-17.745972,-2.944946,10.513305
-0.33667,0.259033,0.773438,76.927185,13.839721,7.4234,0.363281,1.152588,0.637695,-16.838074,2.555847,11.665343
-0.343994,0.238037,0.785889,74.714661,10.238647,9.513855,0.407959,1.154297,0.675537,-15.296935,9.788513,10.604857
-0.333008,0.23291,0.799561,73.524475,6.935119,10.711669,0.373291,0.770264,0.680176,-44.227596,20.500181,23.612974
-0.358887,0.242188,0.834717,71.70105,7.133483,10.894774,0.382568,1.05835,0.672607,-22.590635,18.882751,12.84027
-0.373535,0.243652,0.899414,68.878174,10.658263,11.589049,0.309814,0.741211,0.650635,-45.341488,17.776489,24.963377
-0.352539,0.211426,0.936523,67.611694,14.305114,11.215209,0.367432,0.607422,0.692139,-70.541382,26.832579,41.076656
-0.318115,0.17041,0.905029,68.328857,17.14325,8.911133,0.319824,0.696289,0.634766,-48.393246,13.71765,24.726866
-0.329346,0.144531,0.823486,68.603516,19.622803,8.071899,0.491455,1.176025,0.747559,-11.95526,15.647887,6.011962
-0.309082,0.132813,0.80835,65.254211,17.425537,8.102417,0.301758,0.53125,0.454102,-112.083427,56.884762,112.449638
-0.308838,0.115967,0.828125,61.576839,12.626647,7.843017,0.326904,0.512451,0.46582,-113.998405,53.276058,108.169548
-0.31665,0.334229,0.748535,65.498352,18.39447,-0.053406,0.337402,0.51709,0.476318,-115.936272,48.545834,104.278557
-0.328369,0.269531,0.757813,80.406181,17.356873,6.401062,0.344238,0.555908,0.486572,-116.615288,44.387814,100.845329
-0.303955,0.351074,0.732666,63.285824,16.830444,0.274658,0.351807,0.611084,0.498779,-115.509026,41.992184,96.221916
-0.22998,0.485352,0.703369,55.725094,-11.474608,9.727478,0.385986,0.665771,0.530518,-111.938469,41.046139,89.508049
-0.270752,0.375244,0.694336,61.134335,8.979797,1.594543,0.424805,0.703125,0.598145,-105.491631,40.90118,81.268303
-0.333496,0.09375,0.845703,57.350155,3.913879,8.506775,0.461426,0.712158,0.670166,-96.687309,40.534969,72.685242
-0.30835,0.589844,0.579346,28.053282,29.235838,16.151428,0.479004,0.688965,0.718994,-87.8601,38.116455,64.26239
-0.318359,0.59668,0.669922,24.536131,19.226074,16.159058,0.286621,0.719238,0.638428,-46.684261,14.762877,25.581358
-0.3396,0.559326,0.781006,25.779722,11.466979,16.433716,0.479736,0.653076,0.722412,-80.604546,33.531189,56.350704
-0.340576,0.527832,0.803955,29.014585,5.706787,17.066956,0.419434,0.606689,0.689941,-73.440552,25.833128,43.922421
-0.352539,0.510254,0.840088,33.13446,1.548767,18.554688,0.354736,0.612305,0.695068,-67.298889,29.640196,39.18457
-0.353516,0.500244,0.855713,38.009644,-2.418518,19.737244,0.374512,0.609619,0.689941,-64.781189,31.661985,37.406921
-0.348633,0.501465,0.819336,41.923519,-8.979797,19.15741,0.390381,0.60376,0.674072,-63.4613,33.39386,35.28595
-0.35791,0.508545,0.771973,45.677181,-16.990662,17.745972,0.394043,0.609863,0.670166,-61.988827,34.942627,33.073425
-0.324951,0.512207,0.710693,48.332211,-21.827696,14.915465,0.389404,0.622803,0.674805,-58.769222,35.949707,31.181334
-0.290527,0.367188,0.714844,62.019344,13.389586,0.709534,0.382568,0.628174,0.680908,-55.976864,34.545898,29.70886
-0.241943,0.518555,0.730713,50.895687,-21.873472,11.360168,0.388184,0.63916,0.671143,-53.855892,29.808043,28.465269
-0.242432,0.510742,0.758545,56.190487,-13.534545,10.635375,0.394043,0.651367,0.649658,-52.49786,22.872923,26.390074
-0.218262,0.445313,0.684082,55.427547,-10.604857,9.483337,0.371094,0.671875,0.63916,-50.743099,16.540527,24.414061
-0.222412,0.431641,0.671387,55.793758,-10.871886,9.407043,0.463867,0.621826,0.699707,-76.057434,28.617857,49.057003
-0.247559,0.432129,0.665283,56.449886,-11.642455,9.536743,0.492188,1.183594,0.746582,-10.490417,13.72528,4.646301
-0.25708,0.435059,0.670166,57.044979,-12.481688,9.109497,0.260498,0.555664,0.449707,-111.67144,59.486385,115.104668
-0.253906,0.428711,0.686523,57.380672,-12.847899,7.278442,0.488281,1.190918,0.746582,-7.980346,2.624511,4.013062
-0.262939,0.412109,0.695068,57.899471,-11.07788,5.798339,0.598145,1.248535,0.771729,44.952389,-37.528992,-22.712706
-0.250977,0.396484,0.708008,58.79211,-7.720947,4.91333,0.624512,1.223389,0.736816,43.327328,-48.46191,-25.154112
-0.238037,0.380615,0.712646,60.142513,-2.868652,3.257751,0.595947,1.156738,0.695313,42.076107,-55.404659,-29.701231
-0.267822,0.376221,0.689453,60.714718,3.662109,2.372742,0.501465,1.080078,0.645996,42.236324,-56.549068,-34.011841
-0.230957,0.518555,0.779785,54.031368,-17.677307,10.429381,0.421387,1.037842,0.609131,43.067928,-53.337093,-36.865234
-0.336914,0.108398,0.867188,55.39703,4.379272,7.942199,0.39917,1.033691,0.609375,43.55621,-49.125668,-37.742615
-0.297119,0.572021,0.550293,31.723021,38.536072,15.983581,0.425293,1.022461,0.613525,42.266842,-46.157833,-37.246704
-0.29834,0.09668,0.920166,53.413387,15.258788,4.447937,0.45874,1.015137,0.648193,40.817257,-44.509884,-37.315369
-0.381836,-0.019287,1.042236,11.047362,6.004333,4.707336,0.463867,0.992432,0.664551,40.298458,-42.129513,-38.68103
-0.390869,-0.014404,1.054199,15.029906,7.186889,6.271362,0.450928,0.94751,0.646973,39.787292,-36.911011,-40.290829
-0.368164,-0.028564,1.074951,19.836426,6.530761,6.874084,0.543701,1.232178,0.799805,45.967098,-27.122496,-20.950315
-0.361084,-0.046143,1.058838,26.000975,5.523681,7.080078,0.441406,0.9021,0.626221,38.414001,-30.502317,-41.351315
-0.363037,-0.054443,1.023438,31.562803,1.365662,7.911682,0.425293,0.849365,0.626953,38.284302,-21.812437,-43.785091
-0.359375,-0.053467,0.978271,32.88269,-6.454467,9.185791,0.384277,0.81958,0.614746,38.330078,-19.760132,-42.991634
-0.356201,-0.074219,0.971436,35.064697,-14.663695,10.154723,0.354004,0.783936,0.605225,37.666321,-19.294739,-40.801998
-0.358643,-0.082031,0.956543,38.894653,-19.813538,11.497497,0.349854,0.749756,0.61792,35.91156,-20.942686,-38.726807
-0.342041,-0.062988,0.968262,40.260311,-21.789549,12.054442,0.345703,0.722168,0.652344,34.309387,-23.101805,-36.834717
-0.357178,-0.047607,0.961914,39.108276,-18.821716,13.015746,0.33374,0.701172,0.680176,34.484863,-23.04077,-36.613464
-0.367676,-0.019043,1.054688,6.340026,5.004883,4.463196,0.31958,0.669678,0.675049,35.209656,-20.622252,-37.971497
-0.345947,-0.066162,0.974609,37.940979,-12.733459,14.572143,0.324219,0.663574,0.656738,34.965515,-17.715454,-39.337158
-0.284668,-0.126953,0.927246,36.712646,1.25885,14.495849,0.337158,0.681152,0.643311,34.645081,-16.319275,-39.69574
-0.294678,-0.172607,0.860596,36.605835,7.499694,12.756347,0.355713,0.692871,0.631104,33.241272,-17.776489,-39.001465
-0.288818,-0.194336,0.762939,33.065796,10.711669,12.5885,0.441895,0.874023,0.623535,37.879944,-25.283812,-42.716976
-0.241455,-0.184814,0.723389,26.802061,7.827758,12.016295,0.461182,1.179443,0.788818,45.387264,-22.636412,-17.112732
-0.246094,-0.176514,0.806152,21.835325,3.204345,10.627746,0.492676,1.19043,0.748779,-9.284973,8.972168,3.845215
-0.284912,-0.175293,0.906982,18.951416,1.38855,9.887695,0.292236,1.096191,0.715088,43.16711,-35.28595,-7.408142
-0.303467,-0.17749,0.972412,17.631531,1.449585,9.254456,0.469482,1.180176,0.729248,-6.607055,-3.471374,4.806519
-0.319824,-0.192627,1.008545,18.409729,2.27356,8.361816,0.427979,1.165527,0.717285,-5.043029,-5.935668,5.371093
-0.31665,-0.203613,1.000244,19.767761,3.089905,7.041931,0.355713,1.154297,0.738037,-2.304077,-1.556396,6.996154
-0.307861,-0.205322,0.971191,19.844055,2.944946,5.584716,0.302246,1.131348,0.761475,0.564575,9.20105,9.048462
-0.308838,-0.089844,0.950684,37.025452,-5.28717,15.3656,0.331299,1.120605,0.802979,3.257751,21.858213,9.33075
-0.425049,-0.028076,1.048584,5.561828,7.453918,2.471924,0.387939,1.128418,0.862793,6.523132,32.302856,8.926392
-0.311768,0.109131,0.911133,53.794857,9.521484,6.645202,0.365234,1.119629,0.745605,44.258114,-26.527403,-11.795043
-0.291016,-0.054443,0.962402,10.437011,9.33075,-2.174377,0.446777,1.168213,0.864746,10.414123,31.127928,12.947082
-0.311035,0.058594,0.89624,55.435177,16.571045,2.563476,0.48584,1.166748,0.842285,10.215758,19.447327,15.579223
-0.343506,0.037598,0.821777,57.365414,12.893676,1.853943,0.504883,1.154053,0.818604,8.842468,4.676819,16.456604
-0.342285,0.038574,0.792969,56.243893,5.683898,2.685547,0.479004,1.157715,0.80249,9.429932,-8.811951,16.433716
-0.339111,0.048584,0.809326,53.344723,-1.029968,4.486084,0.415771,1.149658,0.881836,9.048462,35.850525,9.994507
-0.320313,0.046143,0.836182,51.101681,-6.29425,5.66101,0.391357,1.197998,0.748779,13.511657,-21.705626,17.044067
-0.343018,0.050049,0.874268,50.033566,-8.415222,5.020141,0.386475,1.25708,0.769775,17.990112,-19.882202,16.899109
-0.375,-0.041748,1.029297,8.552551,8.033752,-2.27356,0.400391,1.293701,0.792236,23.384092,-13.381957,15.014647
-0.355469,0.052002,0.947266,46.867367,-3.562927,4.440308,0.431152,1.320801,0.828857,27.435301,-5.66101,12.077331
-0.327637,0.03833,0.932129,46.890255,-0.343323,3.868103,0.494873,1.312744,0.846924,29.014585,-2.067566,9.124756
-0.314941,0.018555,0.898438,45.745846,2.655029,3.166198,0.587646,1.273926,0.845703,27.847288,-7.93457,5.607605
-0.31665,-0.003418,0.880127,43.907162,1.289368,2.662658,0.641602,1.234619,0.846924,27.267454,-22.171019,1.174927
-0.36792,0.058105,0.90918,47.882076,-6.401062,4.669189,0.578125,1.193359,0.837402,29.113768,-37.017822,-2.357483
-0.318848,-0.034424,0.859375,40.847775,-8.087158,1.243591,0.423096,1.155273,0.795166,33.576965,-44.082638,-3.623962
-0.316895,-0.020508,0.895752,38.032532,-6.538391,0.267029,0.297119,1.123291,0.738525,39.726257,-42.602535,-4.78363
-0.3125,-0.000977,0.96875,33.950806,1.976013,0.389099,0.425781,1.170166,0.777344,11.45935,-17.959595,16.441345
-0.258545,0.007568,0.996094,31.700132,16.151428,-2.784729,0.060303,-0.1521,0.954834,25.405882,-2.738952,-7.308959
-0.275635,-0.018066,0.956299,30.395506,32.188416,-6.637573,0.052246,-0.1521,0.94165,24.871824,-5.744934,-7.80487
-0.290771,-0.046387,0.911133,28.587339,40.794369,-7.881164,0.056885,-0.154785,0.923828,24.864195,-8.293152,-8.934021
-0.30835,-0.053223,0.814941,26.504515,41.297909,-7.080078,0.064941,-0.160645,0.902588,25.283812,-10.139464,-10.040282
-0.294922,-0.061768,0.786133,23.178099,33.699036,-7.04956,0.098145,-0.113281,0.809814,30.899046,-19.096375,-14.533996
-0.328613,-0.060547,0.792236,17.417908,25.68054,-3.890991,0.06958,-0.1521,0.857178,26.962278,-13.664245,-11.413573
-0.294189,-0.056152,0.844727,11.657714,16.731262,-0.602722,0.075928,-0.145264,0.840576,27.984617,-15.693664,-12.20703
-0.324219,-0.025879,0.869873,42.129513,-3.997802,2.441406,0.085449,-0.129883,0.821777,29.403685,-17.623901,-13.366698
-0.631592,1.049561,0.757324,-48.622128,2.655029,-8.598328,0.064697,-0.159668,0.879639,26.008604,-11.856078,-10.688781
-0.621826,1.017334,0.761963,-50.712582,4.318237,-11.093139,0.06665,-0.153809,0.963867,26.138304,0.068665,-7.247924
-0.625244,0.984131,0.765381,-53.779598,5.432128,-13.793944,0.064697,-0.176514,0.942383,17.234802,4.119873,1.38855
-0.612061,0.952148,0.760742,-57.350155,5.516052,-16.784668,0.075928,-0.159668,0.965332,25.779722,4.074097,-6.019592
-0.538086,0.768555,0.760254,-74.577332,-0.114441,-30.433653,0.082031,-0.158203,0.96875,25.260923,4.013062,-5.355834
-0.576416,0.859863,0.769043,-64.163208,4.493713,-23.185728,0.082275,-0.155029,0.967773,24.948118,2.761841,-4.257202
-0.560791,0.822021,0.767334,-67.7948,3.135681,-26.138304,0.07251,-0.156982,0.966064,24.818419,1.564026,-2.655029
-0.551025,0.793213,0.757324,-71.296692,1.434326,-28.511045,0.074219,-0.160645,0.960693,24.337767,0.289917,-1.25885
-0.593506,0.90918,0.761963,-60.722347,5.1651,-19.90509,0.097656,-0.167725,0.95752,23.216246,-1.029968,-0.869751
-0.644531,1.058594,0.769531,-46.257015,0.808716,-6.706237,0.099121,-0.175537,0.948242,22.125242,-1.052856,-0.328064
-0.602539,1.062744,0.939697,-14.991759,-3.02124,-4.455566,0.086914,-0.179443,0.942139,20.935057,0.495911,0.144958
-0.638916,1.052002,0.770996,-40.534969,-2.128601,-3.234863,0.099609,-0.183838,0.944824,19.432068,1.678467,-0.518799
-0.618896,1.056152,0.77832,-38.032532,-2.02179,-2.174377,0.094238,-0.179932,0.947998,18.15033,3.044128,-0.427246
-0.60376,1.067139,0.797607,-35.003662,-0.144958,-1.304626,0.107422,-0.095947,0.806641,32.264709,-20.347593,-15.502929
-0.59668,1.081299,0.814941,-31.692503,2.586365,-0.968933,0.067139,-0.160645,0.960693,26.100157,2.6474,-6.79779
-0.604736,1.095459,0.822021,-28.541563,5.187988,-0.50354,0.116943,-0.086426,0.799805,33.813477,-21.469114,-16.410828
-0.616211,1.10083,0.824219,-25.924681,6.607055,0.289917,0.186279,0.068848,0.709229,66.696167,-24.391172,-27.679441
-0.608398,1.092529,0.829834,-23.658751,6.462097,0.442505,0.111084,-0.079102,0.779541,37.254333,-26.039122,-17.326355
-0.598633,1.078369,0.836914,-21.926878,5.279541,-0.343323,0.058105,-0.174072,0.926514,16.052246,3.768921,4.463196
-0.596436,1.070313,0.86499,-20.019531,3.051758,-2.01416,0.222412,0.189697,0.644775,77.270508,-34.080505,-40.374752
-0.605225,1.069824,0.899902,-17.64679,0.289917,-3.387451,0.210205,0.187256,0.680176,77.758789,-30.685423,-40.557858
-0.525391,0.745117,0.759277,-78.369141,-1.38092,-31.791685,0.196533,0.171387,0.698486,78.292847,-28.549192,-39.733887
-0.649902,1.052979,0.776611,-43.251034,-0.854492,-4.753113,0.202393,0.150146,0.710449,78.147888,-27.740477,-38.375854
-0.518066,0.728271,0.754883,-82.4356,-3.028869,-32.676697,0.2146,0.134033,0.726318,77.285767,-28.388975,-36.323547
-0.48999,0.46167,0.759766,-118.644707,-40.801998,-56.068417,0.214355,0.122559,0.716553,76.835632,-30.082701,-34.248352
-0.52417,0.684814,0.74707,-89.49279,-5.401611,-35.667419,0.213623,0.107422,0.696045,76.622009,-32.043457,-33.470154
-0.588867,1.049316,0.980713,-11.795043,-6.896972,-6.393432,0.204834,0.080566,0.670166,75.775146,-33.287048,-33.378601
-0.587646,0.388428,0.63916,-173.515305,-88.562004,-90.293877,0.169922,0.06543,0.651367,74.012756,-32.371521,-32.615662
-0.56958,0.404785,0.660645,-169.898972,-93.124382,-86.807243,0.115967,-0.080078,0.791016,35.438538,-23.223875,-16.990662
-0.547852,0.420654,0.686523,-166.183456,-97.31292,-84.091179,0.133301,0.070557,0.65918,72.319031,-29.403685,-30.632017
-0.545654,0.438477,0.704102,-161.575302,-99.365227,-81.30645,0.16333,0.069824,0.698975,68.252563,-24.314878,-27.748106
-0.55957,0.456299,0.710938,-156.600952,-98.045341,-77.781677,0.194092,0.057129,0.708496,65.086365,-26.336668,-27.44293
-0.561523,0.470215,0.71582,-152.435303,-93.536369,-74.638367,0.171875,0.036865,0.702881,62.965389,-29.037474,-26.06201
-0.564941,0.485107,0.71582,-149.047852,-87.6007,-71.922302,0.1521,0.014404,0.692627,60.516354,-31.753538,-24.391172
-0.587158,0.493652,0.733154,-145.515442,-80.841057,-69.107056,0.141113,-0.013428,0.676514,56.922909,-34.057617,-22.712706
-0.616211,0.488525,0.765869,-140.464783,-73.097229,-65.834045,0.127686,-0.032715,0.672363,52.841183,-35.28595,-20.851133
-0.523438,0.710938,0.750977,-85.960381,-4.486084,-33.843994,0.124512,-0.043701,0.69043,49.011227,-35.446167,-19.546509
-0.622803,0.479004,0.780762,-134.033203,-64.445496,-62.44659,0.125977,-0.054932,0.718262,45.608517,-34.545898,-18.760681
-0.559082,0.463623,0.756592,-122.932426,-47.996517,-56.770321,0.125244,-0.068604,0.738281,42.442318,-32.501221,-18.287659
-0.46167,0.457275,0.753662,-114.082329,-33.592224,-55.847164,0.118652,-0.072266,0.764893,39.672852,-29.434202,-17.974854
-0.45459,0.449707,0.741455,-109.481804,-26.31378,-54.687496,0.134521,0.06958,0.678467,70.266724,-26.43585,-28.762815
-0.425293,0.464111,0.699951,-107.147209,-20.095823,-53.497311,0.065674,-0.17749,0.909424,14.48059,2.632141,7.339477
-0.424316,0.48999,0.677734,-106.38427,-14.73236,-52.207943,0.079346,-0.176758,0.897217,13.114928,1.13678,8.934021
-0.44751,0.509521,0.693848,-104.797356,-11.047362,-50.369259,0.080078,-0.175537,0.883789,12.229918,0.297546,10.169982
-0.474121,0.533203,0.710205,-101.882927,-8.972168,-47.531124,0.117676,-0.172363,0.661621,-74.623108,22.254942,50.98724
-0.498047,0.570557,0.712158,-99.128716,-7.530212,-44.281002,0.145752,-0.154785,0.668945,-79.978943,25.238035,53.100582
-0.515381,0.61084,0.71875,-96.321098,-6.568908,-40.687557,0.155518,-0.126221,0.671143,-85.617058,28.57971,55.442806
-0.521973,0.652344,0.728027,-93.116753,-5.935668,-37.826538,0.150146,-0.084961,0.677734,-89.942924,32.859802,58.151241
-0.599609,0.469238,0.767822,-127.891533,-56.129452,-59.463497,0.148926,-0.052246,0.677734,-93.238823,37.605286,61.042782
-0.580811,1.031982,1.009521,-8.422852,-10.505675,-8.995056,0.167236,-0.028564,0.684082,-96.946709,41.53442,63.362118
-0.570068,0.369873,0.61377,-176.513657,-84.45739,-93.009941,0.183594,-0.002441,0.699951,-100.807182,44.509884,65.734863
-0.561523,1.013916,1.05249,-3.585815,-13.504027,-14.442443,0.176514,0.028076,0.70874,-103.889458,47.561642,69.282532
-0.572754,1.165771,0.791504,47.409054,59.967037,33.752441,0.196777,0.061035,0.693115,-106.163017,49.774166,72.044373
-0.566162,1.128174,0.763184,47.5769,60.592648,34.942627,0.237549,0.145264,0.663086,-109.649651,52.825924,76.400757
-0.551025,1.076904,0.744629,47.622677,57.395931,35.957336,0.105957,-0.193359,0.655273,-69.259644,18.669128,48.057552
-0.547607,1.037109,0.737793,48.202511,52.955624,37.971497,0.228027,0.184326,0.640381,-110.237114,56.114193,79.544067
-0.552979,1.021729,0.742432,49.453732,47.988888,40.740963,0.212158,0.238281,0.58374,-112.121574,64.430237,87.181084
-0.540527,1.028564,0.747803,51.643368,41.145321,42.373653,0.214111,0.267334,0.553467,-113.044731,68.756104,91.209404
-0.542236,1.038086,0.733887,53.565975,32.775879,43.220516,0.230469,0.304688,0.531738,-113.655083,71.022034,94.856255
-0.547852,1.026367,0.696289,54.428097,23.681639,44.021603,0.252197,0.347412,0.51001,-113.945,70.602417,97.648613
-0.528564,0.996338,0.664307,54.344173,14.259337,44.55566,0.257324,0.390381,0.495361,-114.31884,68.893433,100.517265
-0.490967,0.946289,0.650146,54.275509,5.699157,43.968197,0.239258,0.432617,0.476807,-114.898674,67.359924,104.080193
-0.567627,1.181396,0.812012,46.363827,54.985043,31.715391,0.221436,0.473633,0.463135,-115.676872,66.177368,107.64312
-0.452393,0.884766,0.6521,55.366512,0.137329,42.373653,0.217529,0.509277,0.455811,-115.768425,64.300537,110.580437
-0.389404,0.816162,0.622314,58.029171,0.343323,37.033081,0.21875,0.540527,0.453125,-114.799492,62.591549,113.273613
-0.357666,0.805908,0.577393,55.412289,9.254456,34.912109,0.230225,0.560791,0.454834,-113.075249,61.218258,115.19622
-0.319824,0.765869,0.581787,53.199764,25.207518,31.425474,0.216797,0.210938,0.611084,-111.04583,60.089108,83.19854
-0.324463,0.70752,0.593506,52.413937,44.586178,27.114866,0.128662,-0.210693,0.657715,-63.552853,14.831542,44.647213
-0.336182,0.655518,0.565674,51.460262,57.815548,24.154661,0.231201,0.101074,0.675293,-108.367912,51.048275,73.997498
-0.327637,0.629639,0.528564,47.744747,61.248775,24.078367,0.204346,-0.22876,0.656982,-50.354,11.924743,41.41235
-0.280273,0.619141,0.533203,42.015072,58.013912,23.376463,0.170654,-0.223633,0.661133,-57.327267,12.145995,42.282101
-0.261719,0.606445,0.557373,37.689209,53.558346,20.988462,0.096436,-0.180664,0.868652,10.147094,-3.219604,11.947631
-0.278564,0.587646,0.560059,35.797119,49.911495,18.432617,0.097168,-0.180664,0.880615,8.491516,-4.989624,13.084411
-0.305908,0.57251,0.557861,34.461975,45.753475,17.082214,0.084717,-0.177246,0.882568,7.17926,-5.996704,14.72473
-0.416748,0.842041,0.64502,57.395931,-1.869202,39.657593,0.055176,-0.17041,0.876465,6.622314,-5.058288,16.586304
-0.576172,1.16748,0.827881,45.265194,47.943111,28.747557,0.040771,-0.168457,0.868164,6.301879,-2.914428,18.630981
-0.575195,1.021484,1.0354,-5.79071,-12.687682,-11.512755,0.042725,-0.17334,0.855713,5.53894,-0.88501,20.210264
-0.62793,1.104004,0.84375,41.374203,38.955688,20.149229,0.041016,-0.176758,0.84375,4.79126,0.602722,21.614073
-0.564453,1.012451,1.043457,-1.808166,-12.886046,-17.189026,0.031006,-0.176025,0.826416,3.662109,2.14386,23.628233
-0.565674,1.005859,1.01416,-0.213623,-10.498046,-19.706726,0.026611,-0.17041,0.803223,2.334595,4.104614,26.161192
-0.551758,0.991699,0.968506,1.098633,-6.935119,-23.353575,0.038574,-0.168945,0.787354,0.556946,6.385803,28.442381
-0.543457,0.988281,0.921631,1.914978,-3.128052,-28.221128,0.085938,-0.176758,0.871338,11.58142,-1.113892,11.169433
-0.544678,1.008057,0.907959,2.548218,2.044678,-32.707214,0.079102,-0.180176,0.767822,-3.707886,12.763976,31.272886
-0.553955,1.031738,0.926758,2.624511,10.971068,-35.766602,0.061279,-0.171875,0.775879,-1.525879,9.056091,29.869078
-0.60498,1.130859,0.839355,43.853756,41.893002,24.559019,0.217041,-0.238281,0.683105,-37.582397,15.945434,39.031982
-0.575439,1.044678,1.00293,0.434875,38.665771,-37.498474,0.215332,-0.239014,0.704834,-31.837461,18.737793,37.895203
-0.62085,1.043213,1.012207,-1.739502,50.445553,-37.460327,0.189697,-0.23291,0.719482,-26.145933,21.492002,36.888123
-0.669678,1.046875,0.986084,-3.639221,57.479855,-36.659241,0.170898,-0.231445,0.736816,-20.935057,23.017881,35.240173
-0.722168,1.077637,0.902832,-6.324768,61.202999,-34.576416,0.206299,-0.230713,0.664551,-43.563839,13.702392,40.65704
-0.558105,1.042969,0.967285,2.082825,24.070738,-37.200928,0.148438,-0.217285,0.75415,-12.092589,21.850584,32.852173
-0.787354,1.226807,0.783936,-11.039733,59.387203,-27.053831,0.133301,-0.206299,0.763184,-9.025574,19.775391,32.37915
-0.813477,1.296143,0.784912,-9.315491,55.90057,-22.499083,0.098145,-0.188721,0.766357,-6.248474,16.830444,32.287598
-0.820068,1.326416,0.80835,-3.738403,52.536007,-19.142151,0.154541,-0.229492,0.740967,-16.059875,23.139952,33.843994
-0.807373,1.307129,0.834229,4.257202,49.789425,-16.311646,0.168213,1.32251,0.555908,51.757809,-32.653809,-29.33502
-0.790771,1.266846,0.841064,12.413024,47.821041,-11.474608,0.251709,1.38208,0.657959,30.921934,4.226685,-27.656553
-0.745361,1.224609,0.838867,18.287659,46.241756,-5.40924,0.27002,1.369385,0.668701,37.29248,16.662598,-31.60095
-0.69458,1.187988,0.852539,23.330687,44.601437,0.167847,0.297607,1.355225,0.660156,42.854305,25.268553,-34.317017
-0.681641,1.14624,0.896729,29.640196,43.075558,5.882263,0.349854,1.343506,0.628418,47.470089,25.764463,-34.591675
-0.662354,1.113525,0.88501,35.163879,41.15295,10.917663,0.430664,1.32666,0.600342,50.109859,15.159606,-34.713745
-0.645508,1.100586,0.854004,38.726807,39.237976,15.731811,0.466553,1.303955,0.561768,50.399776,-3.982544,-35.987854
-0.75708,1.137695,0.838379,-9.07135,61.584469,-31.318663,0.244385,1.388672,0.616699,24.513243,-9.086609,-24.67346
-0.189697,-0.348633,0.812256,39.970398,-29.571531,20.271299,0.40625,1.291016,0.536621,50.468441,-23.03314,-37.147522
-0.172852,-0.337646,0.814941,42.129513,-43.716427,21.484373,0.272949,1.293701,0.526855,49.827572,-33.401489,-34.843445
-0.13623,-0.328857,0.796875,44.425961,-56.098934,22.888182,0.163086,1.328857,0.618408,56.426998,-24.642942,-26.649473
-0.086914,-0.33252,0.777832,47.676083,-63.179012,25.413511,0.332275,1.303223,0.741455,66.200256,-11.337279,-32.112122
-0.151367,-0.287842,0.80835,60.93597,-16.075134,38.291931,0.245117,1.309814,0.6875,61.401363,-5.081176,-30.105589
-0.083984,-0.351807,0.741455,54.054256,-51.071163,32.531738,0.261719,1.314697,0.711426,63.247677,-0.282288,-32.035828
-0.109863,-0.352051,0.748291,57.28149,-36.972046,34.446716,0.283203,1.312744,0.728027,64.888,-2.075195,-32.623291
-0.137451,-0.332275,0.78833,59.867855,-23.765562,36.346436,0.393066,1.292969,0.745605,67.5354,-27.534483,-31.303404
-0.066895,-0.344727,0.760254,51.025387,-61.233517,29.373167,0.455078,1.28418,0.72876,68.016052,-47.912594,-30.960081
-0.201172,-0.362793,0.816406,38.299561,-17.14325,19.012451,0.48291,1.281982,0.699707,66.871643,-65.65094,-31.09741
-0.1604,-0.458984,0.78125,16.716003,4.219055,12.519835,0.456299,1.291504,0.708252,65.628052,-74.798584,-32.676697
-0.239014,-0.381592,0.824707,35.507202,-3.730774,18.493652,0.398193,1.300781,0.740234,65.116882,-74.432373,-35.308838
-0.234863,-0.386719,0.833008,34.103394,-4.096985,18.699646,0.349609,1.305908,0.784424,66.131592,-68.603516,-36.819458
-0.221436,-0.391602,0.835938,32.546997,-7.652282,18.112183,0.256836,1.385742,0.580811,18.844604,-19.554138,-22.994993
-0.229004,-0.396484,0.848877,30.952452,-9.841919,17.333984,0.195068,1.317627,0.668213,59.318539,-14.22119,-27.633665
-0.223389,-0.394287,0.854736,29.518126,-9.82666,16.998291,0.305908,1.381836,0.581055,14.167785,-23.300169,-20.606993
-0.209473,-0.390381,0.851318,27.908323,-8.346558,16.288757,0.251221,0.906494,0.62915,-99.243156,43.365475,30.792234
-0.212646,-0.395508,0.842773,26.206968,-5.386352,15.289306,0.375977,1.365723,0.610107,3.601074,-8.460999,-14.114379
-0.212646,-0.407959,0.82373,24.246214,-1.922607,14.236449,0.336426,1.311768,0.834961,68.55011,-63.781734,-36.849976
-0.208984,-0.42749,0.802979,21.804808,1.541138,14.022826,0.230957,0.933594,0.627197,-97.679131,37.384033,31.211851
-0.185547,-0.449219,0.792969,19.721985,3.639221,13.603209,0.222412,0.950439,0.633301,-96.282951,33.737183,30.71594
-0.142578,-0.239014,0.808105,62.927242,-16.479492,40.390011,0.213135,0.973633,0.643555,-94.490044,31.639097,29.930113
-0.223633,-0.375,0.821045,36.92627,-8.148193,18.333435,0.200684,0.996826,0.6604,-91.651909,30.364988,29.739378
-0.150635,-0.199951,0.800049,66.543579,-22.384642,42.79327,0.189453,1.011963,0.677734,-88.554375,29.281614,29.884336
-0.266602,-0.080078,0.762207,111.053459,16.784668,17.959595,0.179443,1.019775,0.681641,-86.418144,28.144835,30.34973
-0.185059,-0.170166,0.750488,76.705933,-36.155701,43.731686,0.169189,1.035645,0.673584,-85.723869,26.611326,31.814573
-0.15625,-0.464111,0.787842,14.030456,4.249573,11.383056,0.174561,1.068115,0.679199,-84.472649,24.307249,33.744812
-0.333496,0.156738,0.688721,110.206596,26.084898,9.994507,0.20166,1.110352,0.682861,-82.626335,21.049498,34.446716
-0.30127,0.130127,0.690918,110.527031,23.963926,12.596129,0.232422,1.156982,0.682861,-80.207825,17.440796,33.103943
-0.255371,0.092041,0.707031,111.04583,21.789549,13.198852,0.25708,1.195557,0.687988,-76.423645,13.46588,31.143187
-0.23291,0.056641,0.717773,111.579887,21.888731,11.95526,0.272461,1.221191,0.704102,-71.731567,9.132385,29.197691
-0.235596,0.027344,0.72876,111.701958,23.979185,9.979248,0.27832,1.234863,0.717773,-66.871643,4.722595,26.81732
-0.244141,0.000488,0.746338,112.457268,26.016233,7.858276,0.282471,1.243408,0.722412,-61.43951,0.572205,23.460386
-0.25708,-0.015869,0.757568,113.227837,27.084349,6.637573,0.275635,1.255859,0.729492,-55.473324,-2.235413,19.996643
-0.269043,-0.032227,0.771973,114.059441,27.076719,7.858276,0.258301,1.272949,0.729736,-48.347469,-2.967834,16.082764
-0.263916,-0.057861,0.799561,115.676872,25.604246,10.116576,0.246338,1.293701,0.721191,-40.519711,-1.12915,11.375426
-0.169922,-0.176758,0.785156,71.182251,-30.2124,44.174191,0.23999,1.305664,0.703857,-32.539368,2.883911,6.843566
-0.244873,-0.073486,0.772705,115.684502,22.811888,11.772155,0.242188,1.319824,0.69043,-24.215696,7.415771,2.258301
-0.260254,-0.081299,0.75,112.457268,17.219543,15.998839,0.268066,1.333984,0.679932,-15.99121,10.429381,-2.571106
-0.278564,-0.072266,0.782959,109.558098,17.288208,19.172668,0.305176,1.347412,0.660156,-8.544922,9.231567,-6.935119
-0.289795,-0.059082,0.812744,107.055656,16.983032,20.126341,0.349609,1.356934,0.636963,-1.647949,2.487183,-10.597228
-0.307617,-0.060791,0.849121,104.766838,13.877868,21.560667,0.355957,1.375,0.592041,8.781433,-18.737793,-17.410278
-0.333252,-0.084717,0.866211,103.317253,7.568359,24.444578,0.371582,1.301758,0.875732,71.228027,-63.674923,-36.651611
-0.329102,-0.122803,0.860352,102.714531,-2.326965,28.57971,0.244141,0.187988,0.618408,77.781677,-38.406372,-39.276123
-0.282471,-0.160889,0.810547,101.234428,-14.09912,33.424377,0.44043,1.21875,0.882324,73.158264,-73.143005,-38.673401
-0.224121,-0.177002,0.748047,96.542351,-26.000975,37.437439,0.272949,0.45166,0.650146,60.882565,-2.120972,-51.23901
-0.193848,-0.17627,0.716797,89.881889,-34.675598,40.06958,0.252441,0.487793,0.65625,62.110897,3.379822,-51.307674
-0.189209,-0.172119,0.718262,82.931511,-38.085938,42.076107,0.243164,0.518799,0.680908,64.575195,5.943298,-48.171993
-0.240967,-0.081299,0.744141,114.135735,19.142151,13.412475,0.264893,0.513428,0.694092,66.238403,4.325867,-44.273373
-0.333008,0.172363,0.722168,109.146111,27.008055,6.454467,0.279785,0.475098,0.679688,66.635132,0.343323,-40.90118
-0.157959,-0.462158,0.801025,11.917113,4.005432,10.116576,0.258301,0.435547,0.670898,66.848755,-2.868652,-38.551331
-0.183594,-0.460693,0.821045,8.026123,3.112793,7.987976,0.229248,0.397217,0.672119,67.420959,-4.364014,-37.757874
-0.145752,-0.415283,0.592773,-43.258663,-16.532898,-32.714844,0.215088,0.349365,0.682373,67.955017,-6.217956,-37.750244
-0.153564,-0.41626,0.583984,-48.561092,-18.77594,-35.53772,0.20752,0.323975,0.696777,69.091797,-11.009215,-37.200928
-0.139648,-0.404297,0.566162,-54.489132,-21.987913,-38.703918,0.240234,0.312744,0.67749,71.884155,-29.20532,-35.362244
-0.133301,-0.369385,0.541016,-61.607357,-24.696348,-42.068478,0.265137,0.454834,0.655518,61.378475,-9.269714,-48.416134
-0.143555,-0.3396,0.537354,-68.336487,-25.863646,-44.532772,0.248779,0.311035,0.641602,73.318481,-35.949707,-36.964417
-0.142822,-0.322021,0.526367,-74.882507,-26.473997,-46.485897,0.189697,0.31665,0.604492,75.210571,-33.874512,-42.366024
-0.145508,-0.302979,0.498047,-82.290642,-27.976988,-49.22485,0.165039,0.314697,0.623047,75.752258,-29.08325,-42.747494
-0.158691,-0.280762,0.47998,-90.454094,-31.326292,-52.726742,0.190674,0.313965,0.65918,76.812744,-26.535032,-42.938229
-0.181152,-0.248291,0.467041,-99.174492,-36.018372,-56.922909,0.248047,0.307373,0.685059,78.514099,-27.8244,-43.785091
-0.230469,-0.182617,0.473633,-114.860527,-44.754025,-63.926693,0.272217,0.289307,0.673828,79.467773,-31.578062,-43.891903
-0.139648,-0.419434,0.622314,-37.54425,-15.121459,-29.678343,0.273438,0.266357,0.640381,80.26886,-36.16333,-41.984554
-0.242188,-0.120117,0.447754,-123.374931,-49.583431,-67.939758,0.289795,0.23999,0.62207,80.398552,-40.573116,-39.733887
-0.2771,-0.014648,0.45459,-138.061523,-60.714718,-76.187134,0.296631,0.213135,0.610107,80.14679,-43.182369,-38.444519
-0.285889,0.031982,0.459229,-145.202637,-65.52887,-80.299377,0.271729,0.195557,0.604004,79.246521,-42.366024,-38.398743
-0.301025,0.06543,0.471436,-151.786804,-68.93158,-83.69445,0.415039,1.260742,0.88623,72.746277,-67.611694,-37.437439
-0.314941,0.093506,0.481445,-158.096313,-70.777893,-86.006157,0.225098,0.312744,0.609131,74.234009,-37.200928,-40.008545
-0.309814,0.129883,0.487305,-164.657578,-72.364807,-88.279716,0.243896,0.480469,0.664795,62.568661,-18.302917,-46.081539
-0.325195,0.17749,0.502197,-170.80687,-73.356628,-90.515129,0.216309,0.311035,0.69873,70.388794,-19.432068,-35.797119
-0.374756,0.238281,0.518555,-175.666794,-74.645996,-92.590324,0.324219,0.640381,0.730469,69.259644,-35.072327,-44.403072
-0.445801,0.291992,0.55249,-178.085312,-77.186584,-93.925468,0.269775,0.55127,0.697998,65.834045,-27.969358,-45.150753
-0.517822,0.337891,0.587402,-178.047165,-80.535881,-94.15435,0.491943,1.181396,0.865967,74.653625,-78.338623,-44.883724
-0.169922,-0.461914,0.812012,9.788513,3.669739,9.010315,0.497559,1.169678,0.847656,75.317383,-75.271606,-49.247738
-0.261963,-0.063965,0.447998,-131.111145,-55.221554,-72.166443,0.437012,1.153564,0.834473,75.10376,-65.895081,-51.040646
-0.137695,-0.420654,0.653076,-32.569885,-13.999938,-26.527403,0.371582,1.144775,0.851807,75.408936,-51.971432,-50.071712
-0.213623,-0.224854,0.473633,-107.238762,-40.390011,-60.516354,0.349121,1.123535,0.854736,75.820923,-38.482666,-46.82159
-0.121338,-0.438721,0.689453,-24.459837,-10.055541,-20.469664,0.35083,1.086426,0.868652,76.217651,-28.274534,-43.006893
-0.12207,-0.421875,0.674072,-28.289793,-12.680053,-23.384092,0.35083,1.022705,0.865479,76.194763,-21.949766,-39.69574
-0.210693,-0.467041,0.820557,5.256652,1.289368,5.271911,0.344971,0.955566,0.854004,75.202942,-18.707275,-36.773682
-0.213623,-0.469238,0.8125,3.89862,1.472473,4.547119,0.35083,0.903564,0.84668,73.890686,-17.738342,-34.622192
-0.199463,-0.468018,0.809082,2.456665,1.76239,3.768921,0.368408,0.859619,0.856934,73.318481,-18.730164,-33.622742
-0.18457,-0.466064,0.806396,1.113892,1.89209,2.746582,0.459961,1.193848,0.878662,73.791504,-77.095032,-40.985104
-0.177002,-0.474609,0.811768,-0.030518,2.250671,1.701355,0.373047,0.78418,0.872559,73.745728,-21.049498,-38.711548
-0.168945,-0.483154,0.803955,-1.144409,1.770019,0.75531,0.384277,0.809814,0.85498,72.9599,-21.14868,-34.988403
-0.171143,-0.485352,0.791504,-2.433777,0.213623,-0.328064,0.435547,0.767334,0.765381,73.776245,-30.143736,-47.035213
-0.189209,-0.487549,0.775146,-3.40271,-1.274109,-0.839233,0.458496,0.793457,0.774902,75.874329,-19.493103,-49.98016
-0.188477,-0.485352,0.762451,-4.249573,-1.754761,-1.281738,0.442139,0.798096,0.802979,77.705383,-6.713867,-51.589962
-0.159424,-0.483154,0.75708,-5.424499,-1.434326,-2.845764,0.388428,0.800537,0.849854,78.773499,3.250122,-51.559444
-0.197266,-0.463379,0.827393,6.576538,2.067566,6.614685,0.384033,0.717041,0.74707,71.868896,-35.903931,-44.639584
-0.14502,-0.479004,0.775391,-6.462097,3.379822,-7.064819,0.272705,0.79834,0.88501,76.934814,2.845764,-47.5769
-0.145752,-0.484131,0.766357,-6.149292,0.434875,-5.096435,0.251953,0.785645,0.857666,74.928284,-6.92749,-44.586178
-0.112305,-0.46582,0.693115,-18.791199,-3.959656,-16.494751,0.301514,0.767822,0.857178,74.119568,-16.227722,-41.976925
-0.114014,-0.478516,0.693359,-16.090393,-0.785828,-14.297484,0.32373,0.79541,0.873047,78.216553,6.584167,-50.018307
-0.127441,-0.483643,0.70166,-13.603209,1.312256,-13.046264,-0.112061,-0.283447,0.861328,-22.003172,-8.69751,9.033203
-0.126953,-0.483643,0.720947,-11.245727,2.914428,-12.275695,-0.118408,-0.317871,0.852539,-4.722595,-2.746582,2.166748
-0.130371,-0.453125,0.695068,-21.507261,-6.79779,-18.310547,-0.132324,-0.319336,0.851807,-6.599426,-0.671387,2.586365
-0.152832,-0.471191,0.749268,-8.491516,6.050109,-11.108397,-0.143799,-0.317383,0.847656,-8.453369,1.296997,3.425598
-0.151367,-0.467773,0.761719,-7.347106,6.385803,-10.108947,-0.140137,-0.312256,0.84668,-10.589599,2.540588,4.547119
-0.150635,-0.473633,0.772705,-6.805419,5.599975,-8.712769,-0.121826,-0.306152,0.848877,-12.878417,2.326965,5.40924
-0.146484,-0.47998,0.73999,-9.544373,5.012512,-11.482238,-0.103271,-0.299072,0.848145,-15.014647,0.267029,5.752563
-0.370361,1.379639,0.613525,20.378111,-41.854855,-22.361753,-0.112061,-0.317871,0.857422,-2.63977,-4.234314,2.410889
-0.332764,1.41333,0.582031,-2.281189,-33.538818,-4.15802,-0.097412,-0.292236,0.850586,-17.211914,-2.89917,6.401062
-0.333496,1.402588,0.556396,0.244141,-33.065796,-5.966186,-0.100098,-0.288086,0.853271,-19.874573,-6.317138,7.690429
-0.323486,1.385498,0.540283,2.037048,-33.691406,-8.598328,-0.131592,-0.274658,0.864746,-23.567198,-9.300232,9.925842
-0.328125,1.362305,0.554688,4.760742,-35.041809,-11.474608,-0.18042,-0.218506,0.918945,-26.908873,8.659363,17.272949
-0.342529,1.343506,0.573975,8.19397,-36.460876,-13.381957,-0.15332,-0.250977,0.891846,-25.939939,-5.294799,12.016295
-0.338379,1.333252,0.583252,11.383056,-37.948608,-15.022277,-0.176025,-0.242432,0.898682,-26.107786,-1.121521,13.557433
-0.324219,1.416748,0.599854,-5.760192,-35.339355,-2.685547,-0.182861,-0.231445,0.908691,-26.664732,3.723144,15.296935
-0.329102,1.337158,0.59375,14.373778,-39.215088,-17.234802,-0.164795,-0.204102,0.911133,-26.916502,12.382506,18.699646
-0.327393,1.355225,0.604736,16.88385,-40.695187,-20.530699,-0.143799,-0.189697,0.898926,-27.084349,14.373778,19.53125
-0.420654,1.423096,0.59082,24.345396,-41.847225,-21.64459,-0.139893,-0.171875,0.87915,-27.542112,15.319823,20.774839
-0.470703,1.481445,0.633057,54.374691,30.586241,19.050598,-0.14624,-0.15625,0.839355,-28.274534,15.396117,22.438047
-0.458496,1.462402,0.604248,34.378052,-29.228209,-13.702392,-0.144043,-0.147217,0.799072,-29.861448,14.991759,24.330137
-0.4375,1.466309,0.622559,41.458126,-11.375426,-5.355834,-0.141113,-0.147705,0.773682,-32.356262,14.85443,26.451109
-0.4375,1.477783,0.626953,48.21777,10.70404,5.805969,-0.104736,-0.319824,0.86084,-0.457764,-4.745483,2.380371
-0.484375,1.490479,0.646484,60.859676,43.266293,32.920837,-0.141113,-0.263184,0.873779,-25.161741,-8.041382,10.780334
-0.513428,1.51416,0.646973,67.78717,50.674435,47.904964,-0.102783,-0.324219,0.860596,1.838684,-4.493713,1.777649
-0.522705,1.550781,0.662109,75.454712,53.665157,62.103268,-0.138916,-0.158691,0.753662,-35.629272,14.663695,27.938841
-0.556641,1.580811,0.700684,84.861748,55.534359,77.178955,-0.119141,-0.314209,0.879639,6.019592,-3.059387,0.862122
-0.587402,1.608398,0.715332,95.237724,59.165951,93.978874,-0.059814,-0.235352,0.868652,39.161682,-11.589049,-11.390685
-0.584473,1.64209,0.734375,106.071465,63.903805,109.138481,-0.053467,-0.237305,0.890869,37.696838,-16.357422,-10.643004
-0.319336,1.411865,0.609131,-9.44519,-37.559509,-1.518249,-0.065674,-0.244629,0.898438,36.560059,-19.27948,-9.712219
-0.448486,1.456787,0.581055,28.587339,-38.978577,-19.210815,-0.079346,-0.260254,0.888916,35.186768,-19.546509,-8.987427
-0.321533,1.401123,0.612305,-13.366698,-38.993835,-0.87738,-0.087646,-0.273193,0.881836,34.111023,-17.463684,-9.651184
-0.575439,1.664307,0.743652,117.72155,72.532654,121.200554,-0.092041,-0.289551,0.882324,32.287598,-12.985229,-11.085509
-0.334229,1.369141,0.59375,-21.919249,-34.706116,-1.693725,-0.106445,-0.302246,0.895752,29.487608,-7.019042,-11.772155
-0.404541,1.026855,0.595459,-114.288322,-37.017822,-67.428589,-0.112549,-0.307373,0.914795,26.802061,-2.281189,-11.367797
-0.391602,1.058838,0.56958,-111.022942,-35.644531,-65.811157,-0.104492,-0.304932,0.923584,24.185179,-0.541687,-10.81848
-0.38501,1.098633,0.547607,-108.551018,-33.470154,-64.01825,-0.085449,-0.297607,0.92041,22.415159,-1.396179,-10.19287
-0.387207,1.123779,0.564209,-105.415337,-30.822752,-62.362667,-0.107178,-0.321045,0.871338,4.295349,-3.761291,1.205444
-0.382813,1.136719,0.569824,-101.745598,-28.648375,-60.989376,-0.077148,-0.294434,0.907471,21.324156,-3.677368,-9.605408
-0.388184,1.13623,0.564941,-98.56414,-26.588438,-58.830257,-0.094238,-0.299561,0.869629,19.584656,-7.789611,-7.591247
-0.374023,1.124268,0.569336,-95.512383,-25.009153,-56.510921,-0.097656,-0.301514,0.856201,18.196106,-7.965087,-7.194519
-0.358887,1.123779,0.582764,-92.056267,-23.529051,-54.168697,-0.095215,-0.296631,0.85791,17.288208,-7.728576,-7.781982
-0.353027,1.137695,0.595703,-87.562553,-21.972654,-51.521297,-0.104248,-0.30127,0.861816,16.296387,-7.362365,-8.224487
-0.343506,1.168213,0.585205,-83.862297,-20.1416,-48.988338,-0.124756,-0.307373,0.864258,15.045165,-6.713867,-7.17163
-0.325928,1.387695,0.607178,-17.50946,-38.116455,-0.999451,-0.148193,-0.316162,0.871582,13.374328,-5.897521,-5.027771
-0.332764,1.19458,0.575439,-80.451958,-17.593384,-46.478268,-0.149658,-0.325684,0.872803,11.039733,-5.027771,-3.059387
-0.31958,1.197266,0.542236,-71.868896,-11.993407,-40.06958,-0.139404,-0.320313,0.880615,9.208679,-4.325867,-1.625061
-0.299561,1.210693,0.510254,-68.229675,-9.384155,-36.743164,-0.134033,-0.318604,0.879395,8.216858,-3.662109,-0.976562
-0.294922,1.225586,0.510498,-64.216614,-6.79779,-32.958984,-0.132568,-0.31543,0.87915,7.133483,-3.112793,-0.038147
-0.302979,1.234863,0.521484,-59.478756,-5.088806,-28.312681,-0.080811,-0.293457,0.886963,20.606993,-6.271362,-8.789063
-0.309814,1.250977,0.532227,-53.810116,-5.004883,-23.460386,-0.133545,-0.167725,0.731201,-40.084839,14.282226,28.95355
-0.325928,1.272461,0.547852,-48.049923,-6.988525,-18.737793,-0.121338,-0.170654,0.711914,-45.410152,13.85498,30.158995
-0.33667,1.29126,0.556152,-42.137142,-10.81848,-14.053344,-0.106689,-0.166016,0.702393,-51.071163,12.168883,31.34918
-0.338135,1.308105,0.560547,-36.6745,-16.441345,-10.169982,0.097168,0.534424,0.476563,-162.002548,82.305901,34.111023
-0.340332,1.327393,0.569092,-31.517027,-22.972105,-6.774902,0.056885,0.523193,0.503906,-161.018356,84.220879,35.163879
-0.343506,1.348389,0.580566,-26.596067,-29.296873,-3.65448,0.031982,0.505859,0.533691,-160.011292,86.044304,36.956787
-0.334717,1.194824,0.572754,-76.034546,-14.625548,-43.357845,0.037842,0.485107,0.566162,-159.088135,86.448662,38.665771
-0.561523,1.669922,0.69873,128.196716,88.523857,129.608154,0.067383,0.469971,0.589844,-158.035278,84.823601,39.260864
-0.319824,0.19165,0.752686,106.735222,26.992796,3.684997,0.099121,0.468018,0.608887,-157.00531,81.665031,38.734436
-0.487061,1.583496,0.618896,149.177551,144.927979,139.442444,0.126465,0.486816,0.626953,-155.052185,77.735901,37.841797
-0.204346,0.565186,0.789795,70.709229,-0.495911,-4.470825,0.154785,0.512207,0.644043,-152.053833,73.272705,36.468506
-0.19165,0.58374,0.79541,71.205139,0.099182,-5.195617,0.174316,0.531982,0.656494,-148.750305,69.023132,34.423828
-0.201416,0.605225,0.793457,70.358276,1.63269,-7.232666,0.174805,0.556152,0.670166,-145.042419,65.452576,32.356262
-0.211914,0.597412,0.806152,69.587708,4.669189,-8.506775,0.135986,0.546387,0.443848,-162.902817,81.008904,33.851624
-0.203125,0.566162,0.819092,69.862366,8.842468,-9.231567,0.163086,0.570801,0.67749,-140.739441,62.110897,30.815123
-0.192627,0.515137,0.828125,71.258545,12.977599,-9.803772,0.095947,0.580811,0.666748,-134.788513,62.316891,28.503416
-0.167236,0.45874,0.816406,73.646545,15.243529,-11.306762,0.063721,0.616455,0.652344,-132.034302,65.826416,28.366087
-0.14624,0.419922,0.779053,76.49231,16.120911,-12.809752,0.053955,0.668701,0.633545,-128.074646,70.549011,28.388975
-0.153076,0.405518,0.757324,79.38385,17.64679,-13.488769,0.062988,0.724854,0.611084,-123.382561,76.004028,28.404234
-0.162354,0.418457,0.767334,81.962578,19.378662,-14.175414,0.085449,0.769287,0.595215,-118.682854,81.344597,28.488157
-0.202637,0.556885,0.776855,69.30542,-0.167847,-5.569458,0.121826,0.80249,0.593506,-113.601677,84.442131,29.052732
-0.174561,0.440674,0.779053,84.037773,21.224974,-15.510558,0.166016,0.820801,0.602783,-108.558647,84.663383,30.4718
-0.243652,0.438721,0.821045,92.063896,23.53668,-16.464233,0.221924,0.822998,0.603516,-104.431145,80.718987,31.768797
-0.293457,0.4375,0.797852,95.657341,23.010252,-13.793944,0.281494,0.824707,0.602051,-102.302544,72.19696,31.661985
-0.312012,0.431641,0.773682,97.404472,21.52252,-9.902954,0.309082,0.844727,0.605469,-101.46331,61.340328,30.670164
-0.31958,0.408203,0.782227,99.533073,19.836426,-5.455017,0.14209,0.571045,0.678711,-137.374878,60.93597,29.33502
-0.303955,0.382568,0.779297,102.104179,18.699646,-1.861572,0.156982,0.545654,0.413818,-163.49791,79.566956,34.324646
-0.279541,0.365967,0.73291,103.096001,18.737793,-0.556946,0.288574,0.873779,0.61499,-100.502007,51.391598,30.303953
-0.30127,0.341553,0.726318,103.454582,20.683287,0.389099,0.165771,0.532471,0.361084,-162.551865,72.7005,35.758972
-0.316895,0.304932,0.752441,103.828423,23.277281,1.777649,-0.101074,-0.148438,0.700195,-56.419369,10.32257,32.920837
-0.299805,0.267822,0.751953,103.897087,24.993895,1.998901,-0.102051,-0.126465,0.71167,-61.302181,9.292603,34.706116
-0.301025,0.228027,0.749756,104.515068,26.229856,2.204895,-0.077637,-0.118164,0.723877,-66.101074,8.491516,35.415649
-0.198975,0.445801,0.80835,87.402336,22.918699,-16.792297,-0.055664,-0.123291,0.729492,-70.785522,7.728576,35.621643
-0.192627,0.565674,0.756104,67.878723,2.243042,-4.745483,-0.044189,-0.142822,0.724609,-76.316833,7.240295,35.171509
-0.537354,1.644775,0.666992,137.901306,113.44146,135.322571,-0.028809,-0.165283,0.713135,-82.93914,7.110595,33.813477
-0.216553,0.600586,0.751221,69.656372,12.96997,3.013611,0.165283,0.538818,0.386963,-163.299545,77.125549,35.140991
-0.452637,1.506592,0.55542,161.552414,174.438461,140.869141,-0.010986,-0.154297,0.677734,-99.212639,8.392334,29.777525
-0.417725,1.447266,0.522705,168.853745,188.667282,135.635376,-0.005371,-0.091309,0.682129,-106.040947,9.773254,27.816771
-0.370605,1.430908,0.507568,164.619431,180.854782,122.581474,0.002686,-0.02417,0.695557,-112.152092,9.95636,26.672361
-0.39624,1.414063,0.552979,153.999329,157.913208,107.078545,0.011475,0.037354,0.704102,-117.927544,8.834839,27.961729
-0.475586,1.364014,0.704346,149.69635,131.187439,94.169609,-0.017578,-0.175049,0.694824,-90.835564,7.286071,31.990049
-0.544189,1.308838,0.83252,149.688721,111.106865,84.167473,0.013428,0.132324,0.680664,-128.204346,5.859375,32.287598
-0.201904,0.584717,0.745117,68.214417,7.072448,-1.197815,0.020264,0.165771,0.642334,-134.101868,7.438659,33.279419
-0.503174,1.138428,0.768799,134.422302,93.90258,65.048218,0.002686,0.208252,0.609619,-139.686584,12.481688,34.667969
-0.476318,1.003174,0.755615,127.510063,87.318413,57.54089,-0.005859,0.251709,0.561523,-144.554138,19.302368,36.132813
-0.424316,0.87793,0.713623,120.826714,79.444885,51.689144,0.006592,0.292969,0.511475,-149.246216,26.634214,37.261963
-0.356689,0.795898,0.650146,112.30468,71.212769,46.226498,0.025635,0.347168,0.46582,-152.236938,34.736633,37.651062
-0.532715,1.243652,0.805176,143.257141,100.242607,74.302673,0.051514,0.410645,0.411865,-154.510498,43.441769,36.78894
-0.288574,0.718994,0.680664,98.869316,62.606808,36.880493,0.079834,0.468262,0.351563,-156.562805,52.078243,36.636353
-0.262207,0.709717,0.710938,94.619743,63.407894,33.027649,0.112549,0.511475,0.334473,-158.653259,60.050961,36.956787
-0.245117,0.691895,0.733887,90.934746,64.453125,29.121397,0.146729,0.528564,0.340576,-160.758957,66.871643,36.53717
-0.241943,0.659912,0.748291,88.279716,62.667843,25.05493,0.006592,0.089844,0.705811,-123.054497,6.996154,30.746458
-0.246582,0.62085,0.745117,85.937492,56.541439,21.789549,0.152588,0.898926,0.700439,69.656372,-78.857422,-34.294128
-0.258301,0.595703,0.72168,83.969109,47.485348,20.011902,0.152832,0.918213,0.677979,71.968079,-86.967461,-34.812927
-0.261963,0.606445,0.698242,81.214897,38.398743,17.944336,0.192627,0.954102,0.700195,74.272156,-92.582695,-35.629272
-0.26123,0.621826,0.700439,77.308655,31.005857,14.511107,0.259521,0.982178,0.722656,76.133728,-92.14782,-36.888123
-0.265869,0.621338,0.726807,73.867798,25.337217,11.505126,0.365479,1.100098,0.814209,92.445366,-46.127316,-38.406372
-0.246826,0.611084,0.751709,71.380615,19.523621,7.759094,0.379639,1.046631,0.799316,83.724968,-70.617676,-39.215088
-0.317871,0.742432,0.653076,104.637138,64.949036,41.275021,0.390137,1.078369,0.832764,87.745659,-56.488033,-39.932251
-0.103516,-0.520264,0.678711,-25.459288,-17.448425,-12.435912,0.382324,1.094971,0.840576,90.614311,-47.477718,-39.863586
-0.101318,-0.524658,0.680908,-21.01898,-17.654419,-10.437011,0.330566,1.015625,0.764404,79.338074,-84.114067,-38.093567
-0.109863,-0.52002,0.681396,-16.662598,-15.800475,-8.68988,0.151611,0.873291,0.730713,68.54248,-71.212769,-33.355713
-0.119141,-0.508545,0.690918,-12.565612,-12.908935,-7.164001,-0.017822,0.520264,0.539063,54.481503,-42.060848,-5.40924
-0.173584,-0.487793,0.689697,2.044678,-8.987427,-0.473022,0.125977,0.790527,0.710449,64.537048,-59.562679,-29.342649
-0.149658,-0.489014,0.747314,-6.622314,-7.339477,-3.753662,0.125488,0.751953,0.698242,61.683651,-57.678219,-26.161192
-0.16748,-0.474365,0.737061,-4.615784,-6.54602,-2.464294,0.136719,0.71167,0.670166,58.92944,-59.539791,-23.101805
-0.162842,-0.47583,0.717773,-1.693725,-7.713317,-1.411438,0.121338,0.669434,0.628174,56.381222,-63.4613,-19.737244
-0.128662,-0.500244,0.723145,-9.094238,-10.108947,-5.630493,0.077637,0.638916,0.568115,53.848263,-66.28418,-15.495299
-0.105225,-0.510498,0.692871,-29.670713,-15.541076,-14.419555,0.054199,0.623779,0.537842,52.017208,-65.963745,-12.405395
-0.207275,-0.399414,0.83252,-57.41119,-21.797178,-28.114317,0.050049,0.616211,0.530518,50.132748,-63.4613,-10.963439
-0.126465,-0.482422,0.755371,-36.857605,-11.360168,-17.860413,0.043945,0.616943,0.557861,49.499508,-58.906551,-9.788513
-0.132324,-0.488525,0.789795,-39.543152,-10.940551,-18.722534,0.024902,0.590576,0.572021,49.888607,-53.901669,-8.613586
-0.128418,-0.497314,0.813477,-41.275021,-12.329101,-20.011902,0.008057,0.556396,0.571289,51.445004,-48.377987,-7.438659
-0.135986,-0.503174,0.826904,-42.762753,-15.670775,-20.690916,0.344727,1.112061,0.796387,94.345085,-51.658627,-35.957336
-0.136475,-0.520508,0.84668,-44.128414,-19.920349,-20.118711,0.138184,0.832275,0.730957,67.176819,-64.537048,-31.906126
-0.111816,-0.522461,0.834717,-45.852657,-24.688719,-20.111082,0.332764,1.146729,0.826416,95.985405,-60.455318,-33.721924
-0.106201,-0.512695,0.816406,-48.133846,-27.938841,-21.01898,0.416748,1.445068,0.891113,107.414238,-27.19116,-35.03418
-0.122314,-0.498047,0.805908,-50.910946,-28.488157,-21.705626,0.331055,1.186279,0.850342,96.885674,-70.831299,-32.501221
-0.135742,-0.476074,0.812256,-53.573605,-27.481077,-22.850035,-0.030762,0.489746,0.494629,57.174679,-34.500122,-3.334045
-0.157715,-0.434814,0.818115,-55.77087,-25.489805,-25.482176,0.149902,1.45874,0.783203,38.009644,31.204222,11.543273
-0.186279,-0.497314,0.66748,6.225585,-10.223388,-0.976562,0.203125,1.459473,0.807373,46.257015,39.69574,11.413573
-0.112549,-0.494629,0.721191,-33.416748,-13.09204,-16.395569,0.272461,1.453613,0.815918,54.63409,44.906612,10.627746
-0.178955,-0.497559,0.65625,10.993957,-11.314391,-2.349854,0.324707,1.444336,0.801758,62.385555,46.630856,9.307861
-0.104004,-0.401611,0.669922,53.405758,6.713867,-3.555298,0.389404,1.443848,0.790039,68.145752,46.287533,5.775451
-0.185791,-0.491455,0.64917,22.369383,-10.025024,-5.645751,0.442139,1.442627,0.791992,72.174072,42.205807,0.25177
-0.240967,-0.395508,0.85791,-57.624813,-17.311096,-29.006956,0.439209,1.44751,0.822266,77.033997,35.339355,-5.088806
-0.061279,-0.256104,0.805176,71.350098,-12.779235,23.468016,0.381592,1.449707,0.872314,82.542412,29.396055,-8.628845
-0.036865,-0.263184,0.77832,70.205688,-4.432678,23.445127,0.34668,1.462646,0.92334,89.912407,23.986814,-11.802672
-0.027588,-0.280029,0.754883,69.023132,5.508422,22.895811,0.330078,1.175293,0.842041,96.183769,-68.092346,-32.371521
-0.042969,-0.303223,0.740479,67.558289,15.3656,22.003172,0.380859,1.470215,0.931396,97.373955,15.197753,-17.417908
-0.033203,-0.320068,0.73999,65.338135,19.744873,18.936157,0.435059,1.462402,0.887939,106.0028,-13.069152,-30.990599
-0.051514,-0.322998,0.764648,63.285824,18.760681,14.450072,0.406494,1.405029,0.886719,107.276909,-39.337158,-38.772583
-0.090088,-0.322266,0.792969,62.042233,15.655517,10.406493,0.368652,1.365967,0.885254,107.368462,-46.69952,-40.428158
-0.115967,-0.330078,0.805176,61.088558,13.351439,7.324218,0.317383,1.31665,0.88623,107.589714,-48.362728,-41.114803
-0.12207,-0.351074,0.808838,60.897823,12.092589,4.585266,0.304199,1.27417,0.874023,106.498711,-46.714779,-41.252132
-0.174805,-0.494385,0.64209,16.273499,-11.085509,-3.77655,0.310791,1.257324,0.876953,105.155937,-45.524593,-39.710999
-0.125,-0.365723,0.775146,60.722347,11.337279,2.342224,0.340088,1.254883,0.876709,103.363029,-48.080441,-38.345337
-0.103516,-0.395752,0.687744,56.747433,9.689331,-1.533508,0.364746,1.256104,0.887451,102.302544,-54.26025,-37.17041
-0.115234,-0.404053,0.671387,50.537106,2.258301,-5.523681,0.348389,1.22998,0.876221,101.081841,-61.82098,-35.217285
-0.14502,-0.412842,0.674072,47.813412,-3.112793,-7.362365,0.334717,1.205566,0.862061,99.128716,-68.04657,-33.439636
-0.175537,-0.415527,0.674561,44.410702,-6.912231,-8.056641,0.429199,1.472168,0.908447,102.951042,1.792908,-25.108335
-0.181152,-0.415039,0.692383,41.046139,-9.147644,-8.644104,-0.020264,0.472412,0.460205,58.464046,-26.81732,-1.701355
-0.182129,-0.411377,0.723633,38.475037,-10.093688,-9.353638,0.002686,0.478271,0.465332,60.035702,-20.606993,0.244141
-0.187744,-0.406494,0.740723,36.254883,-10.032654,-9.918213,0.013428,0.469727,0.470215,61.302181,-16.265869,2.525329
-0.197998,-0.41626,0.731689,33.592224,-9.45282,-10.589599,0.026611,0.110352,0.66748,91.361992,-17.00592,-20.439146
-0.213623,-0.443848,0.718506,30.586241,-8.789063,-9.765625,0.026123,0.103271,0.696777,91.51458,-14.785766,-20.210264
-0.212158,-0.480225,0.69873,27.587889,-8.827209,-7.8125,0.019775,0.083252,0.712646,91.056816,-13.832091,-18.722534
-0.119629,-0.385254,0.729492,59.532162,11.039733,0.709534,0.016846,0.056885,0.733643,90.858452,-14.35852,-16.578674
-0.203369,-0.381836,0.857422,-58.021542,-15.144347,-30.372618,0.001953,0.022949,0.749023,90.461723,-15.090941,-14.85443
-0.163574,-0.358154,0.861572,-58.486935,-16.044617,-33.882141,-0.027344,-0.009277,0.761719,89.927666,-14.907836,-12.802123
-0.152344,-0.333496,0.864258,-58.494564,-17.997742,-38.475037,-0.059814,-0.038818,0.773193,89.057915,-13.511657,-10.375976
-0.402344,0.344482,0.402832,-197.731003,-76.164246,-83.358757,-0.081787,-0.065918,0.784424,87.463371,-11.741637,-8.682251
-0.380615,0.366943,0.418213,-200.683578,-72.120667,-84.823601,-0.090088,-0.088135,0.79248,85.479729,-9.849548,-7.461547
-0.371094,0.385498,0.436768,-202.789291,-66.299438,-85.159294,-0.096924,-0.121582,0.815674,79.154968,-6.004333,-5.943298
-0.348633,0.407227,0.465576,-203.330978,-59.364315,-85.517876,0.02417,0.113037,0.661377,91.247551,-20.538328,-19.805908
-0.312988,0.450439,0.467773,-203.430161,-51.99432,-87.318413,-0.069824,-0.134033,0.846436,75.401306,-7.286071,-5.424499
-0.325439,0.499023,0.481689,-202.507004,-43.495174,-88.60778,-0.043701,-0.160156,0.908203,69.229126,-15.266418,-3.349304
-0.343018,0.546875,0.508057,-199.996933,-35.28595,-88.691704,-0.059326,-0.17041,0.944336,67.047119,-17.349243,-2.76947
-0.339355,0.60376,0.508057,-196.838364,-29.251097,-89.24102,-0.067627,-0.18335,0.959473,64.704895,-17.26532,-2.967834
-0.351807,0.64917,0.518799,-192.779526,-25.413511,-90.339653,-0.061035,-0.204346,0.969727,61.836239,-16.418457,-3.944397
-0.381348,0.670898,0.532471,-188.095078,-22.90344,-90.675346,-0.054932,-0.2229,0.968262,58.738705,-15.228271,-4.859924
-0.430908,0.337402,0.383301,-193.98497,-78.987122,-81.336967,-0.065186,-0.243408,0.950195,55.206295,-12.359618,-5.867004
-0.392334,0.687988,0.535645,-183.479294,-22.209166,-90.820305,-0.074463,-0.256592,0.921387,51.162716,-8.163452,-7.949829
-0.411133,0.73999,0.570557,-172.157272,-25.352476,-90.820305,-0.06958,-0.253662,0.889404,47.241207,-4.859924,-10.307311
-0.424561,0.77417,0.594971,-165.199265,-28.07617,-90.011589,-0.063232,-0.244385,0.869629,44.128414,-4.508972,-11.779784
-0.437744,0.821777,0.621582,-158.64563,-30.906675,-88.447563,-0.068359,-0.238281,0.861572,41.603085,-7.209777,-11.970519
-0.442383,0.859131,0.65625,-152.183533,-33.653259,-86.898796,-0.045654,-0.149414,0.873535,71.769714,-11.192321,-4.638672
-0.435303,0.885986,0.685059,-145.545959,-36.048889,-85.273735,0.027588,0.128662,0.673096,92.39196,-25.3067,-18.989563
-0.44043,0.904053,0.681396,-139.266968,-37.712097,-82.756035,-0.098633,-0.106201,0.800049,82.740776,-7.484436,-6.553649
-0.44043,0.912109,0.677979,-133.918762,-39.108276,-80.360405,0.047607,0.17041,0.698975,93.620293,-31.196592,-18.013
-0.429199,0.91748,0.6604,-129.03595,-40.306087,-78.178406,0.038086,0.150146,0.691895,93.246452,-29.403685,-18.409729
-0.42749,0.936768,0.630371,-125.213615,-40.313717,-75.363159,0.006836,0.45459,0.552979,65.139771,-10.726928,4.928589
-0.417969,0.968506,0.61377,-121.849052,-39.474487,-72.425842,-0.000732,0.434082,0.584717,69.007874,-7.598876,5.371093
-0.399902,0.713135,0.544678,-178.459152,-23.193357,-90.965263,-0.007324,0.410889,0.605469,73.944092,-4.295349,5.53894
-0.449951,0.342773,0.364746,-189.186081,-81.153862,-78.384399,-0.008057,0.398682,0.609375,79.666138,-1.441955,5.149841
-0.408691,1.001221,0.606445,-118.270866,-38.215637,-69.564819,-0.009277,0.383301,0.602539,85.914604,0.862122,4.585266
-0.506836,0.388184,0.359619,-180.183395,-83.557121,-68.405151,-0.019287,0.36377,0.584961,92.285149,2.632141,4.631042
-0.166992,-0.303955,0.854492,-58.746334,-20.797728,-42.4118,-0.011963,0.333252,0.567627,97.43499,3.715515,5.363464
-0.197998,-0.28833,0.864014,-58.563229,-23.399351,-44.631954,0.045654,0.305664,0.571533,101.226799,2.799988,4.981995
-0.204102,-0.265625,0.853516,-59.547421,-26.329039,-46.867367,0.119385,0.290527,0.616699,103.652946,-0.358582,2.700805
-0.224854,-0.246338,0.8479,-61.180111,-27.923582,-48.583981,0.14917,0.285156,0.663086,105.392448,-5.653381,0.183105
-0.250977,-0.224854,0.835693,-63.83514,-26.351927,-48.660275,0.010742,0.4646,0.499512,62.58392,-13.244628,4.211426
-0.272705,-0.209717,0.822998,-68.687439,-20.690916,-46.417233,0.099854,0.294434,0.745361,105.361931,-16.792297,-1.060486
-0.482178,0.35376,0.371338,-184.349045,-82.542412,-73.913574,0.134033,0.291016,0.703613,105.964653,-11.749267,-1.281738
-0.265381,-0.223633,0.838867,-79.421997,1.472473,-36.743164,0.079346,0.181152,0.659912,93.818657,-30.72357,-17.616272
-0.25293,-0.224854,0.797119,-87.081902,12.7182,-32.371521,0.112061,0.165283,0.630859,93.864433,-30.570982,-15.914916
-0.273438,-0.205566,0.750732,-95.878593,20.240782,-28.266905,0.148193,0.147949,0.616699,94.512932,-31.082151,-11.840819
-0.311279,-0.179443,0.72168,-104.827873,21.995543,-23.41461,0.156738,0.159424,0.644775,95.6726,-31.188963,-6.278991
-0.275391,-0.213379,0.844971,-73.661804,-11.047362,-42.022701,0.056641,0.184814,0.682373,94.047539,-31.204222,-17.906189
-0.404053,-0.090088,0.660889,-120.101921,11.260985,-12.435912,0.081055,0.211426,0.703125,97.610466,-28.373716,2.532959
-0.447266,-0.014648,0.614014,-128.143311,-0.640869,-8.979797,0.05957,0.244873,0.744629,100.349419,-24.978636,2.128601
-0.475586,0.067871,0.576172,-135.559082,-16.426086,-9.788513,0.069092,0.275879,0.763672,103.271477,-20.965574,0.259399
-0.510498,0.144287,0.558105,-140.960693,-32.531738,-13.679503,0.125,0.186279,0.672363,96.336357,-30.4718,-0.465393
-0.566895,0.204102,0.515381,-145.523071,-45.288082,-17.738342,0.202881,0.483398,0.546143,-146.217346,47.981258,43.365475
-0.550293,0.261719,0.452881,-149.925232,-57.128902,-23.246763,0.141846,0.25293,0.520264,-142.738342,58.647152,51.139828
-0.523438,0.320313,0.368896,-155.105591,-67.405701,-30.685423,0.149414,0.284424,0.515381,-144.416809,55.877682,51.559444
-0.496826,0.361572,0.333496,-161.499008,-75.904846,-40.954586,0.164307,0.313477,0.50293,-145.706177,52.795406,51.513668
-0.485352,0.394531,0.328125,-168.457016,-81.901543,-51.765438,0.192871,0.338379,0.501221,-147.05658,49.530025,50.453182
-0.497314,0.408691,0.332031,-174.972519,-83.885185,-61.096188,0.215088,0.359375,0.511963,-148.406982,46.95129,48.637386
-0.356934,-0.146484,0.700439,-112.609856,18.531799,-17.868042,0.217529,0.383789,0.524414,-149.06311,45.249935,46.180721
-0.301514,1.047363,0.650879,76.034546,97.160332,50.933834,0.114258,0.220703,0.518311,-140.525818,61.660763,51.071163
-0.266357,1.064697,0.672363,76.99585,98.670952,54.580685,0.209961,0.418701,0.544678,-148.735046,45.3186,44.494625
-0.243652,1.089844,0.678467,77.903748,92.971794,57.647701,0.201172,0.450439,0.549316,-147.796631,46.653744,44.151302
-0.259033,1.09668,0.675537,79.666138,82.504265,60.272213,0.209717,0.514404,0.555176,-143.90564,48.690792,42.015072
-0.385254,1.229736,0.540771,85.067741,74.203491,64.147949,0.25708,0.50415,0.497314,-141.319275,56.03027,41.221615
-0.335938,1.091553,0.631104,80.627434,65.338135,62.774654,0.192871,0.543457,0.564697,-139.129639,50.903316,42.716976
-0.395752,1.130615,0.562744,80.101013,66.055298,64.491272,0.199951,0.532471,0.544189,-138.389587,52.856441,43.55621
-0.412354,1.184814,0.531494,82.168571,69.580078,64.414978,0.224854,0.512695,0.520752,-139.320374,54.832455,43.189999
-0.298096,1.085938,0.67627,81.237785,71.31958,61.553951,0.284668,0.52002,0.479736,-143.798828,54.908749,39.047241
-0.356934,1.031006,0.646973,76.721191,90.827934,47.935482,0.301025,0.557373,0.481689,-146.072388,49.819942,37.689209
-0.27417,0.723389,0.605957,93.887321,19.683838,14.060973,0.312012,0.616699,0.492432,-146.850586,40.740963,37.467957
-0.327148,0.980957,0.660156,73.974609,75.744629,49.621578,0.307129,0.676514,0.495361,-146.347046,29.136656,38.772583
-0.246094,0.941406,0.656006,72.853088,67.398071,49.400326,0.294678,0.72168,0.499268,-146.331787,18.951416,40.489193
-0.182373,0.906006,0.653076,71.624756,64.048767,46.058651,0.270752,0.751465,0.51709,-146.339417,12.84027,40.824886
-0.138672,0.869629,0.660156,71.136475,64.689636,42.28973,0.071045,0.189453,0.520264,-138.206482,63.507076,50.704952
-0.101807,0.845947,0.676514,72.08252,66.757202,37.857056,0.20459,0.536865,0.569092,-141.181946,49.324032,41.725155
-0.100586,0.840576,0.670166,72.250366,68.893433,32.546997,0.032715,0.146973,0.521484,-135.978699,62.553402,49.812313
-0.112305,0.824463,0.674316,73.295593,68.885803,26.535032,-0.206787,-0.465576,0.693604,-30.128477,11.032104,18.165588
-0.145996,0.799316,0.649658,75.798035,66.78009,22.171019,0.017578,0.071533,0.549561,-130.943298,55.160519,48.065182
-0.192871,0.766846,0.618896,79.864502,60.020443,19.325256,0.227051,0.76416,0.524414,-146.652222,12.245177,40.565487
-0.245117,0.72998,0.604248,86.257927,44.43359,16.654968,-0.194092,-0.450684,0.686035,-34.851074,12.893676,21.194456
-0.381592,1.258057,0.572266,87.539665,76.530457,64.826965,-0.166992,-0.432129,0.678955,-39.489746,14.10675,23.567198
-0.369141,1.011963,0.658936,76.35498,83.45031,47.798153,-0.147217,-0.405518,0.674316,-43.945309,14.945983,25.009153
-0.362793,1.273193,0.598877,89.347832,74.729919,64.01825,-0.136719,-0.385986,0.671875,-48.149105,15.136718,25.917051
-0.248047,1.481445,0.642334,67.649841,19.493103,14.038085,-0.136963,-0.371094,0.661621,-52.566525,15.373229,26.588438
-0.369141,1.342285,0.611328,87.966911,67.245483,61.424252,-0.149658,-0.359375,0.642578,-57.220455,16.792297,27.740477
-0.280762,0.736328,0.62915,102.027885,-7.949829,11.428832,-0.15918,-0.3479,0.631348,-62.316891,18.2724,29.037474
-0.141357,1.498779,0.645996,21.934507,-14.244079,-2.525329,-0.161865,-0.337402,0.628174,-68.458557,19.935608,30.952452
-0.095459,1.497314,0.646729,25.520323,-4.180908,-2.563476,-0.153809,-0.310547,0.62793,-74.516296,21.39282,32.829285
-0.061523,1.497314,0.645264,28.999327,9.895325,-2.998352,-0.14624,-0.274902,0.635498,-80.223083,21.781919,35.102844
-0.056396,1.5,0.640869,32.608032,21.194456,-4.356384,-0.130127,-0.240723,0.63623,-85.914604,21.598814,37.864685
-0.088867,1.505859,0.633545,36.16333,25.177,-5.081176,-0.103027,-0.207275,0.63623,-90.950005,21.080015,39.466858
-0.131836,1.507324,0.631348,40.359493,20.301817,-5.485534,-0.085205,-0.186035,0.625977,-95.657341,20.599363,39.779663
-0.190918,1.496826,0.645264,45.44067,9.346008,-5.844116,-0.085938,-0.16333,0.611572,-100.509636,21.476744,40.756222
-0.246094,1.48584,0.677002,50.552364,-2.037048,-5.279541,-0.08667,-0.134033,0.603027,-105.079643,23.803709,41.000362
-0.260986,1.481689,0.722656,55.908199,-8.323669,-3.364563,-0.077393,-0.104248,0.600586,-109.168999,26.618956,40.931698
-0.350586,1.298584,0.616943,89.553825,71.708679,62.538143,-0.082031,-0.074463,0.603271,-113.128654,30.105589,42.213436
-0.244629,1.49707,0.735107,59.974667,-6.576538,-1.045227,-0.084473,-0.037842,0.602051,-116.546623,34.675598,44.853207
-0.267334,1.491211,0.680908,64.857483,9.811401,8.880615,-0.054443,-0.004395,0.601074,-119.61364,39.237976,46.478268
-0.263916,1.49585,0.587158,69.786072,30.059813,18.569946,-0.018799,0.022949,0.596191,-122.238152,43.327328,47.416683
-0.307617,1.496582,0.54126,71.395874,41.847225,24.703978,-0.004395,0.038574,0.585205,-124.755852,47.45483,47.912594
-0.299316,1.462646,0.552002,74.577332,51.895138,30.761717,0.010986,0.047607,0.565918,-127.92968,51.193233,48.004147
-0.310791,1.405762,0.572266,78.598022,59.700008,37.155151,0.016602,0.10376,0.534912,-133.483887,59.577938,48.751827
-0.343262,1.35791,0.583496,82.580559,63.484188,43.815609,0.182373,0.768311,0.537842,-147.80426,16.677856,39.764404
-0.376953,1.354736,0.578857,85.762016,63.072201,49.530025,0.157471,0.779541,0.564941,-148.452759,23.559568,38.42926
-0.391357,1.381592,0.546387,86.418144,60.668941,53.871151,0.153564,0.799805,0.586914,-147.972107,30.006407,36.941528
-0.423584,1.400146,0.537598,85.800163,60.363766,57.731625,0.160645,1.141602,0.520752,-45.227047,5.950927,3.715515
-0.41333,1.383789,0.561279,86.036674,63.08746,60.127254,0.148926,1.14209,0.506836,-45.471188,0.732422,5.393981
-0.244629,1.504395,0.713623,62.416073,0.320435,2.792358,0.140869,1.16626,0.531982,-44.906612,-0.343323,6.248474
-0.263672,0.747314,0.682861,111.54937,-32.936096,7.637023,0.161377,1.209229,0.570801,-41.618343,1.449585,5.050659
-0.188721,1.499268,0.634033,18.180847,-17.028809,-2.876281,0.201416,1.248291,0.60376,-36.895752,3.105163,2.326965
-0.223877,0.727051,0.787598,130.172729,-69.610596,-0.305176,0.2229,1.272217,0.609863,-32.516479,3.074646,-0.480652
-0.193115,0.030762,0.623779,86.563103,43.533321,30.876158,0.2229,1.291016,0.592529,-29.33502,1.121521,-2.593994
-0.20752,0.013428,0.670898,81.954948,37.780762,31.791685,0.220703,1.309326,0.569092,-26.725767,-2.845764,-3.845215
-0.203857,-0.001709,0.699219,77.415466,31.10504,32.447815,0.203125,1.317383,0.558838,-23.582457,-8.338928,-3.585815
-0.196045,-0.021973,0.727295,73.905945,24.497984,32.867432,0.166748,1.30249,0.541504,-21.186827,-14.10675,-2.365112
-0.185059,-0.045654,0.74292,71.220398,20.446775,33.01239,0.155273,1.152344,0.54834,-46.485897,12.893676,2.532959
-0.161621,-0.066162,0.744385,68.283081,20.454405,32.241821,0.137695,1.280762,0.512451,-20.164488,-17.89856,-0.175476
-0.130615,-0.097168,0.753906,65.460205,23.16284,30.273436,0.158936,1.284424,0.544922,-16.525269,-19.035339,2.708435
-0.114502,-0.132568,0.783447,63.240047,26.039122,27.862547,0.17334,1.310791,0.589111,-12.626647,-15.747069,1.869202
-0.103271,-0.159668,0.793945,60.874935,27.137754,25.238035,0.163574,1.349121,0.635254,-6.484985,-9.155273,0.778198
-0.120605,-0.174561,0.804932,57.998653,23.979185,22.331236,0.158447,1.384033,0.656494,0.808716,-2.037048,0.549316
-0.175049,0.049316,0.582764,91.957085,48.606869,31.196592,0.199463,1.405762,0.646729,7.362365,0.213623,1.983642
-0.179443,-0.182373,0.845459,56.495663,14.85443,21.01898,0.285889,1.411133,0.614014,11.726378,-5.516052,3.27301
-0.217041,-0.185547,0.932861,55.908199,-14.007567,22.163389,0.325439,1.410645,0.582031,14.633178,-13.572692,2.601623
-0.205811,-0.18457,0.955078,56.579586,-27.618406,22.521971,0.269775,1.409668,0.579102,17.677307,-14.549254,2.418518
-0.203369,-0.183838,0.968018,57.998653,-35.858154,22.743223,0.163086,1.412354,0.593506,21.331785,-6.729125,4.440308
-0.208496,-0.182373,0.961426,60.18066,-36.003113,22.315977,0.091797,1.416504,0.643799,24.955748,6.530761,7.308959
-0.223877,-0.192383,0.964844,63.980099,-30.761717,20.874022,0.134766,1.273682,0.513672,-18.859863,-19.416809,2.120972
-0.265381,-0.1875,0.970215,67.5354,-23.735044,19.836426,0.14624,1.158203,0.582031,-48.538204,18.821716,0.686645
-0.289063,-0.171143,0.951172,68.031311,-17.974854,20.225523,0.105225,1.435059,0.716553,30.174253,20.118711,9.910583
-0.243408,-0.188965,0.95752,69.358826,-16.036987,22.018431,0.150879,1.158936,0.65332,-55.541988,22.666929,-1.937866
-0.1521,-0.222412,0.934082,71.609497,-16.365051,23.231504,0.159912,0.825928,0.594727,-146.125793,33.77533,36.155701
-0.075684,-0.24292,0.85791,71.884155,-16.929626,23.094175,0.186035,0.86792,0.597656,-142.89856,33.996582,35.446167
-0.22168,-0.184326,0.888916,55.7785,1.586914,21.39282,0.21582,0.903809,0.593018,-139.053345,30.563353,34.057617
-0.190674,0.074219,0.578857,98.640434,52.24609,32.12738,0.228027,0.923584,0.591309,-135.917664,25.344847,32.676697
-0.248535,0.750732,0.731934,120.521538,-53.321835,3.372192,0.213623,0.932617,0.596436,-133.140564,20.606993,32.028198
-0.215088,0.150635,0.581787,109.634392,51.269527,31.486509,0.193115,0.937012,0.61084,-130.996704,17.364502,31.723021
-0.180664,0.683838,0.838867,141.517639,-81.542961,-3.486633,0.145996,1.16333,0.621582,-51.406857,22.270201,-1.403808
-0.135254,0.651367,0.856934,153.144836,-86.807243,-5.439758,0.182373,0.974121,0.647461,-124.099724,16.609192,29.357908
-0.110352,0.641602,0.842529,163.482651,-83.099358,-6.66809,0.186035,0.998291,0.661621,-118.812553,19.15741,25.993345
-0.088135,0.635742,0.828857,172.630295,-71.662903,-8.377075,0.183594,1.01416,0.668701,-113.021843,22.476194,22.247313
-0.086426,0.624512,0.827148,181.900009,-57.624813,-11.32965,0.173584,1.016602,0.660889,-107.666008,25.421141,18.981934
-0.132568,0.604492,0.807373,191.764816,-46.913143,-13.618468,0.184326,0.950439,0.627197,-128.227234,15.998839,31.249998
-0.209717,0.107178,0.581299,104.507439,53.25317,32.081604,0.162842,1.015137,0.63623,-97.106926,24.978636,15.228271
-0.22583,0.536133,0.718994,206.497177,-46.32568,-9.689331,0.165771,1.014404,0.608643,-93.093864,20.729063,14.640807
-0.247803,0.499512,0.686035,210.639938,-53.161617,-5.012512,0.176025,1.022949,0.581055,-89.49279,13.771056,14.953612
-0.256592,0.479004,0.663574,211.662277,-58.624264,-0.12207,0.191406,1.037598,0.564697,-86.379997,6.065368,14.167785
-0.233643,0.458008,0.651123,209.922775,-58.090206,3.761291,0.193848,1.054443,0.56958,-82.862846,0.88501,12.413024
-0.192383,0.575928,0.768555,200.309738,-43.228146,-12.931823,0.177246,1.064697,0.587891,-80.047607,-0.1297,10.597228
-0.182617,0.446289,0.611572,197.494492,-31.463621,7.949829,0.159668,1.084229,0.60083,-77.003479,2.220154,8.575439
-0.141846,0.436279,0.600586,188.362106,-12.115478,8.522034,0.162109,1.109619,0.625977,-72.265625,7.087707,5.767822
-0.135254,0.40625,0.587891,178.596481,7.621765,10.055541,0.164307,1.130615,0.661133,-66.474915,13.21411,2.418518
-0.157471,0.366211,0.570068,168.418869,25.390623,12.08496,0.156738,1.143555,0.668701,-60.615536,19.248962,-0.526428
-0.199463,0.319336,0.538086,158.256531,38.414001,16.052246,0.16333,1.016357,0.652832,-102.203362,26.596067,16.693115
-0.248047,0.276123,0.509033,147.68219,46.241756,22.445677,0.059326,-0.12085,0.672363,83.801262,-46.737667,-25.329588
-0.250977,0.242432,0.516113,137.443542,48.522945,27.984617,0.05249,-0.104004,0.670654,86.563103,-43.060299,-26.428221
-0.226318,0.220947,0.528809,128.387451,46.524044,30.3421,0.044922,-0.089111,0.671387,90.164177,-39.970398,-28.747557
-0.231445,0.207275,0.554932,121.12426,45.433041,31.341551,0.058838,-0.062988,0.674805,93.711845,-38.642883,-31.509398
-0.229492,0.183594,0.583008,115.272514,47.5769,31.692503,0.116943,0.083252,0.604492,102.47039,-47.721859,-33.500671
-0.213623,0.445557,0.626953,205.017075,-48.553463,6.584167,0.097412,0.003906,0.662354,99.136345,-39.794922,-33.683777
-0.348145,0.412598,0.628662,-181.747421,-41.320797,-63.056942,0.106445,0.0354,0.652588,100.669853,-41.66412,-33.706665
-0.366211,0.393066,0.644043,-182.685837,-44.326778,-63.186642,0.115967,0.065674,0.633545,101.478569,-44.364925,-33.866882
-0.343018,0.362061,0.647705,-182.853683,-50.338741,-63.774105,0.082031,-0.030029,0.667236,96.702568,-38.772583,-33.370972
-0.31543,0.32251,0.653809,-183.357224,-55.595394,-63.3316,0.052734,-0.134277,0.675049,81.245415,-49.34692,-25.489805
-0.281494,0.148926,0.586914,-177.009567,-53.25317,-55.931087,-0.109863,-0.278076,0.775635,54.618832,-24.261473,-11.589049
-0.291992,0.24585,0.640381,-183.570847,-58.982845,-58.92181,-0.025635,-0.159668,0.70874,75.500488,-46.501156,-25.543211
-0.299072,0.208252,0.623779,-182.472214,-57.449337,-57.327267,-0.04248,-0.17041,0.74707,72.105408,-42.640682,-24.955748
-0.292969,0.176514,0.599854,-180.397018,-55.488583,-56.724545,-0.055664,-0.172363,0.790527,69.534302,-38.414001,-23.712156
-0.299561,0.282715,0.645996,-183.792099,-58.601376,-61.012264,-0.053955,-0.181885,0.824219,67.344666,-34.0271,-23.117064
-0.365479,0.424072,0.591797,-180.473312,-40.046692,-60.798641,-0.05249,-0.19165,0.838135,65.383911,-30.456541,-22.888182
-0.362549,0.72876,0.613281,-152.359009,-42.945858,-57.258602,-0.060303,-0.195557,0.843994,63.743587,-27.793882,-22.018431
-0.351318,0.454102,0.552002,-177.658066,-47.111507,-53.497311,-0.067139,-0.205566,0.832764,62.606808,-26.634214,-20.683287
-0.340088,0.500977,0.560303,-176.261887,-56.892391,-52.261349,-0.068115,-0.2229,0.802734,61.683651,-26.794432,-19.40918
-0.348145,0.559326,0.594971,-176.460251,-68.748474,-52.604671,-0.081543,-0.23999,0.779297,60.302731,-27.244566,-17.38739
-0.375,0.599609,0.670898,-176.376328,-78.559875,-53.848263,-0.106445,-0.260498,0.768066,57.563778,-26.451109,-14.236449
-0.396484,0.617188,0.741943,-174.232468,-83.412163,-55.694576,0.131104,0.105713,0.591309,103.652946,-51.49078,-33.584595
-0.415527,0.613037,0.781006,-169.525131,-82.18383,-56.846615,0.016357,-0.148438,0.683105,78.567505,-49.209591,-25.650023
-0.419922,0.603516,0.779541,-163.764938,-75.920105,-57.151791,0.159424,0.126953,0.592529,104.660027,-54.176327,-34.187317
-0.406738,0.604248,0.736572,-158.683777,-67.176819,-56.915279,0.187012,0.44043,0.615967,96.664421,-82.786552,-33.546448
-0.39624,0.633301,0.679443,-155.197144,-57.952877,-56.541439,0.241211,0.186279,0.634277,108.215324,-52.169796,-34.843445
-0.374756,0.682373,0.634033,-153.442383,-49.835201,-56.678768,-0.101318,-0.295166,0.791748,51.834103,-21.659849,-10.253905
-0.268799,0.125977,0.568604,-173.377975,-50.628658,-54.664608,0.146484,0.510254,0.610352,96.748344,-39.489746,-49.270626
-0.373291,0.429199,0.568848,-179.290756,-41.320797,-56.724545,0.12793,0.494873,0.610352,98.358147,-39.276123,-46.340939
-0.247559,0.091797,0.549316,-169.181808,-48.316952,-53.726192,0.127197,0.46875,0.59375,99.021904,-40.855404,-43.449398
-0.119873,-0.357666,0.525146,-106.361382,-34.0271,-35.583496,0.147705,0.448486,0.56958,100.097649,-44.013973,-41.351315
-0.239014,0.029785,0.550781,-160.629257,-43.457027,-52.230831,0.157715,0.418457,0.545898,99.731438,-48.477169,-39.962769
-0.360352,0.76416,0.606934,-152.099609,-37.42981,-58.0368,0.180664,0.393311,0.517822,96.450798,-54.222103,-38.856506
0.082031,-0.616943,0.577881,-24.978636,-8.285522,-16.12854,0.213379,0.395996,0.536133,93.52874,-60.646053,-38.17749
0.081543,-0.599365,0.559814,-31.959532,-6.988525,-17.822266,0.230713,0.4021,0.574707,92.002861,-67.909241,-37.834167
0.076416,-0.600098,0.565674,-37.93335,-5.798339,-19.050598,0.227539,0.401367,0.600586,91.430656,-75.22583,-37.063599
0.091309,-0.585449,0.540771,-44.448849,-5.638122,-20.309446,0.202148,0.145752,0.603027,105.812065,-54.229733,-34.645081
0.089111,-0.565674,0.510254,-51.757809,-6.256103,-21.888731,0.209961,0.391602,0.602783,90.49987,-81.192009,-35.705566
0.075195,-0.547119,0.499023,-58.967587,-7.904052,-24.063108,0.171143,0.425537,0.618652,93.39904,-84.007256,-33.905029
0.054932,-0.519775,0.493164,-66.566467,-11.589049,-27.19879,0.220459,0.438477,0.611816,101.425163,-80.93261,-34.011841
0.00293,-0.501709,0.501953,-73.768616,-15.953063,-29.571531,0.257324,0.407471,0.601807,105.339043,-78.033447,-35.369873
-0.031982,-0.483887,0.507568,-81.05468,-21.240232,-31.814573,0.276123,0.370117,0.590576,106.651299,-73.257446,-36.888123
-0.237793,0.057129,0.556396,-164.710983,-45.745846,-52.825924,0.262451,0.344971,0.595459,106.697075,-66.230774,-37.605286
-0.050293,-0.44873,0.503174,-88.546745,-26.657103,-34.40094,0.246582,0.331299,0.619873,106.834404,-58.143612,-37.948608
-0.125732,-0.388916,0.524414,-101.165764,-31.761168,-36.224365,0.23999,0.321533,0.640381,107.604973,-50.621029,-37.956238
-0.092529,-0.302002,0.501465,-112.998955,-37.521362,-36.773682,0.237793,0.314941,0.658203,108.940117,-45.989986,-36.727905
-0.102051,-0.257568,0.514893,-119.583122,-41.213985,-39.543152,0.256348,0.286621,0.662598,109.901421,-45.837399,-35.476685
-0.127686,-0.216309,0.527588,-125.953667,-43.785091,-43.235775,0.263184,0.240723,0.654297,109.741203,-48.828121,-35.041809
-0.161865,-0.181641,0.551514,-131.767273,-45.036312,-46.432491,0.184326,0.404541,0.611084,91.140739,-83.930962,-34.629822
-0.19043,-0.138916,0.562744,-137.565613,-45.028683,-50.056454,-0.093262,-0.308105,0.812012,48.851009,-19.111633,-9.414673
-0.220215,-0.101563,0.569336,-143.035889,-44.334408,-52.772518,-0.095459,-0.320801,0.818604,45.433041,-16.899109,-8.087158
-0.25708,-0.075439,0.587891,-147.781372,-42.739864,-53.222652,-0.09668,-0.323486,0.820313,42.739864,-15.3656,-6.553649
-0.258057,-0.049561,0.589355,-152.061462,-41.687008,-52.589413,-0.102783,-0.43042,0.945068,10.32257,-3.509521,-4.699707
-0.242188,-0.011719,0.56958,-156.349182,-41.999813,-52.223202,-0.070313,-0.434082,0.930908,10.086059,-4.814148,-5.134582
-0.09082,-0.409668,0.508057,-95.779411,-29.884336,-36.087036,-0.045654,-0.437988,0.925049,9.292603,-7.064819,-6.263732
-0.354248,0.784424,0.630859,-152.59552,-34.042358,-58.601376,-0.044434,-0.43457,0.928223,8.544922,-8.842468,-7.072448
0.071289,-0.628906,0.606934,-18.409729,-9.765625,-15.213012,-0.053711,-0.432861,0.923828,8.323669,-10.475158,-7.667541
-0.369385,0.81665,0.685791,-153.72467,-32.371521,-59.707638,-0.061279,-0.437744,0.915771,8.514404,-11.909484,-8.522034
-0.262207,1.227295,0.590332,-78.025818,-31.249998,-47.981258,-0.091064,-0.450928,0.911621,8.529663,-12.557982,-8.911133
-0.256104,1.231689,0.587891,-74.493408,-35.400391,-47.485348,-0.129883,-0.461426,0.89917,8.43811,-11.96289,-8.209229
-0.224609,1.238037,0.572021,-70.465088,-35.28595,-46.852108,-0.151367,-0.46875,0.885986,8.071899,-10.658263,-7.263183
-0.194824,1.253906,0.543213,-66.390991,-28.350828,-45.257565,-0.161133,-0.481445,0.867432,7.232666,-8.964539,-6.217956
-0.160156,1.277832,0.50708,-62.995907,-15.464782,-42.28973,-0.123535,-0.426758,0.954834,10.650634,-3.65448,-5.081176
-0.12915,1.303467,0.469482,-60.005184,-1.724243,-39.932251,-0.158936,-0.490479,0.844482,5.859375,-7.56073,-5.0354
-0.134033,1.320557,0.450195,-56.556698,5.775451,-38.787842,-0.147461,-0.499023,0.804688,2.464294,-6.790161,-3.509521
-0.177002,1.334717,0.461914,-52.711483,5.41687,-36.949158,-0.152344,-0.497559,0.789551,-0.045776,-6.523132,-2.449036
-0.204346,1.345947,0.493408,-47.950741,0.160217,-33.859253,-0.150146,-0.489502,0.763184,-2.487183,-6.393432,-1.304626
-0.218262,1.347412,0.541504,-42.083736,-5.729675,-30.654905,-0.169678,-0.485596,0.74707,-5.28717,-5.607605,1.052856
-0.25,1.219727,0.582764,-80.589287,-26.405333,-48.080441,-0.181885,-0.479004,0.733643,-7.820129,-4.432678,3.311157
-0.233887,1.348145,0.557129,-37.216187,-9.010315,-26.962278,-0.169189,-0.469727,0.7229,-10.437011,-3.784179,4.730225
-0.216553,1.341553,0.552979,-26.19171,-7.987976,-18.241882,-0.181396,-0.460693,0.715088,-12.786864,-2.609253,6.576538
-0.178223,1.362061,0.531006,-20.835875,-2.319336,-15.190124,-0.213867,-0.460449,0.703857,-15.182494,0.236511,9.269714
-0.149658,1.384277,0.508301,-15.396117,7.499694,-12.199401,-0.228271,-0.45752,0.696777,-17.967224,3.791809,11.947631
-0.125488,1.406738,0.491455,-9.788513,17.112732,-8.430481,-0.205811,-0.462402,0.693604,-21.14105,6.431579,13.267516
-0.107178,1.446777,0.466797,-5.813598,20.957945,-6.225585,-0.151855,-0.495361,0.827881,4.425049,-7.133483,-4.234314
-0.130615,1.477051,0.493896,-2.39563,17.669678,-5.851745,-0.125244,-0.424805,0.963623,11.001586,-5.058288,-5.531311
-0.179932,1.48999,0.55249,1.533508,10.57434,-5.714416,-0.196045,-0.468262,0.693604,-25.314329,8.598328,15.129088
-0.215576,1.495361,0.600586,5.66101,2.853393,-4.936218,-0.132568,-0.415771,0.9729,11.146544,-10.261535,-4.585266
-0.218262,1.495605,0.623535,10.215758,-5.41687,-4.585266,-0.08667,-0.329102,0.812256,40.466305,-14.915465,-5.256652
-0.206787,1.497559,0.629395,14.518737,-13.320922,-3.982544,-0.078125,-0.336914,0.815186,38.040161,-14.999389,-3.921509
-0.239014,1.338379,0.562744,-31.814573,-9.567261,-22.438047,-0.068848,-0.347412,0.822998,35.652161,-15.571593,-2.76947
-0.238525,1.206299,0.572998,-82.778923,-22.232054,-47.523495,-0.056152,-0.359619,0.830078,33.14209,-16.395569,-2.02179
-0.352295,0.807373,0.654053,-153.709412,-32.485962,-59.440609,-0.057617,-0.367188,0.835938,30.731199,-16.51001,-1.617432
-0.200684,1.177734,0.512939,-86.578362,-15.251159,-44.616695,-0.072021,-0.369141,0.843506,29.090879,-15.701293,-1.564026
-0.361084,0.82666,0.706299,-153.236389,-33.302307,-59.68475,-0.12793,-0.419434,0.972412,11.245727,-7.316589,-5.317688
-0.348633,0.843506,0.700684,-152.22168,-34.675598,-60.722347,-0.086914,-0.385742,0.862549,25.543211,-12.557982,-2.105713
-0.373047,0.852295,0.706543,-149.452209,-33.683777,-61.660763,-0.096191,-0.38916,0.875732,23.78845,-11.016845,-2.052307
-0.373047,0.858154,0.691895,-146.156311,-28.846739,-61.767574,-0.113525,-0.389404,0.886475,22.186277,-9.368896,-1.197815
-0.351807,0.875732,0.65332,-142.921448,-21.202085,-60.836788,-0.119629,-0.392334,0.898682,20.759581,-7.659912,-0.328064
-0.328125,0.89917,0.625732,-139.434814,-11.619567,-58.891293,-0.084717,-0.376465,0.852783,27.526854,-14.137267,-1.777649
-0.223389,1.192871,0.547119,-84.938042,-18.264771,-46.493526,-0.098145,-0.40332,0.907471,18.974304,-5.638122,-0.495911
-0.283691,0.976807,0.588623,-136.291504,4.394531,-55.961605,-0.093262,-0.403564,0.916748,18.058777,-5.210876,-0.747681
-0.310059,0.991699,0.604736,-133.773804,6.652832,-54.718014,-0.083008,-0.408447,0.927246,16.914368,-5.935668,-0.671387
-0.343018,0.998535,0.617676,-129.592896,4.058838,-52.825924,-0.05957,-0.411621,0.941406,15.380858,-8.323669,-1.098633
-0.359131,1.008545,0.605957,-126.16729,-2.616882,-50.85754,-0.044189,-0.410156,0.950439,14.518737,-11.817931,-1.579285
-0.298584,0.937012,0.598877,-137.252808,-2.189636,-57.067867,-0.059082,-0.410645,0.953125,13.961791,-14.793395,-2.052307
-0.374268,1.014404,0.640137,-118.469231,-17.974854,-46.165462,-0.070557,-0.414551,0.958984,13.153075,-16.662598,-2.998352
-0.364746,1.021484,0.660889,-114.074699,-24.375914,-44.250484,-0.085938,-0.419678,0.96582,12.08496,-17.250061,-4.150391
