ax,ay,az,gx,gy,gz
-0.434326,-0.910156,0.06665,2.197266,4.03595,-0.267029
-0.434082,-0.909912,0.064209,2.296448,4.02832,-0.389099
-0.432861,-0.911621,0.064453,2.388,3.860473,-0.564575
-0.437256,-0.910156,0.066895,2.510071,3.952026,-0.701904
-0.435791,-0.910889,0.065186,2.555847,4.226685,-0.907898
-0.436035,-0.911377,0.065674,2.761841,4.493713,-1.152039
-0.437256,-0.912842,0.065186,2.76947,4.592896,-1.38855
-0.438232,-0.914063,0.065674,2.76947,4.844666,-1.609802
-0.437988,-0.912354,0.064453,2.746582,4.867554,-1.739502
-0.441895,-0.912598,0.062012,2.89154,4.936218,-1.907349
-0.443359,-0.913818,0.061523,2.944946,4.981995,-2.113342
-0.444824,-0.914795,0.058105,2.76947,5.027771,-2.090454
-0.443359,-0.912842,0.054443,2.677917,5.004883,-1.88446
-0.44043,-0.913818,0.055908,2.586365,4.646301,-1.502991
-0.4375,-0.91626,0.059326,2.502441,4.112244,-1.106262
-0.437744,-0.918213,0.058594,2.342224,3.662109,-0.694275
-0.44165,-0.917969,0.057861,2.403259,3.410339,-0.404358
-0.440918,-0.917236,0.058838,2.487183,3.448486,-0.114441
-0.441895,-0.913818,0.053711,2.349854,3.677368,0.106812
-0.443115,-0.915039,0.052979,2.334595,3.845215,0.343323
-0.442383,-0.912842,0.055176,2.14386,3.860473,0.38147
-0.442139,-0.911865,0.056885,2.052307,3.639221,0.541687
-0.4375,-0.91333,0.059082,1.815796,3.379822,0.617981
-0.436768,-0.914795,0.061279,1.533508,2.944946,0.770569
-0.435303,-0.913086,0.056152,1.152039,2.487183,0.968933
-0.43457,-0.914307,0.055908,0.923157,1.930237,1.167297
-0.431641,-0.907471,0.056152,0.495911,1.419067,1.655578
-0.425537,-0.895996,0.056396,0.274658,0.823975,2.326965
-0.415283,-0.89624,0.055176,-0.076294,-0.25177,3.562927
-0.401611,-0.939697,0.05835,-0.282288,-2.76947,4.997253
-0.40625,-0.965088,0.055908,-0.465393,-6.42395,6.332397
-0.42334,-0.945557,0.043945,-0.534058,-8.705139,7.713317
-0.425049,-0.925781,0.037598,-0.099182,-8.651733,9.45282
-0.423828,-0.919922,0.045898,1.64032,-7.247924,11.45172
-0.443848,-0.943848,0.050049,4.66156,-3.982544,12.870788
-0.443359,-0.981445,0.06543,7.614135,2.288818,13.519286
-0.368652,-0.999756,0.062012,9.475708,8.148193,13.572692
-0.299316,-0.963135,0.027588,9.94873,9.208679,8.018494
-0.274902,-0.949707,-0.005859,9.254456,6.973266,-1.983642
-0.280273,-0.993408,-0.031738,6.41632,6.309509,-11.024474
-0.244873,-1.016846,-0.020752,1.487732,3.479004,-16.525269
-0.203125,-1.040771,0.036133,-3.044128,-5.447387,-21.713255
-0.185547,-1.074463,0.112305,-5.615234,-17.814636,-27.130125
-0.205566,-1.089844,0.168457,-3.14331,-24.322508,-32.073975
-0.224365,-1.083008,0.186035,3.723144,-18.753052,-36.613464
-0.22583,-1.060791,0.171875,9.628296,-5.950927,-38.352966
-0.211426,-1.036621,0.146729,14.701842,6.790161,-38.505554
-0.184082,-1.02124,0.118164,18.844604,14.755248,-36.521912
-0.159424,-1.006836,0.09375,21.293638,17.372131,-34.225464
-0.161133,-0.990234,0.076172,21.247862,14.739989,-33.317566
-0.19043,-0.97998,0.083252,20.294188,10.19287,-34.317017
-0.240234,-0.978027,0.112793,19.889832,7.057189,-36.621094
-0.308105,-0.977295,0.129883,19.40155,7.743835,-38.833618
-0.368164,-0.965576,0.142822,18.4021,12.855529,-39.978027
-0.362549,-0.959229,0.148926,17.63916,20.187376,-40.435787
-0.323975,-0.947754,0.161621,16.616821,26.176451,-42.358395
-0.300537,-0.931641,0.176025,15.159606,25.3067,-45.104977
-0.308594,-0.922852,0.182373,13.366698,19.752502,-47.45483
-0.322754,-0.911377,0.182129,11.749267,13.504027,-49.171444
-0.333984,-0.896484,0.18042,9.811401,7.461547,-51.124569
-0.35083,-0.885254,0.180176,7.6828,1.586914,-53.550716
-0.378174,-0.886963,0.171387,5.477905,-3.425598,-56.27441
-0.391846,-0.892822,0.161377,2.655029,-7.598876,-58.067318
-0.395996,-0.889648,0.156982,-0.915527,-11.917113,-58.79211
-0.399902,-0.888672,0.150879,-4.806519,-17.608643,-59.394833
-0.396484,-0.89209,0.14209,-9.277344,-24.909971,-59.036251
-0.394775,-0.89624,0.135986,-14.48059,-33.805847,-57.78503
-0.392334,-0.897217,0.129395,-20.080564,-44.029232,-56.175228
-0.390381,-0.894531,0.128906,-25.688169,-54.611202,-54.244991
-0.395264,-0.895508,0.131592,-30.6015,-65.109253,-51.841732
-0.403076,-0.893799,0.14209,-34.118652,-74.279785,-49.499508
-0.422119,-0.888916,0.144775,-35.308838,-79.76532,-47.592159
-0.445557,-0.896729,0.135742,-34.324646,-79.742432,-45.135494
-0.450439,-0.907471,0.115234,-32.966614,-75.218201,-41.267391
-0.435303,-0.9104,0.094482,-31.98242,-70.167542,-36.506653
-0.420654,-0.913086,0.07373,-31.074522,-66.856384,-30.876158
-0.414551,-0.918945,0.056885,-30.036924,-65.299988,-24.398802
-0.403564,-0.92627,0.047363,-29.098509,-64.903259,-17.105103
-0.384277,-0.930176,0.035645,-28.312681,-66.207886,-9.536743
-0.368164,-0.918701,0.029297,-27.481077,-69.244385,-2.723694
-0.38501,-0.906006,0.027832,-25.741575,-71.662903,2.372742
-0.41333,-0.909912,0.03125,-23.086546,-70.922852,6.935119
-0.424561,-0.916992,0.034424,-20.126341,-66.200256,11.871337
-0.428223,-0.92041,0.032715,-16.441345,-58.471676,16.63208
-0.430176,-0.927979,0.034912,-12.08496,-48.446651,20.233152
-0.429443,-0.943604,0.0271,-7.881164,-36.407471,22.941587
-0.408447,-0.947998,0.017578,-4.981995,-24.16992,26.145933
-0.370605,-0.947021,0.01123,-3.608703,-14.381408,29.510496
-0.33374,-0.949219,0.010986,-3.318786,-9.399414,32.272339
-0.313232,-0.952393,0.01416,-3.929138,-8.758545,34.637451
-0.300781,-0.950684,0.021973,-4.852295,-10.551452,36.590576
-0.29248,-0.946777,0.028564,-5.958557,-14.015197,38.093567
-0.289551,-0.947754,0.033936,-7.102966,-17.982483,39.237976
-0.290527,-0.942871,0.039063,-7.949829,-21.308897,39.634705
-0.306152,-0.937744,0.045166,-7.766723,-22.193907,39.176941
-0.32251,-0.934326,0.046387,-6.599426,-19.744873,38.414001
-0.321045,-0.939697,0.041992,-5.546569,-15.403747,38.063049
-0.308594,-0.937988,0.038574,-5.271911,-11.83319,38.085938
-0.305664,-0.937256,0.040771,-4.959106,-9.902954,38.482666
-0.3125,-0.937988,0.046631,-4.493713,-8.621216,39.016724
-0.32251,-0.93042,0.05249,-3.822326,-7.17926,39.833069
-0.329102,-0.91626,0.056396,-3.196716,-5.729675,40.557858
-0.338379,-0.911133,0.057373,-2.700805,-4.875183,40.473934
-0.342773,-0.912109,0.061279,-2.609253,-4.455566,39.802551
-0.350342,-0.914795,0.066406,-2.944946,-4.249573,38.536072
-0.353516,-0.939209,0.063721,-3.448486,-4.570007,37.29248
-0.348145,-0.9646,0.065918,-3.639221,-5.622863,37.29248
-0.343994,-0.957031,0.066895,-4.325867,-8.285522,37.460327
-0.345703,-0.94043,0.063477,-5.088806,-11.848449,37.42218
-0.35083,-0.940674,0.061523,-5.393981,-14.61029,37.117004
-0.360352,-0.937012,0.063721,-5.271911,-16.090393,36.506653
-0.373291,-0.922363,0.058838,-4.768372,-16.029358,35.766602
-0.388672,-0.91333,0.055664,-4.249573,-15.090941,34.988403
-0.399658,-0.910889,0.053955,-3.738403,-13.755797,34.255981
-0.403076,-0.911865,0.057373,-3.173828,-12.557982,33.561707
-0.41333,-0.90332,0.0625,-2.716064,-11.512755,32.043457
-0.437256,-0.912354,0.061279,-2.212524,-9.735107,29.663084
-0.449463,-0.960693,0.054443,-1.052856,-6.034851,28.182981
-0.452393,-0.987305,0.05249,0.358582,-1.12915,28.442381
-0.445801,-0.963379,0.058594,1.403808,3.341675,28.991697
-0.435547,-0.947998,0.058105,2.838135,7.827758,29.098509
-0.424072,-0.955811,0.059326,4.798889,12.832641,29.174803
-0.411865,-0.955811,0.061523,7.232666,17.684937,29.258726
-0.404053,-0.949463,0.0625,9.216309,21.781919,28.923033
-0.4021,-0.944336,0.067383,10.650634,24.375914,28.480528
-0.402832,-0.93457,0.071289,11.817931,25.29907,28.175352
-0.406494,-0.922363,0.072754,13.053893,25.253294,28.030394
-0.413574,-0.911377,0.073975,14.152526,25.0473,27.542112
-0.421875,-0.900635,0.079346,15.11383,24.940489,26.390074
-0.434814,-0.898926,0.082275,15.708922,25.42877,24.627684
-0.445801,-0.902832,0.09082,15.960692,26.733397,22.644041
-0.448975,-0.90332,0.098877,16.014099,28.617857,20.675657
-0.451416,-0.901855,0.104004,15.853881,30.883787,18.836975
-0.447021,-0.905029,0.11084,15.73944,32.829285,17.028809
-0.442871,-0.906494,0.116455,15.769958,34.202576,15.243529
-0.442139,-0.904297,0.116211,16.059875,34.957886,13.778686
-0.440918,-0.901367,0.112305,16.265869,35.202026,12.329101
-0.437256,-0.901123,0.112793,16.433716,34.934998,10.963439
-0.435547,-0.902344,0.111084,16.777039,33.996582,9.765625
-0.434082,-0.900879,0.108643,17.433167,32.585144,8.750916
-0.440674,-0.903809,0.101807,18.409729,31.60095,7.8125
-0.437988,-0.908203,0.097168,19.065857,30.746458,7.026672
-0.436035,-0.909668,0.095215,19.607544,29.479979,6.576538
-0.442871,-0.90918,0.093262,20.355223,28.572081,6.103515
-0.450439,-0.912842,0.09375,21.354673,28.717039,5.645751
-0.456055,-0.915283,0.093018,22.964476,30.982969,5.355834
-0.457031,-0.91626,0.090088,24.429319,34.263611,5.088806
-0.455566,-0.915771,0.087891,25.93231,37.93335,5.043029
-0.450684,-0.914795,0.083984,27.786253,41.763302,4.79126
-0.447021,-0.922119,0.078857,29.899595,45.684811,4.974365
-0.44043,-0.925293,0.071533,30.586241,48.179623,5.844116
-0.433838,-0.925781,0.063965,31.585691,50.018307,6.187438
-0.432617,-0.9375,0.058105,32.600403,51.307674,7.156372
-0.428467,-0.941162,0.04541,32.409668,52.482601,7.400512
-0.421387,-0.947266,0.038574,32.104492,53.25317,7.713317
-0.436279,-0.960938,0.030029,31.265257,54.321285,7.942199
-0.433838,-0.97876,0.008057,29.830931,58.120724,7.591247
-0.405762,-0.998047,-0.027344,26.893614,62.721249,6.904602
-0.348145,-1.001709,-0.073242,21.568296,61.82098,5.40924
-0.31958,-0.995605,-0.135986,14.793395,53.009029,2.960205
-0.298828,-0.988281,-0.171143,7.591247,38.139343,0.63324
-0.289307,-0.967529,-0.162354,0.62561,19.958496,-0.823975
-0.308838,-0.935303,-0.117432,-4.173279,3.875732,-2.082825
-0.337646,-0.918945,-0.067627,-5.393981,-7.209777,-3.051758
-0.367188,-0.916016,-0.021729,-4.714966,-15.86914,-3.471374
-0.400879,-0.907959,0.010742,-3.89862,-21.766661,-4.119873
-0.422607,-0.901367,0.030518,-3.440857,-23.681639,-5.020141
-0.436768,-0.897705,0.049316,-3.417969,-22.773741,-5.66864
-0.44458,-0.894775,0.063232,-3.730774,-20.500181,-6.210327
-0.453613,-0.888672,0.074219,-3.700256,-17.547607,-7.087707
-0.458984,-0.885742,0.086182,-3.52478,-14.366149,-8.094788
-0.463623,-0.884033,0.098389,-3.913879,-11.489867,-8.880615
-0.4646,-0.882568,0.102051,-4.302979,-8.804321,-9.651184
-0.469482,-0.879883,0.109131,-4.997253,-6.523132,-10.238647
-0.476318,-0.878174,0.115234,-5.371093,-4.013062,-11.100768
-0.478027,-0.875977,0.117676,-5.508422,-1.708984,-12.290954
-0.474854,-0.882568,0.113037,-5.363464,-0.167847,-13.603209
-0.467773,-0.885986,0.106934,-5.142211,0.160217,-14.755248
-0.461914,-0.886475,0.101074,-5.0354,-0.808716,-16.082764
-0.45874,-0.885742,0.094971,-5.15747,-2.731323,-17.707825
-0.461914,-0.893799,0.092529,-4.78363,-4.592896,-18.974304
-0.466553,-0.893555,0.092773,-4.890442,-6.538391,-19.973755
-0.471436,-0.893799,0.096924,-4.653931,-7.789611,-20.782469
-0.47583,-0.894287,0.090088,-4.600525,-8.789063,-20.538328
-0.481201,-0.890625,0.086426,-4.219055,-9.185791,-20.26367
-0.489502,-0.889893,0.086914,-3.372192,-8.399963,-19.538879
-0.486572,-0.886719,0.080811,-2.89917,-6.889343,-18.318176
-0.482422,-0.890625,0.070313,-2.281189,-6.378173,-16.426086
-0.498779,-0.892822,0.068359,-1.777649,-6.080627,-14.47296
-0.502197,-0.89917,0.064209,-0.610352,-2.685547,-12.931823
-0.483643,-0.905029,0.059326,-0.190735,-0.389099,-10.543822
-0.48584,-0.903809,0.057617,0.022888,-0.518799,-8.102417
-0.493652,-0.90918,0.056641,0.617981,0.083923,-5.516052
-0.492676,-0.91333,0.051514,0.88501,1.083374,-2.960205
-0.482422,-0.914551,0.044922,1.075745,1.63269,-0.37384
-0.476074,-0.921875,0.043945,1.342773,0.946045,2.27356
-0.484375,-0.92334,0.04126,1.213074,0.297546,4.402161
-0.488281,-0.921143,0.035889,0.961304,0.88501,6.111145
-0.483643,-0.922607,0.034424,0.617981,2.670288,7.43103
-0.474121,-0.918701,0.030273,0.167847,4.829407,8.354187
-0.459717,-0.912109,0.030762,-0.419617,6.332397,8.934021
-0.447998,-0.907471,0.030762,-1.00708,7.019042,9.185791
-0.437012,-0.905029,0.033203,-1.235962,7.011413,9.040833
-0.432129,-0.901855,0.036133,-1.365662,6.507873,8.796692
-0.429932,-0.901611,0.037354,-1.441955,5.79071,8.468628
-0.427979,-0.903564,0.040771,-1.464844,4.760742,8.239746
-0.429688,-0.901367,0.046143,-1.701355,3.311157,8.026123
-0.433105,-0.896729,0.050537,-1.724243,2.059937,7.92694
-0.434814,-0.895752,0.053955,-1.602173,1.091003,7.80487
-0.434326,-0.89502,0.062988,-1.266479,0.442505,7.30133
-0.436035,-0.898926,0.064941,-0.663757,0.282288,6.538391
-0.437012,-0.900146,0.065186,-0.419617,0.297546,5.638122
-0.434082,-0.899658,0.068848,-0.198364,0.213623,4.798889
-0.434814,-0.899658,0.072266,0.205994,-0.160217,3.829956
-0.436035,-0.898926,0.076904,0.572205,-0.63324,2.723694
-0.436523,-0.898193,0.077393,1.159668,-1.441955,1.655578
-0.439453,-0.895996,0.076904,1.556396,-2.26593,0.427246
-0.441895,-0.894531,0.075439,1.953125,-3.234863,-0.808716
-0.446045,-0.894287,0.074463,2.63977,-4.066467,-2.037048
-0.448975,-0.889404,0.076416,3.067016,-4.577637,-3.158569
-0.454346,-0.890137,0.076172,3.547668,-4.898071,-4.02832
-0.45459,-0.890869,0.076416,3.982544,-5.226135,-4.814148
-0.453125,-0.894043,0.074951,4.074097,-5.805969,-5.493164
-0.455566,-0.897217,0.071533,4.440308,-6.492614,-6.126403
-0.459473,-0.896973,0.070068,4.920959,-6.874084,-6.66809
-0.462891,-0.897217,0.071045,5.271911,-6.866455,-7.102966
-0.466064,-0.899414,0.063965,5.599975,-6.462097,-7.408142
-0.469727,-0.902832,0.060791,6.004333,-5.714416,-7.713317
-0.4729,-0.908447,0.056641,6.256103,-4.585266,-7.873535
-0.474365,-0.908203,0.054199,6.286621,-3.105163,-7.995605
-0.472168,-0.905762,0.049805,6.301879,-1.831055,-7.781982
-0.471191,-0.903809,0.043701,6.568908,-0.663757,-7.469177
-0.470703,-0.904297,0.042725,6.706237,0.518799,-7.156372
-0.470215,-0.907959,0.039551,6.805419,1.861572,-6.820678
-0.46875,-0.908936,0.036133,6.713867,3.067016,-6.41632
-0.468506,-0.9104,0.032471,6.759643,4.165649,-6.118774
-0.464111,-0.910645,0.031738,6.507873,5.065917,-5.821228
-0.462158,-0.911865,0.0354,6.378173,5.531311,-5.683898
-0.464844,-0.913818,0.038574,6.103515,5.950927,-5.561828
-0.463379,-0.914551,0.042969,5.798339,6.591796,-5.516052
-0.460205,-0.912109,0.046875,5.577087,7.400512,-5.516052
-0.45874,-0.910889,0.052002,5.294799,8.43811,-5.41687
-0.456787,-0.907227,0.054443,5.134582,9.635925,-5.676269
-0.454834,-0.907959,0.053467,5.1651,10.82611,-6.141662
-0.456787,-0.910889,0.053467,4.989624,11.917113,-6.599426
-0.454834,-0.913818,0.055176,4.631042,12.931823,-6.980896
-0.456543,-0.914551,0.061523,4.364014,13.710021,-7.263183
-0.45459,-0.917236,0.06543,4.150391,14.129638,-7.514953
-0.452393,-0.918701,0.072754,3.730774,13.97705,-7.308959
-0.453613,-0.916992,0.075928,3.158569,14.152526,-7.041931
-0.447754,-0.917969,0.077881,2.731323,14.343261,-6.584167
-0.44458,-0.919922,0.07959,2.304077,14.328002,-5.973815
-0.439209,-0.922119,0.081055,1.976013,13.763427,-5.271911
-0.436279,-0.920166,0.083496,1.495361,12.924193,-4.302979
-0.43335,-0.919434,0.082275,1.167297,11.627196,-3.166198
-0.429932,-0.91748,0.084229,1.075745,10.040282,-1.914978
-0.427734,-0.914551,0.081787,0.88501,8.44574,-0.75531
-0.423096,-0.911621,0.08252,0.839233,6.790161,0.358582
-0.419189,-0.90625,0.08374,0.740051,5.53894,1.174927
-0.41748,-0.902344,0.085205,0.862122,4.585266,1.731872
-0.415039,-0.902588,0.08374,0.953674,3.768921,2.067566
-0.415283,-0.90332,0.08374,1.159668,3.173828,2.26593
-0.415039,-0.902344,0.083496,1.441955,3.166198,2.410889
-0.414551,-0.9021,0.082764,1.815796,3.517151,2.182007
-0.414551,-0.902588,0.076904,2.197266,3.997802,1.770019
-0.414307,-0.902588,0.075195,2.464294,4.631042,1.213074
-0.4104,-0.90625,0.077393,2.601623,5.256652,0.602722
-0.407471,-0.90918,0.073975,2.677917,5.722045,-0.106812
-0.405518,-0.911621,0.070068,2.63977,5.897521,-1.235962
-0.404053,-0.914551,0.066895,2.464294,5.775451,-2.479553
-0.405518,-0.919189,0.06543,2.227783,5.302429,-3.77655
-0.408691,-0.921387,0.060791,2.052307,4.28772,-4.898071
-0.41333,-0.923096,0.061768,1.495361,3.112793,-6.027221
-0.420898,-0.922607,0.060791,1.068115,1.846313,-6.889343
-0.424316,-0.924561,0.059814,0.694275,0.518799,-7.713317
-0.432129,-0.922363,0.0625,0.396728,-0.732422,-8.255005
-0.441162,-0.918213,0.065186,0.236511,-1.594543,-8.407593
-0.445068,-0.914795,0.065918,0.007629,-1.76239,-8.476257
-0.449463,-0.914307,0.065674,-0.076294,-1.403808,-8.44574
-0.452637,-0.913086,0.066162,-0.183105,-0.701904,-8.209229
-0.453857,-0.907715,0.067139,-0.37384,0.343323,-7.728576
-0.451416,-0.907471,0.062988,-0.579834,1.220703,-6.92749
-0.447021,-0.908203,0.06665,-0.679016,1.716614,-5.882263
-0.443115,-0.906982,0.067627,-0.740051,1.914978,-4.814148
-0.443604,-0.909424,0.071045,-0.610352,1.945495,-3.662109
-0.443848,-0.914307,0.070068,-0.427246,2.288818,-2.76947
-0.444824,-0.912354,0.069336,-0.358582,3.028869,-2.151489
-0.438965,-0.910889,0.063721,-0.213623,3.723144,-1.411438
-0.432129,-0.910156,0.066406,-0.289917,3.990173,-0.88501
-0.42749,-0.911377,0.066406,-0.411987,3.829956,-0.495911
-0.421875,-0.912109,0.067383,-0.694275,3.501892,0.0
-0.417969,-0.915527,0.066406,-1.106262,2.906799,0.37384
-0.417236,-0.916748,0.067383,-1.464844,2.250671,0.87738
-0.417236,-0.919189,0.068115,-1.838684,1.754761,1.312256
-0.414063,-0.923584,0.067383,-2.235413,1.335144,1.63269
-0.411377,-0.925293,0.069092,-2.532959,0.816345,2.006531
-0.406738,-0.922363,0.064941,-2.777099,0.038147,2.372742
-0.404541,-0.922852,0.068604,-2.983093,-0.991821,2.761841
-0.404541,-0.922607,0.066406,-3.097534,-2.26593,2.990722
-0.401855,-0.921143,0.066895,-3.189087,-3.486633,3.204345
-0.400879,-0.922119,0.067871,-3.288269,-4.547119,3.417969
-0.403809,-0.918945,0.066162,-3.356933,-5.386352,3.440857
-0.404541,-0.918213,0.062012,-3.410339,-6.118774,3.501892
-0.401123,-0.921143,0.064453,-3.433227,-6.568908,3.387451
-0.405029,-0.921387,0.063232,-3.410339,-6.950378,3.135681
-0.408203,-0.920654,0.060059,-3.509521,-7.30133,2.685547
-0.408936,-0.921875,0.05835,-3.616333,-7.781982,2.326965
-0.415039,-0.921143,0.056641,-3.601074,-8.346558,2.090454
-0.420166,-0.916748,0.057861,-3.593445,-8.796692,1.838684
-0.42334,-0.914307,0.057861,-3.608703,-9.101868,1.678467
-0.423828,-0.912598,0.056885,-3.501892,-9.32312,1.609802
-0.432129,-0.908203,0.055176,-3.364563,-9.45282,1.502991
-0.435547,-0.908203,0.052246,-3.227234,-9.162903,1.457214
-0.43457,-0.911377,0.052979,-3.288269,-8.789063,1.502991
-0.438477,-0.909912,0.055176,-3.166198,-8.651733,1.319885
-0.445313,-0.909912,0.055176,-3.051758,-8.155823,1.251221
-0.447998,-0.907959,0.055908,-3.059387,-7.751464,1.052856
-0.448975,-0.906494,0.055176,-2.929687,-7.286071,0.846863
-0.451904,-0.904541,0.054932,-2.799988,-6.835937,0.656128
-0.451904,-0.903564,0.056641,-2.76947,-6.401062,0.526428
-0.455566,-0.905273,0.056396,-2.677917,-5.859375,0.289917
-0.455566,-0.90918,0.05249,-2.464294,-5.050659,0.038147
-0.459229,-0.908203,0.054932,-2.296448,-4.425049,-0.259399
-0.460693,-0.907959,0.053711,-2.227783,-3.684997,-0.350952
-0.46167,-0.909912,0.052979,-2.14386,-2.807617,-0.488281
-0.464355,-0.907471,0.053223,-2.075195,-2.02179,-0.50354
-0.463135,-0.906738,0.054688,-2.204895,-1.541138,-0.305176
-0.462158,-0.905029,0.054443,-2.403259,-1.235962,-0.053406
-0.460205,-0.904297,0.058594,-2.571106,-1.052856,0.183105
-0.460449,-0.905518,0.056152,-2.63977,-0.976562,0.480652
-0.460205,-0.907959,0.053955,-2.716064,-0.541687,0.724792
-0.459717,-0.906006,0.052002,-2.792358,0.015259,1.075745
-0.455078,-0.905029,0.054688,-2.761841,0.335693,1.396179
-0.449707,-0.907227,0.054199,-2.662658,0.495911,1.571655
-0.448975,-0.90625,0.055664,-2.593994,0.740051,1.693725
-0.44458,-0.908691,0.053711,-2.555847,0.923157,1.861572
-0.441406,-0.913818,0.057129,-2.693176,1.159668,1.853943
-0.441162,-0.911377,0.057373,-2.586365,1.472473,1.838684
-0.438232,-0.907959,0.052979,-2.27356,1.914978,1.724243
-0.438965,-0.906738,0.051758,-2.090454,2.365112,1.770019
-0.436035,-0.906982,0.051514,-2.059937,2.876281,1.770019
-0.432617,-0.906006,0.049805,-1.747131,3.059387,1.754761
-0.431641,-0.908447,0.053955,-1.686096,2.944946,1.716614
-0.42749,-0.908203,0.054932,-1.548767,2.731323,1.625061
-0.428955,-0.908447,0.05249,-1.426697,2.342224,1.464844
-0.431885,-0.907715,0.052246,-1.502991,1.861572,1.304626
-0.432617,-0.90625,0.053223,-1.502991,1.51062,1.060486
-0.434082,-0.904541,0.054932,-1.525879,1.289368,0.869751
-0.433105,-0.902832,0.053223,-1.579285,1.205444,0.740051
-0.433838,-0.904053,0.054199,-1.411438,1.091003,0.495911
-0.435059,-0.905762,0.053711,-1.38855,1.037598,0.205994
-0.437012,-0.904785,0.056641,-1.365662,1.083374,-0.015259
-0.439209,-0.904053,0.056152,-1.335144,1.289368,-0.183105
-0.439697,-0.903564,0.05542,-1.190186,1.556396,-0.297546
-0.439209,-0.906006,0.055908,-0.907898,1.792908,-0.328064
-0.441895,-0.904785,0.053467,-0.938415,2.037048,-0.366211
-0.441895,-0.907227,0.05542,-0.762939,2.326965,-0.389099
-0.441895,-0.90625,0.054688,-0.556946,2.456665,-0.259399
-0.442383,-0.909912,0.051025,-0.305176,2.548218,-0.053406
-0.440186,-0.911377,0.051025,-0.106812,2.410889,0.259399
-0.442383,-0.914551,0.052734,-0.007629,2.319336,0.358582
-0.444824,-0.914551,0.049072,0.144958,2.39563,0.404358
-0.445068,-0.915283,0.046875,0.152588,2.662658,0.480652
-0.442627,-0.911621,0.045898,0.198364,3.013611,0.442505
-0.442627,-0.90918,0.044434,0.205994,3.128052,0.564575
-0.440674,-0.90625,0.042725,0.198364,3.097534,0.671387
-0.438965,-0.905518,0.041016,0.312805,3.082275,0.595093
-0.436523,-0.905029,0.037842,0.396728,3.189087,0.587463
-0.435547,-0.906982,0.036865,0.37384,3.135681,0.495911
-0.436035,-0.907959,0.039307,0.289917,3.135681,0.457764
-0.437988,-0.9104,0.042969,0.160217,3.288269,0.320435
-0.436768,-0.913818,0.04248,0.061035,3.456115,0.289917
-0.436523,-0.913574,0.041016,-0.038147,3.39508,0.167847
-0.435791,-0.915283,0.041992,-0.213623,3.196716,-0.091553
-0.435791,-0.918213,0.043457,-0.457764,3.051758,-0.007629
-0.4375,-0.918213,0.042725,-0.450134,2.685547,0.106812
-0.4375,-0.915283,0.045898,-0.526428,2.39563,0.37384
-0.433838,-0.916504,0.047852,-0.518799,2.212524,0.732422
-0.433105,-0.913818,0.046143,-0.427246,2.197266,1.075745
-0.429932,-0.913574,0.045898,-0.335693,2.296448,1.281738
-0.429199,-0.911133,0.044434,-0.228882,2.281189,1.579285
-0.429932,-0.912354,0.045898,-0.053406,2.082825,1.853943
-0.429443,-0.911377,0.045898,0.144958,2.082825,2.105713
-0.424805,-0.912354,0.045654,0.053406,1.953125,2.380371
-0.422363,-0.911865,0.044434,0.083923,1.846313,2.380371
-0.422363,-0.912598,0.046631,0.1297,1.571655,2.14386
-0.424072,-0.911133,0.044189,-0.030518,1.190186,1.876831
-0.422607,-0.914307,0.04248,-0.160217,0.793457,1.655578
-0.419189,-0.913574,0.04248,-0.305176,0.274658,1.38855
-0.423096,-0.913818,0.042725,-0.419617,-0.259399,1.052856
-0.42334,-0.911377,0.041504,-0.518799,-0.694275,0.671387
-0.423584,-0.915527,0.04248,-0.686645,-1.243591,0.541687
-0.425293,-0.916992,0.042725,-0.671387,-1.678467,0.274658
-0.427246,-0.916748,0.041992,-0.785828,-1.968384,0.106812
-0.429443,-0.918945,0.043457,-0.900268,-2.212524,0.099182
-0.434326,-0.91626,0.041992,-0.823975,-2.456665,0.076294
-0.434814,-0.914551,0.043457,-0.923157,-2.471924,0.076294
-0.43457,-0.91626,0.042969,-1.060486,-2.548218,0.205994
-0.436523,-0.913818,0.043945,-0.999451,-2.578735,0.267029
-0.436768,-0.910645,0.045898,-0.968933,-2.700805,0.267029
-0.435547,-0.911377,0.04126,-1.045227,-2.609253,0.259399
-0.435303,-0.910645,0.04126,-0.946045,-2.593994,0.274658
-0.434326,-0.911865,0.042236,-1.075745,-2.723694,0.061035
-0.434814,-0.911865,0.044922,-1.205444,-3.013611,-0.236511
-0.440674,-0.911133,0.04541,-1.25885,-3.135681,-0.434875
-0.44043,-0.911865,0.045166,-1.197815,-3.250122,-0.63324
-0.440674,-0.913086,0.043945,-1.174927,-3.39508,-0.907898
-0.441895,-0.911621,0.045898,-1.159668,-3.486633,-1.022339
-0.441406,-0.908936,0.046631,-1.190186,-3.417969,-0.984192
-0.440674,-0.911377,0.045166,-1.029968,-3.028869,-1.098633
-0.437256,-0.91333,0.046631,-0.984192,-2.731323,-1.251221
-0.437988,-0.910889,0.047119,-1.029968,-2.487183,-1.327515
-0.437012,-0.908203,0.043457,-0.801086,-2.212524,-1.312256
-0.43335,-0.908447,0.041748,-0.679016,-1.976013,-1.335144
-0.43042,-0.910889,0.043457,-0.717163,-2.334595,-1.319885
-0.42749,-0.908936,0.04248,-0.823975,-3.135681,-1.289368
-0.429443,-0.907959,0.043213,-0.801086,-3.730774,-1.38092
-0.432373,-0.907959,0.046631,-0.854492,-4.058838,-1.686096
-0.435059,-0.912598,0.047363,-1.022339,-4.28772,-1.991272
-0.439209,-0.913574,0.044434,-1.228333,-4.394531,-2.151489
-0.440674,-0.913086,0.046631,-1.487732,-4.425049,-2.342224
-0.441406,-0.909668,0.047363,-1.670837,-4.53186,-2.540588
-0.443359,-0.910889,0.047852,-1.747131,-4.722595,-2.563476
-0.443604,-0.911377,0.04834,-2.006531,-5.104064,-2.357483
-0.443848,-0.911621,0.051758,-2.113342,-5.531311,-2.006531
-0.44458,-0.911865,0.053711,-2.128601,-5.981445,-1.724243
-0.445801,-0.910645,0.053711,-2.13623,-6.072998,-1.38092
-0.445068,-0.911133,0.054199,-2.075195,-5.874633,-1.083374
-0.444336,-0.912598,0.054688,-1.876831,-5.653381,-0.999451
-0.44458,-0.915039,0.055664,-1.953125,-5.363464,-0.953674
-0.444336,-0.913818,0.050293,-1.945495,-5.233764,-0.991821
-0.443604,-0.913086,0.047852,-1.945495,-5.363464,-1.159668
-0.44458,-0.910645,0.04834,-2.037048,-5.638122,-1.335144
-0.443115,-0.910645,0.046387,-2.380371,-6.011962,-1.205444
-0.443115,-0.90918,0.047363,-2.571106,-6.530761,-1.274109
-0.44458,-0.910889,0.046387,-2.662658,-6.835937,-1.335144
-0.447754,-0.911133,0.046875,-2.685547,-6.904602,-1.533508
-0.448242,-0.911133,0.042969,-2.632141,-6.469726,-1.63269
-0.449463,-0.909424,0.041504,-2.510071,-6.011962,-1.701355
-0.450684,-0.910889,0.042236,-2.426147,-5.699157,-1.739502
-0.450195,-0.912354,0.044678,-2.563476,-5.455017,-1.739502
-0.447998,-0.91333,0.042236,-2.586365,-5.241394,-1.785278
-0.44751,-0.910156,0.041504,-2.601623,-5.332946,-1.937866
-0.450195,-0.908936,0.041992,-2.838135,-5.378723,-2.059937
-0.452148,-0.911865,0.041504,-3.013611,-5.233764,-2.235413
-0.453857,-0.911133,0.045166,-3.005981,-4.936218,-2.441406
-0.453857,-0.908691,0.045898,-3.005981,-4.53186,-2.319336
-0.451904,-0.912598,0.04248,-2.922058,-4.272461,-2.227783
-0.450439,-0.911865,0.043457,-2.815246,-4.051208,-2.120972
-0.450928,-0.907471,0.042725,-2.792358,-3.814697,-1.930237
-0.449219,-0.908936,0.045166,-2.632141,-3.471374,-1.76239
-0.44751,-0.90625,0.041504,-2.510071,-3.14331,-1.64032
-0.445313,-0.905273,0.040527,-2.502441,-2.883911,-1.556396
-0.445801,-0.907227,0.041748,-2.403259,-2.525329,-1.647949
-0.444092,-0.906982,0.04126,-2.342224,-2.288818,-1.747131
-0.443359,-0.904053,0.039307,-2.27356,-2.052307,-1.876831
-0.443848,-0.905029,0.039795,-2.319336,-1.846313,-1.930237
-0.443115,-0.908447,0.039307,-2.388,-1.861572,-2.006531
-0.442627,-0.910156,0.039307,-2.487183,-1.853943,-2.174377
-0.442383,-0.909912,0.041016,-2.479553,-1.777649,-2.189636
-0.440918,-0.90918,0.037598,-2.494812,-1.708984,-2.029419
-0.440186,-0.911377,0.03833,-2.441406,-1.785278,-1.953125
-0.440918,-0.911377,0.036133,-2.433777,-1.808166,-1.846313
-0.443848,-0.910645,0.036133,-2.250671,-1.785278,-1.686096
-0.445068,-0.911133,0.034424,-2.357483,-1.609802,-1.548767
-0.445313,-0.911621,0.035645,-2.319336,-1.51062,-1.457214
-0.44458,-0.909912,0.034668,-2.304077,-1.403808,-1.327515
-0.443359,-0.907959,0.032959,-2.349854,-1.281738,-1.159668
-0.442139,-0.908691,0.032959,-2.433777,-1.152039,-1.167297
-0.442383,-0.909668,0.033203,-2.380371,-1.045227,-1.235962
-0.443604,-0.912598,0.032959,-2.319336,-0.778198,-1.281738
-0.442627,-0.911133,0.033203,-2.403259,-0.480652,-1.289368
-0.440674,-0.908691,0.03418,-2.418518,-0.244141,-1.25885
-0.440186,-0.911865,0.031738,-2.380371,-0.083923,-1.251221
-0.437744,-0.912842,0.032715,-2.365112,0.030518,-1.251221
-0.4375,-0.912109,0.030762,-2.334595,0.068665,-1.213074
-0.435547,-0.912354,0.030518,-2.388,0.030518,-1.144409
-0.435303,-0.914551,0.030518,-2.334595,0.167847,-1.144409
-0.434082,-0.915527,0.029053,-2.098083,0.411987,-1.243591
-0.430908,-0.916016,0.028809,-2.01416,0.564575,-1.25885
-0.427979,-0.915283,0.032227,-2.159119,0.701904,-1.373291
-0.423584,-0.915771,0.028564,-2.098083,0.617981,-1.434326
-0.425293,-0.913574,0.028809,-2.029419,0.282288,-1.38855
-0.425049,-0.91333,0.027344,-2.075195,0.030518,-1.342773
-0.425293,-0.914307,0.024902,-2.029419,-0.053406,-1.365662
-0.428223,-0.911865,0.024414,-1.976013,0.007629,-1.289368
-0.425781,-0.911377,0.023438,-1.937866,-0.007629,-1.190186
-0.425049,-0.9104,0.025146,-1.998901,-0.228882,-1.106262
-0.42749,-0.912354,0.025391,-1.998901,-0.396728,-1.083374
-0.428955,-0.916504,0.021973,-1.945495,-0.366211,-0.961304
-0.42749,-0.916016,0.021973,-1.983642,-0.518799,-1.014709
-0.42627,-0.913818,0.02417,-2.105713,-0.946045,-1.00708
-0.428467,-0.913086,0.024414,-2.14386,-1.274109,-0.854492
-0.428467,-0.912109,0.025391,-2.113342,-1.342773,-0.801086
-0.430908,-0.914063,0.026367,-2.14386,-1.228333,-0.671387
-0.430176,-0.912354,0.02417,-2.090454,-1.182556,-0.465393
-0.428467,-0.908447,0.02124,-2.098083,-0.907898,-0.396728
-0.42627,-0.909668,0.018066,-2.090454,-0.602722,-0.228882
-0.424561,-0.908691,0.016846,-2.037048,-0.587463,-0.137329
-0.422363,-0.910645,0.013916,-2.151489,-0.938415,0.038147
-0.424072,-0.911133,0.016602,-2.39563,-1.266479,0.190735
-0.422363,-0.912598,0.016357,-2.532959,-1.426697,0.228882
-0.421387,-0.914063,0.016357,-2.616882,-1.808166,0.175476
-0.421631,-0.916504,0.017578,-2.853393,-2.365112,0.160217
-0.425049,-0.916016,0.017334,-2.983093,-2.738952,0.198364
-0.426514,-0.915039,0.018066,-2.929687,-2.998352,0.274658
-0.427002,-0.917725,0.019775,-2.876281,-3.166198,0.434875
-0.426514,-0.919434,0.019531,-3.051758,-3.486633,0.579834
-0.425293,-0.91748,0.015869,-3.036499,-3.761291,0.686645
-0.42749,-0.914063,0.015625,-3.074646,-4.005432,0.740051
-0.429199,-0.914063,0.015869,-3.120422,-4.081726,0.801086
-0.431396,-0.912354,0.012695,-3.005981,-3.875732,0.75531
-0.431152,-0.909668,0.013184,-3.089905,-3.585815,0.640869
-0.429443,-0.911865,0.010254,-3.128052,-3.15094,0.404358
-0.431152,-0.912109,0.008789,-3.028869,-2.983093,0.213623
-0.429932,-0.913818,0.01001,-2.944946,-2.944946,0.022888
-0.430664,-0.915283,0.010498,-2.876281,-2.906799,-0.076294
-0.432617,-0.915771,0.008057,-2.952575,-3.036499,0.0
-0.431885,-0.915771,0.007813,-2.929687,-3.089905,0.137329
-0.432617,-0.915527,0.010742,-2.76947,-3.044128,0.152588
-0.436279,-0.917236,0.011475,-2.838135,-3.059387,0.160217
-0.436279,-0.916504,0.009766,-2.746582,-2.746582,0.114441
-0.435059,-0.912354,0.008545,-2.586365,-2.418518,0.1297
-0.432129,-0.908447,0.005615,-2.494812,-2.410889,0.289917
-0.428223,-0.907715,0.008789,-2.510071,-2.586365,0.312805
-0.428467,-0.90625,0.009033,-2.403259,-2.761841,0.305176
-0.430908,-0.906494,0.010254,-2.296448,-2.807617,0.198364
-0.43335,-0.908936,0.007324,-2.365112,-2.799988,0.068665
-0.435059,-0.908691,0.009033,-2.418518,-2.777099,-0.083923
-0.437012,-0.9104,0.009277,-2.27356,-2.464294,-0.190735
-0.437988,-0.910889,0.012451,-2.197266,-2.342224,-0.38147
-0.439697,-0.912842,0.01123,-2.090454,-2.304077,-0.549316
-0.439941,-0.912354,0.011475,-2.037048,-2.204895,-0.480652
-0.441162,-0.912109,0.008545,-2.059937,-2.197266,-0.289917
-0.439941,-0.910156,0.007813,-1.960754,-2.243042,-0.053406
-0.44043,-0.910645,0.004883,-1.716614,-2.13623,0.099182
-0.441162,-0.908936,0.001709,-1.716614,-1.976013,0.297546
-0.439453,-0.911133,0.000488,-1.625061,-1.777649,0.556946
-0.440918,-0.912354,0.002686,-1.525879,-1.716614,0.63324
-0.44043,-0.910156,0.000488,-1.426697,-1.88446,0.717163
-0.441406,-0.909668,0.000977,-1.327515,-1.991272,0.862122
-0.442627,-0.911133,0.001953,-1.274109,-2.02179,0.976562
-0.442383,-0.910156,0.001953,-1.144409,-2.082825,1.091003
-0.442871,-0.909668,0.002197,-1.091003,-1.800537,1.159668
-0.442871,-0.910645,0.00293,-1.083374,-1.480102,1.167297
-0.444092,-0.908691,0.003418,-0.953674,-1.335144,1.213074
-0.44165,-0.906738,0.004395,-0.892639,-1.075745,1.220703
-0.44458,-0.907471,0.00293,-0.785828,-0.579834,1.319885
-0.441895,-0.906738,0.003174,-0.656128,-0.259399,1.304626
-0.440674,-0.909668,0.000488,-0.640869,0.038147,1.159668
-0.440918,-0.909424,0.002441,-0.610352,0.160217,0.946045
-0.439941,-0.909668,0.000244,-0.549316,0.419617,0.869751
-0.435303,-0.909424,0.002686,-0.335693,0.62561,0.732422
-0.436279,-0.908936,0.002197,-0.267029,0.770569,0.495911
-0.436523,-0.908936,0.003906,-0.137329,0.961304,0.320435
-0.437256,-0.910156,0.001465,-0.045776,1.159668,0.236511
-0.437012,-0.908447,0.00293,0.167847,1.518249,0.160217
-0.438477,-0.909912,0.002686,0.228882,1.747131,0.053406
-0.437012,-0.909424,0.003662,0.198364,1.998901,0.030518
-0.434082,-0.90918,0.004639,0.244141,2.090454,0.106812
-0.434326,-0.909424,0.00293,0.312805,2.098083,-0.015259
-0.434326,-0.911377,0.002197,0.480652,1.976013,-0.038147
-0.434326,-0.911865,0.004395,0.427246,1.876831,-0.061035
-0.436523,-0.910645,0.002686,0.534058,1.876831,-0.152588
-0.437256,-0.911377,0.001953,0.648498,1.838684,-0.12207
-0.435547,-0.911865,0.001465,0.801086,1.937866,-0.228882
-0.437744,-0.914307,0.0,0.892639,2.243042,-0.267029
-0.436523,-0.913818,0.0,0.793457,2.365112,-0.297546
-0.435547,-0.913818,0.000488,0.686645,2.235413,-0.167847
-0.43457,-0.910889,-0.001221,0.579834,2.090454,-0.25177
-0.432617,-0.910889,-0.002686,0.564575,1.968384,-0.274658
-0.43457,-0.908936,-0.002441,0.297546,1.846313,-0.205994
-0.43457,-0.907959,0.000488,0.228882,1.701355,-0.190735
-0.433594,-0.907715,-0.000244,0.289917,1.525879,-0.068665
-0.435303,-0.906982,0.004395,0.25177,1.068115,-0.068665
-0.4375,-0.908447,0.005615,0.312805,0.892639,-0.167847
-0.439697,-0.908691,0.005127,0.389099,0.991821,-0.175476
-0.441895,-0.91333,0.007813,0.335693,1.228333,-0.061035
-0.443359,-0.916016,0.005615,0.411987,1.365662,-0.175476
-0.444824,-0.91626,0.00293,0.389099,1.51062,-0.244141
-0.441895,-0.915527,0.000732,0.38147,1.716614,-0.114441
-0.438477,-0.916504,-0.001953,0.465393,1.838684,0.099182
-0.436035,-0.922119,-0.00708,0.434875,1.426697,0.526428
-0.428955,-0.925049,-0.013184,0.50354,0.740051,1.25885
-0.421387,-0.925293,-0.018555,0.457764,-0.556946,2.250671
-0.419678,-0.917725,-0.01709,0.350952,-2.059937,3.051758
-0.424072,-0.913086,-0.01709,0.404358,-2.746582,3.532409
-0.424561,-0.912354,-0.017578,0.305176,-2.502441,3.639221
-0.423828,-0.911133,-0.012695,-0.045776,-1.983642,3.631592
-0.418701,-0.910645,-0.010742,-0.534058,-2.166748,3.234863
-0.420654,-0.908447,-0.007324,-1.159668,-3.204345,2.319336
-0.423096,-0.907227,-0.000732,-1.785278,-4.608154,1.625061
-0.424316,-0.909668,0.001465,-2.426147,-5.950927,1.167297
-0.421631,-0.909424,-0.002441,-3.448486,-8.293152,0.831604
-0.409912,-0.908691,-0.018066,-5.676269,-13.168334,1.220703
-0.383057,-0.910889,-0.038574,-9.407043,-22.270201,2.593994
-0.370605,-0.909912,-0.042236,-13.84735,-35.964966,4.310608
-0.402832,-0.908691,-0.033447,-17.990112,-50.292965,6.431579
-0.44873,-0.906738,-0.015381,-20.240782,-59.577938,8.43811
-0.485352,-0.909424,-0.009033,-19.966125,-61.614986,10.780334
-0.503906,-0.904053,-0.034424,-19.470215,-58.448788,12.931823
-0.497314,-0.89502,-0.064209,-18.981934,-54.367062,15.647887
-0.479004,-0.893066,-0.096436,-18.417358,-54.466244,19.477844
-0.490723,-0.91333,-0.10083,-19.073486,-60.592648,24.948118
-0.52832,-0.936523,-0.086426,-21.438597,-68.710327,31.684874
-0.583008,-0.960449,-0.0896,-23.384092,-73.379517,38.909912
-0.605225,-0.987549,-0.11084,-26.489256,-75.820923,47.874447
-0.575684,-0.999512,-0.126221,-31.791685,-81.024162,58.311459
-0.575928,-0.99707,-0.133301,-37.651062,-93.116753,68.397522
-0.63916,-0.982666,-0.121582,-41.893002,-107.89489,79.124451
-0.729004,-0.967285,-0.119873,-42.556759,-115.226738,90.484612
-0.797607,-0.968018,-0.127686,-41.389462,-114.242546,104.217522
-0.833252,-0.968018,-0.137695,-40.763851,-110.771172,116.989128
-0.881348,-0.981689,-0.139648,-39.810181,-105.8731,129.112244
-0.920898,-0.985596,-0.135986,-40.641781,-101.539604,142.700195
-0.95459,-0.994141,-0.114502,-42.076107,-98.81591,158.187866
-0.997314,-0.979492,-0.07373,-42.816158,-97.396843,172.668442
-1.050537,-0.961182,-0.030029,-41.481014,-94.970695,186.325058
-1.069092,-0.925781,0.005859,-38.848877,-92.720024,197.151169
-1.106934,-0.911621,0.036865,-34.614563,-90.309135,210.510239
-1.155518,-0.849854,0.045898,-33.874512,-88.912956,221.031174
-1.230469,-0.826904,0.060059,-28.549192,-84.70153,230.773911
-1.317627,-0.788818,0.072021,-26.550291,-73.371887,241.546616
-1.364258,-0.737793,0.081299,-24.04785,-56.236263,249.519333
-1.361816,-0.69751,0.099854,-21.40045,-36.964417,249.992355
-1.324219,-0.64917,0.126953,-19.096375,-21.52252,249.893173
-1.293213,-0.599609,0.147217,-15.396117,-12.397765,249.977097
-1.271729,-0.560547,0.150391,-10.910033,-8.598328,249.992355
-1.223389,-0.516846,0.166748,-6.805419,-7.827758,249.992355
-1.19458,-0.444824,0.187744,-2.372742,-8.178711,249.992355
-1.201172,-0.366699,0.187988,3.204345,-7.942199,249.992355
-1.189941,-0.315674,0.179688,9.048462,-5.546569,249.992355
-1.15625,-0.275879,0.182861,13.96942,-2.365112,249.992355
-1.130615,-0.230469,0.190674,17.539978,0.839233,249.992355
-1.111328,-0.178955,0.199463,21.163939,5.897521,249.992355
-1.101074,-0.146973,0.190186,25.634764,12.367248,249.992355
-1.059326,-0.136963,0.199463,29.075621,20.103453,249.992355
-0.986572,-0.113037,0.20166,31.494139,24.787901,249.992355
-0.92041,-0.072754,0.205566,34.126282,23.178099,249.992355
-0.884766,-0.046143,0.240967,37.727356,16.746521,249.038681
-0.88501,-0.023438,0.273682,42.839046,8.94928,241.561874
-0.885742,0.004883,0.30542,49.484249,3.501892,231.544479
-0.882568,0.04541,0.320557,57.777401,-0.709534,222.328171
-0.86084,0.097656,0.307861,66.627502,-4.91333,213.066086
-0.824463,0.149902,0.286865,75.248718,-6.614685,202.644333
-0.827881,0.187012,0.24585,81.398003,-3.890991,190.933212
-0.852051,0.199463,0.209717,82.908623,5.996704,179.519638
-0.83667,0.1875,0.187744,80.00946,22.02606,170.471176
-0.783936,0.19165,0.177734,74.150085,35.064697,163.177475
-0.717773,0.213135,0.174316,68.450928,38.452148,156.654358
-0.691162,0.226807,0.168213,65.422058,33.027649,149.505615
-0.68042,0.231934,0.165283,63.705441,21.423338,140.518188
-0.692383,0.231934,0.150635,62.644955,9.162903,131.729126
-0.717773,0.230469,0.136719,61.851498,0.267029,123.802177
-0.748291,0.218994,0.117432,60.577389,-5.432128,116.027824
-0.769043,0.213379,0.094971,57.91473,-9.857178,109.062187
-0.769287,0.224609,0.07959,54.855343,-14.953612,103.424065
-0.757813,0.265869,0.075439,52.886959,-22.865294,97.831718
-0.763672,0.321289,0.043457,52.696224,-31.204222,91.941826
-0.785889,0.352539,-0.001953,53.344723,-35.118103,85.884087
-0.798096,0.365479,-0.031738,50.666805,-33.01239,78.643799
-0.791748,0.378662,-0.042969,44.845577,-26.473997,71.968079
-0.786377,0.397461,-0.02832,39.016724,-18.806458,66.28418
-0.773926,0.423584,-0.008057,33.927917,-13.740539,60.844418
-0.752197,0.457275,-0.012695,30.258177,-13.084411,56.426998
-0.755615,0.474854,-0.050049,28.060911,-18.096924,52.139278
-0.783936,0.481201,-0.111328,26.031492,-25.474546,47.447201
-0.827637,0.484375,-0.143311,23.246763,-31.044004,42.236324
-0.856689,0.50293,-0.155273,19.981384,-32.539368,37.17804
-0.85791,0.53125,-0.145264,17.13562,-30.799864,33.187866
-0.850342,0.575195,-0.125977,16.059875,-29.434202,29.220579
-0.818848,0.631592,-0.107178,16.990662,-29.541014,25.154112
-0.793945,0.683105,-0.088867,18.699646,-30.929564,20.26367
-0.798096,0.712891,-0.081543,20.294188,-32.836914,14.915465
-0.832764,0.723877,-0.123047,22.216795,-30.540464,9.643555
-0.874756,0.7146,-0.149658,22.438047,-22.354124,5.928039
-0.884033,0.719727,-0.14502,19.309998,-10.391234,4.837036
-0.878906,0.745117,-0.114258,16.044617,1.296997,5.126953
-0.864502,0.762939,-0.081055,14.282226,8.811951,6.263732
-0.846436,0.763916,-0.05957,13.481139,11.337279,8.430481
-0.820313,0.770752,-0.062012,12.5885,6.805419,10.498046
-0.819336,0.782959,-0.076904,11.58142,-2.120972,12.893676
-0.841553,0.787354,-0.062744,9.765625,-9.742737,15.075683
-0.863525,0.785156,-0.05249,6.896972,-11.054992,16.777039
-0.857666,0.7771,-0.054932,4.043579,-5.844116,18.386841
-0.831543,0.769287,-0.060059,1.167297,1.541138,19.493103
-0.78833,0.761963,-0.036133,-2.26593,7.873535,20.347593
-0.76001,0.772949,0.009033,-5.126953,8.964539,20.317076
-0.734619,0.792236,0.053223,-5.340576,3.799438,20.454405
-0.704102,0.818848,0.086426,-3.410339,-5.455017,20.744322
-0.682861,0.838867,0.116455,-0.709534,-17.425537,20.477293
-0.664551,0.844727,0.144287,2.120972,-29.281614,20.233152
-0.653076,0.859375,0.19043,5.859375,-38.154602,19.775391
-0.611328,0.900391,0.289307,10.490417,-41.206356,17.562866
-0.501465,0.988525,0.444092,15.846251,-41.244503,13.298034
-0.370117,1.102295,0.623779,24.658201,-46.19598,7.019042
-0.25293,1.197266,0.8396,38.879395,-61.180111,0.198364
-0.212646,1.263428,1.047852,60.623165,-83.831779,-7.17163
-0.211914,1.281982,1.23291,88.73748,-107.963554,-13.633727
-0.218018,1.275391,1.427002,120.979301,-129.798889,-19.218445
-0.25,1.263916,1.631348,159.484863,-149.734497,-26.100157
-0.300781,1.246826,1.839844,205.879196,-168.746933,-37.940979
-0.369873,1.237305,2.008789,248.680099,-187.637314,-52.726742
-0.441895,1.181641,2.046143,249.992355,-210.128769,-64.849854
-0.487305,1.038574,1.962158,249.389633,-234.756454,-76.751709
-0.624023,0.821045,1.757568,249.893173,-249.992355,-88.760368
-0.797363,0.536621,1.477051,249.992355,-249.992355,-99.090569
-2.375977,-0.919678,-0.778076,249.992355,-241.99675,-104.415886
-4.406982,-7.645996,-1.310059,189.773544,-198.600754,-104.721062
0.31665,-3.491699,-0.063965,-225.013718,100.746147,25.489805
-0.154053,4.29248,0.54834,-246.665939,71.678162,247.390732
-1.657227,4.262939,-0.794678,159.126282,2.479553,151.550293
-1.209961,0.124512,-0.627686,218.322739,77.384949,-5.393981
0.108398,-0.5,-0.672852,-16.00647,80.497734,-95.596306
-0.280762,-0.220215,-0.913818,-71.792603,-60.56213,-46.264645
-0.918945,-0.488037,-0.640869,21.995543,-151.153564,-53.344723
-1.087891,0.199219,-0.187256,24.108885,-113.716118,-54.603573
-1.024414,1.439941,-0.161133,-23.574827,-11.726378,-44.036861
-0.696533,1.635742,-0.236572,-32.112122,64.620972,-86.479179
-0.536621,0.906982,-0.179199,-16.540527,54.222103,-111.160271
-0.744629,0.555664,-0.133545,-19.348145,-0.862122,-92.048637
-0.887695,0.62085,-0.114502,-34.347534,-37.67395,-80.093384
-0.935791,0.618896,-0.060547,-36.064148,-66.627502,-72.525024
-1.114502,0.572021,-0.007324,-32.13501,-91.51458,-59.837337
-1.357422,0.5354,-0.000244,-30.84564,-80.619804,-52.284237
-1.45459,0.455322,-0.003662,-30.563353,-33.828735,-53.489681
-1.414551,0.386963,-0.020264,-33.248901,19.615173,-52.719112
-1.307373,0.377197,-0.060303,-38.665771,55.694576,-45.295712
-1.249268,0.397217,-0.117188,-43.846127,70.983887,-36.91864
-1.206055,0.416016,-0.141846,-46.890255,69.396973,-25.978086
-1.229736,0.462646,-0.116211,-46.882626,61.531063,-13.671874
-1.284912,0.533691,-0.126221,-42.655941,60.844418,-1.335144
-1.382324,0.528076,-0.179443,-36.911011,71.357727,5.775451
-1.406006,0.47168,-0.210938,-36.071777,89.172356,12.863158
-1.380127,0.489502,-0.284912,-39.405823,105.743401,19.630432
-1.404785,0.449463,-0.375977,-46.089169,114.105217,27.923582
-1.417725,0.378906,-0.437012,-59.455868,113.380424,38.673401
-1.332275,0.335449,-0.428223,-77.903748,112.060539,51.559444
-1.277344,0.347168,-0.38623,-94.40612,105.567924,60.829159
-1.243652,0.368652,-0.30835,-105.705254,98.007195,68.916321
-1.174805,0.391357,-0.212646,-113.021843,96.641533,75.393677
-1.094971,0.414551,-0.147461,-115.844719,98.678581,77.598572
-1.042725,0.423096,-0.107666,-116.554253,102.905266,76.629639
-1.008301,0.427002,-0.064453,-118.171684,110.923759,74.272156
-0.952393,0.446045,-0.014648,-121.063225,119.86541,71.182251
-0.883789,0.480713,0.050781,-122.901909,126.075737,68.916321
-0.821045,0.520996,0.087891,-122.673027,126.625053,66.635132
-0.765869,0.554199,0.111816,-119.918816,121.948235,64.315796
-0.703857,0.578613,0.144775,-116.409294,114.19677,61.508175
-0.63208,0.623291,0.175293,-112.762444,105.163567,56.999203
-0.564697,0.683105,0.211182,-108.604424,96.061699,51.498409
-0.496582,0.743408,0.266357,-104.194633,87.440483,45.56274
-0.425781,0.79541,0.337402,-99.639885,79.38385,38.993835
-0.382324,0.841309,0.409912,-93.185417,71.06781,31.929014
-0.371582,0.856201,0.455566,-84.793083,63.476559,24.566648
-0.361328,0.847656,0.466064,-75.210571,58.448788,18.15033
-0.36084,0.850586,0.47583,-65.39917,53.0014,13.000487
-0.383301,0.888672,0.498779,-55.427547,46.470638,10.093688
-0.394531,0.959229,0.545898,-45.196529,39.306641,9.231567
-0.39209,1.043701,0.589355,-33.958435,29.273985,10.040282
-0.395752,1.10498,0.626709,-21.316526,14.907836,12.741088
-0.366211,1.140381,0.675293,-7.987976,-4.699707,17.601013
-0.32373,1.179199,0.744141,6.240844,-28.32794,23.887632
-0.271484,1.227539,0.845215,22.575377,-53.794857,30.784605
-0.193115,1.284668,0.973877,42.678829,-76.652527,37.55188
-0.114014,1.331299,1.126953,68.000793,-97.518913,38.757324
-0.04834,1.340332,1.331787,97.55706,-119.1101,33.424377
-0.007568,1.369385,1.595703,131.782532,-144.393921,22.53723
-0.026123,1.405273,1.821045,177.406296,-173.423752,8.621216
-0.086426,1.356445,1.941895,232.109055,-207.824692,-9.063721
-0.200928,1.205566,1.975342,249.992355,-244.422897,-29.136656
-0.334229,1.070313,1.971191,249.992355,-249.992355,-48.927303
-0.470947,0.975342,1.852783,249.519333,-249.68718,-64.811707
-0.606445,0.771973,1.613281,249.992355,-249.80925,-81.611626
-3.87207,-1.167236,-3.434814,249.992355,-249.992355,-97.244255
-4.717529,-7.844482,-3.248047,111.717216,-241.569504,-21.598814
1.501709,-2.536865,2.022461,-249.992355,-64.468384,124.39727
-0.97876,5.329102,2.091064,-249.992355,-114.929192,196.311935
-3.158936,5.940918,-0.24707,154.327393,-56.03027,138.191223
-2.055908,0.101563,-0.544678,249.992355,124.114983,51.87225
-0.039307,-1.101318,-0.741455,116.928093,219.665512,-51.589962
0.099609,-0.177734,-1.324951,-29.357908,125.236504,-16.876221
-0.43457,-0.59082,-1.251709,45.936581,-37.155151,-27.107237
-0.818115,-0.463623,-0.727295,71.144104,-124.565117,-16.204834
-0.891846,0.847656,-0.449707,3.326416,-81.642143,11.291503
-0.591064,1.86084,-0.408203,-42.716976,13.420104,-8.712769
-0.443359,1.56543,-0.39624,-18.15033,31.150816,-33.14209
-0.58374,0.736084,-0.393311,6.866455,9.07135,-32.196045
-0.71875,0.435791,-0.432129,-15.159606,12.405395,-30.838011
-0.740723,0.447754,-0.440918,-34.210205,16.723633,-37.54425
-0.797607,0.473877,-0.412598,-35.957336,-4.196167,-38.871765
-0.963379,0.52002,-0.37207,-44.616695,-28.778074,-34.873962
-1.148438,0.544189,-0.295166,-57.952877,-30.136106,-31.822203
-1.293213,0.520752,-0.275635,-64.956665,-4.653931,-29.441832
-1.342773,0.434814,-0.357666,-66.871643,35.583496,-26.679991
-1.392334,0.254883,-0.52832,-72.013855,73.272705,-23.994444
-1.389404,0.09082,-0.560547,-85.853569,96.900932,-17.837524
-1.38916,0.190186,-0.461426,-102.752678,115.150444,-11.421203
-1.367676,0.364746,-0.348389,-106.925957,131.500244,-6.057739
-1.248779,0.532715,-0.19751,-103.004448,144.088745,-0.785828
-1.278076,0.692871,-0.153809,-95.222466,144.134521,0.923157
-1.293701,0.715088,-0.247559,-88.035576,129.486084,6.790161
-1.304932,0.599365,-0.401855,-89.309685,117.85125,18.157959
-1.268799,0.480225,-0.501221,-103.889458,114.212029,27.44293
-1.218506,0.460938,-0.477295,-127.723686,118.240349,31.60095
-1.171143,0.517334,-0.352295,-148.300171,122.192375,37.017822
-1.145264,0.567139,-0.207764,-159.584045,128.036499,44.830318
-1.072266,0.590576,-0.071777,-164.840683,136.985779,50.689693
-0.924805,0.622559,0.064941,-167.800888,142.982483,53.413387
-0.797607,0.679688,0.183838,-167.083725,140.144348,54.809566
-0.72876,0.732178,0.264893,-161.643967,129.920959,56.243893
-0.670166,0.778809,0.344971,-153.388977,118.545525,57.03735
-0.605225,0.832275,0.403076,-144.561768,110.099785,56.488033
-0.552246,0.873535,0.432373,-135.169983,106.452934,55.221554
-0.471191,0.894775,0.473145,-126.67083,105.37719,54.13055
-0.373291,0.922607,0.517334,-120.628349,101.97448,53.199764
-0.297607,0.947266,0.568604,-115.310661,95.115654,52.11639
-0.245361,0.948486,0.616211,-109.489433,88.127129,50.125118
-0.188721,0.942871,0.657471,-102.287285,81.268303,47.07336
-0.112305,0.961426,0.719482,-91.896049,70.144653,43.334957
-0.053467,1.02832,0.791016,-75.843811,52.772518,39.909363
0.004395,1.111572,0.829834,-52.421566,31.272886,34.812927
0.040527,1.143066,0.849854,-26.046751,6.469726,26.321409
0.032959,1.134277,0.861328,-3.158569,-20.683287,17.105103
-0.014648,1.114014,0.894531,17.364502,-47.157284,9.971619
-0.071777,1.093994,0.979004,38.574219,-71.029663,6.103515
-0.105225,1.104004,1.064453,64.041138,-90.080254,4.089355
-0.063232,1.148438,1.171143,92.567436,-105.178825,0.25177
0.013916,1.219482,1.290039,122.75695,-124.214165,-6.050109
0.046387,1.280518,1.447754,155.685425,-151.222229,-14.305114
0.005371,1.304443,1.554199,193.7332,-180.984482,-23.399351
-0.065186,1.280029,1.659912,234.588608,-211.685165,-35.820007
-0.155029,1.233887,1.727539,249.992355,-239.997849,-49.194332
-0.226807,1.137451,1.728516,249.992355,-249.992355,-62.286373
-0.365479,0.977295,1.675293,249.610886,-249.992355,-78.598022
-0.544678,0.799316,1.604004,249.992355,-249.748215,-97.129814
-0.879883,0.606201,1.478027,249.992355,-249.992355,-116.912834
-4.010254,-1.174316,-3.135498,249.992355,-249.992355,-131.141663
-5.168457,-7.844238,-3.312744,142.555237,-236.709579,-52.787777
0.27832,-3.527344,1.167969,-247.207626,-65.910339,109.725945
-0.774902,3.378906,1.734375,-249.992355,-77.384949,170.692429
-2.041016,5.235107,-0.253662,65.925598,-24.063108,160.713181
-1.641846,1.276855,-0.702881,249.992355,88.401787,51.87225
-0.202881,-0.498779,-0.967041,147.407532,81.947319,-72.502136
0.216064,-0.081787,-1.121826,-36.590576,-11.688231,15.205382
-0.413574,-0.405029,-0.924561,-8.262634,-130.104065,20.26367
-0.908203,-0.435791,-0.480713,41.732784,-172.103867,-39.848328
-0.965332,0.583008,-0.289307,9.468079,-122.154228,-20.729063
-0.688721,1.630127,-0.373047,-30.456541,-10.383605,-11.085509
-0.412109,1.718262,-0.43042,-14.22882,43.029781,-38.528442
-0.396729,1.02002,-0.384766,12.695312,27.9541,-47.981258
-0.544434,0.570557,-0.350586,3.112793,7.6828,-43.334957
-0.657959,0.560303,-0.334717,-8.865356,-0.495911,-43.197628
-0.745117,0.674561,-0.26416,-10.0708,-9.346008,-41.725155
-0.828369,0.803223,-0.192627,-16.63208,-20.568846,-36.010742
-0.872314,0.803223,-0.158447,-22.628782,-24.391172,-30.4718
-0.859131,0.67627,-0.126709,-23.048399,-19.989014,-27.511595
-0.83252,0.593018,-0.098877,-25.520323,-14.701842,-25.68054
-0.82666,0.602295,-0.071045,-30.197142,-10.360717,-24.597166
-0.837158,0.636475,-0.05127,-33.126831,-5.577087,-25.817869
-0.862549,0.663086,-0.03125,-34.629822,-1.556396,-27.984617
-0.885742,0.679443,0.001953,-36.109924,-1.945495,-28.07617
-0.879639,0.699707,-0.002441,-34.584045,-7.43103,-25.657652
-0.86499,0.699219,-0.025146,-28.999327,-15.769958,-24.452208
-0.873779,0.67627,-0.033936,-23.117064,-25.093077,-25.344847
-0.905762,0.65332,-0.048828,-17.967224,-30.738829,-25.222776
-0.929443,0.62793,-0.056152,-11.741637,-29.022215,-24.871824
-0.927246,0.601318,-0.022461,-7.019042,-21.64459,-25.688169
-0.902344,0.607422,0.036377,-4.310608,-15.228271,-26.344297
-0.855469,0.655029,0.105469,0.114441,-14.976501,-25.772093
-0.836914,0.717773,0.13623,8.140564,-20.660398,-24.452208
-0.865967,0.749023,0.129395,18.852234,-27.458189,-23.170469
-0.936523,0.74707,0.107178,28.968809,-28.549192,-21.667479
-1.016846,0.734863,0.057861,36.895752,-21.797178,-17.021179
-1.034912,0.721191,0.017822,39.321899,-7.392883,-11.688231
-1.007324,0.712158,0.002686,39.672852,6.874084,-6.584167
-0.948242,0.726807,0.014893,39.237976,11.932372,3.814697
-0.909912,0.823975,0.002686,33.958435,8.049011,15.129088
-0.9021,0.871582,-0.020264,37.506104,-2.243042,21.835325
-0.934082,0.842285,-0.044434,43.945309,-11.009215,28.717039
-0.970215,0.81665,-0.081787,47.447201,-10.856627,33.828735
-0.970703,0.796631,-0.12207,51.673885,-2.388,37.628174
-0.930176,0.783936,-0.16748,56.091305,9.681702,40.359493
-0.901367,0.782471,-0.253906,62.744137,19.271851,41.038509
-0.876709,0.760254,-0.368164,70.732117,26.344297,41.198727
-0.853516,0.719727,-0.457764,76.927185,34.446716,39.642334
-0.837891,0.686523,-0.484131,79.811096,41.625973,36.04126
-0.833984,0.673828,-0.495361,80.13916,46.531673,32.669067
-0.81958,0.665527,-0.481445,79.902649,51.002499,29.739378
-0.787842,0.658936,-0.449463,78.643799,55.343624,26.100157
-0.74585,0.671143,-0.425537,75.798035,57.403561,20.561216
-0.717285,0.67334,-0.425293,72.372437,55.984493,15.014647
-0.697998,0.649658,-0.424561,68.305969,49.34692,10.94818
-0.709229,0.618652,-0.419434,62.141415,41.15295,6.904602
-0.718994,0.601318,-0.421387,54.13055,35.476685,3.532409
-0.700928,0.605469,-0.433105,46.775814,31.562803,0.015259
-0.740967,0.605225,-0.464355,43.365475,31.455992,-5.226135
-0.755127,0.584717,-0.436279,40.618893,33.7677,-9.971619
-0.730957,0.600098,-0.397705,34.294128,35.690308,-14.343261
-0.702881,0.627441,-0.353516,28.526304,33.813477,-17.860413
-0.678955,0.629639,-0.316895,23.330687,28.228758,-19.317627
-0.670166,0.626709,-0.294922,16.265869,20.835875,-20.1416
-0.687988,0.623047,-0.270752,8.880615,11.909484,-20.805357
-0.744385,0.615479,-0.236572,2.380371,5.302429,-19.439697
-0.78125,0.626953,-0.222412,-2.792358,5.729675,-16.273499
-0.782471,0.650635,-0.222412,-5.638122,11.039733,-13.244628
-0.773682,0.669189,-0.241943,-6.179809,16.143799,-11.20758
-0.760986,0.66748,-0.251221,-6.370544,18.447876,-9.628296
-0.756592,0.664795,-0.25,-7.56073,17.822266,-8.178711
-0.775879,0.668945,-0.258301,-9.216309,15.457152,-6.561279
-0.792725,0.674561,-0.269531,-11.215209,13.191222,-4.043579
-0.794434,0.674805,-0.274658,-13.626098,11.070251,-1.243591
-0.796631,0.666016,-0.28418,-15.457152,8.529663,1.716614
-0.791748,0.658936,-0.291504,-16.708374,5.378723,4.91333
-0.78833,0.657227,-0.299072,-17.486572,2.494812,7.713317
-0.800537,0.65332,-0.312012,-16.777039,0.526428,10.078429
-0.81665,0.652588,-0.317871,-15.029906,1.373291,12.451171
-0.814697,0.657471,-0.329102,-12.985229,5.752563,13.786315
-0.791016,0.666992,-0.325684,-10.44464,10.032654,13.946532
-0.77417,0.682861,-0.31958,-7.614135,11.619567,13.687133
-0.771484,0.699707,-0.317627,-4.356384,10.330199,13.778686
-0.776123,0.704346,-0.320068,-1.38855,8.369446,14.10675
-0.780273,0.704834,-0.322266,1.075745,7.324218,14.366149
-0.793701,0.70874,-0.337158,4.135132,7.492065,14.793395
-0.797852,0.712402,-0.37085,7.995605,9.063721,15.594481
-0.786133,0.70874,-0.399414,11.45172,9.628296,15.403747
-0.782227,0.698975,-0.408936,13.59558,10.253905,15.663146
-0.771973,0.694092,-0.409668,14.778136,11.352538,16.082764
-0.754883,0.686523,-0.405029,15.197753,11.970519,15.800475
-0.745117,0.682617,-0.400879,15.243529,10.765075,15.319823
-0.734375,0.668457,-0.400391,14.564513,8.148193,15.045165
-0.73291,0.654053,-0.413086,13.336181,5.41687,14.312743
-0.735596,0.642334,-0.421387,12.237548,3.875732,13.328551
-0.733398,0.638184,-0.42334,10.795592,5.256652,12.313842
-0.741455,0.642334,-0.429932,9.468079,9.536743,10.963439
-0.731201,0.638428,-0.440918,8.964539,13.862609,9.361267
-0.718994,0.628906,-0.457031,8.026123,15.724181,7.270813
-0.714111,0.618652,-0.452148,6.973266,14.503478,5.28717
-0.709229,0.623779,-0.438965,5.546569,12.527465,3.318786
-0.709473,0.639648,-0.435059,4.142761,11.024474,0.968933
-0.713623,0.644531,-0.429688,3.211975,10.581969,-1.541138
-0.720215,0.644531,-0.435059,2.288818,11.268615,-4.234314
-0.718994,0.641113,-0.435547,1.319885,12.33673,-6.217956
-0.710938,0.646973,-0.432617,0.518799,13.85498,-8.750916
-0.711426,0.658691,-0.432861,0.320435,14.930724,-11.375426
-0.702881,0.661865,-0.422852,-0.190735,15.769958,-13.427733
-0.697754,0.670654,-0.408936,-0.854492,16.418457,-15.785216
-0.708496,0.679443,-0.408447,-0.839233,16.50238,-17.608643
-0.708496,0.672607,-0.407227,-0.473022,16.555786,-19.233704
-0.710205,0.662109,-0.409912,-0.305176,17.288208,-21.01898
-0.709961,0.657959,-0.414795,-0.656128,17.906189,-22.125242
-0.70752,0.64917,-0.409668,-0.320435,18.196106,-23.262022
-0.713379,0.648438,-0.401855,0.221252,18.234253,-24.406431
-0.715332,0.650146,-0.401855,0.991821,17.875671,-24.940489
-0.715576,0.653076,-0.397217,2.044678,17.181396,-25.321959
-0.717285,0.653809,-0.389648,3.288269,15.747069,-25.672911
-0.718018,0.655273,-0.391113,4.127502,14.144897,-25.794981
-0.715576,0.65332,-0.39502,4.943848,12.855529,-26.18408
-0.720459,0.649658,-0.394775,5.104064,11.497497,-26.359556
-0.7146,0.649658,-0.387451,5.104064,9.674072,-26.458738
-0.701904,0.648682,-0.378418,5.500793,6.828308,-26.229856
-0.693115,0.652588,-0.372803,5.607605,2.563476,-25.451658
-0.69458,0.65332,-0.375,5.203247,-3.341675,-24.192808
-0.720215,0.641357,-0.373535,4.165649,-8.842468,-23.16284
-0.74585,0.625977,-0.378662,3.799438,-11.672973,-21.90399
-0.746582,0.605225,-0.391357,4.264832,-12.107848,-20.03479
-0.747803,0.596436,-0.399414,4.501343,-11.566161,-18.516541
-0.748291,0.597656,-0.409424,4.53186,-10.841369,-17.234802
-0.746338,0.602783,-0.412842,4.28009,-9.933472,-15.99121
-0.750244,0.611084,-0.411621,3.868103,-9.590149,-15.3656
-0.757813,0.619385,-0.41626,3.158569,-9.223938,-15.312194
-0.758057,0.62793,-0.416748,2.01416,-9.002686,-15.075683
-0.756836,0.640137,-0.419189,1.525879,-8.956909,-15.174865
-0.757324,0.655029,-0.425781,0.686645,-8.308411,-14.938354
-0.76001,0.656006,-0.4375,0.328064,-7.202148,-15.289306
-0.773193,0.64624,-0.455566,0.221252,-6.248474,-15.388488
-0.778076,0.628174,-0.471924,-0.061035,-5.050659,-15.335082
-0.768311,0.615234,-0.473633,-1.228333,-3.623962,-14.869689
-0.765625,0.606934,-0.473877,-2.464294,-2.578735,-14.60266
-0.766113,0.595459,-0.466797,-3.417969,-2.044678,-14.526366
-0.75293,0.581299,-0.451172,-4.814148,-1.88446,-14.900207
-0.745117,0.573242,-0.439453,-6.469726,-3.417969,-15.342711
-0.744141,0.564941,-0.443848,-8.171082,-6.340026,-15.686034
-0.742432,0.548096,-0.448975,-10.078429,-9.498596,-16.487122
-0.738281,0.526367,-0.461182,-12.489318,-11.764525,-18.280029
-0.734863,0.498535,-0.467529,-14.595031,-12.397765,-20.751951
-0.724609,0.470459,-0.471924,-16.708374,-11.352538,-23.719786
-0.706299,0.447754,-0.473877,-19.325256,-9.735107,-28.099058
-0.688477,0.432861,-0.474609,-22.3999,-8.842468,-33.439636
-0.684326,0.432617,-0.455566,-27.084349,-9.925842,-39.115906
-0.683838,0.445068,-0.410889,-31.547544,-15.518188,-45.211788
-0.72583,0.477783,-0.390137,-34.576416,-23.307798,-50.941463
-0.769287,0.516357,-0.385254,-36.003113,-29.487608,-54.786678
-0.805908,0.537354,-0.364258,-38.002014,-30.639647,-57.853695
-0.830322,0.548584,-0.343018,-41.099545,-29.067991,-60.920712
-0.850586,0.569092,-0.349365,-43.342587,-26.893614,-62.232967
-0.851318,0.587891,-0.349609,-44.43359,-25.848387,-62.232967
-0.850342,0.59082,-0.325684,-44.876095,-27.763365,-61.645504
-0.867432,0.621094,-0.280762,-45.486446,-32.485962,-59.700008
-0.916748,0.670898,-0.262451,-43.769833,-37.117004,-55.587765
-0.952148,0.689941,-0.268311,-39.787292,-39.451599,-50.384518
-0.968262,0.662354,-0.2771,-36.315918,-39.535522,-45.600887
-0.990723,0.63208,-0.283447,-34.103394,-37.200928,-40.855404
-1.013184,0.609619,-0.280273,-31.761168,-33.325195,-36.16333
-1.02002,0.590576,-0.26709,-29.525755,-29.273985,-31.394957
-1.020264,0.57373,-0.26001,-26.840208,-25.718687,-26.351927
-1.000977,0.557373,-0.255615,-23.612974,-22.369383,-21.751402
-0.981445,0.540527,-0.250732,-20.851133,-20.935057,-18.737793
-0.974365,0.521729,-0.246338,-18.65387,-22.575377,-16.212463
-0.959961,0.496338,-0.247314,-17.082214,-24.848936,-13.839721
-0.951416,0.48291,-0.243408,-16.456604,-26.19171,-12.664794
-0.948242,0.474854,-0.231201,-16.616821,-26.870726,-11.978148
-0.94043,0.463379,-0.228516,-16.807556,-26.473997,-11.283874
-0.934814,0.445557,-0.2229,-17.234802,-24.452208,-11.268615
-0.923096,0.428711,-0.225342,-18.600464,-21.331785,-11.894225
-0.893555,0.411621,-0.215576,-21.087645,-18.65387,-12.847899
-0.862061,0.398926,-0.200928,-24.406431,-18.127441,-14.297484
-0.842285,0.389648,-0.189453,-27.94647,-21.080015,-15.678405
-0.820801,0.373535,-0.183105,-31.394957,-26.702879,-16.822815
-0.802979,0.358154,-0.177002,-35.743713,-33.39386,-18.341064
-0.796387,0.354736,-0.176758,-40.985104,-40.618893,-20.614622
-0.794189,0.347656,-0.182617,-45.677181,-47.187801,-23.300169
-0.799072,0.345947,-0.177734,-50.262447,-51.719662,-26.710508
-0.821533,0.33374,-0.181152,-55.412289,-54.214474,-31.547544
-0.842285,0.313965,-0.187012,-60.264584,-54.595943,-36.529541
-0.845703,0.292969,-0.187012,-64.964294,-53.070065,-41.732784
-0.839844,0.281982,-0.172852,-69.961548,-52.925106,-48.011776
-0.834961,0.260742,-0.165527,-75.881958,-57.182308,-54.534908
-0.85083,0.219727,-0.175049,-81.17675,-62.927242,-61.111446
-0.865967,0.169189,-0.19751,-86.616508,-67.588806,-67.779541
-0.851563,0.105713,-0.2229,-94.345085,-69.412231,-74.790955
-0.830322,0.070313,-0.17749,-105.400078,-64.445496,-83.518974
-0.815186,0.121338,-0.123047,-117.332451,-57.373043,-92.193596
-0.843994,0.14917,-0.08252,-123.588554,-49.888607,-103.912346
-0.87207,0.14502,-0.047852,-127.960197,-37.513733,-115.386955
-0.848877,0.117188,-0.006592,-132.751465,-24.375914,-127.92968
-0.829102,0.133301,0.023682,-135.475159,-14.450072,-141.433716
-0.837646,0.156006,0.059326,-131.370544,-12.374877,-155.609131
-0.835449,0.135742,0.077148,-123.718254,-17.89856,-169.128403
-0.824219,0.098145,0.10791,-115.867607,-26.115416,-181.304916
-0.825439,0.077637,0.130859,-107.13195,-35.896301,-193.35173
-0.854492,0.059326,0.138672,-98.44207,-40.008545,-205.505356
-0.915039,0.052002,0.166992,-92.094414,-32.936096,-218.81102
-1.013428,0.057861,0.232666,-89.424126,-20.195005,-232.353195
-1.124023,0.02124,0.22998,-83.091728,-4.829407,-238.922104
-1.170654,-0.063477,0.202148,-71.784973,17.845154,-239.761337
-1.113525,-0.116699,0.172119,-61.058041,41.084286,-242.095932
-1.003174,-0.123779,0.151611,-52.658077,53.428646,-246.437057
-0.923096,-0.150391,0.106934,-44.93713,52.429195,-249.992355
-0.931396,-0.216064,0.071045,-40.451046,45.951839,-249.992355
-0.994629,-0.28418,0.070801,-41.854855,37.406921,-249.93132
-1.081787,-0.337158,0.077881,-45.127865,25.29907,-249.992355
-1.161621,-0.393555,0.101563,-45.219418,10.253905,-249.992355
-1.185059,-0.455078,0.144043,-42.854305,-7.492065,-246.52861
-1.137695,-0.49585,0.164307,-40.801998,-28.770445,-236.488327
-1.086182,-0.531738,0.17334,-39.0625,-52.070614,-227.653488
-1.064453,-0.578857,0.171387,-39.245605,-72.982788,-220.970139
-1.068359,-0.630127,0.167236,-44.967648,-83.70208,-215.881332
-1.090088,-0.658203,0.15332,-55.091854,-80.322258,-213.058456
-1.118164,-0.665283,0.133545,-65.65094,-63.934322,-212.486252
-1.133057,-0.667969,0.125488,-74.066162,-39.680481,-210.906967
-1.099854,-0.666992,0.117188,-79.078674,-15.243529,-207.46611
-1.024658,-0.6875,0.107422,-79.803467,5.142211,-203.735336
-0.92334,-0.736328,0.09082,-78.384399,20.706175,-201.225266
-0.865234,-0.798096,0.067871,-77.125549,31.051634,-201.896652
-0.859619,-0.849609,0.055908,-77.667236,37.04834,-204.635605
-0.90625,-0.893066,0.053711,-78.674316,43.571468,-206.130966
-0.953369,-0.950928,0.070557,-80.436699,53.75671,-204.81871
-0.928955,-0.997559,0.093994,-83.32061,60.615536,-200.469955
-0.848145,-1.018066,0.099365,-84.060661,58.090206,-194.854721
-0.748779,-1.050781,0.08667,-80.596916,43.601986,-188.095078
-0.665771,-1.095215,0.078369,-74.562073,18.692017,-179.24498
-0.588623,-1.129883,0.067139,-70.091248,-13.687133,-168.685898
-0.503662,-1.154297,0.061279,-68.077087,-50.331112,-159.919739
-0.45166,-1.157959,0.056641,-68.130493,-90.431206,-154.953003
-0.474609,-1.144043,0.054443,-66.574097,-128.40271,-151.191711
-0.538818,-1.114502,0.058838,-62.33215,-155.845642,-145.530701
-0.606201,-1.062744,0.064209,-55.892941,-170.944199,-137.001038
-0.656006,-0.998047,0.056641,-47.004696,-175.521835,-124.046318
-0.67334,-0.932617,0.026123,-36.575317,-172.424301,-107.109062
-0.678955,-0.881836,-0.001953,-25.466917,-165.176376,-87.921135
-0.681641,-0.86499,-0.005615,-16.479492,-157.272339,-68.42041
-0.668945,-0.866943,-0.000977,-9.178162,-148.712158,-50.079342
-0.657715,-0.866455,0.01123,-1.945495,-139.10675,-33.905029
-0.648193,-0.864014,0.028564,5.500793,-128.250122,-20.179747
-0.646973,-0.871338,0.04248,12.649535,-116.012566,-9.086609
-0.650146,-0.884277,0.047607,18.760681,-102.905266,-0.450134
-0.65625,-0.887939,0.048096,23.651121,-89.462273,6.446838
-0.654785,-0.882813,0.049316,27.465818,-76.515198,12.33673
-0.645752,-0.878418,0.055176,30.708311,-64.956665,17.242432
-0.637451,-0.871338,0.054443,33.119202,-54.359432,21.133421
-0.623047,-0.876221,0.050049,35.888672,-45.501705,24.085997
-0.615723,-0.873779,0.047607,37.284851,-38.452148,26.43585
-0.615723,-0.874512,0.044922,39.215088,-31.585691,27.229307
-0.62085,-0.868164,0.044922,40.733334,-24.063108,27.122496
-0.616943,-0.870605,0.039307,42.472836,-15.098571,26.123045
-0.62793,-0.870117,0.047119,43.815609,-5.134582,24.612425
-0.655762,-0.867188,0.045166,44.761654,8.743286,22.819517
-0.659912,-0.866699,0.014893,45.417782,27.565001,21.820066
-0.634277,-0.88623,-0.030029,47.264095,49.018856,19.371033
-0.574951,-0.917236,-0.114258,46.70715,65.490723,13.763427
-0.498291,-0.97168,-0.239746,41.90826,69.496155,9.040833
-0.452148,-0.964111,-0.331299,31.303404,57.273861,4.432678
-0.466309,-0.937012,-0.380371,20.774839,44.021603,-0.518799
-0.477295,-0.931396,-0.374512,11.45172,34.805298,-3.204345
-0.475586,-0.94043,-0.319824,5.66864,29.678343,-5.973815
-0.477783,-0.924561,-0.233887,2.593994,31.654356,-10.437011
-0.480957,-0.895996,-0.153564,2.128601,36.186218,-13.015746
-0.489258,-0.893799,-0.096191,2.738952,37.475586,-14.266967
-0.508301,-0.911865,-0.044922,3.471374,37.727356,-13.96942
-0.535156,-0.924072,-0.003906,4.196167,41.061398,-11.848449
-0.539307,-0.931152,0.027344,5.256652,47.21069,-8.369446
-0.518555,-0.925293,0.054199,5.249023,53.215023,-4.562378
-0.48999,-0.92041,0.077881,5.767822,56.961056,-1.731872
-0.470947,-0.92041,0.092041,6.004333,57.357784,0.12207
-0.463379,-0.917236,0.100342,6.187438,55.221554,1.922607
-0.458496,-0.914307,0.108887,6.111145,52.070614,3.486633
-0.457275,-0.908203,0.11084,5.844116,49.171444,4.844666
-0.451416,-0.90332,0.110596,5.607605,46.531673,5.783081
-0.446289,-0.898193,0.10791,5.432128,43.411251,6.233215
-0.437256,-0.892578,0.106445,5.233764,39.390564,6.523132
-0.431885,-0.888184,0.103027,4.852295,34.77478,6.774902
-0.427979,-0.88208,0.101318,4.455566,29.800413,6.942749
-0.424805,-0.876221,0.10083,4.211426,24.635313,6.950378
-0.423584,-0.872314,0.100098,3.77655,19.355774,6.996154
-0.423584,-0.869629,0.098877,3.440857,14.129638,6.904602
-0.42627,-0.869141,0.10083,3.02124,9.338379,6.591796
-0.431641,-0.866699,0.101074,2.700805,5.1651,6.233215
-0.434814,-0.866455,0.098877,2.624511,1.960754,5.813598
-0.442139,-0.867676,0.096436,2.708435,-0.167847,5.043029
-0.448486,-0.87085,0.095459,3.059387,-0.991821,4.119873
-0.454102,-0.876465,0.090088,3.608703,-0.63324,3.120422
-0.456299,-0.88208,0.084229,4.310608,0.610352,2.098083
-0.457031,-0.888916,0.078369,4.882813,1.998901,1.319885
-0.456055,-0.893066,0.069336,5.41687,3.242492,0.762939
-0.454346,-0.900879,0.057617,6.057739,4.585266,0.137329
-0.450195,-0.906006,0.046875,6.729125,5.859375,-0.465393
-0.445801,-0.910889,0.034912,7.232666,6.637573,-1.159668
-0.442139,-0.914551,0.018066,7.331848,6.622314,-1.579285
-0.437256,-0.92041,0.002686,7.217407,5.729675,-1.663208
-0.437988,-0.927734,-0.012939,6.782531,3.921509,-1.747131
-0.438721,-0.929199,-0.02832,5.767822,1.281738,-1.663208
-0.436523,-0.928955,-0.043945,4.402161,-1.586914,-1.373291
-0.440186,-0.928223,-0.055176,2.89154,-4.577637,-1.083374
-0.446045,-0.925781,-0.056885,1.586914,-6.874084,-0.915527
-0.453613,-0.923096,-0.055664,0.663757,-8.155823,-0.801086
-0.45874,-0.920166,-0.051514,-0.106812,-8.018494,-0.854492
-0.465332,-0.91626,-0.041016,-0.511169,-7.087707,-0.816345
-0.472656,-0.911377,-0.027344,-0.572205,-5.554199,-0.831604
-0.479736,-0.905029,-0.010742,-0.167847,-3.410339,-0.587463
-0.482178,-0.902832,0.000244,0.244141,-0.915527,-0.38147
-0.478027,-0.901855,0.007324,0.495911,1.182556,-0.038147
-0.47583,-0.896484,0.017334,0.518799,2.723694,0.12207
-0.474365,-0.89502,0.02832,0.640869,3.791809,0.053406
-0.47583,-0.891113,0.0354,0.587463,4.638672,-0.091553
-0.47583,-0.888672,0.040771,0.549316,5.317688,-0.190735
-0.47998,-0.889893,0.046631,0.564575,5.714416,-0.396728
-0.478027,-0.888184,0.054932,0.610352,5.836486,-0.534058
-0.476074,-0.886963,0.056885,0.579834,5.569458,-0.740051
-0.475098,-0.885254,0.060547,0.457764,5.0354,-0.88501
-0.477051,-0.885742,0.060059,0.358582,4.264832,-0.984192
-0.474854,-0.887695,0.061035,0.297546,3.433227,-0.999451
-0.471436,-0.888916,0.063477,0.259399,2.426147,-0.862122
-0.47168,-0.890381,0.061523,0.205994,1.51062,-0.686645
-0.473145,-0.889404,0.062744,0.099182,0.785828,-0.457764
-0.473877,-0.890137,0.05957,0.297546,0.617981,-0.358582
-0.47168,-0.890137,0.055664,0.526428,0.846863,-0.175476
-0.468506,-0.89502,0.050293,0.640869,1.228333,0.167847
-0.46582,-0.899414,0.041992,0.938415,1.487732,0.465393
-0.462646,-0.898193,0.036865,1.289368,1.63269,0.610352
-0.46167,-0.900146,0.030762,1.434326,1.647949,0.770569
-0.461426,-0.903076,0.024902,1.419067,1.564026,0.862122
-0.45874,-0.904541,0.019531,1.358032,1.266479,0.930786
-0.459717,-0.909912,0.012695,1.220703,0.87738,0.732422
-0.460938,-0.912109,0.008301,1.075745,0.480652,0.473022
-0.460693,-0.90918,0.004639,0.694275,0.358582,0.328064
-0.461182,-0.907959,0.002686,0.205994,0.205994,0.175476
-0.462646,-0.906982,0.000732,-0.068665,0.015259,0.099182
-0.459717,-0.906494,0.003174,-0.427246,-0.228882,-0.045776
-0.462646,-0.904785,0.007813,-0.75531,-0.427246,-0.030518
-0.465332,-0.903076,0.010742,-0.770569,-0.617981,0.091553
-0.467285,-0.900635,0.01416,-0.808716,-0.63324,0.259399
-0.469482,-0.901855,0.022705,-0.831604,-0.473022,0.289917
-0.472168,-0.901855,0.023682,-0.892639,-0.099182,0.297546
-0.476074,-0.899414,0.026367,-0.87738,0.267029,0.38147
-0.475586,-0.896484,0.032471,-0.732422,0.663757,0.450134
-0.473877,-0.894775,0.033936,-0.556946,0.961304,0.480652
-0.47168,-0.89502,0.039795,-0.75531,0.915527,0.602722
-0.4729,-0.892578,0.041504,-0.709534,0.671387,0.640869
-0.471191,-0.890869,0.041748,-0.63324,0.427246,0.732422
-0.470459,-0.890381,0.038574,-0.62561,0.144958,0.801086
-0.472168,-0.890869,0.038818,-0.518799,-0.1297,0.839233
-0.471436,-0.889893,0.036865,-0.411987,-0.457764,0.88501
-0.471924,-0.890137,0.032715,-0.267029,-0.785828,0.854492
-0.472656,-0.891357,0.029053,-0.1297,-1.091003,0.785828
-0.4729,-0.893555,0.026611,-0.167847,-1.373291,0.671387
-0.474854,-0.895264,0.026367,-0.259399,-1.449585,0.526428
-0.476563,-0.896484,0.023193,-0.244141,-1.373291,0.495911
-0.479492,-0.895264,0.021973,-0.297546,-1.182556,0.434875
-0.476318,-0.897217,0.018799,-0.312805,-1.174927,0.396728
-0.476074,-0.900146,0.015625,-0.366211,-1.167297,0.320435
-0.476074,-0.898438,0.018311,-0.289917,-1.037598,0.320435
-0.478027,-0.897705,0.018066,-0.335693,-0.770569,0.358582
-0.478027,-0.895264,0.016357,-0.328064,-0.534058,0.434875
-0.477539,-0.892822,0.016357,-0.312805,-0.305176,0.37384
-0.478516,-0.894287,0.016357,-0.213623,-0.015259,0.259399
-0.479248,-0.894043,0.017578,-0.213623,0.205994,0.221252
-0.481445,-0.892822,0.020752,-0.175476,0.511169,0.1297
-0.482422,-0.893066,0.022217,-0.099182,0.709534,0.1297
-0.480957,-0.894043,0.02417,-0.091553,1.045227,0.045776
-0.480713,-0.892334,0.022217,-0.038147,1.449585,-0.061035
-0.479004,-0.892334,0.023193,0.030518,1.579285,-0.091553
-0.477539,-0.891602,0.025146,0.015259,1.693725,-0.038147
-0.476563,-0.891602,0.023438,0.068665,1.647949,-0.007629
-0.475098,-0.892578,0.026855,0.152588,1.770019,-0.068665
-0.474854,-0.892578,0.029785,0.297546,1.754761,-0.175476
-0.474365,-0.891846,0.027832,0.404358,1.831055,-0.328064
-0.470703,-0.894287,0.025146,0.465393,1.899719,-0.495911
-0.472412,-0.892578,0.026855,0.579834,1.831055,-0.701904
-0.4729,-0.89624,0.024902,0.617981,1.876831,-0.839233
-0.471924,-0.897217,0.020752,0.564575,1.716614,-0.87738
-0.470947,-0.895264,0.017334,0.396728,1.434326,-0.961304
-0.470459,-0.895508,0.017334,0.25177,1.12915,-1.052856
-0.469971,-0.896484,0.017578,0.137329,0.778198,-1.113892
-0.46875,-0.89624,0.02002,0.114441,0.564575,-1.121521
-0.469238,-0.898438,0.022217,0.061035,0.038147,-1.045227
-0.473145,-0.897461,0.020996,0.083923,-0.37384,-1.00708
-0.472412,-0.896729,0.024414,0.030518,-0.679016,-0.717163
-0.47168,-0.897461,0.023926,0.0,-0.976562,-0.511169
-0.475586,-0.898682,0.023438,-0.167847,-1.00708,-0.434875
-0.476807,-0.899658,0.021484,-0.328064,-1.00708,-0.289917
-0.476807,-0.895264,0.022217,-0.450134,-1.144409,-0.312805
-0.477539,-0.892822,0.020264,-0.534058,-1.083374,-0.213623
-0.477783,-0.891846,0.02002,-0.465393,-0.991821,-0.160217
-0.475586,-0.893555,0.023438,-0.389099,-1.197815,-0.183105
-0.472656,-0.893311,0.025635,-0.328064,-1.579285,-0.160217
-0.477295,-0.892578,0.0271,-0.259399,-2.037048,0.068665
-0.477539,-0.894531,0.024414,-0.076294,-2.128601,0.076294
-0.477051,-0.894287,0.022949,-0.015259,-1.945495,0.137329
-0.477783,-0.89209,0.019531,0.1297,-1.655578,0.091553
-0.477539,-0.894531,0.018311,0.1297,-1.487732,0.076294
-0.478271,-0.891846,0.018799,0.038147,-1.480102,0.12207
-0.479004,-0.889893,0.019043,-0.053406,-1.441955,0.007629
-0.479004,-0.889893,0.019531,0.022888,-1.335144,-0.183105
-0.480225,-0.890869,0.02002,-0.076294,-1.228333,-0.343323
-0.481445,-0.889404,0.020508,-0.114441,-1.243591,-0.473022
-0.480713,-0.887451,0.022217,-0.144958,-1.121521,-0.541687
-0.482666,-0.886963,0.022705,-0.045776,-0.907898,-0.587463
-0.483398,-0.888184,0.020752,0.083923,-0.679016,-0.602722
-0.483154,-0.890137,0.023438,0.198364,-0.549316,-0.602722
-0.484131,-0.892822,0.021973,0.297546,-0.450134,-0.679016
-0.487305,-0.894287,0.024414,0.358582,-0.221252,-0.846863
-0.487549,-0.89624,0.026367,0.183105,0.015259,-0.839233
-0.489502,-0.893799,0.025391,0.12207,0.137329,-0.762939
-0.489746,-0.894531,0.023926,0.312805,0.389099,-0.717163
-0.487549,-0.895752,0.02124,0.25177,0.488281,-0.610352
-0.487793,-0.89502,0.023926,0.152588,0.534058,-0.411987
-0.485107,-0.892334,0.022949,0.259399,0.701904,-0.25177
-0.484131,-0.892334,0.020752,0.442505,0.801086,-0.099182
-0.480225,-0.888916,0.018311,0.495911,0.915527,0.076294
-0.478516,-0.886963,0.02002,0.457764,1.159668,0.213623
-0.476318,-0.887451,0.022461,0.38147,1.243591,0.190735
-0.475586,-0.892578,0.023438,0.450134,1.38092,-0.030518
-0.475586,-0.893799,0.021484,0.549316,1.63269,-0.358582
-0.474365,-0.89502,0.02002,0.679016,1.739502,-0.656128
-0.4729,-0.89502,0.02124,0.572205,1.495361,-0.869751
-0.471924,-0.897217,0.021729,0.564575,1.190186,-1.152039
-0.471924,-0.899658,0.025146,0.572205,0.854492,-1.365662
-0.471924,-0.898438,0.024902,0.450134,0.62561,-1.556396
-0.474609,-0.898438,0.023438,0.518799,0.427246,-1.609802
-0.479004,-0.899658,0.023926,0.549316,0.488281,-1.502991
-0.479004,-0.896729,0.024902,0.572205,0.595093,-1.419067
-0.479004,-0.895996,0.020752,0.63324,0.75531,-1.365662
-0.47998,-0.894043,0.023682,0.610352,0.778198,-1.342773
-0.479492,-0.895508,0.02417,0.747681,0.671387,-1.365662
-0.481445,-0.896729,0.023682,0.793457,0.671387,-1.441955
-0.477295,-0.896973,0.023438,0.686645,0.534058,-1.358032
-0.478516,-0.896973,0.026855,0.595093,0.419617,-1.228333
-0.480225,-0.893311,0.024658,0.602722,0.236511,-1.197815
-0.477783,-0.89209,0.023926,0.419617,0.12207,-1.121521
-0.477539,-0.889893,0.024414,0.518799,0.320435,-0.900268
-0.477295,-0.891357,0.0271,0.617981,0.465393,-0.770569
-0.475098,-0.892578,0.026123,0.63324,0.480652,-0.671387
-0.475342,-0.894531,0.023682,0.686645,0.526428,-0.50354
-0.475342,-0.895264,0.024902,0.694275,0.328064,-0.488281
-0.473877,-0.895752,0.025879,0.617981,0.038147,-0.366211
-0.474121,-0.89502,0.025146,0.518799,-0.030518,-0.50354
-0.473877,-0.894287,0.025879,0.488281,0.007629,-0.617981
-0.475098,-0.892822,0.025391,0.495911,0.114441,-0.63324
-0.475342,-0.891602,0.026611,0.480652,0.358582,-0.785828
-0.474365,-0.891602,0.029541,0.602722,0.62561,-0.915527
-0.473877,-0.894531,0.028076,0.724792,0.900268,-0.968933
-0.472412,-0.895508,0.028809,0.785828,1.037598,-1.106262
-0.474854,-0.895996,0.030518,0.831604,1.152039,-1.13678
-0.475586,-0.894531,0.026855,0.892639,1.205444,-1.00708
-0.476074,-0.895752,0.028809,0.923157,1.213074,-1.075745
-0.473145,-0.896729,0.026611,0.961304,1.304626,-1.304626
-0.473877,-0.895264,0.025391,0.839233,1.411438,-1.274109
-0.475342,-0.896484,0.025146,0.785828,1.411438,-1.106262
-0.473877,-0.897217,0.023682,0.740051,1.373291,-1.13678
-0.474609,-0.896729,0.026367,0.831604,1.312256,-1.014709
-0.474609,-0.89624,0.025391,0.808716,1.426697,-0.915527
-0.474609,-0.89502,0.025879,0.808716,1.464844,-0.808716
-0.473877,-0.895264,0.026123,0.839233,1.365662,-0.663757
-0.474121,-0.895752,0.029053,0.892639,1.319885,-0.564575
-0.473145,-0.895508,0.027832,0.75531,1.228333,-0.457764
-0.473633,-0.895752,0.02832,0.701904,1.060486,-0.350952
-0.47168,-0.89624,0.026611,0.709534,1.022339,-0.259399
-0.471191,-0.898438,0.024658,0.572205,1.029968,-0.190735
-0.470215,-0.897217,0.026123,0.579834,0.946045,-0.183105
-0.471191,-0.895996,0.024658,0.50354,0.793457,-0.083923
-0.471924,-0.894043,0.025391,0.473022,0.907898,0.022888
-0.469727,-0.893799,0.024902,0.595093,1.068115,0.0
-0.469238,-0.895752,0.022705,0.686645,1.167297,-0.068665
-0.470947,-0.895996,0.026855,0.549316,1.12915,-0.183105
-0.469238,-0.896729,0.025879,0.480652,1.060486,-0.274658
-0.470459,-0.896973,0.029053,0.579834,0.930786,-0.366211
-0.472412,-0.898682,0.0271,0.663757,0.854492,-0.488281
-0.474609,-0.902832,0.026611,0.679016,0.968933,-0.595093
-0.474121,-0.901855,0.026855,0.602722,1.106262,-0.785828
-0.474365,-0.902344,0.024414,0.518799,1.091003,-0.930786
-0.476318,-0.89917,0.026123,0.640869,1.213074,-1.075745
-0.473145,-0.897217,0.023926,0.823975,1.586914,-1.159668
-0.473389,-0.896729,0.023438,0.88501,1.770019,-1.167297
-0.4729,-0.896729,0.019775,0.892639,1.846313,-1.228333
-0.470703,-0.896484,0.022705,0.785828,2.006531,-1.121521
-0.469971,-0.894043,0.02417,0.793457,2.090454,-1.113892
-0.469482,-0.892578,0.02417,0.846863,2.243042,-1.014709
-0.468262,-0.895264,0.018555,0.801086,2.349854,-0.656128
-0.466797,-0.896484,0.025391,0.823975,2.311707,-0.488281
-0.46582,-0.89502,0.026611,0.762939,2.449036,-0.38147
-0.463623,-0.89624,0.025391,0.762939,2.204895,-0.404358
-0.464355,-0.898438,0.025146,0.602722,1.853943,-0.411987
-0.464355,-0.89917,0.026123,0.434875,1.541138,-0.404358
-0.462646,-0.900146,0.029785,0.37384,1.159668,-0.434875
-0.462891,-0.900146,0.02832,0.343323,0.846863,-0.541687
-0.46167,-0.899414,0.02832,0.198364,0.556946,-0.694275
-0.462646,-0.897949,0.027344,0.259399,0.320435,-0.831604
-0.465088,-0.898193,0.029297,0.183105,0.0,-0.846863
-0.465332,-0.896484,0.027832,0.038147,-0.289917,-0.976562
-0.468018,-0.898926,0.026123,0.144958,-0.213623,-0.900268
-0.467285,-0.897705,0.022949,0.12207,-0.144958,-0.953674
-0.469482,-0.895508,0.023926,0.175476,0.015259,-1.174927
-0.469238,-0.898682,0.023682,0.137329,0.183105,-1.304626
-0.471924,-0.899902,0.025879,0.091553,0.205994,-1.426697
-0.471191,-0.900146,0.024902,0.25177,0.190735,-1.449585
-0.470215,-0.900391,0.023193,0.221252,0.221252,-1.38092
-0.470703,-0.898926,0.020752,0.106812,0.175476,-1.274109
-0.469727,-0.897705,0.021729,-0.099182,0.053406,-1.228333
-0.469727,-0.901367,0.021973,-0.137329,-0.1297,-1.144409
-0.470215,-0.903076,0.021729,0.022888,-0.106812,-1.083374
-0.4729,-0.900146,0.019287,-0.068665,0.183105,-1.220703
-0.471191,-0.896484,0.017822,-0.198364,0.427246,-1.197815
-0.467773,-0.897705,0.020752,-0.083923,0.404358,-1.144409
-0.465576,-0.897949,0.023926,-0.1297,0.167847,-1.167297
-0.46582,-0.89917,0.022705,-0.160217,-0.152588,-1.152039
-0.464355,-0.898682,0.022949,-0.228882,-0.37384,-1.113892
-0.465332,-0.897461,0.025391,-0.25177,-0.541687,-1.12915
-0.469482,-0.898926,0.026367,-0.274658,-0.541687,-1.251221
-0.466064,-0.898438,0.028076,-0.190735,-0.343323,-1.38092
-0.464355,-0.899414,0.025879,-0.106812,-0.236511,-1.502991
-0.465576,-0.897949,0.027588,-0.1297,-0.419617,-1.663208
-0.466064,-0.895752,0.024658,-0.175476,-0.770569,-1.785278
-0.469238,-0.895752,0.022705,-0.144958,-1.182556,-1.777649
-0.468018,-0.896729,0.024902,-0.053406,-1.365662,-1.754761
-0.47168,-0.895508,0.026123,-0.053406,-1.274109,-1.739502
-0.47168,-0.895996,0.025879,-0.038147,-0.984192,-1.625061
-0.468994,-0.897705,0.023926,-0.015259,-0.701904,-1.556396
-0.469238,-0.900146,0.020264,0.091553,-0.579834,-1.464844
-0.469971,-0.899414,0.020996,0.144958,-0.602722,-1.449585
-0.46875,-0.900391,0.020508,0.068665,-0.709534,-1.281738
-0.466309,-0.901367,0.018555,-0.137329,-0.984192,-1.220703
-0.465332,-0.898682,0.016846,-0.236511,-1.38092,-1.12915
-0.465332,-0.897705,0.016357,-0.366211,-1.724243,-1.091003
-0.466309,-0.896484,0.017334,-0.465393,-1.991272,-1.045227
-0.466797,-0.894775,0.019287,-0.37384,-2.128601,-0.968933
-0.468262,-0.896729,0.020996,-0.297546,-2.120972,-0.87738
-0.468018,-0.896973,0.021484,-0.358582,-1.991272,-0.900268
-0.470459,-0.895508,0.025635,-0.221252,-1.731872,-1.00708
-0.472412,-0.895752,0.024658,-0.076294,-1.647949,-1.014709
-0.470947,-0.895752,0.021484,0.0,-1.51062,-0.968933
-0.472412,-0.897217,0.021729,0.015259,-1.38092,-0.953674
-0.472656,-0.896973,0.02124,-0.061035,-1.228333,-0.869751
-0.472412,-0.89624,0.023193,-0.045776,-1.014709,-0.846863
-0.471924,-0.894531,0.020996,0.144958,-0.938415,-0.869751
-0.469727,-0.894043,0.02124,0.198364,-0.75531,-0.793457
-0.469238,-0.895264,0.020508,0.190735,-0.740051,-0.778198
-0.470459,-0.89624,0.020996,0.152588,-0.770569,-0.602722
-0.470703,-0.898438,0.022705,0.205994,-0.63324,-0.564575
-0.468506,-0.897461,0.020264,0.061035,-0.564575,-0.610352
-0.467285,-0.896484,0.021484,0.091553,-0.434875,-0.541687
-0.469238,-0.897217,0.021484,0.061035,-0.648498,-0.526428
-0.468506,-0.897949,0.021973,0.183105,-0.671387,-0.427246
-0.467773,-0.898682,0.020264,0.274658,-0.564575,-0.38147
-0.468018,-0.899902,0.024658,0.297546,-0.50354,-0.37384
-0.468018,-0.897705,0.022217,0.427246,-0.541687,-0.228882
-0.46875,-0.895752,0.020264,0.480652,-0.457764,-0.099182
-0.46875,-0.895508,0.020508,0.419617,-0.320435,0.0
-0.466797,-0.89624,0.021973,0.434875,-0.221252,0.038147
-0.463867,-0.893311,0.022705,0.404358,-0.160217,0.099182
-0.465576,-0.897461,0.025635,0.350952,-0.282288,0.091553
-0.465088,-0.895752,0.026611,0.320435,-0.389099,0.083923
-0.466309,-0.897217,0.026123,0.450134,-0.602722,-0.038147
-0.467285,-0.899902,0.025879,0.434875,-0.762939,-0.190735
-0.469971,-0.899658,0.0271,0.38147,-0.686645,-0.320435
-0.469971,-0.89917,0.025879,0.289917,-0.541687,-0.289917
-0.471191,-0.89917,0.026123,0.442505,-0.37384,-0.320435
-0.46875,-0.897705,0.027832,0.534058,-0.099182,-0.289917
-0.46875,-0.898193,0.027588,0.63324,0.091553,-0.198364
-0.467041,-0.900391,0.028076,0.617981,0.25177,-0.228882
-0.467773,-0.903076,0.023438,0.62561,0.343323,-0.152588
-0.468018,-0.901367,0.020264,0.747681,0.587463,-0.022888
-0.464111,-0.897461,0.019287,0.823975,0.762939,0.167847
-0.462402,-0.896973,0.018066,0.801086,0.770569,0.267029
-0.460205,-0.897461,0.017334,0.717163,0.534058,0.335693
-0.457764,-0.896729,0.019287,0.549316,0.068665,0.38147
-0.460449,-0.895264,0.022949,0.411987,-0.38147,0.305176
-0.461426,-0.895996,0.022461,0.228882,-0.602722,0.160217
-0.464844,-0.897705,0.021973,0.083923,-0.617981,0.053406
-0.4646,-0.900391,0.025391,0.061035,-0.556946,-0.12207
-0.466797,-0.898926,0.030029,0.091553,-0.518799,-0.312805
-0.466309,-0.898926,0.029541,0.244141,-0.450134,-0.343323
-0.468506,-0.900879,0.032471,0.343323,-0.419617,-0.221252
-0.46875,-0.902832,0.031738,0.198364,-0.404358,-0.137329
-0.469971,-0.903809,0.030762,0.25177,-0.457764,0.061035
-0.468262,-0.90332,0.031982,0.259399,-0.404358,0.213623
-0.469727,-0.902588,0.0271,0.167847,-0.274658,0.228882
-0.46875,-0.901855,0.026855,0.144958,-0.37384,0.312805
-0.469482,-0.903076,0.025635,0.175476,-0.38147,0.457764
-0.468262,-0.900391,0.024414,0.213623,-0.335693,0.549316
-0.463379,-0.899658,0.023438,0.152588,-0.419617,0.595093
-0.461914,-0.895996,0.019531,0.015259,-0.518799,0.541687
-0.461182,-0.895508,0.018555,0.045776,-0.587463,0.495911
-0.461426,-0.897705,0.020996,-0.099182,-0.732422,0.404358
-0.462402,-0.899414,0.022217,-0.297546,-0.999451,0.289917
-0.463135,-0.902344,0.024902,-0.236511,-0.854492,0.038147
-0.466064,-0.903076,0.0271,-0.244141,-0.541687,-0.175476
-0.46582,-0.903076,0.028076,-0.137329,-0.289917,-0.267029
-0.464111,-0.899658,0.02832,-0.099182,-0.137329,-0.244141
-0.465088,-0.900879,0.029541,-0.022888,-0.221252,-0.274658
-0.466553,-0.902588,0.029785,0.015259,-0.320435,-0.228882
-0.466553,-0.901855,0.031738,0.045776,-0.579834,-0.144958
-0.467529,-0.900146,0.029053,-0.083923,-0.587463,-0.244141
-0.469482,-0.901367,0.0271,-0.114441,-0.534058,-0.267029
-0.472168,-0.900635,0.028076,-0.106812,-0.411987,-0.358582
-0.471436,-0.899658,0.028076,-0.114441,-0.366211,-0.442505
-0.46875,-0.898682,0.026367,-0.183105,-0.335693,-0.495911
-0.469482,-0.901367,0.025635,-0.213623,-0.488281,-0.656128
-0.470459,-0.898926,0.026367,-0.366211,-0.816345,-0.679016
-0.47168,-0.899414,0.029297,-0.335693,-0.823975,-0.549316
-0.471436,-0.896729,0.029785,-0.274658,-0.595093,-0.465393
-0.471436,-0.89624,0.029297,-0.297546,-0.328064,-0.312805
-0.468506,-0.898193,0.028076,-0.144958,0.053406,-0.328064
-0.466553,-0.897949,0.024902,-0.1297,0.12207,-0.213623
-0.467285,-0.897217,0.025391,-0.236511,-0.022888,-0.160217
-0.467041,-0.897705,0.024414,-0.267029,-0.274658,-0.12207
-0.466797,-0.895508,0.022461,-0.244141,-0.617981,-0.083923
-0.468018,-0.897705,0.025146,-0.343323,-0.923157,-0.12207
-0.467285,-0.896973,0.026123,-0.396728,-1.159668,-0.099182
-0.468994,-0.897461,0.024414,-0.404358,-1.091003,-0.007629
-0.46875,-0.895508,0.025879,-0.358582,-1.197815,-0.022888
-0.469238,-0.896973,0.02832,-0.335693,-1.022339,0.099182
-0.468506,-0.897949,0.026611,-0.297546,-0.839233,0.106812
-0.470215,-0.89624,0.027832,-0.076294,-0.75531,0.030518
-0.468018,-0.897705,0.027588,0.007629,-0.648498,-0.083923
-0.465088,-0.895752,0.026611,-0.015259,-0.564575,-0.289917
-0.466064,-0.895752,0.026367,0.152588,-0.389099,-0.724792
-0.46875,-0.897217,0.026123,0.366211,-0.068665,-1.075745
-0.467285,-0.895508,0.023926,0.419617,0.167847,-1.419067
-0.470215,-0.896973,0.021484,0.442505,0.328064,-1.64032
-0.471924,-0.898926,0.02002,0.457764,0.236511,-1.838684
-0.472168,-0.898438,0.020508,0.37384,0.160217,-1.914978
-0.474609,-0.901123,0.018311,0.198364,0.022888,-1.678467
-0.473389,-0.898926,0.020508,0.25177,-0.022888,-1.472473
-0.473877,-0.896484,0.021484,0.144958,0.061035,-1.167297
-0.471924,-0.896484,0.023682,0.12207,0.015259,-0.854492
-0.471191,-0.894531,0.026611,0.190735,0.068665,-0.63324
-0.467773,-0.893799,0.027588,0.228882,0.007629,-0.411987
-0.467529,-0.89624,0.02832,0.228882,0.0,-0.297546
-0.468994,-0.896973,0.025635,0.205994,-0.137329,-0.335693
-0.468994,-0.897217,0.02832,0.083923,-0.312805,-0.518799
-0.470947,-0.897705,0.030273,-0.083923,-0.679016,-0.747681
-0.472168,-0.897705,0.030273,-0.061035,-0.747681,-0.88501
-0.472412,-0.896729,0.030273,-0.068665,-0.740051,-0.778198
-0.474121,-0.89624,0.031494,-0.1297,-0.808716,-0.679016
-0.476563,-0.897461,0.031494,-0.038147,-0.732422,-0.473022
-0.474609,-0.895508,0.027344,0.190735,-0.534058,-0.167847
-0.470459,-0.896973,0.02417,0.152588,-0.358582,0.038147
-0.470703,-0.895508,0.025635,0.205994,-0.282288,0.190735
-0.469971,-0.896973,0.022461,0.366211,-0.289917,0.175476
-0.470703,-0.897705,0.019287,0.450134,-0.068665,-0.1297
-0.471191,-0.898682,0.019043,0.305176,0.213623,-0.343323
-0.47168,-0.901611,0.018555,0.183105,0.511169,-0.747681
-0.469971,-0.900146,0.01709,0.038147,0.747681,-1.060486
-0.46875,-0.899414,0.01709,-0.068665,0.816345,-1.235962
-0.469238,-0.899902,0.02417,-0.068665,0.709534,-1.251221
-0.471191,-0.901611,0.025146,0.076294,0.579834,-1.121521
-0.473633,-0.9021,0.023682,0.030518,0.679016,-0.991821
-0.474365,-0.897949,0.024658,0.213623,1.022339,-0.816345
-0.471436,-0.894531,0.020264,0.389099,1.464844,-0.488281
-0.468262,-0.892578,0.023438,0.511169,1.701355,-0.213623
-0.467529,-0.89209,0.021729,0.511169,1.792908,-0.083923
-0.464844,-0.893311,0.02002,0.190735,1.38092,0.022888
-0.4646,-0.893799,0.022461,-0.053406,0.854492,-0.114441
-0.466797,-0.895996,0.026367,-0.144958,0.1297,-0.511169
-0.468994,-0.900879,0.027344,-0.289917,-0.579834,-0.816345
-0.47168,-0.9021,0.029297,-0.267029,-0.953674,-1.029968
-0.47583,-0.901855,0.030762,-0.114441,-0.816345,-1.220703
-0.476807,-0.901367,0.029541,0.190735,-0.137329,-1.243591
-0.476318,-0.901367,0.026367,0.358582,0.694275,-1.289368
-0.476074,-0.900146,0.021484,0.602722,1.365662,-1.152039
-0.473145,-0.898193,0.017822,0.663757,2.006531,-0.976562
-0.472168,-0.897949,0.018555,0.701904,2.532959,-0.900268
-0.472656,-0.897217,0.018066,0.930786,3.028869,-0.854492
-0.468262,-0.896484,0.016113,0.953674,3.494262,-0.732422
-0.464111,-0.897461,0.014404,0.869751,3.715515,-0.556946
-0.462402,-0.899658,0.012695,0.62561,3.456115,-0.610352
-0.458984,-0.898193,0.014893,0.495911,2.89154,-0.549316
-0.455566,-0.897949,0.018555,0.320435,1.899719,-0.488281
-0.455811,-0.897705,0.023438,0.25177,0.976562,-0.450134
-0.458252,-0.896973,0.0271,-0.007629,0.12207,-0.350952
-0.45874,-0.900146,0.030518,-0.053406,-0.427246,-0.389099
-0.461182,-0.9021,0.032959,-0.1297,-0.457764,-0.518799
-0.460449,-0.899414,0.03418,-0.091553,-0.335693,-0.686645
-0.459717,-0.898193,0.031982,-0.076294,-0.228882,-0.686645
-0.45874,-0.895752,0.031738,0.083923,-0.534058,-0.434875
-0.459717,-0.89502,0.031006,0.175476,-1.014709,-0.358582
-0.46167,-0.895508,0.029785,0.106812,-1.449585,-0.404358
-0.463623,-0.895996,0.0271,0.091553,-1.838684,-0.434875
-0.46875,-0.897705,0.027344,-0.045776,-1.953125,-0.495911
-0.470703,-0.900635,0.0271,0.167847,-1.777649,-0.740051
-0.473389,-0.89917,0.023438,0.12207,-1.441955,-0.968933
-0.473877,-0.899414,0.02417,0.053406,-0.999451,-1.091003
-0.474609,-0.899658,0.022217,0.053406,-0.63324,-1.174927
-0.475098,-0.89917,0.02002,-0.076294,-0.457764,-1.228333
-0.473633,-0.898438,0.019531,0.091553,-0.221252,-1.037598
-0.473877,-0.896973,0.019043,0.213623,-0.015259,-0.808716
-0.474854,-0.897949,0.018066,0.244141,0.343323,-0.572205
-0.472168,-0.898438,0.018311,0.419617,0.785828,-0.228882
-0.472168,-0.900635,0.019043,0.518799,1.213074,0.007629
-0.467773,-0.901123,0.019287,0.50354,1.556396,0.114441
-0.463135,-0.9021,0.018555,0.450134,1.411438,0.289917
-0.463379,-0.900391,0.018311,0.526428,1.152039,0.335693
-0.463135,-0.899658,0.019775,0.579834,0.686645,0.305176
-0.460205,-0.899658,0.020508,0.488281,0.221252,0.213623
-0.461182,-0.897461,0.022461,0.488281,-0.144958,0.137329
-0.460205,-0.896729,0.025879,0.62561,-0.343323,-0.030518
-0.463623,-0.895264,0.028076,0.656128,-0.63324,-0.114441
-0.465332,-0.895752,0.030029,0.579834,-0.762939,-0.137329
-0.466797,-0.894531,0.027832,0.602722,-0.62561,-0.152588
-0.46875,-0.893799,0.027832,0.648498,-0.610352,-0.106812
-0.468018,-0.894531,0.027832,0.579834,-0.442505,-0.007629
-0.470947,-0.893311,0.026611,0.694275,-0.50354,0.0
-0.474365,-0.895264,0.025635,0.648498,-0.541687,0.0
-0.474365,-0.897217,0.023926,0.488281,-0.457764,0.137329
-0.474609,-0.896484,0.025391,0.610352,-0.25177,0.099182
-0.477539,-0.901367,0.024902,0.549316,-0.1297,0.160217
-0.474854,-0.900635,0.026123,0.274658,0.030518,0.297546
-0.472412,-0.899902,0.024658,0.259399,0.099182,0.236511
-0.472168,-0.900879,0.023438,0.152588,0.137329,0.282288
-0.471191,-0.89917,0.021729,0.190735,0.137329,0.434875
-0.468262,-0.897949,0.022949,0.328064,0.1297,0.450134
-0.466309,-0.897949,0.025146,0.434875,0.137329,0.419617
-0.466309,-0.898926,0.02417,0.450134,0.038147,0.541687
-0.463379,-0.897461,0.022705,0.434875,-0.12207,0.465393
-0.464844,-0.89917,0.022461,0.427246,-0.083923,0.473022
-0.4646,-0.898438,0.022217,0.37384,-0.289917,0.389099
-0.466309,-0.898193,0.022217,0.289917,-0.236511,0.175476
-0.464355,-0.900879,0.021484,0.320435,-0.244141,0.038147
-0.466309,-0.89917,0.022949,0.320435,-0.274658,-0.015259
-0.467529,-0.89917,0.024658,0.305176,-0.404358,-0.137329
-0.470459,-0.897705,0.025635,0.274658,-0.595093,-0.25177
-0.473389,-0.900635,0.023682,0.305176,-0.648498,-0.312805
-0.475342,-0.900391,0.025391,0.236511,-0.50354,-0.473022
-0.474365,-0.898926,0.024902,0.213623,-0.396728,-0.343323
-0.473633,-0.895752,0.026367,0.25177,-0.167847,-0.312805
-0.474854,-0.896729,0.025146,0.419617,-0.045776,-0.350952
-0.474121,-0.893799,0.025635,0.579834,0.274658,-0.343323
-0.474609,-0.89624,0.025391,0.671387,0.62561,-0.228882
-0.474365,-0.898682,0.024658,0.740051,0.976562,-0.205994
-0.47168,-0.898926,0.023193,0.839233,1.335144,-0.244141
-0.470703,-0.897217,0.022461,0.770569,1.564026,-0.236511
-0.467773,-0.895996,0.021729,0.808716,1.541138,-0.045776
-0.467285,-0.899902,0.02002,0.701904,1.266479,-0.061035
-0.466309,-0.901611,0.019043,0.534058,0.961304,0.022888
-0.466553,-0.901123,0.021729,0.38147,0.549316,0.061035
-0.466309,-0.898682,0.022705,0.305176,0.221252,0.0
-0.467041,-0.897217,0.021729,0.091553,0.015259,0.0
-0.466797,-0.895752,0.026611,0.007629,-0.198364,-0.061035
-0.468262,-0.895264,0.025635,0.022888,-0.091553,-0.1297
-0.468262,-0.89624,0.025635,0.030518,-0.015259,-0.205994
-0.468994,-0.895752,0.028809,0.053406,-0.053406,-0.297546
-0.46875,-0.899414,0.03125,0.099182,-0.183105,-0.106812
-0.469971,-0.900879,0.03125,0.106812,-0.312805,-0.030518
-0.472412,-0.899902,0.03125,-0.007629,-0.419617,-0.030518
-0.47168,-0.898926,0.029053,-0.106812,-0.259399,0.007629
-0.471436,-0.900879,0.025879,-0.068665,-0.114441,0.022888
-0.4729,-0.902344,0.026367,0.068665,0.099182,0.1297
-0.4729,-0.900146,0.023926,0.091553,0.106812,0.083923
-0.471924,-0.89917,0.024658,-0.038147,0.099182,0.167847
-0.471436,-0.896484,0.021973,0.015259,0.144958,0.259399
-0.468506,-0.893799,0.020752,-0.038147,-0.030518,0.236511
-0.466553,-0.89624,0.021484,-0.274658,-0.320435,0.221252
-0.466553,-0.900391,0.025879,-0.305176,-0.762939,0.1297
-0.468262,-0.900879,0.023682,-0.297546,-0.907898,0.076294
-0.468994,-0.895752,0.022461,-0.335693,-0.854492,0.0
-0.467773,-0.893799,0.023193,-0.205994,-0.709534,-0.091553
-0.467285,-0.894531,0.023926,-0.167847,-0.679016,-0.1297
-0.466309,-0.895996,0.025635,-0.106812,-0.732422,-0.152588
-0.467041,-0.89502,0.022461,-0.076294,-0.732422,-0.205994
-0.468994,-0.894775,0.024414,-0.1297,-0.87738,-0.236511
-0.47168,-0.896973,0.026855,-0.198364,-0.831604,-0.343323
-0.470703,-0.896973,0.026855,-0.114441,-0.709534,-0.549316
-0.469482,-0.897217,0.025146,-0.144958,-0.663757,-0.656128
-0.470459,-0.898926,0.023193,-0.267029,-0.62561,-0.709534
-0.468994,-0.898193,0.025146,-0.335693,-0.823975,-0.732422
-0.469727,-0.898193,0.02417,-0.442505,-1.296997,-0.679016
-0.472412,-0.897705,0.024902,-0.617981,-1.876831,-0.450134
-0.472412,-0.895508,0.025879,-0.663757,-2.197266,-0.267029
-0.4729,-0.89209,0.029053,-0.816345,-2.403259,0.12207
-0.472412,-0.894775,0.031006,-0.946045,-2.624511,0.289917
-0.470459,-0.895264,0.031738,-1.197815,-2.723694,0.465393
-0.471191,-0.892334,0.033936,-1.083374,-2.807617,0.572205
-0.471191,-0.890137,0.035645,-0.946045,-2.784729,0.518799
-0.471924,-0.893066,0.032715,-0.869751,-2.578735,0.343323
-0.471924,-0.896484,0.030762,-0.732422,-2.5177,0.099182
-0.469971,-0.897705,0.026123,-0.663757,-2.388,-0.167847
-0.470459,-0.900879,0.024414,-0.63324,-2.365112,-0.289917
-0.471191,-0.900391,0.019043,-0.724792,-2.449036,-0.62561
-0.473145,-0.899414,0.016846,-0.740051,-2.342224,-0.923157
-0.473633,-0.897949,0.016357,-0.595093,-1.823425,-1.121521
-0.475586,-0.897217,0.016113,-0.419617,-1.251221,-1.319885
-0.474609,-0.898926,0.015381,-0.411987,-0.923157,-1.327515
-0.476074,-0.897949,0.012695,-0.38147,-0.617981,-1.266479
-0.476318,-0.899658,0.01416,-0.465393,-0.343323,-1.167297
-0.477539,-0.897461,0.01709,-0.648498,-0.144958,-1.022339
-0.477539,-0.898438,0.020752,-0.762939,-0.076294,-1.060486
-0.475586,-0.899414,0.022949,-0.701904,-0.167847,-1.037598
-0.473633,-0.900879,0.025391,-0.717163,-0.350952,-0.930786
-0.471924,-0.901855,0.029053,-0.808716,-0.50354,-0.740051
-0.473145,-0.901123,0.029785,-0.62561,-0.793457,-0.518799
-0.472412,-0.896973,0.030273,-0.526428,-1.121521,-0.305176
-0.469971,-0.895264,0.029297,-0.640869,-1.464844,-0.114441
-0.468994,-0.892822,0.026855,-0.747681,-1.747131,0.175476
-0.468018,-0.891602,0.024902,-0.62561,-2.044678,0.282288
-0.469971,-0.891602,0.022705,-0.602722,-2.334595,0.404358
-0.469482,-0.889893,0.025879,-0.595093,-2.563476,0.434875
-0.469971,-0.88916,0.024658,-0.450134,-2.578735,0.244141
-0.473145,-0.890625,0.022705,-0.152588,-2.471924,0.053406
-0.479004,-0.893066,0.023438,-0.068665,-2.288818,-0.244141
-0.480469,-0.894775,0.019775,0.015259,-1.792908,-0.511169
-0.481445,-0.895996,0.022705,-0.076294,-1.205444,-0.732422
-0.480713,-0.896484,0.02124,0.007629,-0.915527,-0.938415
-0.483643,-0.898438,0.016113,0.022888,-0.694275,-1.045227
-0.484863,-0.900391,0.01709,0.175476,-0.320435,-0.999451
-0.485352,-0.897949,0.018066,0.267029,0.190735,-0.900268
-0.484375,-0.898926,0.01709,0.25177,0.823975,-0.953674
-0.481445,-0.895508,0.015625,0.419617,1.426697,-0.907898
-0.476563,-0.895752,0.014648,0.518799,1.899719,-0.801086
-0.471191,-0.894287,0.017822,0.564575,2.02179,-0.640869
-0.469238,-0.893555,0.019287,0.534058,1.869202,-0.495911
-0.467773,-0.891846,0.022705,0.495911,1.51062,-0.556946
-0.466309,-0.889648,0.026367,0.450134,1.190186,-0.679016
-0.465576,-0.893555,0.026855,0.335693,0.984192,-0.801086
-0.469971,-0.895996,0.028809,0.297546,0.724792,-0.923157
-0.469971,-0.895264,0.029541,0.236511,0.709534,-1.037598
-0.469971,-0.895752,0.029541,0.312805,0.534058,-0.984192
-0.470947,-0.897217,0.029785,0.305176,0.190735,-0.923157
-0.471436,-0.898682,0.031738,0.274658,-0.007629,-0.831604
-0.470703,-0.898682,0.032715,0.38147,-0.167847,-0.656128
-0.4729,-0.900146,0.027588,0.312805,-0.167847,-0.366211
-0.471924,-0.899902,0.025635,0.289917,-0.091553,-0.205994
-0.471191,-0.9021,0.021484,0.221252,0.099182,-0.267029
-0.468506,-0.903564,0.02002,0.198364,0.106812,-0.12207
-0.467041,-0.901855,0.018311,0.137329,0.083923,-0.152588
-0.464355,-0.901855,0.017822,0.167847,0.045776,-0.305176
-0.463135,-0.899658,0.015869,0.091553,-0.007629,-0.511169
-0.460205,-0.895996,0.014648,-0.053406,-0.091553,-0.617981
-0.458984,-0.896973,0.014404,-0.160217,-0.427246,-0.671387
-0.459717,-0.894775,0.016357,-0.343323,-0.778198,-0.747681
-0.462646,-0.898438,0.020996,-0.312805,-0.984192,-0.88501
-0.465576,-0.902344,0.022949,-0.297546,-1.159668,-0.976562
-0.464844,-0.900635,0.022705,-0.335693,-1.25885,-0.923157
-0.467285,-0.899658,0.028564,-0.450134,-1.411438,-0.88501
-0.468506,-0.897705,0.027588,-0.289917,-1.525879,-0.923157
-0.46875,-0.89624,0.025879,-0.289917,-1.533508,-0.900268
-0.469238,-0.898438,0.029785,-0.25177,-1.63269,-1.045227
-0.468506,-0.898193,0.031006,-0.205994,-1.792908,-0.923157
-0.469971,-0.895508,0.030029,-0.228882,-2.037048,-0.976562
-0.469482,-0.896973,0.029053,-0.289917,-2.13623,-1.091003
-0.47168,-0.895752,0.026367,-0.267029,-2.029419,-1.235962
-0.472412,-0.894531,0.021729,-0.289917,-1.976013,-1.541138
-0.474121,-0.895752,0.020996,-0.358582,-1.937866,-1.63269
-0.477783,-0.896729,0.020264,-0.335693,-1.89209,-1.548767
-0.477783,-0.899414,0.020264,-0.267029,-1.792908,-1.403808
-0.475586,-0.897461,0.019531,-0.320435,-1.533508,-1.289368
-0.474854,-0.897705,0.02002,-0.221252,-1.411438,-1.121521
-0.475586,-0.894287,0.019531,-0.25177,-1.281738,-1.022339
-0.476807,-0.893311,0.02002,-0.221252,-1.12915,-0.75531
-0.47583,-0.895264,0.019287,-0.083923,-1.022339,-0.50354
-0.471436,-0.893066,0.017334,-0.091553,-1.00708,-0.320435
-0.47168,-0.892578,0.016846,-0.083923,-1.113892,-0.366211
-0.470459,-0.894531,0.018555,-0.144958,-1.144409,-0.511169
-0.472168,-0.895508,0.019775,-0.137329,-1.365662,-0.62561
-0.47168,-0.897461,0.023926,-0.106812,-1.365662,-0.75531
-0.474365,-0.894531,0.027832,-0.030518,-1.373291,-0.87738
-0.476318,-0.894287,0.027588,0.205994,-0.976562,-0.953674
-0.475342,-0.896973,0.025635,0.442505,-0.549316,-1.014709
-0.475098,-0.89624,0.022705,0.450134,-0.061035,-0.968933
-0.475342,-0.893799,0.020996,0.511169,0.289917,-1.029968
-0.476318,-0.89502,0.02002,0.564575,0.457764,-1.098633
-0.472656,-0.895752,0.020996,0.602722,0.579834,-1.068115
-0.473389,-0.897461,0.021973,0.663757,0.541687,-1.106262
-0.474365,-0.895752,0.02417,0.63324,0.595093,-1.152039
-0.475586,-0.898193,0.02002,0.671387,0.869751,-1.319885
-0.475342,-0.89917,0.021484,0.671387,1.243591,-1.457214
-0.4729,-0.898682,0.020996,0.640869,1.441955,-1.449585
-0.470703,-0.901611,0.021973,0.511169,1.464844,-1.304626
-0.469238,-0.899902,0.023438,0.450134,1.091003,-1.13678
-0.467529,-0.896973,0.025391,0.38147,0.694275,-0.831604
-0.465576,-0.897217,0.027588,0.427246,0.50354,-0.541687
-0.465088,-0.895752,0.028809,0.556946,0.724792,-0.221252
-0.46167,-0.894775,0.027832,0.663757,0.892639,-0.106812
-0.458984,-0.897705,0.026367,0.808716,0.839233,-0.152588
-0.457275,-0.899902,0.026367,0.778198,0.717163,-0.328064
-0.456055,-0.9021,0.025879,0.785828,0.259399,-0.679016
-0.458008,-0.904297,0.025879,0.801086,-0.228882,-1.121521
-0.459717,-0.905518,0.025879,0.663757,-0.526428,-1.556396
-0.462646,-0.906982,0.024658,0.488281,-0.694275,-1.998901
-0.467529,-0.905518,0.024414,0.541687,-0.541687,-2.243042
-0.468262,-0.900879,0.022461,0.526428,-0.389099,-2.26593
-0.470947,-0.897949,0.02417,0.511169,-0.213623,-2.082825
-0.470215,-0.901855,0.026855,0.488281,-0.030518,-1.785278
-0.468262,-0.902832,0.027344,0.480652,-0.045776,-1.403808
-0.467773,-0.898682,0.027588,0.465393,-0.030518,-1.12915
-0.465088,-0.896484,0.02417,0.63324,0.25177,-1.00708
-0.4646,-0.897217,0.024902,0.732422,0.305176,-0.808716
-0.46167,-0.894531,0.024902,0.694275,0.312805,-0.717163
-0.460938,-0.894043,0.025635,0.656128,0.175476,-0.595093
-0.458984,-0.895752,0.025391,0.419617,-0.37384,-0.587463
-0.462646,-0.898438,0.028076,0.160217,-1.045227,-0.801086
-0.463135,-0.901367,0.029297,0.007629,-1.358032,-0.938415
-0.465088,-0.901855,0.032227,-0.030518,-1.434326,-1.106262
-0.469238,-0.899902,0.033203,0.228882,-1.029968,-1.220703
-0.467041,-0.898682,0.028564,0.427246,-0.289917,-1.228333
-0.462891,-0.898926,0.027344,0.572205,0.25177,-1.113892
-0.462402,-0.899658,0.02832,0.511169,0.205994,-0.968933
-0.463135,-0.902588,0.024902,0.305176,-0.213623,-0.732422
-0.461914,-0.901367,0.023682,0.183105,-0.63324,-0.572205
-0.46582,-0.903564,0.025879,-0.114441,-1.12915,-0.556946
-0.467285,-0.906006,0.027832,-0.190735,-1.625061,-0.556946
-0.46582,-0.902344,0.023926,-0.25177,-1.594543,-0.305176
-0.467041,-0.900635,0.022705,-0.1297,-1.472473,-0.236511
-0.469482,-0.899902,0.022705,-0.045776,-1.495361,-0.045776
-0.467773,-0.898682,0.018555,-0.022888,-1.502991,0.1297
-0.465088,-0.896484,0.021973,-0.053406,-1.556396,0.25177
-0.466309,-0.896973,0.025879,-0.38147,-1.876831,0.183105
-0.470947,-0.898926,0.028809,-0.350952,-1.876831,0.091553
-0.474365,-0.89624,0.029541,-0.137329,-1.350403,-0.045776
-0.474854,-0.89502,0.02832,0.0,-0.50354,-0.144958
-0.469727,-0.895752,0.028809,0.183105,0.228882,-0.244141
-0.467041,-0.897705,0.02832,0.282288,0.572205,-0.213623
-0.466309,-0.899414,0.026855,0.167847,0.724792,-0.25177
-0.464844,-0.900635,0.0271,0.038147,0.694275,-0.152588
-0.460449,-0.902832,0.026611,-0.038147,0.541687,-0.152588
-0.45874,-0.905273,0.027588,-0.213623,0.25177,-0.106812
-0.459473,-0.905273,0.02832,-0.350952,0.114441,-0.244141
-0.45752,-0.907227,0.027344,-0.495911,-0.114441,-0.37384
-0.454346,-0.908936,0.025391,-0.595093,-0.411987,-0.488281
-0.454346,-0.908691,0.0271,-0.663757,-1.152039,-0.488281
-0.455078,-0.907471,0.028809,-0.724792,-1.922607,-0.465393
-0.455566,-0.903564,0.028564,-0.785828,-2.388,-0.289917
-0.456055,-0.899414,0.029541,-0.656128,-2.540588,-0.221252
-0.457275,-0.897217,0.029541,-0.671387,-2.441406,-0.167847
-0.459229,-0.897217,0.027832,-0.62561,-2.26593,-0.205994
-0.459717,-0.895752,0.026367,-0.610352,-2.410889,-0.205994
-0.460693,-0.893066,0.025635,-0.75531,-2.876281,-0.25177
-0.466797,-0.894043,0.025635,-0.831604,-3.242492,-0.419617
-0.469482,-0.894531,0.028076,-0.793457,-3.349304,-0.457764
-0.469482,-0.895752,0.026367,-0.793457,-3.356933,-0.450134
-0.473389,-0.895508,0.029785,-0.717163,-3.219604,-0.450134
-0.474854,-0.896484,0.029785,-0.724792,-2.983093,-0.198364
-0.474854,-0.896973,0.030518,-0.579834,-2.716064,0.083923
-0.473877,-0.897217,0.0271,-0.411987,-2.532959,0.221252
-0.474365,-0.895508,0.028076,-0.297546,-2.197266,0.312805
-0.473633,-0.897949,0.029053,-0.068665,-1.869202,0.366211
-0.469727,-0.896484,0.024414,0.076294,-1.502991,0.305176
-0.469971,-0.895752,0.025635,0.259399,-1.152039,0.228882
-0.469238,-0.898438,0.024414,0.312805,-0.778198,0.152588
-0.469482,-0.899902,0.023438,0.297546,-0.335693,-0.099182
-0.469727,-0.901611,0.022217,0.282288,0.205994,-0.419617
-0.469727,-0.9021,0.022217,0.236511,0.732422,-0.63324
-0.467285,-0.903076,0.025391,0.076294,1.045227,-0.846863
-0.466553,-0.902344,0.024902,0.038147,1.266479,-1.029968
-0.464355,-0.90332,0.026367,0.099182,1.235962,-1.091003
-0.465088,-0.904785,0.026855,-0.015259,1.045227,-1.022339
-0.465332,-0.904297,0.02832,-0.030518,0.770569,-0.839233
-0.462646,-0.904053,0.025879,0.061035,0.541687,-0.701904
-0.463379,-0.904297,0.024658,0.091553,0.350952,-0.534058
-0.463867,-0.904785,0.026367,0.198364,-0.068665,-0.534058
-0.465576,-0.903564,0.027832,0.12207,-0.427246,-0.617981
-0.467285,-0.900879,0.029541,0.022888,-0.358582,-0.732422
-0.469482,-0.898926,0.025635,0.022888,-0.038147,-0.740051
-0.467041,-0.897949,0.025391,-0.022888,0.144958,-0.816345
-0.465332,-0.894287,0.024902,0.015259,0.183105,-0.724792
-0.464111,-0.89209,0.026855,-0.114441,0.1297,-0.610352
-0.463379,-0.891357,0.026855,-0.137329,0.053406,-0.312805
-0.463135,-0.895996,0.027832,0.007629,-0.190735,-0.045776
-0.463867,-0.903564,0.028564,0.053406,-0.358582,0.190735
-0.464844,-0.902832,0.027832,0.114441,-0.480652,0.267029
-0.463379,-0.901611,0.026855,0.205994,-0.679016,0.389099
-0.460938,-0.90332,0.023193,0.152588,-1.060486,0.434875
-0.458984,-0.901855,0.022461,0.061035,-1.586914,0.488281
-0.45874,-0.900635,0.023682,-0.083923,-2.128601,0.404358
-0.461426,-0.898438,0.020996,-0.076294,-2.258301,0.236511
-0.467041,-0.895508,0.022705,-0.114441,-2.288818,0.114441
-0.468994,-0.894531,0.024902,-0.099182,-2.212524,-0.106812
-0.470459,-0.892822,0.024902,0.045776,-2.128601,-0.282288
-0.470947,-0.892578,0.024658,0.022888,-1.739502,-0.465393
-0.474121,-0.889648,0.026611,0.244141,-1.213074,-0.457764
-0.474854,-0.889404,0.026855,0.434875,-0.778198,-0.564575
-0.474365,-0.889648,0.025391,0.434875,-0.457764,-0.534058
-0.476807,-0.892822,0.0271,0.495911,-0.083923,-0.50354
-0.479492,-0.895264,0.030029,0.564575,0.25177,-0.526428
-0.480713,-0.897949,0.029785,0.473022,0.610352,-0.587463
-0.482666,-0.900391,0.029785,0.457764,0.831604,-0.450134
-0.481934,-0.89917,0.03125,0.595093,1.152039,-0.419617
-0.479736,-0.901611,0.029541,0.595093,1.502991,-0.297546
-0.473877,-0.900146,0.02832,0.762939,1.670837,0.099182
-0.470703,-0.897705,0.025879,0.801086,1.548767,0.289917
-0.468018,-0.897461,0.020996,0.915527,1.358032,0.511169
-0.467529,-0.9021,0.022217,0.999451,1.274109,0.564575
-0.467529,-0.900391,0.023438,0.938415,1.052856,0.549316
-0.464111,-0.895996,0.023193,0.923157,1.106262,0.320435
-0.462402,-0.893555,0.022949,0.984192,1.205444,0.175476
-0.463379,-0.894531,0.021973,0.991821,1.304626,0.015259
-0.462646,-0.894287,0.023438,0.961304,1.480102,-0.160217
-0.460449,-0.892822,0.025635,0.953674,1.533508,-0.38147
-0.461914,-0.895996,0.026367,0.984192,1.335144,-0.526428
-0.465576,-0.900146,0.029297,0.938415,1.014709,-0.808716
-0.468262,-0.9021,0.032227,0.892639,0.816345,-0.793457
-0.469482,-0.902588,0.029053,0.915527,0.63324,-0.740051
-0.4729,-0.903076,0.030029,0.968933,0.488281,-0.778198
-0.475098,-0.905273,0.030029,1.052856,0.488281,-0.724792
-0.47168,-0.9021,0.02832,1.045227,0.717163,-0.717163
-0.473389,-0.899902,0.026123,1.243591,1.022339,-0.617981
-0.470947,-0.89917,0.027588,1.266479,1.235962,-0.37384
-0.46875,-0.896484,0.027344,1.182556,1.220703,-0.152588
-0.466309,-0.894775,0.025635,1.091003,1.281738,0.007629
-0.463867,-0.89502,0.026123,0.999451,1.228333,0.099182
-0.464844,-0.895752,0.023926,0.907898,1.190186,0.106812
-0.461914,-0.898926,0.026123,0.915527,1.075745,0.106812
-0.461426,-0.898682,0.026855,0.808716,0.656128,0.045776
-0.46167,-0.899658,0.02832,0.75531,0.228882,0.061035
-0.462646,-0.898926,0.028564,0.656128,-0.183105,0.083923
-0.464355,-0.900391,0.028564,0.556946,-0.511169,0.015259
-0.465332,-0.901123,0.027344,0.717163,-0.762939,0.076294
-0.466064,-0.900635,0.029785,0.549316,-0.846863,-0.015259
-0.467529,-0.89917,0.032227,0.488281,-0.816345,-0.137329
-0.470703,-0.89624,0.030273,0.587463,-0.640869,-0.106812
-0.471924,-0.89502,0.027588,0.717163,-0.450134,-0.213623
-0.47168,-0.894531,0.025391,0.663757,-0.152588,-0.404358
-0.471924,-0.894531,0.026611,0.602722,-0.022888,-0.473022
-0.474609,-0.895752,0.025879,0.572205,0.099182,-0.602722
-0.475342,-0.895752,0.028809,0.587463,0.289917,-0.740051
-0.478516,-0.898438,0.029053,0.450134,0.541687,-0.778198
-0.478516,-0.899414,0.029297,0.50354,0.968933,-0.740051
-0.477295,-0.899902,0.029053,0.610352,1.434326,-0.762939
-0.477783,-0.904053,0.027832,0.640869,1.930237,-0.770569
-0.472656,-0.901123,0.024658,0.572205,2.189636,-0.617981
-0.469238,-0.899902,0.022461,0.541687,1.914978,-0.396728
-0.467773,-0.896484,0.025879,0.495911,1.525879,-0.25177
-0.466064,-0.893311,0.027344,0.640869,1.373291,-0.083923
-0.465088,-0.895996,0.027344,0.679016,1.472473,-0.083923
-0.463135,-0.893066,0.026123,0.587463,1.571655,-0.1297
-0.460693,-0.892578,0.025146,0.465393,1.579285,-0.175476
-0.45752,-0.893799,0.026611,0.343323,1.274109,-0.228882
-0.459473,-0.896729,0.029053,0.38147,0.823975,-0.305176
-0.464111,-0.9021,0.033936,0.328064,0.62561,-0.450134
-0.464355,-0.906006,0.038574,0.183105,0.328064,-0.518799
-0.466309,-0.90625,0.036865,0.061035,0.030518,-0.648498
-0.466553,-0.904541,0.038818,0.038147,-0.106812,-0.663757
-0.468018,-0.904785,0.038086,0.091553,-0.289917,-0.602722
-0.467285,-0.904785,0.037354,0.152588,-0.350952,-0.465393
-0.464844,-0.906494,0.036621,0.213623,-0.305176,-0.434875
-0.466064,-0.902588,0.033203,0.396728,-0.282288,-0.213623
-0.466064,-0.903809,0.031738,0.473022,-0.228882,-0.053406
-0.463135,-0.898193,0.026367,0.595093,-0.289917,0.053406
-0.461182,-0.896729,0.024902,0.526428,-0.411987,0.1297
-0.462158,-0.894775,0.021973,0.289917,-0.717163,0.106812
-0.462402,-0.894043,0.022217,0.12207,-1.13678,-0.038147
-0.463623,-0.89502,0.020752,-0.099182,-1.426697,-0.144958
-0.466797,-0.895996,0.024902,-0.366211,-1.716614,-0.244141
-0.468262,-0.897461,0.0271,-0.480652,-1.861572,-0.37384
-0.469727,-0.900391,0.026123,-0.709534,-1.754761,-0.488281
-0.471924,-0.898926,0.031982,-0.671387,-1.617432,-0.640869
-0.472656,-0.898682,0.031982,-0.518799,-1.327515,-0.679016
-0.47168,-0.898926,0.035645,-0.549316,-1.075745,-0.549316
-0.470215,-0.898193,0.036377,-0.526428,-0.961304,-0.419617
-0.469971,-0.897217,0.035889,-0.473022,-1.060486,-0.25177
-0.469482,-0.899902,0.035645,-0.518799,-0.839233,-0.190735
-0.470459,-0.89917,0.03418,-0.389099,-0.701904,-0.267029
-0.471191,-0.900391,0.031494,-0.343323,-0.63324,-0.190735
-0.469971,-0.89917,0.031494,-0.328064,-0.457764,-0.25177
-0.468994,-0.899414,0.029053,-0.328064,-0.556946,-0.25177
-0.467529,-0.899414,0.028076,-0.526428,-0.717163,-0.068665
-0.468018,-0.896729,0.026611,-0.450134,-0.854492,0.099182
-0.465576,-0.89502,0.027832,-0.526428,-1.13678,0.167847
-0.465576,-0.898193,0.028809,-0.679016,-1.426697,0.236511
-0.468262,-0.899902,0.025635,-0.686645,-1.625061,0.160217
-0.470703,-0.897705,0.025635,-0.656128,-1.541138,-0.061035
-0.467041,-0.897949,0.026611,-0.610352,-1.319885,-0.213623
-0.467529,-0.895752,0.025879,-0.556946,-1.243591,-0.183105
-0.469971,-0.89624,0.030029,-0.564575,-1.495361,-0.213623
-0.469971,-0.896973,0.031006,-0.556946,-1.724243,-0.198364
-0.472412,-0.89502,0.029541,-0.587463,-1.708984,-0.1297
-0.475586,-0.894775,0.03125,-0.564575,-1.716614,-0.1297
-0.476563,-0.897461,0.033936,-0.549316,-1.686096,-0.152588
-0.479492,-0.897949,0.032715,-0.457764,-1.319885,-0.213623
-0.47998,-0.896484,0.032227,-0.274658,-1.029968,-0.205994
-0.479004,-0.894775,0.033447,-0.137329,-0.961304,-0.152588
-0.477051,-0.894531,0.031738,-0.144958,-0.839233,-0.267029
-0.478027,-0.894287,0.030273,-0.068665,-0.656128,-0.221252
-0.478516,-0.894531,0.026367,0.114441,-0.312805,-0.12207
-0.47583,-0.893799,0.026855,0.183105,0.144958,-0.083923
-0.472656,-0.893799,0.023682,0.190735,0.564575,-0.167847
-0.470947,-0.895508,0.02417,0.274658,1.060486,-0.198364
-0.470703,-0.894531,0.026611,0.328064,1.251221,-0.282288
-0.468506,-0.89624,0.024658,0.488281,1.106262,-0.38147
-0.465576,-0.896729,0.023682,0.320435,0.900268,-0.335693
-0.464844,-0.895508,0.0271,0.343323,0.587463,-0.38147
-0.4646,-0.898682,0.027588,0.312805,0.297546,-0.411987
-0.464355,-0.898926,0.029785,0.274658,-0.022888,-0.419617
-0.467285,-0.897461,0.028809,0.274658,-0.144958,-0.404358
-0.470947,-0.89917,0.028564,0.343323,-0.198364,-0.526428
-0.468994,-0.899658,0.02832,0.37384,-0.244141,-0.518799
-0.47168,-0.898926,0.032959,0.289917,-0.320435,-0.556946
-0.472656,-0.896973,0.03125,0.297546,-0.343323,-0.579834
-0.474609,-0.897217,0.031982,0.312805,-0.152588,-0.549316
-0.474365,-0.901611,0.031494,0.335693,0.114441,-0.549316
-0.473633,-0.899902,0.028076,0.25177,0.320435,-0.671387
-0.471191,-0.898438,0.029297,0.328064,0.289917,-0.770569
-0.472168,-0.899414,0.027344,0.152588,0.221252,-0.63324
-0.472656,-0.899902,0.026611,0.068665,0.12207,-0.518799
-0.474609,-0.899902,0.027588,0.12207,0.198364,-0.480652
-0.470947,-0.897949,0.029053,0.25177,0.434875,-0.389099
-0.467285,-0.899414,0.027344,0.259399,0.427246,-0.549316
-0.467773,-0.899414,0.026367,0.221252,0.190735,-0.465393
-0.469238,-0.898438,0.0271,0.175476,0.160217,-0.328064
-0.465332,-0.89624,0.026611,0.1297,0.244141,-0.205994
-0.466553,-0.896973,0.02417,0.198364,0.076294,-0.267029
-0.467529,-0.89917,0.025635,0.083923,0.053406,-0.282288
-0.463867,-0.897461,0.028076,-0.137329,-0.007629,-0.366211
-0.463867,-0.898193,0.024414,-0.030518,-0.282288,-0.442505
-0.466553,-0.900879,0.028076,-0.167847,-0.663757,-0.663757
-0.468262,-0.901855,0.027588,-0.205994,-0.862122,-0.747681
-0.469238,-0.904541,0.031738,-0.259399,-0.961304,-0.915527
-0.471436,-0.903076,0.031982,-0.320435,-1.045227,-1.060486
-0.473145,-0.898193,0.029541,-0.312805,-0.953674,-0.984192
-0.4729,-0.897949,0.031982,-0.335693,-0.717163,-0.846863
-0.4729,-0.900391,0.031006,-0.236511,-0.495911,-0.740051
-0.470459,-0.903809,0.027588,-0.335693,-0.37384,-0.602722
-0.469971,-0.900879,0.026367,-0.236511,-0.289917,-0.518799
-0.469482,-0.897461,0.023193,-0.213623,-0.312805,-0.450134
-0.466064,-0.894531,0.020508,-0.045776,-0.289917,-0.38147
-0.463623,-0.893799,0.022705,-0.152588,-0.442505,-0.358582
-0.46167,-0.89624,0.022705,-0.320435,-0.694275,-0.534058
-0.4646,-0.895508,0.025391,-0.404358,-1.00708,-0.549316
-0.466797,-0.896729,0.026123,-0.572205,-1.472473,-0.709534
-0.46875,-0.895264,0.02832,-0.640869,-1.983642,-0.854492
-0.473389,-0.897461,0.029053,-0.679016,-2.067566,-0.907898
-0.4729,-0.89502,0.029541,-0.671387,-1.89209,-0.991821
-0.476563,-0.895264,0.030029,-0.579834,-1.594543,-0.869751
-0.477051,-0.897461,0.032715,-0.305176,-1.167297,-0.732422
-0.474854,-0.89624,0.031738,-0.289917,-0.793457,-0.450134
-0.475342,-0.89624,0.030518,-0.358582,-0.762939,-0.236511
-0.474121,-0.897461,0.025391,-0.427246,-0.854492,-0.152588
-0.473877,-0.897705,0.025635,-0.473022,-0.785828,-0.152588
-0.473145,-0.897217,0.023926,-0.358582,-0.648498,-0.205994
-0.47168,-0.896729,0.025391,-0.343323,-0.450134,-0.312805
-0.468506,-0.89624,0.020752,-0.37384,-0.404358,-0.404358
-0.467285,-0.895752,0.022705,-0.366211,-0.62561,-0.511169
-0.468994,-0.896729,0.021484,-0.350952,-0.915527,-0.526428
-0.47168,-0.894775,0.022949,-0.305176,-1.022339,-0.480652
-0.470215,-0.896729,0.023926,-0.320435,-0.984192,-0.37384
-0.472656,-0.897217,0.028564,-0.160217,-0.778198,-0.358582
-0.473633,-0.898438,0.029541,-0.030518,-0.404358,-0.465393
-0.469971,-0.898438,0.025879,0.083923,-0.061035,-0.534058
-0.46875,-0.895752,0.022461,0.061035,-0.091553,-0.656128
-0.470459,-0.895264,0.024658,0.030518,-0.236511,-0.587463
-0.469482,-0.895752,0.025146,0.114441,-0.480652,-0.679016
-0.469482,-0.894287,0.025635,0.030518,-0.907898,-0.671387
-0.471191,-0.894287,0.030029,-0.015259,-1.182556,-0.701904
-0.474365,-0.896729,0.031738,0.167847,-1.037598,-0.679016
-0.473145,-0.895264,0.028564,0.160217,-0.717163,-0.656128
-0.474609,-0.895752,0.02832,0.228882,-0.411987,-0.617981
-0.472656,-0.895508,0.027344,0.236511,-0.228882,-0.480652
-0.472656,-0.895752,0.027344,0.289917,-0.350952,-0.389099
-0.471924,-0.89624,0.024414,0.228882,-0.495911,-0.282288
-0.47168,-0.893311,0.021973,0.114441,-0.541687,-0.213623
-0.470703,-0.894043,0.023926,0.244141,-0.343323,-0.282288
-0.470459,-0.895264,0.024658,0.228882,-0.205994,-0.389099
-0.468994,-0.898193,0.023682,0.144958,-0.274658,-0.465393
-0.468506,-0.898682,0.023438,0.137329,-0.465393,-0.595093
-0.470703,-0.896973,0.024414,0.160217,-0.709534,-0.63324
-0.46875,-0.895508,0.024902,0.12207,-0.816345,-0.602722
-0.470947,-0.895996,0.026855,0.289917,-0.694275,-0.595093
-0.471924,-0.897705,0.028076,0.404358,-0.343323,-0.610352
-0.471924,-0.896973,0.02832,0.419617,-0.015259,-0.701904
-0.470215,-0.898926,0.028809,0.442505,-0.053406,-0.679016
-0.471436,-0.897949,0.027344,0.511169,-0.259399,-0.740051
-0.472412,-0.896973,0.026855,0.465393,-0.320435,-0.762939
-0.472168,-0.896973,0.026367,0.457764,-0.404358,-0.801086
-0.472168,-0.89624,0.026367,0.450134,-0.259399,-0.87738
-0.471191,-0.894775,0.025391,0.427246,0.015259,-0.938415
-0.470703,-0.893555,0.02417,0.556946,0.244141,-0.961304
-0.469971,-0.896973,0.024414,0.572205,0.389099,-0.961304
-0.469238,-0.897949,0.024658,0.556946,0.419617,-0.953674
-0.468994,-0.89917,0.026855,0.587463,0.465393,-0.953674
-0.470215,-0.897705,0.0271,0.717163,0.427246,-0.999451
-0.468506,-0.900879,0.028076,0.75531,0.404358,-0.976562
-0.467529,-0.899414,0.026367,0.694275,0.297546,-1.014709
-0.467285,-0.901367,0.026367,0.640869,-0.015259,-0.930786
-0.467041,-0.899658,0.026855,0.495911,-0.205994,-0.88501
-0.466064,-0.898438,0.026123,0.37384,-0.244141,-0.892639
-0.468018,-0.901611,0.028564,0.37384,-0.297546,-0.88501
-0.469482,-0.901123,0.029053,0.404358,-0.305176,-0.915527
-0.468506,-0.898682,0.028564,0.427246,-0.25177,-0.984192
-0.465088,-0.898682,0.028076,0.495911,-0.152588,-0.900268
-0.464111,-0.896973,0.027588,0.419617,-0.205994,-0.87738
-0.465088,-0.897217,0.0271,0.213623,-0.419617,-0.976562
-0.467285,-0.897949,0.0271,0.328064,-0.465393,-0.915527
-0.466553,-0.895752,0.027832,0.457764,-0.495911,-0.87738
-0.46875,-0.895264,0.029053,0.518799,-0.343323,-0.846863
-0.468262,-0.896729,0.030762,0.526428,-0.236511,-0.816345
-0.465332,-0.900146,0.030762,0.511169,-0.190735,-0.785828
-0.465576,-0.898682,0.031494,0.473022,-0.137329,-0.892639
-0.466553,-0.899414,0.030762,0.442505,-0.259399,-0.999451
-0.468262,-0.900635,0.030273,0.50354,-0.167847,-1.159668
-0.470215,-0.902588,0.030518,0.450134,0.228882,-1.274109
-0.467529,-0.90332,0.030518,0.579834,0.450134,-1.411438
-0.46582,-0.900146,0.029785,0.579834,0.564575,-1.434326
-0.465576,-0.897461,0.026855,0.617981,0.572205,-1.38855
-0.464844,-0.897461,0.027832,0.648498,0.427246,-1.25885
-0.466064,-0.900391,0.030029,0.579834,0.404358,-1.144409
-0.466797,-0.90332,0.028809,0.564575,0.228882,-1.083374
-0.463867,-0.900146,0.026855,0.564575,0.343323,-0.938415
-0.461182,-0.897217,0.029785,0.808716,0.534058,-0.900268
-0.459961,-0.896484,0.028076,0.770569,0.495911,-0.854492
-0.456299,-0.899414,0.030762,0.488281,0.099182,-0.62561
-0.457031,-0.898438,0.032471,0.328064,-0.343323,-0.762939
-0.459473,-0.897705,0.030762,0.282288,-0.846863,-0.930786
-0.461182,-0.899414,0.032715,0.244141,-1.091003,-1.083374
-0.461182,-0.900635,0.033691,0.297546,-1.205444,-1.266479
-0.464111,-0.901611,0.0354,0.297546,-1.342773,-1.335144
-0.4646,-0.901855,0.036621,0.450134,-1.327515,-1.373291
-0.466797,-0.899414,0.0354,0.457764,-1.091003,-1.342773
-0.468506,-0.902344,0.031738,0.663757,-0.961304,-1.281738
-0.467529,-0.899658,0.030029,0.610352,-0.854492,-1.197815
-0.468994,-0.89624,0.026611,0.534058,-0.579834,-1.167297
-0.46875,-0.900146,0.026123,0.587463,0.007629,-1.12915
-0.467285,-0.899902,0.024414,0.572205,0.480652,-1.190186
-0.468018,-0.89917,0.022461,0.526428,0.854492,-1.25885
-0.466797,-0.900391,0.023193,0.549316,0.961304,-1.205444
-0.466553,-0.901123,0.022949,0.541687,0.930786,-1.174927
-0.462402,-0.901855,0.029785,0.419617,0.839233,-1.190186
-0.463135,-0.902344,0.030273,0.480652,0.617981,-1.197815
-0.463379,-0.900879,0.028564,0.556946,0.534058,-1.113892
-0.461426,-0.904053,0.035645,0.457764,0.274658,-1.014709
-0.46167,-0.902832,0.039307,0.404358,-0.076294,-1.075745
-0.463135,-0.90332,0.035156,0.579834,0.160217,-1.174927
-0.459961,-0.900391,0.031982,0.808716,0.572205,-1.182556
-0.456787,-0.896973,0.029541,0.968933,0.679016,-1.106262
-0.452393,-0.894043,0.028564,1.022339,0.579834,-1.289368
