ax,ay,az,gx,gy,gz
-0.259766,1.043945,0.115234,-42.388912,68.145752,-4.425049
-0.167969,1.063721,0.098633,-42.938229,83.183281,-0.709534
-0.12085,1.073486,0.060547,-40.084839,89.462273,0.038147
-0.111084,1.072754,0.03125,-35.064697,85.46447,-2.593994
-0.123047,1.062256,0.00415,-29.350279,78.353882,-4.776001
-0.121582,1.052734,-0.021729,-25.367735,73.272705,-4.379272
-0.093994,1.045654,-0.041748,-23.048399,70.579529,-1.373291
-0.081787,1.030029,-0.041016,-21.39282,66.497803,1.548767
-0.093262,1.030273,-0.047607,-20.172117,58.639523,2.784729
-0.089355,1.054932,-0.041504,-18.112183,49.316402,3.65448
-0.088623,1.074707,-0.027832,-13.053893,41.435238,4.91333
-0.10791,1.074707,-0.016357,-5.676269,33.77533,5.172729
-0.11377,1.062012,0.001221,0.808716,25.55084,3.730774
-0.121338,1.040039,0.020752,4.447937,16.723633,1.945495
-0.141357,1.025146,0.043701,4.920959,6.752014,0.396728
-0.182129,1.02002,0.067383,4.684448,-1.693725,-0.137329
-0.224121,1.020264,0.095459,6.652832,-6.66809,0.053406
-0.237305,1.015869,0.121094,10.101317,-8.644104,1.701355
-0.241943,1.015137,0.13916,13.09204,-8.712769,3.890991
-0.239014,1.012939,0.166016,14.778136,-8.087158,5.210876
-0.240234,1.003662,0.174316,14.328002,-7.225036,4.974365
-0.22998,0.988037,0.162109,13.236999,-5.149841,3.440857
-0.249512,0.966064,0.12915,13.114928,0.648498,2.815246
-0.282959,0.946533,0.093506,12.413024,8.224487,2.677917
-0.31543,0.924561,0.067383,11.215209,19.462585,3.280639
-0.333008,0.897461,0.063721,7.972717,33.905029,5.630493
-0.322021,0.878906,0.066162,2.288818,48.240658,6.912231
-0.281006,0.873047,0.070068,-3.120422,59.349056,7.484436
-0.215088,0.883545,0.079834,-6.568908,64.544678,7.743835
-0.15625,0.895264,0.093018,-8.407593,63.880917,7.56073
-0.150146,0.911133,0.085938,-10.055541,58.616634,6.706237
-0.161133,0.945557,0.082031,-10.910033,49.987789,5.676269
-0.162842,0.999512,0.071045,-11.070251,40.199276,7.644653
-0.186523,1.020508,0.065674,-9.208679,34.004211,12.001037
-0.19873,1.004883,0.074951,-4.394531,31.654356,12.420653
-0.203369,0.992188,0.074951,-1.686096,30.670164,8.644104
-0.198242,1.000977,0.069824,-2.006531,28.778074,6.500244
-0.19458,1.023193,0.067383,-3.166198,26.641844,6.896972
-0.203613,1.0354,0.066162,-3.761291,25.222776,7.026672
-0.209229,1.041992,0.074951,-3.860473,24.29199,5.500793
-0.220703,1.046143,0.103516,-4.127502,23.582457,3.990173
-0.227539,1.056641,0.121094,-4.837036,21.705626,2.975464
-0.200684,1.068359,0.113037,-5.371093,18.821716,0.816345
-0.153809,1.06543,0.097168,-3.913879,14.778136,-2.14386
-0.138184,1.039795,0.076904,-0.953674,7.232666,-4.699707
-0.167236,1.014404,0.054688,1.274109,-3.456115,-7.331848
-0.214355,1.004639,0.037598,2.792358,-11.878966,-9.765625
-0.25293,0.996094,0.026611,4.302979,-13.748168,-10.238647
-0.280029,0.996094,0.017578,5.15747,-10.246276,-8.666992
-0.275635,1.006348,0.013428,5.355834,-5.294799,-7.148742
-0.261719,1.014648,0.010254,6.500244,-1.228333,-6.454467
-0.268555,1.008301,0.004395,8.68988,1.213074,-7.133483
-0.281738,0.989502,-0.003418,10.940551,2.761841,-8.270264
-0.286621,0.97168,-0.007813,12.008666,4.78363,-9.109497
-0.282715,0.95874,-0.007324,11.909484,7.446289,-9.559631
-0.282959,0.955566,-0.004395,10.902404,10.742187,-9.521484
-0.29248,0.9646,0.001709,9.178162,14.457702,-9.498596
-0.290771,0.980225,0.01416,7.644653,18.684387,-9.33075
-0.27832,0.995605,0.031494,6.652832,23.246763,-9.246826
-0.269287,1.007568,0.043701,6.958007,27.496336,-8.81958
-0.256104,1.004883,0.054199,8.262634,30.944822,-8.155823
-0.250977,0.992188,0.061523,9.58252,34.217834,-7.263183
-0.251709,0.978271,0.057861,9.231567,36.727905,-7.118225
-0.245361,0.96875,0.063232,7.041931,39.131165,-7.614135
-0.224121,0.9646,0.059814,4.051208,41.252132,-7.377624
-0.202881,0.962402,0.059326,1.815796,42.16003,-6.011962
-0.211914,0.962891,0.057861,0.144958,41.061398,-4.051208
-0.230469,0.97168,0.056152,-1.197815,38.635254,-2.578735
-0.241455,0.979492,0.053467,-2.059937,36.888123,-0.823975
-0.249023,0.97998,0.049561,-2.853393,36.422729,0.747681
-0.249268,0.977295,0.044434,-3.562927,36.483765,1.998901
-0.24707,0.978271,0.040039,-4.15802,36.766052,3.005981
-0.241455,0.983154,0.0354,-5.40924,37.368774,3.120422
-0.232422,0.984863,0.027832,-6.851196,37.590027,2.418518
-0.2229,0.98877,0.024414,-8.06427,37.42218,1.235962
-0.220947,0.994873,0.023438,-9.178162,36.872864,0.137329
-0.225098,0.999023,0.009033,-9.315491,35.301208,-1.365662
-0.226074,1.002686,-0.001465,-8.529663,33.874512,-2.799988
-0.223389,1.005859,0.001953,-6.866455,32.829285,-3.067016
-0.215088,1.009277,0.016113,-5.508422,31.578062,-2.578735
-0.198242,1.013672,0.0271,-4.241943,28.57971,-2.26593
-0.188965,1.017578,0.026611,-2.502441,23.071287,-2.235413
-0.19751,1.014893,0.032471,-0.862122,16.38031,-3.14331
-0.205322,1.017822,0.031494,0.518799,10.337829,-4.348755
-0.202637,1.016846,0.039307,2.02179,5.577087,-4.966736
-0.208008,1.009033,0.049805,4.219055,1.38855,-4.570007
-0.22168,0.996094,0.05542,6.629943,-2.510071,-4.402161
-0.236328,0.987305,0.058105,8.201599,-5.187988,-4.516602
-0.249512,0.984131,0.060059,7.865905,-6.492614,-4.432678
-0.249268,0.983887,0.059082,6.530761,-6.210327,-3.921509
-0.249756,0.988037,0.059082,5.371093,-4.570007,-3.204345
-0.251465,0.986816,0.05249,4.669189,-2.27356,-2.204895
-0.251465,0.980469,0.051514,4.142761,0.320435,-1.335144
-0.257813,0.973145,0.044434,3.326416,3.387451,-0.656128
-0.269531,0.969971,0.04126,1.564026,6.980896,0.1297
-0.269287,0.971436,0.038086,-0.770569,11.19995,1.075745
-0.266846,0.978271,0.025635,-3.341675,15.266418,2.082825
-0.263672,0.986816,0.018311,-5.325317,18.928528,2.754211
-0.258545,0.995117,0.008057,-6.41632,22.521971,3.250122
-0.260254,1.00293,0.003174,-6.645202,25.894163,4.364014
-0.259033,1.002441,-0.004883,-6.240844,28.656004,5.851745
-0.255859,0.998291,-0.011963,-5.325317,31.204222,6.614685
-0.254883,0.995117,-0.013428,-5.012512,33.64563,6.553649
-0.256592,0.988525,-0.017334,-5.279541,36.048889,6.401062
-0.252686,0.987305,-0.013672,-5.41687,38.047791,6.080627
-0.244141,0.984619,-0.002197,-5.126953,39.123535,5.889892
-0.22876,0.981201,0.008789,-4.425049,38.650513,6.034851
-0.222656,0.979248,0.015869,-3.40271,36.651611,5.523681
-0.227051,0.981934,0.019043,-2.13623,34.27124,4.623413
-0.234375,0.984619,0.02124,-1.174927,31.959532,3.570556
-0.236084,0.994141,0.021729,-0.762939,30.09796,2.449036
-0.231689,0.996094,0.018066,-0.175476,29.014585,1.983642
-0.235596,0.996582,0.016113,0.495911,28.274534,1.564026
-0.236084,0.995361,0.019043,0.778198,27.244566,0.656128
-0.227051,0.991455,0.025635,0.915527,25.634764,-0.007629
-0.2229,0.986084,0.028809,1.190186,24.314878,-0.465393
-0.227051,0.979492,0.029541,1.747131,23.002623,-1.579285
-0.228516,0.974609,0.030273,1.960754,21.697996,-2.487183
-0.226318,0.971924,0.040771,1.167297,20.729063,-3.067016
-0.224609,0.987305,0.045654,-0.480652,19.90509,-3.067016
-0.213379,1.002441,0.038574,-0.961304,18.2724,-2.662658
-0.207764,1.002686,0.030273,0.007629,16.044617,-2.937317
-0.206543,0.99292,0.026855,0.892639,13.587951,-3.570556
-0.20752,0.988281,0.026123,0.190735,11.344909,-4.516602
-0.203857,0.990479,0.025879,-1.411438,8.987427,-5.325317
-0.191406,1.000244,0.02417,-2.853393,6.584167,-5.645751
-0.177246,1.00293,0.020752,-3.005981,3.326416,-5.508422
-0.178223,0.994873,0.010498,-2.197266,-1.38855,-6.027221
-0.185303,0.992188,-0.000977,-1.838684,-5.943298,-6.752014
-0.196289,0.992676,0.000977,-2.304077,-9.460449,-7.209777
-0.209473,0.994873,0.002441,-3.120422,-11.909484,-7.225036
-0.217285,0.998291,0.001465,-3.204345,-13.534545,-6.904602
-0.221191,0.99707,0.000977,-2.510071,-14.85443,-6.462097
-0.227783,0.989502,-0.001221,-1.708984,-15.838622,-6.484985
-0.240479,0.984131,-0.00293,-1.312256,-16.204834,-7.011413
-0.246582,0.982422,0.002441,-1.502991,-15.930175,-7.469177
-0.244385,0.982666,0.009766,-2.067566,-15.380858,-7.591247
-0.246094,0.984619,0.012695,-1.518249,-15.090941,-7.263183
-0.250244,0.981689,0.016602,0.12207,-15.548705,-7.133483
-0.251465,0.981445,0.022705,1.182556,-16.273499,-7.217407
-0.260986,0.990723,0.030273,1.89209,-17.00592,-6.866455
-0.268311,1.010254,0.031982,2.388,-17.570496,-5.41687
-0.277588,1.032227,0.03418,3.89862,-17.692566,-3.875732
-0.275635,1.053955,0.030029,5.027771,-16.63208,-3.593445
-0.269287,1.068848,0.030518,7.110595,-14.923095,-2.471924
-0.267822,1.070068,0.032959,10.215758,-13.488769,-0.396728
-0.268799,1.061768,0.029541,13.763427,-11.917113,0.801086
-0.266602,1.048584,0.024658,17.158508,-9.536743,1.373291
-0.255371,1.0271,0.026367,19.218445,-5.851745,2.372742
-0.248779,1.000732,0.023926,20.286558,-1.670837,2.975464
-0.251465,0.974609,0.0271,19.638062,2.304077,2.464294
-0.248779,0.952148,0.03125,17.433167,6.019592,1.342773
-0.239746,0.934082,0.032471,14.083861,9.468079,0.389099
-0.227539,0.919189,0.037842,10.124206,12.123107,-0.411987
-0.222412,0.908203,0.045898,5.966186,14.320373,-0.747681
-0.219238,0.903564,0.045898,1.976013,15.846251,-1.022339
-0.21582,0.905518,0.041016,-2.250671,15.922545,-1.88446
-0.211426,0.916504,0.037109,-6.713867,14.167785,-3.356933
-0.213135,0.930176,0.031006,-11.07788,11.314391,-4.760742
-0.220947,0.943115,0.025146,-14.694213,7.5531,-5.363464
-0.231201,0.958496,0.021484,-17.555237,4.096985,-5.41687
-0.240723,0.981201,0.007568,-20.103453,0.946045,-4.768372
-0.244141,1.005859,-0.012939,-21.568296,-2.182007,-4.135132
-0.243896,1.025879,-0.030029,-22.041319,-5.828857,-4.364014
-0.241211,1.039307,-0.039795,-21.202085,-10.253905,-4.615784
-0.243408,1.049072,-0.047607,-17.845154,-15.075683,-4.508972
-0.250488,1.04834,-0.05542,-12.054442,-19.66095,-4.241943
-0.265625,1.04126,-0.051514,-5.439758,-22.941587,-3.227234
-0.275391,1.0271,-0.042969,0.541687,-24.826048,-1.472473
-0.280029,1.017578,-0.03125,5.134582,-26.290892,0.099182
-0.279785,1.012695,-0.027588,8.750916,-27.511595,0.831604
-0.279297,1.009033,-0.027588,12.031554,-27.534483,1.228333
-0.282715,1.002197,-0.025146,14.808654,-26.115416,1.708984
-0.284912,0.994385,-0.022949,16.342163,-23.246763,1.602173
-0.283691,0.991943,-0.018066,17.219543,-19.40918,0.976562
-0.287598,0.989746,-0.013184,17.38739,-15.373229,0.686645
-0.286621,0.991943,-0.008545,17.341614,-11.619567,0.419617
-0.279541,0.988525,0.000488,17.39502,-7.92694,0.534058
-0.273438,0.980225,0.00708,16.777039,-4.890442,0.816345
-0.273438,0.979004,0.021484,15.350341,-2.830505,0.900268
-0.284912,0.982178,0.031982,13.206481,-1.266479,1.365662
-0.293945,0.989746,0.0271,11.512755,0.869751,1.983642
-0.291992,0.989746,0.028564,10.57434,3.990173,2.441406
-0.289307,0.975586,0.036865,9.719849,7.354736,3.265381
-0.283936,0.959473,0.035156,7.499694,10.482787,3.883362
-0.282959,0.950439,0.028809,3.829956,13.47351,3.974914
-0.283203,0.950195,0.020996,0.091553,17.311096,3.707886
-0.28125,0.948975,0.014404,-3.105163,21.728514,3.677368
-0.274658,0.949463,0.013672,-5.989074,26.245115,4.02832
-0.265137,0.950439,0.008789,-8.575439,29.861448,4.493713
-0.257813,0.95752,-0.000244,-10.688781,32.188416,4.814148
-0.250977,0.966309,-0.000977,-12.123107,33.355713,4.829407
-0.249268,0.976074,-0.001465,-12.870788,33.615112,4.585266
-0.239746,0.982178,-0.006592,-13.076781,32.943726,4.127502
-0.231934,0.987793,-0.01416,-12.7182,31.387327,3.761291
-0.228271,0.988525,-0.016357,-11.932372,29.235838,3.189087
-0.228516,0.988037,-0.017578,-11.238097,27.297972,2.456665
-0.223877,0.98584,-0.021484,-10.353087,25.825499,1.609802
-0.221191,0.987793,-0.019287,-9.45282,24.482725,1.38092
-0.224121,0.993652,-0.017578,-8.575439,23.200987,1.533508
-0.220703,1.002197,-0.018066,-7.400512,21.14868,1.792908
-0.217285,1.010498,-0.01709,-6.004333,18.470764,2.204895
-0.219238,1.011719,-0.013184,-4.554749,15.289306,2.449036
-0.224365,1.007813,-0.012695,-2.883911,12.4588,2.487183
-0.220459,1.00415,-0.01123,-1.251221,9.83429,2.601623
-0.219727,0.996338,-0.007568,-0.061035,6.965637,2.777099
-0.222656,0.985352,-0.006104,0.587463,3.890991,2.548218
-0.22876,0.981689,-0.003906,0.328064,0.900268,1.655578
-0.22876,0.98291,0.0,-0.213623,-1.846313,0.587463
-0.229004,0.981445,0.009277,-0.63324,-3.967285,0.236511
-0.236816,0.98291,0.00708,-0.953674,-5.203247,0.038147
-0.250488,0.987305,0.008057,-1.029968,-5.943298,-0.038147
-0.26416,0.992188,0.005615,-1.449585,-5.561828,0.259399
-0.270752,1.000732,0.00415,-2.082825,-3.562927,0.465393
-0.271729,1.004639,0.001709,-2.342224,-0.396728,0.709534
-0.267822,0.998291,0.001709,-2.174377,3.089905,0.999451
-0.258789,0.98999,-0.000977,-2.01416,5.928039,0.778198
-0.255615,0.979492,-0.004639,-2.716064,7.56073,0.213623
-0.254639,0.983643,-0.006836,-3.883362,8.338928,-0.556946
-0.251709,0.990723,-0.008057,-4.66156,8.796692,-0.976562
-0.248047,0.996826,-0.010742,-4.402161,9.048462,-0.900268
-0.24585,1.001953,-0.013916,-3.433227,9.117126,-0.75531
-0.243652,1.002441,-0.016357,-2.326965,9.780884,-0.747681
-0.239746,1.001709,-0.016113,-1.464844,10.787963,-0.839233
-0.232666,1.004639,-0.014648,-0.801086,11.322021,-0.862122
-0.219482,1.005615,-0.014648,-0.038147,10.780334,-0.457764
-0.215332,0.999756,-0.014404,0.740051,9.223938,-0.061035
-0.21875,0.992188,-0.013672,1.64032,7.377624,0.030518
-0.219727,0.985596,-0.015625,2.288818,6.195068,0.236511
-0.22168,0.986328,-0.015137,2.456665,5.355834,0.473022
-0.219727,0.986084,-0.014648,2.365112,4.28009,0.801086
-0.217773,0.987549,-0.011963,2.166748,2.937317,0.900268
-0.223145,0.991455,-0.008301,1.754761,1.853943,0.976562
-0.229492,0.996826,-0.005615,1.678467,1.159668,0.991821
-0.23584,1.000977,-0.006104,2.166748,1.068115,0.984192
-0.239502,1.004395,-0.00708,2.609253,1.548767,1.312256
-0.238037,1.003418,-0.008057,3.257751,1.823425,1.89209
-0.236328,0.994141,-0.006592,3.608703,1.800537,2.388
-0.241211,0.98877,-0.006836,3.440857,2.243042,2.250671
-0.245117,0.985352,-0.00708,2.914428,3.028869,2.029419
-0.244385,0.986328,-0.006104,2.227783,4.165649,1.655578
-0.246582,0.988037,-0.004639,1.670837,5.897521,1.686096
-0.246338,0.988281,-0.003174,1.350403,7.67517,1.449585
-0.246338,0.990234,-0.000488,1.213074,8.804321,1.167297
-0.243408,0.992188,0.003418,1.00708,9.643555,0.907898
-0.235107,0.993652,0.006836,0.839233,9.872437,0.648498
-0.230469,0.988525,0.006104,1.144409,9.796143,0.450134
-0.227783,0.985352,0.005615,1.464844,9.460449,0.335693
-0.227051,0.981689,0.005615,1.63269,8.895874,0.061035
-0.227783,0.978516,0.006104,1.281738,8.850098,-0.389099
-0.226807,0.974854,0.006104,0.488281,8.674622,-0.534058
-0.227783,0.973633,0.007324,-0.434875,9.002686,-0.747681
-0.228516,0.976807,0.008545,-1.434326,9.857178,-1.029968
-0.227051,0.97876,0.01123,-1.968384,10.780334,-0.862122
-0.226807,0.97876,0.006348,-2.5177,11.83319,-0.511169
-0.227539,0.981934,0.004395,-3.166198,12.908935,-0.152588
-0.227539,0.988525,0.001465,-4.196167,13.610839,-0.114441
-0.224609,0.995361,-0.001709,-4.806519,14.22882,-0.183105
-0.218506,0.999756,-0.008789,-5.043029,14.579772,-0.488281
-0.21582,0.997803,-0.012939,-4.78363,14.411925,-1.068115
-0.212891,0.993896,-0.01123,-4.440308,13.59558,-1.38092
-0.213135,0.994629,-0.011963,-4.203796,12.702941,-1.419067
-0.210693,0.997559,-0.01416,-3.608703,11.886596,-1.350403
-0.209961,1.004395,-0.015625,-2.609253,10.368346,-1.13678
-0.211426,1.004639,-0.01709,-1.350403,8.575439,-0.747681
-0.212158,1.004639,-0.011719,-0.160217,7.041931,-0.823975
-0.209961,1.006836,-0.01123,1.052856,5.531311,-0.900268
-0.207764,1.007324,-0.011475,1.983642,3.486633,-1.174927
-0.213135,1.005127,-0.008789,2.990722,1.564026,-1.373291
-0.213379,1.003662,-0.009766,3.65448,-0.358582,-1.808166
-0.213379,0.995117,-0.006592,4.40979,-2.464294,-2.349854
-0.217529,0.986084,-0.002197,4.684448,-4.089355,-2.204895
-0.224609,0.987793,-0.003906,4.096985,-4.966736,-2.029419
-0.227783,0.987793,-0.00415,3.90625,-5.691528,-2.159119
-0.232666,0.988037,0.003662,3.662109,-6.362915,-1.991272
-0.240234,0.98877,0.012451,3.02124,-6.454467,-1.960754
-0.241211,0.996826,0.012939,2.334595,-5.516052,-1.655578
-0.238037,1.001221,0.014648,2.304077,-4.058838,-1.098633
-0.237793,1.001465,0.017822,2.563476,-2.998352,-0.564575
-0.236328,0.995605,0.01416,2.433777,-2.5177,-0.350952
-0.236328,0.994873,0.007324,2.120972,-2.120972,-0.587463
-0.233398,0.991699,0.00293,1.686096,-1.502991,-0.556946
-0.230225,0.987549,-0.005371,0.953674,-0.869751,-0.541687
-0.226807,0.986816,-0.006104,0.228882,-0.37384,-0.961304
-0.222412,0.987305,-0.011719,-0.114441,-0.190735,-1.396179
-0.216553,0.989502,-0.013428,-0.274658,-0.25177,-1.64032
-0.216064,0.991943,-0.015137,0.106812,-0.526428,-1.617432
-0.214844,0.991943,-0.015625,0.38147,-0.938415,-1.579285
-0.210693,0.99585,-0.016357,0.892639,-1.541138,-1.609802
-0.207275,0.999023,-0.01709,1.815796,-2.418518,-1.663208
-0.212402,1.001221,-0.020752,2.738952,-3.501892,-1.525879
-0.212891,1.005127,-0.012939,3.52478,-4.78363,-1.243591
-0.216309,1.005127,-0.009766,4.28772,-6.050109,-0.778198
-0.217773,1.005371,-0.005859,4.875183,-6.828308,0.114441
-0.221924,1.001465,-0.001465,5.325317,-7.331848,0.434875
-0.224121,0.998779,0.005859,5.737304,-8.049011,0.389099
-0.221436,0.999023,0.013428,5.294799,-8.613586,0.801086
-0.223877,0.998047,0.014893,5.172729,-9.613037,1.228333
-0.226074,0.993896,0.014404,5.302429,-10.841369,1.075745
-0.229004,0.990234,0.013672,4.600525,-11.795043,0.495911
-0.230957,0.992676,0.012939,3.65448,-12.168883,0.25177
-0.231934,0.989502,0.013672,2.998352,-12.298583,0.350952
-0.233643,0.989258,0.010254,2.677917,-12.100219,0.183105
-0.233887,0.989502,0.009521,2.166748,-11.558532,0.1297
-0.232666,0.993408,0.011475,1.373291,-10.82611,0.267029
-0.233887,0.997559,0.008789,1.022339,-10.208129,0.984192
-0.230469,0.999268,0.007568,1.25885,-9.857178,1.213074
-0.226807,0.993652,0.001709,1.594543,-9.353638,1.106262
-0.225098,0.988525,0.002686,1.731872,-8.804321,1.052856
-0.224121,0.984375,0.002686,1.518249,-8.094788,1.037598
-0.225586,0.981934,-0.001465,1.113892,-7.453918,0.907898
-0.224854,0.983643,0.009521,0.62561,-6.91986,0.747681
-0.222656,0.995117,0.017822,-0.106812,-6.225585,1.419067
-0.217529,1.002441,0.018066,-0.12207,-5.943298,2.471924
-0.21167,1.001465,0.019775,0.679016,-6.027221,3.036499
-0.207275,0.993896,0.018555,1.426697,-6.54602,2.822876
-0.204346,0.984619,0.020996,1.235962,-7.209777,2.105713
-0.201172,0.981689,0.021973,-0.030518,-7.728576,1.594543
-0.204102,0.987061,0.020996,-1.701355,-8.003235,1.403808
-0.207275,0.994385,0.023926,-2.89917,-7.850646,1.625061
-0.205078,1.0,0.022705,-3.677368,-7.614135,2.14386
-0.20752,1.003174,0.022217,-4.051208,-7.453918,2.548218
-0.209961,0.998779,0.021729,-3.952026,-6.805419,2.426147
-0.209961,0.991455,0.022949,-3.768921,-5.500793,2.510071
-0.210938,0.989258,0.025391,-4.447937,-3.814697,3.166198
-0.203613,0.994141,0.028076,-5.66101,-2.26593,4.142761
-0.198975,1.003418,0.025146,-6.774902,-1.441955,5.111694
-0.193604,1.011475,0.021484,-6.988525,-2.410889,5.432128
-0.190918,1.011963,0.010498,-6.469726,-4.646301,4.951477
-0.192139,1.00708,0.010498,-5.516052,-7.133483,4.623413
-0.189941,1.001221,0.013428,-4.928589,-8.827209,4.707336
-0.187256,0.997314,0.015869,-4.722595,-10.253905,4.814148
-0.186768,0.994141,0.013672,-4.646301,-12.008666,4.936218
-0.186279,0.995117,0.010986,-4.821777,-13.999938,4.837036
-0.19043,0.998291,0.01123,-4.882813,-16.036987,4.768372
-0.192627,1.003174,0.011475,-4.364014,-17.372131,5.203247
-0.195068,1.007568,0.013916,-3.540039,-18.196106,6.263732
-0.192627,1.006592,0.010254,-3.02124,-19.126892,6.599426
-0.188721,0.999023,0.009766,-2.952575,-20.614622,6.050109
-0.190918,0.993164,0.009277,-2.822876,-22.270201,5.340576
-0.196777,0.991943,0.011719,-2.479553,-23.582457,5.340576
-0.204834,0.991699,0.013428,-2.372742,-24.055479,5.828857
-0.212646,0.992676,0.012939,-2.357483,-23.78845,6.355285
-0.215332,0.994629,0.009277,-2.738952,-23.597715,6.721496
-0.217529,0.997559,0.009277,-2.937317,-24.078367,6.446838
-0.21582,0.997314,0.005127,-2.761841,-25.268553,5.92041
-0.218506,0.993408,0.003662,-2.098083,-26.466368,5.485534
-0.226563,0.98584,0.006592,-1.350403,-26.840208,5.073547
-0.22998,0.979736,-0.000977,-1.197815,-26.382444,4.692078
-0.231934,0.97998,-0.004395,-1.64032,-25.115965,4.196167
-0.234131,0.980225,-0.004639,-2.281189,-23.818968,3.639221
-0.235107,0.980957,-0.003418,-2.975464,-22.575377,3.105163
-0.234619,0.983887,0.003418,-3.417969,-21.179197,2.616882
-0.240967,0.993896,0.015137,-3.440857,-19.363403,3.097534
-0.244141,1.003906,0.016846,-2.693176,-17.127991,3.974914
-0.244873,1.004395,0.018066,-1.327515,-14.625548,4.837036
-0.245361,0.994873,0.01709,-0.1297,-12.237548,5.126953
-0.239014,0.984131,0.020508,0.198364,-10.520934,5.264282
-0.238037,0.979248,0.019775,-0.938415,-9.208679,5.264282
-0.234375,0.977051,0.022705,-1.983642,-7.667541,4.325867
-0.229736,0.97583,0.039307,-2.700805,-5.561828,4.066467
-0.227295,0.980225,0.050537,-3.761291,-3.562927,4.867554
-0.22168,0.990723,0.051758,-3.944397,-2.380371,6.057739
-0.217285,0.994873,0.054688,-3.738403,-2.059937,7.362365
-0.214844,0.994385,0.053955,-4.112244,-1.609802,8.056641
-0.213135,0.984863,0.047363,-3.974914,0.228882,8.239746
-0.208496,0.976074,0.054932,-3.509521,2.838135,8.872986
-0.20166,0.963623,0.056396,-3.890991,5.104064,10.742187
-0.199707,0.949219,0.067139,-5.706787,6.126403,12.397765
-0.19751,0.942383,0.074219,-8.651733,5.218505,13.557433
-0.193848,0.948975,0.081787,-11.421203,3.303528,14.61029
-0.203125,0.972656,0.075195,-14.236449,3.349304,14.770507
-0.207031,0.99707,0.063721,-16.212463,5.615234,14.633178
-0.205566,1.014404,0.053467,-16.204834,10.131835,15.121459
-0.189941,1.013184,0.050293,-14.457702,15.594481,14.785766
-0.166748,0.998779,0.04541,-13.832091,19.287109,14.167785
-0.149902,0.984863,0.046143,-14.038085,19.691467,14.404296
-0.147217,0.984863,0.050293,-14.991759,18.516541,15.434264
-0.1521,1.005371,0.060547,-17.51709,18.39447,16.25061
-0.150146,1.03833,0.054443,-19.851685,19.66095,16.914368
-0.140381,1.061035,0.049072,-18.638611,20.51544,18.058777
-0.133789,1.059326,0.044678,-15.594481,20.256041,18.447876
-0.125,1.046631,0.041992,-12.794494,19.714355,16.777039
-0.109131,1.032715,0.046143,-11.177062,18.028259,14.503478
-0.102051,1.029785,0.047852,-10.009766,12.825011,14.083861
-0.105713,1.034424,0.044189,-8.834839,4.318237,13.557433
-0.114014,1.035889,0.034668,-7.453918,-6.210327,11.756896
-0.125977,1.029541,0.027832,-6.240844,-17.288208,9.025574
-0.13916,1.020264,0.023193,-5.424499,-26.885984,5.950927
-0.149414,1.005127,0.022705,-4.859924,-34.965515,2.5177
-0.154541,0.990479,0.023193,-4.28772,-42.655941,-0.495911
-0.164551,0.986328,0.030273,-4.180908,-50.750729,-2.822876
-0.176514,0.98999,0.033936,-4.570007,-58.692928,-4.425049
-0.198975,0.995605,0.043457,-4.425049,-63.514706,-5.111694
-0.22998,1.003174,0.041504,-4.074097,-63.308712,-5.065917
-0.24707,1.012939,0.029541,-3.311157,-57.952877,-5.294799
-0.250732,1.01709,0.016113,-2.388,-48.988338,-5.989074
-0.241943,1.013916,0.012939,-1.808166,-38.780212,-6.813049
-0.232178,1.011963,0.016846,-1.312256,-27.420042,-7.118225
-0.223633,1.017822,0.027832,-0.854492,-15.327453,-5.958557
-0.210449,1.0271,0.040283,0.091553,-3.684997,-3.372192
-0.189209,1.037354,0.043701,0.976562,5.966186,-0.869751
-0.171631,1.04541,0.039307,1.548767,13.687133,0.816345
-0.15332,1.046875,0.028809,1.960754,18.234253,0.526428
-0.134521,1.034424,0.02417,1.579285,20.019531,-1.609802
-0.131836,1.009033,0.037842,0.511169,20.874022,-4.997253
-0.136963,0.979736,0.05542,-1.098633,21.90399,-8.56781
-0.136719,0.958008,0.082275,-2.601623,23.223875,-11.001586
-0.135742,0.938965,0.115479,-2.929687,24.665831,-10.795592
-0.140137,0.926025,0.143799,-2.548218,25.726316,-8.590698
-0.134766,0.914551,0.162842,-2.14386,26.786802,-5.630493
-0.123291,0.902832,0.178223,-1.571655,26.748655,-1.579285
-0.117432,0.904541,0.172607,-2.563476,25.329588,1.144409
-0.121582,0.917969,0.174072,-6.217956,24.139402,2.456665
-0.113281,0.946045,0.14624,-10.673522,20.973204,2.159119
-0.095459,0.962646,0.131836,-10.093688,6.729125,1.083374
-0.096924,0.988281,0.095703,-13.999938,-5.218505,-2.243042
-0.125732,1.036133,0.081299,-18.90564,-11.20758,-5.020141
-0.133545,1.071289,0.067871,-22.163389,-11.96289,-7.621765
-0.140625,1.086914,0.058105,-22.727964,-4.66156,-8.262634
-0.147705,1.083496,0.069336,-21.514891,6.980896,-7.667541
-0.147461,1.075928,0.075928,-20.065308,21.133421,-5.653381
-0.141602,1.06665,0.082764,-18.218994,35.53009,-1.907349
-0.128418,1.053711,0.103516,-15.48767,48.149105,2.388
-0.10498,1.043945,0.112793,-11.497497,57.304379,6.500244
-0.073975,1.031982,0.113037,-7.057189,62.110897,10.215758
-0.047363,1.018555,0.115723,-3.631592,63.072201,13.587951
-0.031982,1.003418,0.121582,-1.220703,60.9436,16.525269
-0.033203,0.984619,0.136963,0.259399,56.678768,18.89801
-0.045898,0.968018,0.14917,-0.099182,51.429745,20.500181
-0.057373,0.963867,0.161865,-1.76239,44.868465,21.614073
-0.071045,0.965332,0.175537,-4.371643,36.842346,21.659849
-0.084473,0.967529,0.179688,-7.377624,26.252745,19.416809
-0.09668,0.972656,0.176025,-9.681702,12.283324,14.709472
-0.113281,0.970459,0.18042,-11.177062,-2.929687,10.086059
-0.134766,0.9729,0.181396,-12.413024,-17.425537,6.317138
-0.145996,0.985352,0.176758,-14.152526,-29.876707,3.135681
-0.159912,1.005127,0.163818,-16.075134,-40.603634,0.717163
-0.176758,1.030518,0.142334,-16.647339,-49.392696,-2.128601
-0.186768,1.046631,0.12207,-15.663146,-55.282589,-5.630493
-0.201172,1.050781,0.105957,-13.72528,-56.594845,-8.491516
-0.220215,1.057373,0.091309,-11.444091,-52.131649,-10.002136
-0.226318,1.063232,0.081299,-9.468079,-42.213436,-10.353087
-0.216797,1.068115,0.078125,-7.713317,-28.099058,-9.58252
-0.199463,1.069336,0.084229,-5.813598,-11.047362,-7.438659
-0.179688,1.066406,0.095947,-2.868652,7.408142,-3.372192
-0.153809,1.060303,0.104736,1.350403,24.848936,2.563476
-0.122803,1.043945,0.109863,5.294799,39.344788,9.178162
-0.098633,1.027344,0.109375,7.705688,49.697872,14.625548
-0.074463,1.018311,0.10498,9.162903,55.160519,17.623901
-0.057617,1.002686,0.107666,9.95636,56.549068,19.744873
-0.053223,0.982178,0.113281,10.009766,54.595943,20.996092
-0.057617,0.963135,0.12207,9.269714,49.880978,22.003172
-0.066406,0.956299,0.119629,8.033752,42.945858,22.743223
-0.068359,0.955078,0.121826,6.469726,34.683228,22.254942
-0.075684,0.959229,0.126953,4.493713,25.405882,20.256041
-0.086426,0.966553,0.120117,3.364563,14.85443,16.921997
-0.098389,0.968506,0.117432,3.684997,4.264832,13.366698
-0.117432,0.958984,0.113037,4.135132,-4.753113,10.2005
-0.12915,0.952881,0.108887,2.960205,-12.313842,6.530761
-0.140625,0.959229,0.102295,0.518799,-18.440247,1.815796
-0.151611,0.972168,0.099609,-1.197815,-23.16284,-2.670288
-0.168213,0.988525,0.099365,-1.51062,-25.970457,-6.004333
-0.1875,1.002686,0.090332,-0.541687,-25.466917,-7.705688
-0.19873,1.017822,0.083496,1.281738,-22.018431,-8.049011
-0.195801,1.029541,0.07251,2.952575,-17.158508,-8.811951
-0.189941,1.038574,0.062256,4.768372,-12.741088,-10.177611
-0.186279,1.047119,0.051758,7.041931,-8.476257,-11.680602
-0.185791,1.054443,0.052979,9.963989,-3.868103,-12.290954
-0.183105,1.05957,0.058838,12.596129,1.876831,-12.115478
-0.174072,1.071289,0.068115,15.724181,7.614135,-11.054992
-0.156006,1.083984,0.071533,19.073486,11.642455,-9.986877
-0.132568,1.082764,0.072998,22.727964,12.443542,-10.299682
-0.118652,1.06958,0.075439,26.756285,10.215758,-11.940001
-0.11377,1.047363,0.075684,30.548094,5.79071,-13.85498
-0.118164,1.021484,0.077393,33.576965,0.579834,-15.159606
-0.127686,0.999512,0.091797,34.889221,-3.936767,-15.647887
-0.13208,0.988525,0.108643,34.202576,-7.293701,-16.029358
-0.13501,0.983643,0.114746,33.14209,-9.376526,-16.88385
-0.135254,0.97998,0.123047,32.173157,-10.398864,-17.936707
-0.13916,0.974121,0.130127,31.211851,-10.650634,-18.409729
-0.141357,0.966553,0.131836,30.685423,-9.880066,-18.608093
-0.143311,0.955322,0.133545,30.227659,-7.270813,-18.363953
-0.145508,0.946777,0.141357,30.067442,-3.295898,-17.333984
-0.137207,0.941406,0.146484,29.563902,0.656128,-15.495299
-0.12793,0.941895,0.149902,28.335569,5.256652,-12.725829
-0.131592,0.943848,0.139404,25.688169,8.81958,-11.131286
-0.119141,0.945557,0.130615,22.90344,10.971068,-11.421203
-0.099365,0.943115,0.130127,20.225523,11.634826,-12.199401
-0.089844,0.945557,0.123779,16.807556,10.406493,-12.512206
-0.091797,0.955566,0.109863,12.519835,8.354187,-12.794494
-0.094971,0.968506,0.096924,8.216858,5.882263,-13.389586
-0.094482,0.986572,0.085205,4.920959,2.815246,-13.587951
-0.088867,1.00293,0.075439,3.417969,-1.281738,-12.649535
-0.08667,1.016357,0.070801,3.211975,-5.874633,-10.406493
-0.080078,1.029297,0.061523,3.662109,-10.215758,-8.743286
-0.072754,1.034912,0.052979,3.921509,-14.35089,-8.68988
-0.072266,1.036133,0.041504,3.532409,-19.638062,-9.750366
-0.083008,1.039307,0.034424,2.922058,-25.421141,-10.56671
-0.099365,1.040771,0.034912,2.929687,-30.578611,-10.055541
-0.120361,1.039551,0.042969,3.852844,-33.912659,-8.277893
-0.141113,1.040039,0.048096,5.378723,-35.110474,-5.592346
-0.160156,1.040283,0.054932,7.064819,-35.652161,-2.388
-0.180176,1.033691,0.060547,9.33075,-36.865234,0.190735
-0.198975,1.016602,0.064697,12.176513,-38.337708,1.174927
-0.215088,0.998047,0.059082,14.648437,-39.077759,0.274658
-0.229248,0.974609,0.057129,16.334534,-38.757324,-1.296997
-0.244141,0.95874,0.057373,16.464233,-36.193848,-3.288269
-0.253174,0.947021,0.058838,15.777587,-32.188416,-5.935668
-0.253174,0.941162,0.058838,14.007567,-29.655455,-10.421752
-0.253906,0.92334,0.066406,10.864257,-31.700132,-14.770507
-0.256836,0.921631,0.063965,6.584167,-36.140442,-17.959595
-0.277832,0.926025,0.065674,4.165649,-38.070679,-19.882202
-0.282959,0.929932,0.064453,2.029419,-39.0625,-21.77429
-0.276855,0.931152,0.059082,0.541687,-39.466858,-23.223875
-0.2854,0.92749,0.052979,-0.915527,-38.261414,-24.070738
-0.29248,0.929932,0.051514,-3.227234,-34.156799,-24.475096
-0.291992,0.940186,0.046631,-7.118225,-27.809141,-24.597166
-0.286621,0.965576,0.037354,-11.474608,-19.981384,-24.589537
-0.28418,0.989502,0.038818,-13.031005,-11.062621,-23.78845
-0.283691,1.010986,0.042969,-13.084411,-0.930786,-21.621702
-0.282471,1.031738,0.046387,-12.062072,9.963989,-18.615723
-0.281494,1.051758,0.045898,-10.887145,23.132322,-14.442443
-0.266113,1.078369,0.039551,-9.857178,39.466858,-9.254456
-0.229492,1.099854,0.039795,-8.171082,54.542538,-3.547668
-0.188232,1.11377,0.03418,-5.203247,63.270565,2.258301
-0.159912,1.117188,0.031006,-0.328064,64.89563,7.392883
-0.147705,1.103516,0.026367,4.432678,60.523983,8.94928
-0.130859,1.08667,0.021484,7.942199,52.360531,7.614135
-0.120117,1.068848,0.022461,10.871886,41.023251,7.316589
-0.125732,1.040039,0.022949,13.420104,29.144285,7.247924
-0.138672,1.002686,0.032227,15.800475,19.996643,5.889892
-0.150391,0.967041,0.047119,17.173767,14.945983,4.966736
-0.149902,0.939697,0.055176,16.578674,11.817931,4.730225
-0.14624,0.922119,0.060547,15.388488,8.300781,4.150391
-0.14624,0.907959,0.070068,13.298034,3.417969,1.991272
-0.14209,0.900879,0.072266,10.604857,-3.921509,-0.801086
-0.137695,0.90625,0.068604,7.652282,-13.893126,-2.39563
-0.150391,0.922607,0.065674,4.173279,-23.567198,-3.990173
-0.168701,0.947266,0.059082,0.137329,-30.822752,-5.760192
-0.184326,0.97168,0.050781,-3.074646,-35.362244,-6.103515
-0.206543,0.983154,0.041504,-4.524231,-35.125732,-5.477905
-0.210938,0.990723,0.040039,-6.187438,-32.608032,-5.615234
-0.195557,1.005615,0.025391,-8.621216,-29.96826,-5.966186
-0.170898,1.020264,0.001953,-9.887695,-32.485962,-5.645751
-0.151367,1.031494,-0.028076,-9.567261,-41.877743,-5.104064
-0.143799,1.048584,-0.057129,-8.758545,-55.442806,-6.088256
-0.142578,1.067627,-0.081543,-7.80487,-70.007324,-8.308411
-0.148682,1.088135,-0.098633,-5.058288,-83.366386,-10.726928
-0.165283,1.098633,-0.102051,-0.007629,-93.261711,-12.771605
-0.202393,1.089111,-0.089111,6.79779,-98.335258,-13.557433
-0.235596,1.064697,-0.068604,13.313293,-99.601738,-13.153075
-0.26709,1.03418,-0.04126,18.013,-98.228447,-12.496947
-0.299072,1.003662,-0.013428,20.812986,-94.253532,-11.642455
-0.331787,0.984619,0.005859,21.812437,-86.769096,-9.605408
-0.35791,0.974365,0.023926,21.934507,-75.35553,-6.454467
-0.377197,0.968506,0.040039,22.048948,-60.714718,-2.731323
-0.394775,0.95459,0.051025,21.537779,-43.189999,0.808716
-0.398926,0.940186,0.05249,19.607544,-24.208067,3.410339
-0.390869,0.927734,0.049072,15.998839,-6.347656,4.974365
-0.369873,0.921387,0.050049,11.32965,7.400512,6.263732
-0.348633,0.921387,0.046875,6.858825,16.120911,7.67517
-0.333496,0.929932,0.040283,2.5177,20.759581,8.033752
-0.32251,0.945313,0.031494,-1.411438,22.209166,6.591796
-0.313721,0.966309,0.016846,-4.547119,22.102354,4.074097
-0.309082,0.981445,-0.000977,-6.004333,23.78845,1.556396
-0.296631,0.985352,-0.015869,-5.950927,28.182981,0.091553
-0.274902,0.98877,-0.032715,-5.378723,33.073425,-0.442505
-0.253418,0.990723,-0.045654,-4.486084,37.055969,-0.480652
-0.233643,0.996338,-0.059326,-3.799438,38.619995,-0.38147
-0.212158,1.005615,-0.068115,-3.044128,37.368774,-0.434875
-0.196045,1.013916,-0.07251,-1.914978,33.966064,-1.083374
-0.1875,1.021973,-0.068359,0.038147,28.854368,-2.281189
-0.189209,1.02832,-0.058838,2.853393,22.811888,-2.937317
-0.198242,1.0271,-0.046631,6.301879,16.456604,-2.250671
-0.20874,1.017578,-0.036133,9.925842,10.56671,-0.946045
-0.223145,1.002441,-0.027832,12.428283,6.233215,0.083923
-0.239258,0.993408,-0.021729,13.641356,4.112244,0.411987
-0.249756,0.984619,-0.016357,13.442992,4.226685,0.396728
-0.262451,0.974854,-0.006592,12.519835,6.370544,0.511169
-0.270752,0.96875,-0.001465,11.116027,9.750366,0.778198
-0.2771,0.962891,0.003906,9.223938,13.336181,0.991821
-0.279053,0.962158,0.009033,7.324218,16.021729,1.022339
-0.277832,0.960449,0.01001,5.638122,17.822266,0.63324
-0.277832,0.959961,0.006348,4.165649,18.753052,0.091553
-0.276855,0.957764,0.004395,2.777099,18.890381,-0.320435
-0.273193,0.959473,-0.00415,1.312256,18.287659,-0.831604
-0.268555,0.964355,-0.011719,0.144958,16.998291,-1.861572
-0.266113,0.971436,-0.017578,-0.63324,15.907287,-3.593445
-0.267334,0.97583,-0.023438,-0.938415,15.968322,-5.28717
-0.268311,0.97998,-0.030029,-1.014709,16.76178,-6.401062
-0.265869,0.983398,-0.032959,-0.732422,17.776489,-6.91986
-0.265381,0.987305,-0.031982,-0.244141,18.936157,-7.240295
-0.264648,0.991699,-0.0354,0.343323,20.729063,-7.545471
-0.263672,0.996094,-0.033691,0.862122,23.101805,-7.949829
-0.260742,0.997314,-0.035156,1.419067,26.084898,-8.277893
-0.255127,0.99585,-0.03418,2.059937,29.08325,-8.31604
-0.246582,0.993896,-0.03418,3.097534,30.96771,-8.132935
-0.238037,0.987549,-0.028564,4.371643,31.249998,-7.987976
-0.238037,0.981201,-0.021729,5.371093,30.34973,-7.8125
-0.23584,0.986328,-0.016357,5.928039,28.549192,-7.461547
-0.237549,0.990234,-0.01001,6.584167,26.046751,-7.324218
-0.234619,0.990723,-0.013916,7.324218,23.193357,-7.17163
-0.242188,0.989258,-0.013916,7.789611,21.224974,-7.156372
-0.242676,0.982178,-0.010742,7.637023,19.65332,-7.568359
-0.241699,0.980957,-0.012695,7.156372,18.249512,-7.820129
-0.238525,0.979248,-0.011719,6.790161,16.227722,-7.514953
-0.240234,0.976318,-0.009277,6.278991,13.46588,-7.972717
-0.243164,0.976563,-0.013428,5.027771,11.734008,-8.781433
-0.24292,0.984375,-0.016113,4.318237,10.57434,-8.94928
-0.247314,0.984131,-0.014893,3.822326,9.69696,-9.07135
-0.240234,0.984131,-0.022217,2.677917,9.376526,-9.780884
-0.230713,0.982178,-0.026367,1.991272,7.873535,-9.567261
-0.227051,0.98584,-0.032959,1.586914,4.669189,-9.033203
-0.229492,0.983887,-0.037109,1.625061,0.923157,-9.147644
-0.22998,0.983887,-0.043213,1.792908,-2.578735,-9.69696
-0.233154,0.983154,-0.044922,1.930237,-5.41687,-9.910583
-0.237793,0.982422,-0.045654,1.861572,-7.972717,-9.765625
-0.244385,0.98584,-0.04834,1.800537,-9.788513,-9.719849
-0.248779,0.989746,-0.051514,2.037048,-11.192321,-9.361267
-0.250977,0.990967,-0.048584,2.754211,-12.428283,-8.720398
-0.259033,0.989502,-0.049561,3.387451,-13.687133,-8.125305
-0.269287,0.988037,-0.050293,3.952026,-14.656066,-7.5531
-0.277832,0.987305,-0.053223,4.364014,-15.022277,-7.43103
-0.285645,0.987549,-0.055908,4.562378,-14.60266,-7.217407
-0.287354,0.987061,-0.053467,4.814148,-13.938903,-6.851196
-0.293457,0.986328,-0.051514,5.065917,-13.107299,-6.256103
-0.30249,0.983398,-0.052246,5.264282,-11.901855,-5.821228
-0.306641,0.981445,-0.051514,5.218505,-10.368346,-5.737304
-0.307617,0.982178,-0.048828,5.043029,-8.331299,-5.874633
-0.30957,0.981689,-0.051758,4.91333,-6.004333,-5.889892
-0.311279,0.981689,-0.049316,4.974365,-3.471374,-5.676269
-0.310547,0.980957,-0.049561,4.951477,-0.75531,-5.615234
-0.312012,0.977783,-0.048584,4.981995,2.120972,-5.706787
-0.310791,0.97876,-0.049561,4.737854,5.142211,-5.638122
-0.309326,0.976074,-0.049805,4.28772,7.713317,-5.561828
-0.305664,0.974609,-0.048584,3.959656,9.651184,-5.676269
-0.301514,0.974854,-0.049072,3.40271,11.344909,-5.867004
-0.30127,0.975586,-0.049072,2.838135,12.992858,-5.744934
-0.298828,0.980225,-0.049316,2.662658,14.282226,-5.432128
-0.296631,0.981689,-0.046631,2.853393,15.449523,-5.256652
-0.293213,0.984863,-0.046143,3.097534,16.334534,-4.852295
-0.288574,0.981445,-0.045898,3.334045,16.639709,-4.684448
-0.2854,0.97168,-0.047607,3.486633,16.792297,-4.875183
-0.282959,0.966797,-0.043457,3.372192,16.830444,-4.867554
-0.27832,0.967773,-0.041504,2.616882,17.150879,-4.554749
-0.276123,0.975342,-0.037598,2.166748,16.281128,-4.28009
-0.270996,0.976807,-0.036865,2.166748,14.625548,-3.883362
-0.276367,0.976318,-0.041992,2.26593,13.229369,-3.715515
-0.276367,0.977051,-0.047852,2.082825,12.557982,-3.585815
-0.272217,0.978271,-0.050293,1.594543,12.33673,-3.341675
-0.269287,0.981689,-0.05249,0.762939,11.95526,-2.754211
-0.268311,0.984619,-0.051514,0.068665,11.100768,-2.212524
-0.264893,0.984863,-0.054932,0.114441,10.345458,-1.686096
-0.258789,0.981689,-0.058838,0.083923,8.834839,-1.083374
-0.259033,0.982666,-0.061279,0.282288,6.439209,-0.335693
-0.261475,0.980469,-0.064941,0.465393,3.463745,-0.228882
-0.265381,0.980957,-0.070557,0.511169,0.648498,-0.541687
-0.269531,0.982178,-0.069336,0.770569,-1.533508,-0.694275
-0.27002,0.980957,-0.071045,0.961304,-3.417969,-0.679016
-0.272705,0.977783,-0.069824,1.518249,-4.91333,-0.75531
-0.274658,0.976563,-0.067139,2.075195,-6.118774,-0.869751
-0.278076,0.974121,-0.06665,2.01416,-7.446289,-0.732422
-0.281006,0.978027,-0.067871,1.747131,-8.850098,-0.648498
-0.284424,0.983398,-0.068604,1.647949,-10.269164,-0.587463
-0.292236,0.981689,-0.067627,1.495361,-11.222838,-0.480652
-0.296143,0.981445,-0.069336,1.426697,-11.428832,-0.328064
-0.300049,0.976074,-0.067139,1.182556,-10.887145,-0.236511
-0.303223,0.977783,-0.063965,0.87738,-9.841919,-0.068665
-0.304932,0.976807,-0.0625,0.473022,-8.811951,0.274658
-0.307617,0.976563,-0.061768,0.007629,-7.873535,0.617981
-0.310059,0.977783,-0.061523,-0.068665,-7.186889,0.923157
-0.310303,0.973389,-0.063721,-0.068665,-6.652832,1.014709
-0.313965,0.97168,-0.062744,-0.091553,-5.462646,0.961304
-0.320068,0.969482,-0.065674,-0.328064,-3.723144,0.862122
-0.319824,0.963867,-0.065918,-0.900268,-1.548767,0.770569
-0.31958,0.961426,-0.061279,-1.312256,0.869751,0.686645
-0.315918,0.957275,-0.059082,-1.686096,2.998352,0.75531
-0.309326,0.959717,-0.054932,-2.479553,4.455566,0.785828
-0.307373,0.963623,-0.057861,-3.341675,5.546569,0.724792
-0.308838,0.969482,-0.058105,-4.03595,6.591796,0.793457
-0.309082,0.974365,-0.062012,-4.371643,7.591247,1.144409
-0.305176,0.975342,-0.063232,-4.371643,8.522034,1.51062
-0.301514,0.978027,-0.064209,-4.737854,9.368896,2.01416
-0.29541,0.979736,-0.063477,-5.393981,9.552002,2.487183
-0.294678,0.983643,-0.063232,-5.462646,8.987427,2.937317
-0.299072,0.983398,-0.06543,-5.149841,8.163452,3.120422
-0.299316,0.980225,-0.067383,-4.53186,7.591247,2.967834
-0.298828,0.974609,-0.06665,-3.822326,7.614135,2.601623
-0.297607,0.972656,-0.06543,-3.608703,7.743835,2.326965
-0.297119,0.974365,-0.065674,-3.837585,8.262634,1.815796
-0.293457,0.977783,-0.068604,-3.959656,8.865356,1.281738
-0.290039,0.982178,-0.071533,-3.845215,9.002686,0.770569
-0.287109,0.985352,-0.071045,-3.463745,8.178711,0.076294
-0.281982,0.982666,-0.066162,-2.593994,7.034301,-0.595093
-0.276611,0.983887,-0.063965,-2.02179,5.851745,-0.930786
-0.274902,0.984619,-0.063965,-1.464844,5.233764,-1.060486
-0.268066,0.982422,-0.058105,-1.213074,3.89862,-1.38855
-0.268066,0.981201,-0.057861,-0.640869,2.182007,-1.487732
-0.271729,0.979248,-0.055176,0.12207,1.213074,-1.525879
-0.270508,0.977783,-0.05542,0.152588,0.114441,-1.586914
-0.269531,0.972412,-0.055176,0.419617,-0.450134,-1.38092
-0.270264,0.969727,-0.053223,0.221252,-1.564026,-1.098633
-0.272705,0.969727,-0.050781,-0.160217,-2.090454,-0.900268
-0.273926,0.968994,-0.046875,-0.480652,-1.754761,-0.961304
-0.273193,0.970703,-0.045654,-0.984192,-1.342773,-0.808716
-0.272949,0.971191,-0.045166,-1.037598,-1.213074,-0.617981
-0.269043,0.969482,-0.044678,-1.327515,-1.525879,-0.411987
-0.267334,0.968994,-0.042969,-1.785278,-2.39563,-0.358582
-0.268311,0.969971,-0.04248,-2.13623,-3.761291,-0.068665
-0.272461,0.969238,-0.04834,-2.571106,-4.79126,-0.083923
-0.275391,0.971191,-0.052246,-3.059387,-5.310058,-0.366211
-0.27832,0.976318,-0.057617,-3.311157,-5.41687,-0.297546
-0.279053,0.977783,-0.054932,-3.250122,-5.187988,0.137329
-0.283936,0.977539,-0.056885,-3.219604,-5.050659,0.480652
-0.286133,0.978027,-0.05835,-3.410339,-5.104064,0.88501
-0.287598,0.98291,-0.058594,-3.044128,-5.393981,0.892639
-0.291504,0.987549,-0.060791,-2.433777,-5.516052,0.831604
-0.29541,0.982178,-0.05957,-1.602173,-5.218505,0.602722
-0.297607,0.97998,-0.059814,-0.961304,-4.745483,0.228882
-0.299561,0.978027,-0.057129,-0.434875,-4.325867,0.0
-0.302979,0.976074,-0.05835,-0.061035,-4.264832,-0.366211
-0.302979,0.976563,-0.059082,0.083923,-4.173279,-1.13678
-0.303467,0.974365,-0.055176,0.183105,-3.852844,-1.899719
-0.30835,0.97583,-0.054443,0.343323,-3.097534,-2.326965
-0.307129,0.978027,-0.053223,0.556946,-1.998901,-2.632141
-0.303223,0.976318,-0.050781,0.839233,-0.991821,-3.005981
-0.30127,0.972412,-0.050537,1.052856,-0.358582,-3.120422
-0.295898,0.97168,-0.048584,0.907898,-0.488281,-3.295898
-0.295166,0.975098,-0.051758,0.63324,-1.12915,-3.601074
-0.294678,0.979248,-0.054688,0.450134,-1.548767,-3.822326
-0.294189,0.977539,-0.052734,0.740051,-1.754761,-3.875732
-0.290283,0.976318,-0.050293,1.075745,-1.724243,-3.875732
-0.287842,0.970459,-0.05127,1.327515,-1.876831,-3.631592
-0.287109,0.967041,-0.047363,1.220703,-1.914978,-3.540039
-0.286865,0.971191,-0.041992,0.923157,-2.220154,-3.27301
-0.287354,0.976318,-0.042969,0.778198,-2.487183,-2.906799
-0.291016,0.977051,-0.041748,0.88501,-2.357483,-2.441406
-0.294189,0.978271,-0.046143,0.762939,-1.411438,-2.334595
-0.290527,0.97876,-0.04541,0.396728,-0.190735,-1.930237
-0.290771,0.978027,-0.043945,-0.236511,0.930786,-1.319885
-0.292969,0.978027,-0.040283,-0.778198,1.647949,-0.709534
-0.291016,0.979492,-0.039551,-1.014709,1.88446,-0.114441
-0.293457,0.980225,-0.037109,-0.801086,1.937866,0.167847
-0.295898,0.981445,-0.039551,-0.518799,1.976013,0.267029
-0.295166,0.982178,-0.039307,-0.328064,2.006531,0.083923
-0.294922,0.980713,-0.03833,-0.022888,1.724243,-0.12207
-0.293945,0.980225,-0.039063,0.022888,1.083374,-0.488281
-0.29248,0.980225,-0.040527,-0.045776,-0.213623,-1.052856
-0.292236,0.982666,-0.040771,-0.061035,-1.548767,-1.747131
-0.293457,0.983154,-0.039551,0.099182,-2.632141,-2.5177
-0.292236,0.981445,-0.04248,0.205994,-3.250122,-3.196716
-0.290283,0.981934,-0.041016,0.305176,-3.631592,-3.547668
-0.285645,0.985596,-0.045654,0.434875,-3.746032,-3.730774
-0.282471,0.98291,-0.046387,0.88501,-4.112244,-3.662109
-0.276123,0.980225,-0.049805,0.976562,-5.050659,-3.562927
-0.272705,0.977295,-0.051758,0.801086,-5.897521,-3.372192
-0.271484,0.979492,-0.053223,0.63324,-6.843566,-2.944946
-0.271484,0.97998,-0.051758,0.572205,-7.705688,-2.212524
-0.274414,0.983398,-0.048584,0.480652,-8.415222,-1.556396
-0.276367,0.985596,-0.046631,0.694275,-9.109497,-0.823975
-0.279053,0.984375,-0.044434,1.190186,-9.872437,0.053406
-0.284668,0.985352,-0.043945,1.472473,-10.398864,0.976562
-0.290283,0.987061,-0.044434,1.708984,-10.429381,1.815796
-0.297119,0.987793,-0.041992,1.831055,-9.925842,2.403259
-0.299805,0.984619,-0.041992,1.976013,-9.20105,2.593994
-0.30127,0.981445,-0.039307,1.869202,-8.415222,2.426147
-0.302734,0.979736,-0.037354,1.647949,-7.949829,2.296448
-0.306396,0.980469,-0.036621,1.396179,-7.499694,2.212524
-0.30957,0.976563,-0.036621,1.159668,-6.912231,2.159119
-0.306152,0.972412,-0.037109,1.182556,-6.195068,1.930237
-0.307129,0.969727,-0.035645,0.915527,-5.645751,1.831055
-0.304443,0.971191,-0.034424,0.114441,-5.599975,1.739502
-0.304443,0.979248,-0.034668,-0.328064,-5.783081,1.678467
-0.307129,0.98291,-0.034424,-0.068665,-5.851745,1.38092
-0.30542,0.97998,-0.036621,0.473022,-5.088806,1.045227
-0.303467,0.97583,-0.037109,0.854492,-4.043579,0.816345
-0.29834,0.969727,-0.039307,0.854492,-3.196716,0.663757
-0.294434,0.969238,-0.036377,0.350952,-2.708435,0.534058
-0.294678,0.975098,-0.032471,-0.328064,-2.532959,0.450134
-0.291992,0.979492,-0.034424,-0.427246,-2.624511,0.694275
-0.288818,0.976807,-0.0354,0.114441,-2.746582,1.083374
-0.283203,0.974121,-0.036377,0.579834,-3.128052,1.190186
-0.280273,0.969727,-0.035645,0.534058,-3.845215,1.304626
-0.276855,0.969238,-0.037598,0.022888,-4.516602,1.457214
-0.2771,0.97168,-0.036377,-0.526428,-5.378723,1.76239
-0.280029,0.973145,-0.03833,-1.113892,-5.958557,2.037048
-0.283203,0.976563,-0.038818,-1.396179,-6.072998,2.365112
-0.28125,0.97998,-0.039307,-1.411438,-6.134033,2.845764
-0.281006,0.97998,-0.040283,-1.327515,-6.248474,3.448486
-0.281494,0.981934,-0.04126,-1.144409,-6.454467,3.753662
-0.281494,0.981934,-0.039307,-1.251221,-6.584167,4.104614
-0.283447,0.98291,-0.035156,-1.319885,-6.851196,4.341125
-0.28418,0.985352,-0.03418,-1.251221,-7.324218,4.432678
-0.289307,0.985107,-0.033691,-0.701904,-7.774353,4.371643
-0.29126,0.982178,-0.027832,-0.305176,-8.140564,3.883362
-0.291016,0.983887,-0.026611,0.022888,-8.31604,3.417969
-0.291992,0.980469,-0.025879,0.305176,-8.232117,2.929687
-0.291504,0.974609,-0.018066,0.450134,-7.789611,2.601623
-0.293213,0.973633,-0.016602,0.366211,-7.293701,2.540588
-0.293213,0.97168,-0.017578,-0.099182,-6.79779,2.685547
-0.290771,0.974365,-0.017578,-0.732422,-6.462097,2.967834
-0.288818,0.975098,-0.017578,-1.434326,-6.584167,3.349304
-0.289063,0.974121,-0.019287,-1.876831,-7.125854,3.570556
-0.283691,0.976074,-0.016357,-2.067566,-7.743835,3.349304
-0.282227,0.974854,-0.016357,-2.052307,-8.018494,2.746582
-0.281982,0.974121,-0.014893,-1.983642,-7.774353,2.067566
-0.276123,0.975342,-0.015137,-2.105713,-7.461547,1.838684
-0.272949,0.976563,-0.014648,-2.220154,-7.743835,2.349854
-0.271973,0.978027,-0.015137,-2.220154,-8.605957,2.784729
-0.273193,0.980713,-0.012207,-2.26593,-9.140015,3.074646
-0.272949,0.984863,-0.014648,-2.334595,-9.056091,3.40271
-0.271484,0.989746,-0.014404,-2.815246,-8.346558,4.043579
-0.267334,0.996094,-0.015137,-3.707886,-8.071899,5.218505
-0.267822,1.002686,-0.015869,-4.386902,-8.087158,6.134033
-0.27124,1.002441,-0.018555,-4.28772,-7.125854,5.935668
-0.265625,0.999512,-0.016846,-4.249573,-5.836486,5.943298
-0.26416,0.998291,-0.018799,-4.623413,-4.714966,6.652832
-0.264404,0.998291,-0.021729,-5.004883,-4.226685,7.598876
-0.266113,0.996094,-0.028564,-4.867554,-4.089355,8.31604
-0.261475,0.994141,-0.029541,-4.508972,-3.845215,8.743286
-0.258301,0.987549,-0.032959,-4.211426,-3.791809,9.056091
-0.255859,0.983643,-0.032471,-4.173279,-4.005432,9.002686
-0.25293,0.991211,-0.036865,-4.768372,-4.844666,8.926392
-0.256836,1.000244,-0.043457,-5.088806,-6.034851,9.19342
-0.263184,1.000488,-0.047119,-4.348755,-6.835937,9.277344
-0.265381,1.000977,-0.047852,-3.219604,-6.896972,9.277344
-0.26416,0.994873,-0.049805,-2.388,-6.210327,9.086609
-0.262939,0.990723,-0.047363,-1.953125,-4.920959,8.68988
-0.262939,0.988281,-0.044189,-1.647949,-3.723144,8.651733
-0.262207,0.990479,-0.043213,-1.38092,-2.662658,8.750916
-0.265137,0.992432,-0.046631,-0.709534,-2.059937,8.872986
-0.263672,0.997314,-0.043213,0.198364,-1.663208,8.712769
-0.262207,0.996582,-0.042725,0.88501,-1.38855,8.537292
-0.262695,0.992432,-0.040771,1.182556,-1.190186,8.125305
-0.258789,0.990967,-0.038574,1.594543,-1.144409,7.362365
-0.258789,0.986816,-0.031982,1.907349,-1.625061,6.660461
-0.260986,0.987061,-0.030518,1.937866,-2.13623,6.019592
-0.259766,0.989258,-0.028564,2.120972,-2.403259,5.40924
-0.256592,0.988525,-0.026123,2.159119,-3.349304,4.78363
-0.25708,0.986572,-0.023926,2.243042,-4.226685,4.051208
-0.258545,0.987793,-0.02124,2.349854,-4.890442,3.456115
-0.258545,0.98584,-0.021729,2.830505,-4.890442,2.975464
-0.259521,0.982422,-0.019287,2.601623,-5.180358,2.799988
-0.26123,0.97998,-0.018066,2.105713,-5.676269,2.868652
-0.262939,0.974854,-0.014404,2.288818,-5.775451,2.723694
-0.263672,0.970703,-0.011963,2.380371,-5.218505,1.960754
-0.262451,0.964355,-0.010742,2.14386,-3.944397,1.358032
-0.261475,0.959717,-0.012207,1.89209,-2.883911,1.205444
-0.262207,0.958008,-0.014404,1.548767,-2.426147,1.045227
-0.265137,0.959717,-0.012207,0.991821,-2.220154,1.022339
-0.265381,0.957764,-0.009766,0.808716,-2.128601,1.182556
-0.264893,0.958984,-0.012451,0.808716,-1.968384,0.984192
-0.263672,0.959473,-0.011963,0.595093,-1.655578,0.534058
-0.264404,0.962891,-0.009033,0.289917,-1.228333,0.183105
-0.26709,0.968018,-0.010986,0.221252,-0.984192,-0.068665
-0.268555,0.970215,-0.010498,0.221252,-0.62561,-0.732422
-0.265381,0.974365,-0.009521,-0.038147,-0.099182,-1.091003
-0.265137,0.979248,-0.014893,-0.007629,0.572205,-1.548767
-0.264404,0.981201,-0.016602,0.045776,1.411438,-1.945495
-0.259521,0.986816,-0.017334,-0.274658,2.159119,-2.319336
-0.259521,0.990967,-0.016113,-0.511169,2.616882,-2.540588
-0.256836,0.994385,-0.015137,-0.480652,2.807617,-2.883911
-0.253418,0.995117,-0.018799,-0.015259,2.6474,-3.219604
-0.251465,0.992432,-0.021484,0.717163,2.372742,-3.692627
-0.243652,0.983154,-0.020752,1.434326,1.792908,-4.394531
-0.240967,0.980713,-0.02002,1.617432,1.182556,-4.875183
-0.240967,0.984619,-0.020996,1.190186,0.12207,-5.195617
-0.239014,0.98877,-0.021973,1.037598,-0.701904,-5.195617
-0.239502,0.994629,-0.021484,1.312256,-1.083374,-5.195617
-0.24292,0.995361,-0.025635,1.647949,-1.243591,-5.310058
-0.241211,0.993164,-0.027588,1.914978,-1.396179,-5.203247
-0.236084,0.989014,-0.028564,1.861572,-1.426697,-4.684448
-0.234375,0.987061,-0.030762,1.647949,-1.625061,-4.203796
-0.236816,0.988281,-0.029541,1.327515,-1.655578,-3.921509
-0.238525,0.989258,-0.026611,1.106262,-1.403808,-3.540039
-0.244873,0.992676,-0.029785,1.449585,-0.961304,-3.128052
-0.245605,0.997314,-0.030518,2.075195,-0.808716,-2.677917
-0.247803,0.995117,-0.031006,2.685547,-0.976562,-2.197266
-0.245605,0.994141,-0.027588,3.372192,-1.556396,-1.998901
-0.249023,0.99585,-0.023682,3.883362,-2.235413,-2.296448
-0.250977,0.993408,-0.022705,4.127502,-3.013611,-2.548218
-0.250732,0.990479,-0.017822,4.53186,-3.639221,-2.792358
-0.253418,0.988281,-0.016357,4.78363,-4.096985,-3.303528
-0.251709,0.983398,-0.012939,5.050659,-4.66156,-3.700256
-0.253662,0.981689,-0.006592,4.806519,-5.508422,-3.616333
-0.258545,0.97876,-0.004395,4.127502,-6.118774,-3.639221
-0.261475,0.977539,-0.00293,3.562927,-6.103515,-3.64685
-0.264648,0.976318,-0.005127,3.044128,-5.226135,-3.669739
-0.263916,0.977783,-0.006836,2.357483,-4.043579,-3.479004
-0.261475,0.979492,-0.007568,1.434326,-2.967834,-2.937317
-0.262939,0.981445,-0.009521,0.473022,-2.113342,-2.349854
-0.265381,0.98584,-0.012695,-0.205994,-1.403808,-2.159119
-0.261475,0.984375,-0.016846,-0.587463,-0.839233,-2.044678
-0.260742,0.98291,-0.020996,-0.854492,-0.602722,-1.953125
-0.262207,0.981445,-0.023438,-1.12915,-0.556946,-1.960754
-0.262207,0.980957,-0.029053,-1.167297,-0.923157,-1.914978
-0.263916,0.983887,-0.034912,-1.289368,-1.312256,-1.914978
-0.26709,0.985596,-0.039795,-1.029968,-1.63269,-2.044678
-0.265869,0.988037,-0.043457,-0.610352,-1.731872,-2.26593
-0.26416,0.986816,-0.043945,-0.282288,-1.869202,-2.571106
-0.264648,0.984131,-0.045898,0.167847,-2.01416,-2.876281
-0.263184,0.984863,-0.046875,0.724792,-2.151489,-3.097534
-0.26709,0.987793,-0.048828,1.113892,-2.357483,-3.288269
-0.26709,0.991943,-0.047607,1.663208,-2.76947,-3.486633
-0.268066,0.996582,-0.043457,2.159119,-3.318786,-3.250122
-0.270752,0.999023,-0.046875,2.830505,-3.791809,-3.067016
-0.276367,0.998535,-0.04541,4.013062,-3.990173,-3.372192
-0.274414,0.993896,-0.04541,5.065917,-3.860473,-3.860473
-0.2771,0.986084,-0.046143,5.615234,-3.677368,-4.28009
-0.279541,0.980225,-0.044922,5.950927,-3.288269,-4.707336
-0.280029,0.979492,-0.039063,5.485534,-2.914428,-5.004883
-0.281738,0.984375,-0.039307,4.936218,-2.693176,-5.088806
-0.279785,0.98877,-0.040039,5.325317,-2.632141,-5.027771
-0.278809,0.989014,-0.038086,5.683898,-2.609253,-5.142211
-0.281006,0.987549,-0.035645,5.989074,-2.403259,-5.241394
-0.281982,0.987793,-0.037842,6.103515,-2.189636,-5.439758
-0.282715,0.985596,-0.036133,5.607605,-2.01416,-5.477905
-0.282715,0.986084,-0.037842,5.195617,-1.625061,-5.378723
-0.286377,0.988525,-0.04126,4.951477,-0.900268,-5.40924
-0.287842,0.990967,-0.041748,4.806519,0.389099,-5.378723
-0.288818,0.989746,-0.041748,4.859924,2.174377,-5.317688
-0.285889,0.984131,-0.046631,5.020141,3.929138,-5.271911
-0.281982,0.980469,-0.048584,4.859924,5.371093,-5.050659
-0.279297,0.974854,-0.049316,4.898071,6.225585,-4.859924
-0.276611,0.977539,-0.049805,4.699707,6.813049,-4.898071
-0.276123,0.978516,-0.05127,4.608154,7.125854,-4.837036
-0.274414,0.978271,-0.047363,4.943848,7.530212,-4.516602
-0.276367,0.97876,-0.04248,5.340576,8.110046,-4.341125
-0.274658,0.977051,-0.04126,5.805969,8.598328,-4.348755
-0.271484,0.97583,-0.037842,6.027221,8.483887,-4.310608
-0.272949,0.977539,-0.041504,6.248474,7.507324,-4.15802
-0.275635,0.977051,-0.037598,6.195068,6.484985,-4.386902
-0.277344,0.981689,-0.033936,5.775451,5.851745,-4.631042
-0.279053,0.980469,-0.036377,5.462646,5.516052,-4.371643
-0.279297,0.981201,-0.036133,5.195617,6.088256,-4.28009
-0.281494,0.97998,-0.032471,4.776001,6.790161,-4.104614
-0.274902,0.978027,-0.032715,4.341125,7.225036,-3.967285
-0.270264,0.978516,-0.032471,4.096985,6.973266,-4.081726
-0.267334,0.977051,-0.034424,3.860473,6.637573,-4.135132
-0.265625,0.979248,-0.033447,3.463745,5.836486,-4.127502
-0.265869,0.981934,-0.034668,3.318786,5.203247,-4.364014
-0.261719,0.982666,-0.03418,3.097534,4.577637,-4.455566
-0.259766,0.982666,-0.032471,3.227234,3.623962,-4.180908
-0.258545,0.981934,-0.033203,3.486633,2.708435,-4.104614
-0.260498,0.978516,-0.035156,3.318786,2.189636,-4.142761
-0.260498,0.978271,-0.036377,2.883911,1.89209,-4.005432
-0.259521,0.976074,-0.037109,2.380371,1.731872,-3.540039
-0.258789,0.979736,-0.03833,1.991272,1.88446,-2.990722
-0.253174,0.981689,-0.043701,1.434326,1.548767,-2.243042
-0.256104,0.981934,-0.046387,0.900268,0.808716,-1.396179
-0.255615,0.984131,-0.045898,0.793457,0.076294,-0.862122
-0.255371,0.980713,-0.047119,0.778198,-0.839233,-0.404358
-0.25708,0.979248,-0.049561,0.465393,-2.235413,-0.083923
-0.263184,0.981934,-0.052002,0.297546,-3.715515,-0.022888
-0.268311,0.987061,-0.052979,0.1297,-4.730225,-0.061035
-0.275391,0.989746,-0.048584,0.144958,-5.355834,-0.144958
-0.280273,0.990479,-0.050293,0.717163,-5.66864,-0.25177
-0.285889,0.987549,-0.047607,1.655578,-5.706787,-0.465393
-0.28833,0.977051,-0.048096,2.304077,-5.714416,-0.595093
-0.286865,0.971436,-0.047607,2.250671,-5.577087,-0.846863
-0.286865,0.963623,-0.045898,1.976013,-5.41687,-1.022339
-0.289307,0.959961,-0.045898,1.358032,-5.203247,-1.213074
-0.289795,0.96167,-0.042725,0.740051,-4.776001,-1.449585
-0.293701,0.965332,-0.045166,0.297546,-4.646301,-1.525879
-0.296875,0.969238,-0.051514,0.167847,-4.623413,-1.38855
-0.296387,0.968262,-0.046631,-0.282288,-4.203796,-1.220703
-0.296631,0.967773,-0.047852,-0.671387,-3.448486,-0.854492
-0.295654,0.969238,-0.046143,-0.869751,-2.548218,-0.846863
-0.297119,0.969238,-0.046631,-1.144409,-1.88446,-0.823975
-0.297607,0.972656,-0.053467,-1.12915,-1.396179,-0.892639
-0.296387,0.976563,-0.056152,-1.022339,-0.862122,-1.075745
-0.297119,0.978516,-0.051758,-1.060486,-0.091553,-1.037598
-0.292969,0.979736,-0.052002,-1.335144,0.640869,-0.938415
-0.290527,0.980713,-0.054443,-1.525879,1.075745,-0.686645
-0.285156,0.982178,-0.057617,-1.586914,0.961304,-0.62561
-0.284668,0.981934,-0.05542,-1.289368,0.358582,-1.029968
-0.28418,0.985107,-0.057373,-1.060486,-0.457764,-1.411438
-0.286377,0.987305,-0.061279,-0.923157,-0.831604,-1.487732
-0.287598,0.986328,-0.061768,-0.457764,-0.915527,-1.518249
-0.286865,0.984863,-0.062012,0.053406,-1.205444,-1.556396
-0.287109,0.982422,-0.062256,0.663757,-1.495361,-1.617432
-0.285645,0.982178,-0.062012,1.098633,-1.785278,-1.724243
-0.282471,0.976318,-0.057373,1.213074,-1.64032,-1.327515
-0.285645,0.972168,-0.055908,1.235962,-1.152039,-0.88501
-0.286865,0.974365,-0.057617,1.182556,-0.900268,-0.968933
-0.28418,0.978027,-0.054688,1.091003,-1.220703,-1.106262
-0.282227,0.975342,-0.050293,1.121521,-1.899719,-0.869751
-0.285156,0.976807,-0.04834,1.190186,-2.494812,-0.938415
-0.28833,0.981201,-0.048828,1.274109,-2.807617,-1.13678
-0.288818,0.982666,-0.047852,1.144409,-3.044128,-0.968933
-0.286377,0.979004,-0.047119,1.037598,-2.914428,-0.717163
-0.286133,0.97583,-0.050537,1.13678,-2.807617,-0.732422
-0.286621,0.976318,-0.050049,0.892639,-3.089905,-1.00708
-0.283936,0.97998,-0.052002,0.648498,-3.829956,-1.152039
-0.285156,0.980469,-0.048096,0.37384,-4.463196,-1.083374
-0.286865,0.979736,-0.044678,0.350952,-5.195617,-1.289368
-0.287598,0.977051,-0.052002,0.640869,-5.798339,-1.525879
-0.28833,0.975586,-0.054443,0.694275,-6.103515,-1.693725
-0.2854,0.9729,-0.054688,0.50354,-5.943298,-1.701355
-0.285156,0.976074,-0.048828,0.022888,-5.592346,-1.586914
-0.285645,0.98291,-0.04834,-0.732422,-5.249023,-1.13678
-0.286133,0.983154,-0.048096,-0.50354,-5.15747,-0.747681
-0.285645,0.979004,-0.050293,0.175476,-5.226135,-0.564575
-0.284424,0.974609,-0.052979,0.564575,-5.592346,-0.297546
-0.285889,0.971924,-0.056152,0.25177,-5.882263,-0.183105
-0.290771,0.970703,-0.057861,-0.1297,-5.66101,-0.289917
-0.294922,0.972168,-0.055664,-0.465393,-5.401611,-0.091553
-0.296387,0.975342,-0.054443,-0.770569,-4.890442,0.541687
-0.297119,0.97876,-0.053467,-0.671387,-4.226685,0.88501
-0.300537,0.977783,-0.054199,-0.25177,-3.77655,0.991821
-0.298096,0.980225,-0.054932,0.236511,-3.433227,0.892639
-0.300537,0.981445,-0.052979,0.37384,-3.288269,0.793457
-0.301514,0.981689,-0.05127,0.518799,-3.456115,0.526428
-0.300781,0.983398,-0.05249,0.801086,-3.784179,0.144958
-0.30127,0.980713,-0.056641,0.839233,-4.295349,-0.114441
-0.301758,0.979248,-0.053467,1.12915,-4.79126,-0.564575
-0.30127,0.978516,-0.049072,1.106262,-4.79126,-0.976562
-0.303467,0.978516,-0.051758,0.663757,-4.722595,-1.052856
-0.301514,0.980469,-0.050781,0.679016,-4.631042,-1.075745
-0.302734,0.980713,-0.04834,1.060486,-4.241943,-1.251221
-0.297363,0.977539,-0.047852,1.152039,-4.013062,-1.174927
-0.296143,0.977783,-0.05249,0.892639,-3.494262,-0.907898
-0.297363,0.978516,-0.052246,0.686645,-2.906799,-0.793457
-0.29541,0.979004,-0.053711,0.411987,-2.403259,-0.724792
-0.293945,0.97583,-0.056152,0.274658,-1.739502,-0.259399
-0.291504,0.973633,-0.05542,0.480652,-1.152039,0.091553
-0.290771,0.969971,-0.054688,0.396728,-0.808716,-0.053406
-0.291992,0.969727,-0.052002,0.183105,-0.671387,-0.106812
-0.293701,0.969238,-0.054443,-0.015259,-0.267029,-0.099182
-0.295898,0.972168,-0.053711,-0.038147,0.37384,0.160217
-0.297607,0.976318,-0.052734,0.015259,1.228333,0.434875
-0.299072,0.977539,-0.051514,0.114441,1.945495,0.701904
-0.297607,0.979492,-0.049072,0.1297,2.357483,0.816345
-0.296143,0.979736,-0.047852,0.244141,2.555847,0.839233
-0.296875,0.975342,-0.048096,0.25177,2.738952,0.915527
-0.295898,0.973145,-0.042969,0.328064,2.738952,1.037598
-0.293213,0.972168,-0.040527,0.183105,2.593994,0.839233
-0.294189,0.974609,-0.041748,-0.541687,2.212524,0.62561
-0.294189,0.980713,-0.044189,-1.243591,1.716614,0.38147
-0.294678,0.983154,-0.041992,-1.213074,1.548767,0.213623
-0.295166,0.984131,-0.04834,-0.900268,1.770019,0.213623
-0.289795,0.976563,-0.05127,-0.892639,2.26593,0.091553
-0.283203,0.969482,-0.055176,-1.251221,2.502441,0.053406
-0.280029,0.9729,-0.057129,-1.922607,2.593994,-0.068665
-0.275635,0.980469,-0.052979,-2.616882,2.243042,-0.175476
-0.275146,0.987549,-0.053711,-2.593994,1.937866,0.106812
-0.273438,0.987793,-0.053955,-1.464844,1.419067,0.63324
-0.27832,0.984375,-0.061768,-0.549316,0.732422,1.106262
-0.2771,0.98291,-0.060059,-0.38147,0.038147,1.235962
-0.272461,0.982666,-0.060547,-0.564575,-0.37384,1.686096
-0.274414,0.977051,-0.058838,-0.907898,-0.25177,2.159119
-0.270508,0.973633,-0.056396,-1.296997,-0.274658,2.471924
-0.270996,0.978516,-0.056396,-2.037048,-0.839233,2.685547
-0.272461,0.991455,-0.061768,-2.746582,-1.815796,2.89154
-0.276855,0.998291,-0.062256,-2.822876,-2.586365,2.922058
-0.279297,0.999512,-0.059814,-2.288818,-2.418518,3.105163
-0.2771,0.999512,-0.055664,-1.754761,-1.609802,3.509521
-0.271729,0.992676,-0.05542,-1.594543,-1.068115,3.707886
-0.267822,0.989502,-0.053955,-1.678467,-1.014709,3.845215
-0.265625,0.987549,-0.046875,-1.701355,-1.037598,3.936767
-0.263916,0.983154,-0.039307,-1.25885,-0.427246,3.829956
-0.261475,0.97583,-0.031006,-0.808716,0.671387,4.440308
-0.258301,0.969482,-0.023438,-0.915527,1.25885,6.149292
-0.258545,0.970703,-0.019043,-1.976013,0.534058,8.331299
-0.260986,0.976074,-0.01709,-3.807068,-1.327515,9.895325
-0.265137,0.984375,-0.010498,-5.928039,-3.036499,10.19287
-0.269775,0.990234,-0.006104,-7.507324,-3.433227,10.124206
-0.27124,0.989014,-0.003906,-8.613586,-2.777099,9.979248
-0.270508,0.981445,0.002197,-9.506226,-1.708984,9.933472
-0.266602,0.96875,0.003418,-10.597228,-0.762939,10.055541
-0.264648,0.957764,0.009521,-12.390136,0.343323,9.963989
-0.263184,0.95459,0.015381,-14.625548,1.556396,10.253905
-0.260254,0.956055,0.019043,-17.066956,3.341675,10.887145
-0.249268,0.964355,0.016602,-19.897461,5.233764,12.08496
-0.230713,0.9729,0.011963,-22.430418,6.271362,13.259887
-0.228516,0.969971,0.018311,-24.459837,4.806519,13.923644
-0.240723,0.960205,0.040039,-26.580809,0.961304,14.259337
-0.24292,0.946533,0.037842,-27.565001,-2.258301,14.533996
-0.231934,0.942383,0.041748,-28.244017,-3.822326,14.526366
-0.208252,0.948486,0.061279,-30.265806,-6.118774,15.159606
-0.204834,0.957275,0.052002,-33.256531,-10.017395,18.1427
-0.225098,0.956299,0.038818,-33.882141,-15.602111,19.172668
-0.240234,0.938232,0.051758,-33.363342,-21.14105,15.716552
-0.246582,0.92334,0.064209,-35.339355,-24.559019,12.695312
-0.252686,0.913086,0.069824,-37.231445,-25.733946,11.291503
-0.261719,0.898926,0.069824,-38.002014,-25.413511,9.819031
-0.271729,0.882813,0.068115,-37.54425,-24.597166,8.468628
-0.273926,0.853271,0.067139,-36.766052,-23.277281,7.492065
-0.264648,0.822754,0.061035,-36.994934,-21.537779,6.04248
-0.263672,0.798828,0.047852,-37.666321,-19.332886,4.615784
-0.272461,0.776123,0.041016,-39.031982,-17.25769,3.967285
-0.269531,0.752197,0.019531,-39.352417,-14.923095,3.730774
-0.254639,0.725586,-0.019287,-37.666321,-12.756347,3.379822
-0.233154,0.706299,-0.0625,-35.865784,-11.100768,3.257751
-0.205078,0.700684,-0.106934,-31.150816,-10.993957,3.158569
-0.150635,0.701904,-0.185547,-16.326904,-17.883301,2.059937
-0.114258,0.665527,-0.236816,7.568359,-38.078308,-2.731323
-0.110107,0.589355,-0.258057,29.045103,-70.167542,-11.970519
-0.133789,0.503662,-0.25,40.344234,-104.782097,-24.345396
-0.185547,0.436035,-0.240723,43.083187,-134.735107,-37.963867
-0.263428,0.394043,-0.226563,42.572018,-153.770447,-49.377438
-0.327148,0.372803,-0.204102,42.892452,-157.859802,-57.762142
-0.355225,0.359131,-0.165039,44.197079,-148.323059,-61.271664
-0.349365,0.352295,-0.147949,44.319149,-129.692078,-59.42535
-0.33667,0.35498,-0.143555,39.718628,-106.826775,-53.413387
-0.324951,0.36377,-0.118164,28.770445,-82.015984,-45.265194
-0.318115,0.384033,-0.08667,15.007018,-56.861874,-36.193848
-0.318359,0.40332,-0.064697,4.455566,-32.653809,-27.084349
-0.299805,0.415283,-0.042725,-1.052856,-9.811401,-18.936157
-0.271484,0.434082,-0.003418,-6.729125,10.467528,-12.695312
-0.251953,0.477051,0.002441,-14.305114,25.276182,-8.331299
-0.249023,0.541016,0.003418,-18.02063,31.814573,-5.096435
-0.247314,0.607666,0.000488,-17.272949,27.496336,-1.823425
-0.250244,0.697266,-0.046143,-14.122008,13.267516,-0.976562
-0.298828,0.800537,-0.102783,-7.843017,-2.052307,-1.823425
-0.398926,0.866211,-0.111084,0.572205,-9.117126,-1.502991
-0.479492,0.89917,-0.067627,4.547119,-5.195617,4.203796
-0.466309,0.977295,-0.144287,4.753113,6.530761,15.655517
-0.507324,1.088623,-0.036133,0.999451,25.123594,26.199339
-0.66748,1.221191,-0.025146,-9.506226,37.521362,33.279419
-0.519287,1.331055,-0.123779,-2.76947,28.419493,41.969296
-0.44165,1.358887,-0.032471,3.959656,27.862547,51.666256
-0.498535,1.412354,-0.052002,0.038147,29.258726,48.377987
-0.522217,1.471436,-0.094727,8.705139,31.311033,31.700132
-0.487061,1.417236,-0.082764,24.917601,34.484863,15.151977
-0.338135,1.289795,-0.083496,38.902283,29.945372,2.311707
-0.26709,1.192383,-0.084961,48.301693,23.29254,-9.376526
-0.182861,1.169678,-0.079834,56.823727,10.498046,-22.178648
-0.153076,1.1875,-0.032715,65.437317,-5.630493,-38.848877
-0.177979,1.164551,-0.001465,79.849243,-30.85327,-59.280392
-0.195801,1.077881,0.042969,97.969048,-60.401913,-76.713562
-0.22583,0.989746,0.094727,108.558647,-85.411064,-88.691704
-0.251465,0.940918,0.146484,105.400078,-101.005547,-96.92382
-0.294189,0.96167,0.156494,88.790886,-99.57885,-102.912895
-0.387207,1.039795,0.088135,73.944092,-79.734802,-105.850212
-0.425293,1.0896,0.0271,72.296143,-55.038448,-103.538506
-0.396973,1.093018,-0.003906,71.304321,-35.705566,-101.562492
-0.329102,1.098633,-0.032715,65.643311,-25.787352,-104.667656
-0.293701,1.122559,-0.066162,63.560482,-19.454956,-104.705803
-0.314697,1.130859,-0.06958,64.117432,-13.992309,-97.572319
-0.341553,1.110596,-0.062988,58.265682,-11.062621,-90.339653
-0.352783,1.089844,-0.068848,47.119137,-9.048462,-85.662834
-0.354492,1.094238,-0.092041,41.526791,-5.554199,-82.633965
-0.313721,1.125244,-0.143555,35.202026,-7.247924,-80.169678
-0.225342,1.178955,-0.2146,26.794432,-27.168272,-79.177856
-0.131104,1.197021,-0.239258,4.882813,-84.602348,-86.563103
-0.120605,1.194336,-0.159424,-23.078917,-158.477783,-102.523796
-0.455322,1.188232,-0.049072,7.202148,-161.247238,-86.250298
-0.776855,1.172852,0.001221,53.443905,-107.742302,-54.481503
-0.844238,1.168457,0.039795,92.247002,-55.183407,-32.661438
-0.911377,1.114502,0.135498,123.123161,-3.578186,-14.419555
-1.022705,1.053711,0.082764,111.488335,59.371944,-1.541138
-0.953125,1.095215,-0.00415,81.954948,116.386406,4.737854
-0.826172,1.196777,-0.073242,64.567566,153.961182,18.226624
-0.804688,1.247559,-0.108398,56.243893,175.834641,38.955688
-0.796143,1.26416,-0.145508,27.481077,185.661301,44.975277
-0.723389,1.311279,-0.167236,-2.777099,173.286423,37.162781
-0.673584,1.350342,-0.154785,-8.979797,145.591736,33.790588
-0.697266,1.32251,-0.064453,-1.159668,111.0382,34.576416
-0.687744,1.301514,-0.051514,-6.195068,71.151733,31.890867
-0.686279,1.268311,-0.030029,-13.641356,31.555174,27.732847
-0.693115,1.206787,-0.056885,-16.921997,-5.569458,22.895811
-0.719727,1.112061,-0.144775,-13.641356,-36.933899,19.844055
-0.757568,1.002197,-0.219238,-9.971619,-60.501095,18.920898
-0.77124,0.90918,-0.300293,-16.586304,-73.295593,19.760132
-0.789307,0.826172,-0.394531,-26.466368,-73.326111,21.636961
-0.824951,0.748291,-0.482422,-32.775879,-63.591,22.941587
-0.867432,0.672607,-0.539063,-35.591125,-49.110409,25.093077
-0.895996,0.615723,-0.554443,-39.176941,-29.830931,29.762266
-0.915527,0.599365,-0.549072,-43.853756,-4.295349,40.100098
-0.905029,0.621826,-0.509033,-43.006893,31.219481,55.679317
-0.765869,0.722168,-0.518311,-40.954586,76.278687,72.128296
-0.580811,0.88208,-0.554443,-37.109375,105.575554,80.886833
-0.458008,0.890869,-0.549316,-24.391172,83.137505,79.75769
-0.391357,0.719238,-0.469971,-13.114928,34.599304,73.982239
-0.530518,0.528564,-0.35376,-14.572143,14.961242,57.861324
-0.736816,0.4646,-0.275635,-29.58679,35.797119,30.616758
-0.75,0.513184,-0.299316,-43.510433,74.127197,9.841919
-0.641846,0.596924,-0.353027,-41.847225,107.124321,6.904602
-0.563721,0.635742,-0.354248,-30.09033,120.849602,12.96997
-0.519043,0.638672,-0.329102,-20.408628,119.85778,19.371033
-0.489746,0.627686,-0.293457,-14.793395,116.96624,21.759031
-0.459961,0.625244,-0.266846,-10.45227,117.546074,19.790649
-0.413086,0.631592,-0.238037,-6.301879,118.148796,13.366698
-0.383301,0.636719,-0.241943,-0.640869,116.2033,3.707886
-0.394287,0.652344,-0.293701,6.141662,108.64257,-6.538391
-0.411865,0.687012,-0.326904,12.84027,95.230095,-16.403198
-0.429443,0.722412,-0.299805,18.478394,81.237785,-24.566648
-0.435303,0.72876,-0.280762,22.666929,70.075989,-29.930113
-0.450928,0.710449,-0.292969,27.297972,62.431332,-33.38623
-0.467285,0.679443,-0.322266,32.035828,55.13763,-37.155151
-0.442383,0.697998,-0.368652,34.393311,47.256466,-40.565487
-0.421143,0.787598,-0.394043,33.279419,43.205257,-43.441769
-0.442383,0.908936,-0.408691,31.272886,43.838497,-47.508236
-0.453857,0.993408,-0.388916,32.76062,46.028133,-52.139278
-0.436523,1.033447,-0.349854,41.259762,49.896236,-55.221554
-0.426514,1.009766,-0.311035,53.993221,53.817745,-57.624813
-0.436523,0.963135,-0.320801,63.194271,52.665707,-61.44714
-0.461182,0.949463,-0.335449,70.045471,43.449398,-65.406799
-0.466064,1.000977,-0.336914,74.005127,29.785154,-64.865112
-0.448242,1.093018,-0.334961,76.515198,17.707825,-61.630245
-0.459473,1.134277,-0.3479,78.865051,11.123656,-57.632442
-0.439697,1.127686,-0.352539,80.596916,5.0354,-54.649349
-0.427246,1.119385,-0.33252,86.738579,-6.16455,-56.388851
-0.454102,1.119385,-0.305908,94.474785,-18.64624,-57.136532
-0.473633,1.093018,-0.275391,99.189751,-27.992247,-55.27496
-0.44043,1.032715,-0.280518,100.746147,-33.943176,-53.871151
-0.417236,1.005127,-0.313232,96.382133,-38.246155,-53.192135
-0.402588,0.982422,-0.303223,90.705864,-41.267391,-51.246639
-0.413086,0.949707,-0.313965,84.999077,-36.941528,-46.188351
-0.505371,0.933594,-0.387939,79.933167,-21.621702,-42.533871
-0.568115,0.971191,-0.521973,77.270508,-3.135681,-44.342037
-0.539551,1.041992,-0.563721,72.631836,18.188477,-47.752377
-0.470459,1.086426,-0.503662,63.285824,42.564388,-41.41235
-0.37915,1.066895,-0.421631,56.53381,60.119625,-34.0271
-0.329102,1.025879,-0.388184,54.89349,64.857483,-31.547544
-0.304932,0.907959,-0.425781,52.474972,59.768673,-28.884886
-0.307617,0.845947,-0.510742,43.411251,48.736568,-27.610777
-0.252441,0.854492,-0.528564,33.683777,39.840698,-28.419493
-0.179199,0.874512,-0.439209,24.887083,39.482117,-32.371521
-0.061768,0.919678,-0.348389,14.961242,42.175289,-20.996092
-0.003174,0.751221,-0.272705,6.774902,41.763302,22.369383
-0.080566,0.627441,-0.248779,-5.027771,44.410702,69.107056
-0.213379,0.827148,-0.27417,-6.431579,59.120174,72.341919
-0.171387,0.9021,-0.310791,-1.197815,73.59314,48.355099
-0.015381,0.854248,-0.270996,-14.85443,72.410583,60.707088
0.052246,0.822021,-0.199951,-37.879944,54.557796,95.619194
0.026367,0.790527,-0.098145,-53.672787,22.880552,103.279106
0.018799,0.769775,0.138672,-65.170288,-11.886596,85.83831
0.04248,0.77832,0.275146,-73.173523,-29.251097,72.822571
0.098633,0.792236,0.366211,-76.034546,-28.671263,76.164246
0.046875,0.800293,0.467041,-90.164177,-15.304564,94.085686
0.076904,0.802734,0.908203,-118.499748,5.012512,112.144463
0.778076,0.687256,1.788818,-149.871826,34.988403,134.757996
0.731201,1.621094,1.407227,-163.162216,124.473564,122.085564
-1.253174,4.083008,-2.112061,58.105465,122.520439,-129.493713
-0.539551,1.568115,0.396484,215.217575,-74.279785,-200.66069
-2.036133,0.729736,-2.8479,129.333496,-33.737183,-112.670891
-2.919922,2.262207,-2.816406,96.839897,52.238461,-34.011841
-0.020752,1.359863,0.403809,101.638786,90.431206,83.557121
1.049316,0.579346,-0.758789,78.384399,89.805595,59.547421
0.185791,0.461182,-0.878174,28.289793,15.426635,-45.227047
-0.562012,0.706787,-0.521729,-16.700745,-52.49786,-33.294678
-0.582031,0.900879,-0.556152,-31.188963,-30.487059,-17.01355
-0.281494,0.724365,-0.594238,-30.891417,4.966736,-19.287109
-0.359619,0.655029,-0.55127,-39.581299,-7.072448,-17.700195
-0.515381,0.787354,-0.53418,-46.005245,-12.351989,-9.941101
-0.445068,0.800781,-0.486084,-38.833618,0.015259,-0.495911
-0.325439,0.805176,-0.487305,-27.587889,7.759094,5.943298
-0.322266,0.845947,-0.518555,-17.059326,5.393981,8.522034
-0.360596,0.834717,-0.510498,-11.230468,1.953125,8.010864
-0.361084,0.822998,-0.51001,-8.308411,4.417419,7.919311
-0.360596,0.804199,-0.502441,-4.386902,7.835388,9.986877
-0.424072,0.787109,-0.549805,-1.464844,10.44464,11.665343
-0.367188,0.807617,-0.52124,-4.089355,10.841369,15.151977
-0.361572,0.804199,-0.488281,0.488281,11.634826,15.998839
-0.230713,0.893555,-0.499756,8.529663,13.877868,17.539978
-0.215576,0.831299,-0.506836,18.745422,13.107299,12.626647
-0.318604,0.804688,-0.531738,25.321959,8.010864,8.773804
-0.244385,0.822998,-0.540771,26.68762,8.804321,9.208679
-0.349121,0.778809,-0.548584,31.73065,4.867554,7.995605
-0.524414,0.712402,-0.576416,31.35681,3.837585,11.734008
-0.408203,0.705078,-0.639893,14.961242,11.184691,17.745972
-0.14624,0.811035,-0.604004,-7.774353,13.34381,20.759581
-0.134521,0.804932,-0.566406,-16.868591,4.081726,15.731811
-0.281738,0.7854,-0.551758,-18.867493,-5.439758,8.613586
-0.200439,0.821533,-0.548584,-20.39337,-5.737304,2.075195
-0.252686,0.810059,-0.544678,-20.530699,-8.712769,-2.616882
-0.391602,0.792725,-0.526611,-19.927979,-9.017944,-2.182007
-0.401611,0.784912,-0.547607,-20.294188,-2.708435,1.167297
-0.27832,0.806641,-0.541992,-26.321409,3.242492,4.348755
-0.270508,0.822021,-0.518311,-26.710508,1.770019,5.271911
-0.313965,0.827393,-0.503906,-23.384092,-1.983642,3.669739
-0.22998,0.828369,-0.525879,-19.760132,-2.281189,-0.50354
-0.213867,0.843262,-0.510742,-19.432068,-6.011962,-5.462646
-0.30249,0.830322,-0.497559,-16.647339,-9.368896,-6.17218
-0.358887,0.802002,-0.547119,-15.289306,-7.919311,-3.532409
-0.318115,0.808594,-0.52002,-18.768311,-6.393432,0.25177
-0.287598,0.820801,-0.509521,-18.89801,-5.79071,1.609802
-0.265625,0.840088,-0.496094,-17.616272,-7.026672,-0.12207
-0.285156,0.840088,-0.490479,-14.61029,-9.529114,-3.562927
-0.307617,0.85376,-0.474609,-12.374877,-11.260985,-7.385253
-0.326172,0.838623,-0.453125,-6.958007,-10.223388,-6.935119
-0.345947,0.809082,-0.538574,-2.365112,-7.667541,-4.653931
-0.278076,0.819824,-0.515137,-6.538391,-9.872437,-2.220154
-0.293213,0.848633,-0.491455,-8.201599,-12.451171,-2.494812
-0.261475,0.843506,-0.478027,-9.658813,-11.428832,-5.172729
-0.300537,0.820313,-0.483643,-6.500244,-12.580871,-8.621216
-0.271973,0.849854,-0.482178,-5.729675,-12.474059,-11.009215
-0.302734,0.816895,-0.494873,-5.325317,-11.413573,-10.772704
-0.422607,0.805176,-0.499512,-6.202697,-12.634276,-9.017944
-0.345947,0.817383,-0.498779,-8.293152,-10.009766,-6.492614
-0.253906,0.856445,-0.493408,-9.69696,-9.513855,-6.843566
-0.288818,0.866699,-0.456787,-7.919311,-15.220641,-7.690429
-0.353027,0.851807,-0.451172,-1.731872,-17.959595,-8.491516
-0.342773,0.843018,-0.438965,2.853393,-16.288757,-8.331299
-0.359375,0.82666,-0.458008,7.629394,-12.916564,-8.132935
-0.296387,0.843506,-0.46875,10.856627,-9.773254,-8.003235
-0.296143,0.837402,-0.490967,15.411376,-10.528563,-8.110046
-0.358887,0.847412,-0.503418,17.76123,-14.755248,-8.163452
-0.366699,0.829102,-0.505127,15.2359,-16.25061,-6.317138
-0.411133,0.825684,-0.472656,11.383056,-17.059326,-4.058838
-0.438477,0.800049,-0.470215,12.428283,-15.258788,-1.144409
-0.328125,0.818115,-0.503906,12.809752,-8.956909,-1.976013
-0.256104,0.826416,-0.490479,12.016295,-7.034301,-4.142761
-0.346191,0.816895,-0.49292,14.160155,-10.169982,-5.317688
-0.39209,0.828613,-0.452637,16.975403,-9.605408,-4.66156
-0.358887,0.838623,-0.500732,20.561216,-6.507873,-3.639221
-0.337891,0.840088,-0.489746,21.65222,-8.758545,-3.280639
-0.362061,0.816406,-0.504883,23.300169,-12.664794,-1.426697
-0.354492,0.812744,-0.498291,22.628782,-14.053344,-0.038147
-0.348633,0.819336,-0.493164,22.346495,-10.848998,-1.274109
-0.314941,0.81543,-0.497559,24.505613,-9.796143,-1.846313
-0.344482,0.821045,-0.488525,29.273985,-12.702941,-0.312805
-0.386963,0.789795,-0.517822,31.791685,-12.84027,0.099182
-0.435791,0.759766,-0.527832,30.799864,-9.971619,-0.205994
-0.444824,0.765137,-0.556885,29.20532,-6.340026,2.105713
-0.373047,0.796387,-0.565186,25.917051,-4.302979,3.082275
-0.339355,0.785889,-0.545654,22.514341,-2.876281,1.533508
-0.364258,0.773438,-0.523193,18.875122,-3.15094,2.479553
-0.400146,0.77832,-0.51001,18.90564,-3.211975,6.29425
-0.374268,0.785645,-0.533691,21.766661,-2.799988,8.834839
-0.276367,0.796875,-0.561035,24.253843,-3.112793,7.972717
-0.251709,0.796631,-0.584961,24.261473,-7.30133,4.501343
-0.334229,0.793213,-0.550293,22.811888,-13.916015,3.135681
-0.38916,0.784668,-0.548096,23.620604,-17.631531,5.043029
-0.387207,0.770996,-0.562256,22.666929,-19.699097,6.950378
-0.354492,0.775635,-0.577637,20.400999,-22.598265,7.93457
-0.369141,0.735107,-0.607422,15.411376,-28.541563,8.392334
-0.409668,0.730713,-0.58667,4.646301,-34.240723,10.421752
-0.493652,0.738037,-0.579102,-9.170532,-31.127928,11.108397
-0.554199,0.703613,-0.56543,-25.848387,-18.615723,9.788513
-0.55127,0.608887,-0.677734,-49.880978,-6.065368,6.835937
-0.354736,0.652832,-0.814209,-85.350029,0.617981,3.257751
-0.267822,0.692383,-0.868408,-116.828911,-6.355285,-1.899719
-0.189941,0.906982,-0.862305,-134.19342,-30.929564,-10.231017
-0.307129,1.065674,-1.218018,-138.244629,-28.472898,-23.521421
-0.584229,0.860352,-1.888672,-117.942802,7.873535,-57.426449
-0.581543,0.959229,-1.278809,-99.105827,81.398003,-69.602966
0.072754,1.0625,-0.857178,-93.917839,137.908936,-29.701231
0.31543,0.789063,-0.713379,-93.086235,185.905441,13.084411
0.064941,0.761475,-0.44458,-83.496086,221.275314,33.77533
0.222656,0.804443,-0.631836,-51.147457,202.507004,27.931211
-0.176514,0.738281,-0.543945,-37.42981,166.778549,13.931273
-0.597656,0.61792,-0.411377,-32.279968,149.932861,17.326355
-0.682861,0.335938,-0.264648,-19.699097,169.631943,17.181396
-0.897461,-0.015381,-0.112061,-21.202085,196.479782,17.127991
-1.018799,-0.173828,-0.198975,-36.193848,195.602402,5.729675
-0.707275,0.101563,-0.213379,-59.188839,156.791687,-2.670288
-0.518555,0.625244,-0.370117,-47.004696,127.55584,-3.868103
-0.134521,0.744629,-0.685791,-15.86914,113.18206,8.987427
0.202393,0.41626,-0.075928,2.059937,123.794548,29.846189
-0.329346,0.701904,0.194824,19.317627,160.03418,7.087707
-0.320801,0.679932,0.224365,22.483824,172.538742,-18.447876
0.025635,0.783936,0.454346,37.612915,170.92894,-42.976376
-0.203613,1.491699,0.35376,90.88134,164.37529,-80.01709
-0.703125,1.850342,0.479248,157.478333,148.475647,-107.795708
-0.524902,2.868164,-0.192871,212.88298,111.564629,-111.099236
-0.168945,2.263428,-0.90918,216.094955,-16.273499,-42.945858
-0.95166,0.72583,-0.620117,166.51152,-65.406799,35.224915
-0.199707,0.902832,-0.504883,147.102356,21.89636,13.145446
0.270752,0.729004,-0.617432,151.741028,3.173828,25.093077
0.169922,0.463623,-0.851807,136.146545,-43.502804,28.434752
-0.104736,0.465576,-0.840332,110.191338,-66.047668,20.851133
-0.22168,0.531006,-0.778564,79.673767,-67.28363,19.889832
0.068359,0.630615,-0.758545,54.046627,-58.914181,13.626098
-0.147217,0.598633,-0.76416,39.421082,-70.777893,6.41632
-0.319824,0.641602,-0.810547,20.004272,-64.651489,-1.51062
-0.289063,0.348145,-0.876953,-0.572205,-55.343624,9.399414
-0.332764,1.044189,-0.317139,-13.000487,-43.472286,5.050659
-0.350342,0.925049,-0.582275,7.820129,-31.524656,2.296448
-0.284912,0.57666,-0.789307,17.692566,-18.218994,-2.197266
0.010254,0.504883,-0.767334,3.761291,-15.205382,-3.585815
-0.123779,0.650635,-0.735596,-17.280579,-30.921934,-11.054992
-0.24292,0.703613,-0.685791,-27.748106,-35.797119,-14.541625
-0.212891,0.684326,-0.677246,-35.987854,-32.341003,-14.587401
-0.35083,0.773438,-0.614014,-39.512634,-27.999876,-15.678405
-0.398438,0.828857,-0.595703,-30.815123,-16.113281,-14.297484
-0.307617,0.728516,-0.63916,-23.765562,-6.591796,-11.032104
-0.231934,0.672852,-0.705078,-25.070189,-5.187988,-7.659912
-0.221436,0.707764,-0.686768,-31.593321,-7.965087,-7.995605
-0.219482,0.747803,-0.655762,-36.018372,-11.352538,-12.626647
-0.162354,0.75415,-0.64209,-36.270142,-15.892028,-16.220093
-0.190674,0.800049,-0.574707,-31.578062,-23.674009,-17.608643
-0.339355,0.800537,-0.57251,-20.629881,-25.062559,-19.790649
-0.29248,0.719482,-0.644043,-18.554688,-18.936157,-20.027161
-0.179688,0.748291,-0.644287,-19.462585,-19.454956,-17.967224
-0.237305,0.783691,-0.594971,-16.578674,-26.56555,-19.363403
-0.273438,0.789307,-0.592773,-11.604308,-31.883238,-20.217894
-0.220459,0.775879,-0.609131,-7.17163,-33.676147,-22.27783
-0.230957,0.766357,-0.579346,-3.570556,-39.001465,-23.498533
-0.287354,0.715088,-0.633789,-2.372742,-44.509884,-22.422789
-0.352783,0.715576,-0.604492,-8.827209,-42.930599,-23.101805
-0.42334,0.737061,-0.606201,-12.512206,-35.568237,-21.163939
-0.442139,0.743164,-0.593506,-16.593933,-23.857115,-16.601563
-0.330811,0.758057,-0.602539,-18.753052,-11.566161,-13.923644
-0.170898,0.775635,-0.571045,-17.837524,-5.928039,-16.708374
-0.201416,0.778076,-0.55835,-12.504577,-12.725829,-21.156309
-0.366943,0.750244,-0.591309,-8.125305,-22.766111,-25.032042
-0.469727,0.73999,-0.574463,-7.308959,-22.857664,-24.79553
-0.491211,0.744873,-0.590332,-7.110595,-13.076781,-20.652769
-0.45459,0.726318,-0.611816,-12.634276,-2.113342,-17.311096
-0.391846,0.712402,-0.606934,-22.300718,7.194519,-17.303467
-0.206787,0.795166,-0.532227,-26.679991,12.191772,-19.485474
-0.133789,0.833252,-0.550049,-15.594481,10.520934,-23.651121
-0.317627,0.724609,-0.623535,-10.017395,-6.477355,-32.348633
-0.515869,0.707031,-0.593018,-12.161254,-13.107299,-34.248352
-0.545654,0.782227,-0.557373,-14.968871,-1.945495,-30.403135
-0.46875,0.736572,-0.570557,-15.411376,6.813049,-26.908873
-0.357178,0.748047,-0.527832,-16.540527,10.848998,-26.237486
-0.185547,0.839844,-0.505371,-9.712219,15.098571,-26.954649
-0.185303,0.827148,-0.522949,0.831604,7.484436,-30.540464
-0.401123,0.721191,-0.568604,9.155273,-10.45227,-32.501221
-0.518066,0.705078,-0.593262,10.215758,-11.58142,-26.44348
-0.44751,0.787842,-0.584717,4.165649,-0.511169,-21.461485
-0.396484,0.783691,-0.572021,2.700805,-0.724792,-20.957945
-0.482422,0.723389,-0.583984,3.669739,-4.623413,-21.797178
-0.39624,0.7229,-0.546631,-0.404358,-1.029968,-26.710508
-0.071289,0.837402,-0.494385,5.79071,1.396179,-25.741575
-0.254883,0.782227,-0.598389,16.738892,-12.96234,-22.65167
-0.705078,0.578857,-0.628906,16.036987,-23.254393,-24.871824
-0.710449,0.664795,-0.587402,3.044128,-5.508422,-19.828796
-0.378418,0.815918,-0.55957,-4.91333,10.971068,-16.960144
-0.331055,0.742188,-0.588379,-1.899719,9.70459,-21.697996
-0.261719,0.713623,-0.588135,-3.540039,3.799438,-25.497435
-0.060547,0.817383,-0.572754,-3.135681,-7.347106,-25.230406
-0.373291,0.724121,-0.580322,2.929687,-28.755186,-28.892515
-0.8479,0.604004,-0.566895,4.15802,-30.532835,-28.526304
-0.759033,0.67749,-0.529541,-3.40271,-3.921509,-19.737244
-0.365234,0.756348,-0.573242,-6.385803,17.555237,-15.182494
-0.19458,0.759033,-0.583496,-5.424499,14.030456,-19.340515
-0.183838,0.755127,-0.621338,-6.591796,-2.052307,-22.377012
-0.182373,0.745361,-0.602051,-9.094238,-24.322508,-26.756285
-0.477539,0.722656,-0.556641,-7.469177,-42.091366,-29.609678
-0.859131,0.626465,-0.535889,-6.828308,-38.719177,-29.281614
-0.791748,0.647949,-0.520264,-9.231567,-13.412475,-19.615173
-0.374023,0.756592,-0.547607,-11.695861,6.935119,-13.435363
-0.205078,0.739502,-0.624512,-13.084411,4.096985,-17.112732
-0.200195,0.739746,-0.585449,-18.173218,-13.053893,-21.743773
-0.427734,0.773438,-0.542725,-16.929626,-29.502867,-22.003172
-0.624756,0.734863,-0.479736,-11.71112,-36.29303,-24.353025
-0.749512,0.672363,-0.499023,-4.753113,-25.207518,-22.552488
-0.618408,0.693848,-0.531982,-4.211426,-6.278991,-18.737793
-0.369629,0.724365,-0.573975,-6.576538,2.182007,-17.532349
-0.268555,0.73877,-0.576172,-11.154174,-5.691528,-19.805908
-0.369141,0.718994,-0.552002,-13.984679,-18.821716,-21.545408
-0.631104,0.697021,-0.515381,-13.000487,-25.627134,-18.90564
-0.758545,0.683105,-0.477783,-9.506226,-19.851685,-12.985229
-0.624756,0.711426,-0.501709,-6.17218,-5.332946,-6.469726
-0.340332,0.769531,-0.54126,-5.554199,0.923157,-5.722045
-0.326172,0.739014,-0.587646,-6.645202,-7.858276,-10.917663
-0.400879,0.723633,-0.550537,-9.941101,-20.317076,-16.685486
-0.575928,0.730469,-0.461914,-7.369995,-26.268003,-17.951965
-0.69458,0.686035,-0.476318,-0.198364,-20.416258,-13.549804
-0.673096,0.693115,-0.48999,5.195617,-9.529114,-5.851745
-0.500488,0.752686,-0.515137,6.858825,-1.579285,-2.670288
-0.429199,0.739502,-0.549805,7.072448,-3.944397,-5.28717
-0.40918,0.715088,-0.567627,4.585266,-11.58142,-9.147644
-0.356201,0.757568,-0.521973,2.235413,-21.980284,-13.114928
-0.50708,0.720947,-0.489502,3.623962,-32.012939,-16.349792
-0.775635,0.635498,-0.48877,5.744934,-29.945372,-14.694213
-0.682617,0.67334,-0.482422,4.966736,-14.259337,-7.92694
-0.520996,0.715332,-0.508545,2.914428,-1.731872,-4.753113
-0.425781,0.712646,-0.549072,0.808716,-0.556946,-5.996704
-0.464844,0.682373,-0.546143,-1.922607,-7.881164,-7.5531
-0.661621,0.636963,-0.511963,-4.837036,-12.031554,-6.736755
-0.662109,0.681885,-0.469238,-5.1651,-6.217956,-1.121521
-0.547607,0.769287,-0.460205,-0.808716,1.846313,2.632141
-0.497559,0.730469,-0.515381,3.959656,5.66864,0.518799
-0.496094,0.678955,-0.553711,4.486084,4.669189,-1.754761
-0.524902,0.683105,-0.539063,2.532959,2.159119,-2.334595
-0.560547,0.711182,-0.498535,2.548218,0.328064,-1.64032
-0.587402,0.727295,-0.477051,5.607605,1.686096,0.267029
-0.574951,0.724609,-0.477295,9.620667,5.950927,1.602173
-0.545166,0.704834,-0.525146,11.611938,10.246276,1.373291
-0.508057,0.703857,-0.554199,10.742187,8.842468,-0.495911
-0.481689,0.712402,-0.541992,9.231567,3.364563,-2.975464
-0.531494,0.704834,-0.518311,8.94928,-0.053406,-4.959106
-0.577637,0.687012,-0.507813,10.337829,1.586914,-4.829407
-0.556885,0.693115,-0.501221,12.039184,6.324768,-2.113342
-0.553711,0.681396,-0.519775,13.023376,11.314391,0.663757
-0.535645,0.690918,-0.538818,12.825011,13.916015,2.89917
-0.504883,0.70459,-0.554199,12.977599,11.734008,4.013062
-0.498291,0.714844,-0.548584,14.183043,5.378723,4.981995
-0.54126,0.705078,-0.519775,16.967773,0.770569,5.485534
-0.571045,0.698975,-0.52417,19.683838,1.808166,6.210327
-0.496094,0.700195,-0.541016,20.51544,4.257202,5.851745
-0.52002,0.693848,-0.550293,20.919798,4.203796,4.898071
-0.500977,0.68457,-0.555664,21.469114,3.356933,5.935668
-0.520996,0.677246,-0.559326,21.415709,2.128601,7.911682
-0.560547,0.694092,-0.536377,21.545408,1.533508,9.849548
-0.567871,0.688477,-0.550781,23.29254,3.52478,12.062072
-0.496094,0.698242,-0.563721,24.414061,3.463745,13.404845
-0.428223,0.692383,-0.588623,24.833677,0.740051,10.810851
-0.464844,0.676025,-0.580811,24.383543,-4.852295,7.247924
-0.5271,0.653564,-0.583984,23.826597,-8.392334,7.255554
-0.578369,0.655518,-0.551514,22.178648,-6.629943,9.506226
-0.618652,0.658447,-0.514404,22.109983,1.213074,14.892577
-0.57666,0.645264,-0.562744,21.621702,11.848449,21.804808
-0.447266,0.664795,-0.618164,20.164488,14.236449,25.085447
-0.438965,0.6875,-0.602539,19.058228,8.514404,23.368834
-0.469971,0.670898,-0.600342,19.844055,4.203796,23.231504
-0.527832,0.666504,-0.577393,20.027161,2.563476,25.146482
-0.575439,0.675537,-0.561035,20.530699,5.584716,27.679441
-0.518311,0.681152,-0.571289,20.500181,11.444091,28.625486
-0.443359,0.666748,-0.618164,18.280029,13.801574,25.405882
-0.379883,0.637695,-0.638428,14.808654,8.68988,22.987364
-0.476074,0.672363,-0.621826,12.069701,3.219604,23.963926
-0.503418,0.668701,-0.60376,12.46643,1.701355,28.640745
-0.513184,0.678223,-0.589111,13.107299,2.731323,32.981873
-0.530762,0.663574,-0.584473,12.741088,5.867004,33.813477
-0.437012,0.672119,-0.612061,10.627746,9.277344,33.752441
-0.347168,0.671143,-0.631592,7.888793,5.638122,33.309937
-0.418457,0.641113,-0.642334,5.775451,-2.105713,34.057617
-0.545898,0.643066,-0.600342,3.52478,-4.142761,39.0625
-0.529053,0.689209,-0.593994,1.960754,3.837585,43.952938
-0.421143,0.697998,-0.612793,2.426147,8.773804,46.401974
-0.399658,0.712402,-0.603027,3.158569,5.386352,47.668453
-0.399414,0.685547,-0.611816,3.616333,-1.480102,51.460262
-0.363281,0.673584,-0.611572,2.983093,-5.805969,53.749081
-0.435303,0.675537,-0.618164,0.106812,-5.462646,53.199764
-0.427979,0.697998,-0.609619,-3.280639,-0.099182,52.795406
-0.485107,0.699463,-0.616943,-5.020141,9.544373,51.460262
-0.503418,0.678223,-0.632813,-7.820129,16.021729,53.665157
-0.405762,0.687012,-0.618408,-10.276793,21.286009,57.624813
-0.252686,0.743408,-0.608643,-11.047362,20.454405,59.761044
-0.167969,0.773926,-0.596924,-7.522583,12.275695,59.288021
-0.361572,0.731689,-0.615479,-4.165649,1.89209,58.151241
-0.499512,0.686279,-0.622803,-4.066467,1.670837,61.676022
-0.498047,0.708984,-0.624756,-5.561828,14.091491,68.588257
-0.413574,0.749512,-0.597412,-8.827209,25.489805,74.478149
-0.256348,0.746826,-0.626953,-11.123656,31.448362,75.050354
-0.119629,0.740723,-0.614502,-14.320373,28.19824,66.619873
-0.109375,0.75,-0.61499,-13.648986,20.812986,56.159969
-0.245605,0.741211,-0.631348,-13.038634,14.85443,49.781796
-0.450195,0.738281,-0.627686,-15.602111,14.717101,51.658627
-0.442627,0.760254,-0.62207,-20.614622,26.451109,56.640621
-0.246582,0.778564,-0.600586,-24.940489,38.696289,59.05151
-0.122559,0.78418,-0.586914,-26.771544,36.270142,57.579037
-0.137207,0.766357,-0.600098,-25.978086,27.122496,52.558895
-0.12915,0.764893,-0.605469,-26.412962,19.218445,45.768734
-0.087402,0.794434,-0.593994,-25.863646,12.496947,39.306641
-0.237793,0.818115,-0.556396,-22.193907,7.308959,33.370972
-0.270752,0.824707,-0.576172,-17.814636,7.949829,33.52356
-0.164307,0.796631,-0.572266,-16.067505,9.468079,34.973145
-0.128662,0.787109,-0.559082,-15.090941,4.318237,31.616209
-0.131592,0.79541,-0.558594,-13.122558,2.738952,24.971006
-0.018311,0.834961,-0.551514,-8.865356,1.533508,14.289855
-0.041016,0.860352,-0.518799,-1.693725,-7.408142,3.669739
-0.242188,0.831543,-0.54541,6.134033,-15.274047,1.075745
-0.309326,0.776611,-0.615967,5.867004,-10.963439,4.112244
-0.175537,0.740967,-0.637939,-3.082275,-3.486633,5.775451
-0.08252,0.765869,-0.619873,-12.290954,-3.158569,2.777099
-0.095215,0.831055,-0.546875,-13.893126,-6.301879,-3.768921
-0.183105,0.861328,-0.525879,-7.850646,-9.44519,-8.148193
-0.270508,0.853271,-0.530273,-1.853943,-7.843017,-8.132935
-0.272949,0.797363,-0.574463,0.747681,-2.609253,-3.730774
-0.235596,0.78833,-0.58374,-1.060486,1.602173,0.679016
-0.156006,0.788574,-0.590088,-3.883362,4.104614,2.723694
-0.117188,0.79248,-0.593262,-7.019042,3.379822,0.37384
-0.137207,0.813965,-0.569092,-9.025574,1.029968,-4.119873
-0.165283,0.832764,-0.550293,-7.720947,0.457764,-7.621765
-0.194336,0.825684,-0.548096,-4.959106,0.610352,-8.781433
-0.217529,0.821533,-0.553223,-2.342224,1.296997,-7.93457
-0.207031,0.811768,-0.560791,-1.144409,2.258301,-6.462097
-0.165283,0.792725,-0.57959,-2.426147,2.922058,-5.653381
-0.140625,0.800537,-0.573486,-4.989624,2.822876,-7.453918
-0.152832,0.809326,-0.57251,-5.493164,0.549316,-9.254456
-0.200928,0.805664,-0.577881,-6.652832,-0.427246,-10.56671
-0.222412,0.80957,-0.564209,-8.68988,2.250671,-11.054992
-0.218262,0.812012,-0.560059,-10.002136,4.760742,-10.223388
-0.215088,0.800781,-0.568359,-11.726378,4.730225,-9.300232
-0.210205,0.802734,-0.567871,-14.251708,5.447387,-9.33075
-0.132324,0.827148,-0.531494,-15.640258,6.820678,-11.32965
-0.130615,0.821777,-0.539795,-12.405395,5.195617,-13.778686
-0.193604,0.827393,-0.546143,-10.307311,2.479553,-16.899109
-0.171143,0.832764,-0.536377,-8.865356,2.067566,-19.111633
-0.156494,0.825684,-0.541992,-6.67572,-0.816345,-22.048948
-0.182861,0.810303,-0.547852,-6.454467,-6.034851,-26.542662
-0.145996,0.828857,-0.539307,-7.369995,-10.269164,-32.157898
-0.040283,0.833008,-0.519531,-5.218505,-13.633727,-37.818909
-0.180176,0.797363,-0.568359,-2.609253,-16.662598,-45.394894
-0.321289,0.810059,-0.535889,-2.319336,-16.723633,-46.19598
-0.428223,0.787842,-0.58252,-0.511169,-11.253356,-39.848328
-0.342529,0.825195,-0.556885,-4.165649,-5.615234,-32.287598
-0.218018,0.833252,-0.549072,-6.271362,-3.036499,-28.282164
-0.207031,0.819824,-0.541992,-7.17926,-9.407043,-30.418394
-0.16333,0.829346,-0.518799,-7.820129,-19.042969,-34.881592
-0.050781,0.837891,-0.48291,-1.846313,-25.512693,-37.986755
-0.303711,0.798828,-0.52832,8.071899,-28.442381,-44.43359
-0.546387,0.787109,-0.562744,7.614135,-26.237486,-43.952938
-0.439209,0.776855,-0.573486,1.037598,-12.344359,-34.080505
-0.289063,0.809082,-0.546631,-6.080627,-1.731872,-33.454895
-0.304199,0.826172,-0.51123,-9.994507,-1.060486,-39.306641
-0.080811,0.870117,-0.468018,-7.80487,-8.743286,-40.740963
0.034668,0.858887,-0.509277,10.635375,-15.144347,-35.629272
-0.334473,0.758057,-0.566406,10.589599,-34.797668,-48.034664
-0.616455,0.707031,-0.564209,7.072448,-39.550781,-45.524593
-0.60376,0.77417,-0.553467,2.403259,-20.408628,-34.118652
-0.372803,0.80542,-0.543701,-3.341675,-7.225036,-26.893614
-0.247314,0.815918,-0.538086,-5.088806,-6.67572,-27.023314
-0.281006,0.787842,-0.532959,-8.628845,-11.657714,-35.377502
-0.275391,0.768311,-0.512207,-8.834839,-16.326904,-41.40472
-0.236572,0.80542,-0.501465,-4.150391,-17.021179,-41.084286
-0.452148,0.786621,-0.536865,1.991272,-15.289306,-38.825989
-0.611084,0.730957,-0.545898,-0.846863,-20.866392,-30.738829
-0.445068,0.80249,-0.520508,-2.670288,-12.031554,-20.858763
-0.248535,0.846191,-0.506104,-3.257751,-4.882813,-25.352476
-0.268311,0.789795,-0.544678,-1.029968,-11.695861,-31.372068
-0.362549,0.739502,-0.528809,-5.249023,-22.361753,-35.27832
-0.34668,0.758057,-0.495361,-4.638672,-22.544859,-36.643982
-0.549561,0.771484,-0.45874,-1.785278,-16.410828,-34.156799
-0.614502,0.75708,-0.506592,4.051208,-6.385803,-22.834776
-0.365967,0.829102,-0.558838,6.240844,0.450134,-12.878417
-0.304199,0.792969,-0.52832,4.386902,-6.17218,-16.952515
-0.394531,0.785645,-0.531738,4.898071,-13.107299,-20.324705
-0.360596,0.76709,-0.547119,0.923157,-16.296387,-26.18408
-0.398926,0.725342,-0.53833,-2.983093,-22.979734,-30.632017
-0.49292,0.740723,-0.469727,-3.501892,-25.466917,-29.846189
-0.672852,0.742676,-0.454834,1.434326,-16.059875,-24.124144
-0.53418,0.746338,-0.481445,3.64685,-0.648498,-15.853881
-0.286133,0.816895,-0.548096,4.737854,7.499694,-13.145446
-0.289307,0.781006,-0.566895,2.365112,-4.463196,-20.271299
-0.294922,0.762207,-0.564453,-0.572205,-19.943237,-25.489805
-0.416016,0.758545,-0.540283,-6.126403,-31.929014,-31.951902
-0.718018,0.681885,-0.452881,-8.872986,-35.27832,-35.606384
-0.726807,0.698975,-0.455322,-6.027221,-16.88385,-28.030394
-0.34082,0.82251,-0.4646,-0.686645,-1.350403,-18.920898
-0.328857,0.791504,-0.550049,2.616882,-4.005432,-19.813538
-0.482178,0.706543,-0.542725,-2.716064,-12.680053,-25.199888
-0.411621,0.736084,-0.544678,-10.749816,-17.410278,-26.397703
-0.394287,0.759033,-0.484131,-15.052794,-26.794432,-29.319761
-0.72876,0.699707,-0.482666,-11.421203,-30.158995,-28.213499
-0.696289,0.710449,-0.460449,-6.980896,-18.089294,-20.523069
-0.482178,0.789795,-0.4646,-2.052307,-6.538391,-13.740539
-0.489014,0.756104,-0.457764,1.251221,-5.271911,-14.015197
-0.44043,0.737549,-0.522705,1.022339,-4.608154,-14.816283
-0.284424,0.773682,-0.525879,-5.645751,-10.589599,-19.180298
-0.457275,0.75415,-0.5,-8.605957,-23.063658,-22.682188
-0.697998,0.693115,-0.472656,-6.210327,-28.526304,-20.202635
-0.698486,0.702393,-0.462402,-3.562927,-20.660398,-14.396667
-0.540527,0.759033,-0.454834,-2.716064,-9.559631,-12.741088
-0.424316,0.778809,-0.461914,-1.518249,-5.493164,-15.274047
-0.463623,0.763672,-0.496582,-2.159119,-7.881164,-19.584656
-0.465332,0.707764,-0.519531,-8.369446,-11.566161,-26.168821
-0.619385,0.678223,-0.469727,-12.794494,-15.983581,-25.917051
-0.670654,0.684814,-0.459229,-11.001586,-13.938903,-15.594481
-0.5896,0.739746,-0.443359,-7.736206,-8.132935,-6.080627
-0.519775,0.751465,-0.471924,-6.202697,-2.418518,-4.386902
-0.516602,0.732178,-0.48291,-8.201599,-2.784729,-8.537292
-0.589355,0.698242,-0.465088,-10.261535,-4.379272,-11.19995
-0.520996,0.736084,-0.475586,-10.406493,-2.929687,-10.375976
-0.537842,0.772705,-0.433105,-5.943298,-5.798339,-7.789611
-0.682129,0.718506,-0.411377,1.876831,-6.881713,-2.197266
-0.615234,0.706543,-0.466797,4.402161,2.227783,1.525879
-0.482178,0.748535,-0.48877,1.976013,8.796692,-0.686645
-0.506836,0.723877,-0.485352,0.564575,7.67517,-3.997802
-0.530273,0.734619,-0.460693,1.518249,5.836486,-2.220154
-0.615234,0.757324,-0.424072,5.91278,4.737854,2.754211
-0.594727,0.75708,-0.446533,12.184142,3.784179,7.17163
-0.496826,0.742676,-0.491699,14.389037,2.456665,4.669189
-0.521729,0.712646,-0.494141,11.932372,-0.076294,0.656128
-0.533936,0.688477,-0.510742,6.729125,-0.335693,-1.304626
-0.525879,0.717529,-0.486816,2.006531,0.343323,-2.822876
-0.551025,0.743896,-0.450684,2.677917,1.678467,-1.502991
-0.586426,0.735107,-0.434326,6.088256,4.798889,1.785278
-0.613037,0.728516,-0.44458,9.429932,9.971619,5.714416
-0.558838,0.726807,-0.494385,10.269164,14.72473,6.988525
-0.490234,0.724365,-0.532715,7.850646,11.45935,4.638672
-0.47998,0.723877,-0.51001,5.851745,3.349304,2.128601
-0.522705,0.724854,-0.482178,4.493713,-0.312805,0.709534
-0.573486,0.738037,-0.462158,5.882263,-0.099182,1.502991
-0.561279,0.741943,-0.450928,9.033203,2.815246,2.479553
-0.55835,0.716553,-0.469238,10.513305,7.652282,3.059387
-0.571533,0.684814,-0.489014,8.323669,12.435912,3.616333
-0.505859,0.694092,-0.52832,3.364563,15.678405,4.104614
-0.453613,0.72583,-0.523193,-0.587463,11.978148,3.669739
-0.532227,0.741211,-0.483154,0.541687,6.17218,5.378723
-0.570557,0.746826,-0.466309,4.554749,5.714416,7.93457
-0.563965,0.73999,-0.477295,8.69751,8.964539,8.125305
-0.506104,0.729004,-0.50415,10.429381,11.222838,7.057189
-0.528564,0.705566,-0.513916,9.429932,10.040282,6.767272
-0.498535,0.706787,-0.51416,7.255554,10.635375,7.377624
-0.48291,0.739258,-0.49585,5.966186,10.429381,7.759094
-0.583496,0.735107,-0.471436,9.063721,10.604857,10.078429
-0.566406,0.73584,-0.468262,13.488769,16.578674,12.847899
-0.539307,0.732178,-0.502197,15.693664,22.087095,12.924193
-0.483887,0.720215,-0.546143,16.639709,22.010801,11.970519
-0.44458,0.69043,-0.585449,14.068603,16.647339,9.95636
-0.421143,0.69458,-0.574707,8.049011,9.315491,7.308959
-0.446045,0.730713,-0.521729,4.425049,3.761291,6.614685
-0.578369,0.766357,-0.462402,7.743835,2.288818,9.216309
-0.583496,0.742432,-0.4729,14.595031,8.903503,13.824462
-0.519287,0.71582,-0.51709,17.76123,18.264771,15.220641
-0.496826,0.692627,-0.549316,16.288757,22.422789,14.755248
-0.458252,0.696777,-0.575195,12.420653,22.262571,13.961791
-0.434326,0.723633,-0.571533,9.83429,16.738892,13.244628
-0.412354,0.759277,-0.532715,11.016845,9.437561,14.015197
-0.500732,0.75415,-0.501953,14.137267,5.447387,14.976501
-0.532227,0.736572,-0.522461,18.684387,8.18634,17.303467
-0.512207,0.719482,-0.539063,20.721434,12.939452,17.807007
-0.489746,0.690918,-0.56958,19.210815,17.26532,17.662048
-0.486572,0.66333,-0.588623,13.542174,18.737793,17.456055
-0.42334,0.673828,-0.592285,6.118774,19.134521,17.127991
-0.327393,0.740479,-0.584717,2.14386,16.105652,16.586304
-0.412598,0.766602,-0.545654,3.623962,7.774353,16.860962
-0.529785,0.749756,-0.540283,9.536743,3.845215,20.507811
-0.449463,0.731201,-0.562012,13.496398,5.79071,23.353575
-0.427734,0.707031,-0.592285,12.603759,5.256652,21.408079
-0.406006,0.690918,-0.605469,8.209229,1.800537,20.553587
-0.454834,0.678711,-0.588379,3.074646,-1.365662,21.110533
-0.416748,0.726074,-0.560303,0.549316,-0.25177,24.467466
-0.355469,0.782715,-0.539307,3.707886,2.090454,27.854918
-0.398193,0.7771,-0.553711,10.490417,-0.091553,30.395506
-0.474121,0.744385,-0.563232,15.396117,-4.463196,33.248901
-0.473145,0.738525,-0.557861,17.654419,-4.348755,36.949158
-0.428955,0.703369,-0.575928,15.602111,-1.724243,36.079407
-0.407227,0.685303,-0.606934,11.45935,0.007629,35.263062
-0.320557,0.745605,-0.586426,9.307861,1.182556,34.919739
-0.324951,0.764648,-0.56958,10.742187,-0.244141,35.011292
-0.41748,0.766113,-0.570801,15.151977,-3.593445,39.924622
-0.486084,0.76709,-0.559814,19.233704,-4.844666,47.737118
-0.506104,0.731934,-0.575928,21.675108,1.12915,52.650448
-0.479492,0.683838,-0.613037,17.280579,14.114379,48.866268
-0.349854,0.709961,-0.61499,9.45282,25.619505,42.686459
-0.231934,0.747803,-0.595459,6.889343,27.671812,41.465755
-0.237793,0.767578,-0.588135,10.543822,21.89636,47.103878
-0.430908,0.75293,-0.580811,13.069152,15.220641,53.855892
-0.390869,0.757324,-0.578369,14.060973,18.2724,62.797543
-0.400635,0.724609,-0.602295,10.749816,29.983519,64.582825
-0.420654,0.707764,-0.638916,4.173279,43.647762,61.492916
-0.335205,0.713623,-0.630371,-2.853393,54.290768,63.346859
-0.182617,0.712646,-0.654053,-7.446289,54.222103,67.092896
-0.134521,0.744385,-0.625732,-10.162353,46.722408,65.803528
-0.224854,0.769775,-0.591797,-9.918213,39.733887,62.278744
-0.388916,0.753662,-0.614502,-11.795043,39.123535,59.349056
-0.344238,0.736816,-0.64917,-17.570496,44.80743,57.243343
-0.138916,0.743652,-0.634766,-23.246763,47.500607,53.939816
0.05542,0.787842,-0.60083,-24.833677,40.290829,48.896786
0.019531,0.779785,-0.591309,-20.545958,24.726866,45.104977
-0.313477,0.80249,-0.588867,-18.417358,15.342711,41.038509
-0.557861,0.776367,-0.60791,-22.300718,27.717588,43.083187
-0.445313,0.749268,-0.629883,-28.70941,45.913692,48.782345
-0.020752,0.769775,-0.601563,-29.846189,53.352352,50.682064
0.369385,0.844482,-0.523682,-24.383543,36.369324,38.108826
0.265137,0.84082,-0.485352,-12.351989,7.896423,22.415159
-0.23584,0.829834,-0.575195,-3.746032,-9.529114,8.552551
-0.29248,0.83374,-0.576172,-5.043029,-1.686096,4.890442
-0.082031,0.818848,-0.557373,-6.301879,8.514404,5.210876
0.038086,0.795898,-0.566406,-1.579285,0.167847,4.447937
-0.0271,0.793945,-0.578125,3.768921,-13.633727,1.014709
-0.103027,0.785889,-0.598145,4.821777,-19.996643,-3.768921
-0.14624,0.759033,-0.640869,1.747131,-18.409729,-6.233215
-0.238037,0.809814,-0.593262,-3.532409,-12.733459,-5.966186
-0.279053,0.840576,-0.552002,-5.180358,-5.92041,-2.052307
-0.174072,0.845459,-0.54834,-3.570556,-0.312805,2.342224
-0.058594,0.821777,-0.558838,-0.679016,-2.067566,4.051208
-0.062988,0.78125,-0.592041,2.410889,-10.345458,3.509521
-0.143555,0.761719,-0.623047,1.426697,-13.809203,1.808166
-0.178711,0.785156,-0.625,-5.401611,-7.80487,-0.25177
-0.195313,0.833252,-0.565918,-11.009215,-1.091003,-1.777649
-0.171875,0.84375,-0.526855,-9.506226,1.319885,-0.183105
-0.120605,0.827148,-0.54248,-1.907349,1.617432,2.532959
-0.114502,0.799072,-0.572754,2.342224,-1.037598,2.662658
-0.11084,0.751953,-0.613525,0.289917,-1.541138,1.327515
-0.089355,0.783936,-0.611572,-4.188538,2.525329,-3.173828
-0.105225,0.826416,-0.563965,-6.958007,3.967285,-8.651733
-0.135742,0.844482,-0.54834,-3.753662,1.419067,-10.749816
-0.157471,0.850098,-0.535889,0.961304,-3.288269,-10.353087
-0.127686,0.827148,-0.556396,5.828857,-7.003784,-8.705139
-0.109619,0.797119,-0.571777,7.736206,-11.230468,-8.964539
-0.135498,0.80127,-0.571777,8.323669,-13.923644,-9.69696
-0.195313,0.803711,-0.588867,7.957458,-12.092589,-10.009766
-0.1875,0.802734,-0.583252,5.126953,-6.561279,-10.002136
-0.162598,0.807129,-0.588135,3.562927,-1.739502,-9.796143
-0.154297,0.817139,-0.577148,2.5177,-1.228333,-10.551452
-0.118652,0.807373,-0.577637,2.838135,-3.791809,-10.917663
-0.101074,0.797852,-0.566162,3.517151,-8.972168,-12.565612
-0.140625,0.816162,-0.568604,7.843017,-13.412475,-14.190673
-0.179443,0.825928,-0.569824,9.780884,-16.532898,-16.067505
-0.175293,0.804443,-0.577881,10.597228,-15.403747,-18.218994
-0.171631,0.789551,-0.594727,10.673522,-12.878417,-22.117613
-0.206543,0.780762,-0.600586,7.644653,-10.833739,-26.725767
-0.159424,0.792969,-0.579102,4.53186,-9.567261,-30.6015
-0.045654,0.81665,-0.548096,9.346008,-11.787414,-32.112122
-0.130615,0.823242,-0.565186,16.891479,-21.39282,-36.567688
-0.237549,0.811035,-0.577637,15.899657,-30.502317,-39.154053
-0.250977,0.7771,-0.596436,15.289306,-29.815672,-37.406921
-0.281982,0.74707,-0.619629,11.528014,-23.811338,-40.008545
-0.306396,0.716553,-0.648682,2.937317,-16.38031,-43.960567
-0.16748,0.801514,-0.528076,-2.624511,-12.001037,-44.609066
-0.083252,0.847656,-0.554932,9.82666,-11.901855,-40.946957
-0.218018,0.766846,-0.593018,14.343261,-24.085997,-44.067379
-0.275391,0.761719,-0.607666,13.84735,-30.288694,-42.549129
-0.309082,0.751221,-0.624023,8.140564,-30.029295,-39.733887
-0.35498,0.736328,-0.632813,-0.411987,-27.008055,-39.421082
-0.413086,0.718506,-0.618408,-8.087158,-21.286009,-39.573669
-0.424805,0.734619,-0.566895,-15.899657,-14.60266,-40.145874
-0.190186,0.793457,-0.517334,-14.457702,-8.247375,-40.031433
0.05249,0.849609,-0.550781,-0.038147,-2.784729,-39.070129
-0.188232,0.732178,-0.66626,3.082275,-17.707825,-47.721859
-0.50293,0.680664,-0.649902,-8.087158,-36.78894,-44.898983
-0.574463,0.746338,-0.616943,-18.15033,-22.789,-31.875608
-0.400635,0.799805,-0.588379,-26.069639,-1.647949,-29.281614
-0.318115,0.753418,-0.589844,-29.388426,3.196716,-30.204771
-0.359619,0.735596,-0.533447,-32.211304,-5.310058,-31.387327
-0.207031,0.798584,-0.503662,-24.131773,-8.422852,-30.4718
-0.249512,0.780762,-0.558105,-12.748717,-1.022339,-33.561707
-0.311768,0.747559,-0.620361,-12.359618,-4.989624,-35.469055
-0.316895,0.796875,-0.600342,-13.031005,-10.124206,-31.845091
-0.322754,0.830322,-0.543457,-16.891479,-19.134521,-32.035828
-0.360107,0.802002,-0.543701,-13.748168,-23.246763,-34.118652
-0.438721,0.763184,-0.529297,-12.542724,-25.695799,-38.42926
-0.425049,0.751465,-0.45459,-9.82666,-26.664732,-40.390011
-0.259521,0.824219,-0.470703,9.773254,-16.311646,-31.135557
-0.318848,0.822266,-0.506836,20.111082,-11.505126,-26.084898
-0.560791,0.72998,-0.598633,26.657103,-16.25824,-17.425537
-0.534912,0.712891,-0.633545,18.157959,-12.649535,-10.086059
-0.339844,0.768311,-0.571289,8.621216,-7.865905,-14.999389
-0.312012,0.793945,-0.568604,8.728027,-14.381408,-17.311096
-0.394043,0.742432,-0.550781,9.178162,-23.635862,-20.89691
-0.44751,0.727051,-0.486572,11.047362,-25.871275,-21.850584
-0.526611,0.763672,-0.460693,18.028259,-18.829346,-17.89093
-0.572998,0.723877,-0.572021,23.422239,-5.981445,-12.886046
-0.425049,0.699707,-0.613525,17.814636,4.577637,-10.093688
-0.335693,0.68335,-0.652588,7.865905,5.714416,-13.206481
-0.279541,0.716309,-0.650146,-2.967834,-4.03595,-18.829346
-0.300049,0.76416,-0.576172,-9.735107,-20.462034,-23.277281
-0.480713,0.739746,-0.498291,-9.613037,-30.731199,-25.703428
-0.653809,0.696777,-0.466797,-4.669189,-25.390623,-23.368834
-0.606934,0.728271,-0.538574,-0.030518,-7.369995,-16.990662
-0.454346,0.725586,-0.558838,-2.853393,4.28009,-15.548705
-0.342773,0.688477,-0.619141,-6.538391,6.362915,-15.289306
-0.240723,0.752197,-0.577148,-13.229369,-0.12207,-16.639709
-0.20166,0.813232,-0.575928,-14.259337,-14.701842,-18.829346
-0.504395,0.723633,-0.517578,-14.060973,-33.485413,-24.070738
-0.882568,0.623291,-0.509766,-12.527465,-29.70886,-22.598265
-0.719727,0.734375,-0.412109,-11.543273,-4.043579,-13.862609
-0.299316,0.793701,-0.545898,-3.364563,15.853881,-9.979248
-0.221924,0.746094,-0.624023,-4.302979,8.621216,-15.3656
-0.424805,0.694092,-0.597656,-10.95581,-6.965637,-19.592285
-0.362793,0.739746,-0.586914,-19.165039,-15.029906,-21.621702
-0.35498,0.743164,-0.537842,-24.581907,-26.237486,-27.008055
-0.500488,0.77832,-0.453857,-19.569397,-35.591125,-25.650023
-0.734131,0.728516,-0.439941,-10.757445,-31.532286,-22.02606
-0.589111,0.709229,-0.513184,-5.363464,-15.151977,-18.966675
-0.405762,0.726807,-0.533203,-6.896972,-6.362915,-20.736692
-0.420654,0.731934,-0.561035,-10.932921,-8.415222,-23.704527
-0.485596,0.679688,-0.552979,-17.372131,-14.068603,-25.741575
-0.528076,0.698486,-0.524902,-20.683287,-18.592834,-20.317076
-0.530518,0.753906,-0.487549,-18.432617,-21.888731,-12.252807
-0.557129,0.764648,-0.462646,-12.565612,-21.90399,-9.239197
-0.565186,0.748291,-0.472412,-7.476806,-17.532349,-9.338379
-0.532471,0.723145,-0.495605,-6.729125,-11.085509,-11.726378
-0.558594,0.708984,-0.495361,-8.476257,-7.156372,-13.366698
-0.591797,0.676025,-0.524902,-11.421203,-3.425598,-12.680053
-0.519287,0.719727,-0.507813,-12.489318,-1.953125,-8.636475
-0.487305,0.769043,-0.465088,-8.598328,-4.112244,-4.020691
-0.564209,0.769775,-0.445313,-1.152039,-4.928589,-0.007629
-0.561523,0.734375,-0.489502,2.929687,-1.091003,0.305176
-0.513672,0.729736,-0.505615,3.234863,-1.373291,-0.862122
-0.478271,0.726563,-0.521729,2.922058,-3.753662,-1.335144
-0.486816,0.736816,-0.517334,1.396179,-6.721496,-1.983642
-0.532471,0.739746,-0.47168,2.326965,-8.720398,-2.304077
-0.59668,0.741211,-0.440674,6.591796,-7.019042,0.007629
-0.541016,0.730957,-0.47583,10.040282,-0.274658,1.495361
-0.538086,0.717041,-0.486572,10.147094,5.149841,0.907898
-0.561279,0.708984,-0.485352,9.635925,9.368896,2.433777
-0.496338,0.712891,-0.518799,7.621765,13.427733,3.829956
-0.511963,0.732178,-0.518799,6.202697,11.062621,5.073547
-0.505371,0.748291,-0.513672,7.850646,4.768372,6.889343
-0.512207,0.752197,-0.486328,10.215758,-1.419067,6.484985
-0.518311,0.729248,-0.485107,11.390685,-2.365112,4.379272
-0.516113,0.705078,-0.516357,9.887695,-0.1297,2.311707
-0.510254,0.700195,-0.529541,6.912231,1.991272,0.747681
-0.455566,0.714355,-0.524902,4.211426,3.234863,0.518799
-0.560303,0.736572,-0.4729,5.126953,3.486633,2.929687
-0.633545,0.747803,-0.43335,10.223388,9.124756,7.392883
-0.520752,0.738525,-0.513916,13.801574,17.219543,9.025574
-0.413574,0.735107,-0.561035,13.420104,13.183593,6.431579
-0.442383,0.718994,-0.555908,12.924193,2.380371,4.951477
-0.481201,0.715332,-0.537109,11.520385,-4.508972,4.043579
-0.522461,0.730225,-0.497314,10.879516,-5.577087,2.914428
-0.564453,0.741455,-0.483154,13.389586,-2.563476,4.074097
-0.543701,0.724121,-0.497559,16.624451,2.838135,6.362915
-0.543945,0.706787,-0.515137,17.433167,7.888793,7.942199
-0.482666,0.685547,-0.563232,14.144897,12.031554,8.224487
-0.438721,0.697266,-0.581543,9.506226,9.017944,6.690979
-0.475098,0.721191,-0.550537,6.500244,1.167297,5.264282
-0.455566,0.736084,-0.535889,6.355285,-2.632141,4.180908
-0.497803,0.739746,-0.514893,9.521484,-5.981445,5.66101
-0.568604,0.718262,-0.509033,13.160705,-6.111145,8.651733
-0.504395,0.704834,-0.539063,13.015746,-2.113342,9.57489
-0.474121,0.685303,-0.55957,7.995605,-0.801086,6.141662
-0.469971,0.689941,-0.574219,2.876281,-1.922607,4.600525
-0.418945,0.734131,-0.555176,2.845764,-6.126403,7.125854
-0.490723,0.724365,-0.540527,5.889892,-10.69641,9.277344
-0.569092,0.730713,-0.488281,9.803772,-11.825561,13.320922
-0.567139,0.737549,-0.50708,12.954711,-6.065368,16.777039
-0.479492,0.70752,-0.550537,12.519835,-1.243591,15.411376
-0.418945,0.696533,-0.584473,9.45282,-2.059937,13.175963
-0.430664,0.703857,-0.575195,6.607055,-7.278442,13.198852
-0.451904,0.728516,-0.554932,6.767272,-12.298583,15.693664
-0.517822,0.740234,-0.521973,10.848998,-15.533446,16.067505
-0.60791,0.732422,-0.500977,13.374328,-13.809203,18.470764
-0.549316,0.706055,-0.5,16.296387,-6.195068,22.628782
-0.444336,0.699951,-0.563232,15.495299,0.87738,25.955198
-0.406494,0.730225,-0.568115,12.916564,1.25885,24.574278
-0.452393,0.725342,-0.570068,13.519286,-2.380371,24.108885
-0.480713,0.706299,-0.55957,13.748168,-4.066467,26.321409
-0.554199,0.696289,-0.510254,12.33673,-1.899719,29.327391
-0.573242,0.704102,-0.532227,11.970519,6.370544,35.720825
-0.475098,0.713623,-0.573975,10.185241,12.504577,39.802551
-0.409668,0.73584,-0.591064,8.384705,11.45172,38.894653
-0.391602,0.722168,-0.579834,6.41632,7.17163,37.124634
-0.386475,0.718994,-0.559814,4.470825,5.241394,36.773682
-0.476074,0.725098,-0.557373,3.921509,7.17163,39.291382
-0.516357,0.720703,-0.541992,3.105163,10.711669,43.182369
-0.489746,0.717529,-0.538086,3.257751,16.853333,48.767086
-0.445313,0.702637,-0.564697,0.732422,21.911619,51.139828
-0.404053,0.734131,-0.57373,-2.677917,28.045652,49.934383
-0.419922,0.736084,-0.587402,-6.736755,30.807493,48.812862
-0.37915,0.743408,-0.579834,-8.666992,31.532286,51.925655
-0.325195,0.783203,-0.572754,-8.926392,32.783508,53.619381
-0.263672,0.793701,-0.557861,-6.401062,33.889771,53.733822
-0.387939,0.759277,-0.560303,-3.921509,31.616209,53.237911
-0.526367,0.7229,-0.571777,-6.538391,34.301758,56.182858
-0.458984,0.742188,-0.580322,-11.169433,48.080441,60.234066
-0.273926,0.783691,-0.580322,-16.082764,58.395382,60.905453
-0.117188,0.804932,-0.568359,-15.983581,54.26025,60.348507
-0.178955,0.78833,-0.576416,-13.85498,41.328426,59.92889
-0.281982,0.77417,-0.593506,-14.808654,36.148071,59.814449
-0.299561,0.765869,-0.579102,-16.921997,42.778011,61.012264
-0.386719,0.785645,-0.595703,-18.333435,49.644466,64.559937
-0.38501,0.792236,-0.591309,-22.460936,56.27441,71.678162
-0.335449,0.803223,-0.583984,-27.526854,63.529964,77.072144
-0.115234,0.809814,-0.551025,-27.717588,59.92889,81.581108
-0.165283,0.825928,-0.550049,-24.513243,40.176388,81.481926
-0.084229,0.859619,-0.504639,-16.853333,20.64514,82.527153
-0.043213,0.847168,-0.497314,-8.964539,11.016845,78.697205
-0.266113,0.812012,-0.519043,-3.822326,3.837585,77.278137
-0.285889,0.800781,-0.584717,-7.057189,4.814148,82.458488
0.118652,0.811035,-0.550293,-12.931823,-0.320435,82.977287
0.250732,0.817871,-0.615234,-8.81958,-18.913269,69.137573
0.324707,0.726074,-0.536621,-4.997253,-36.170959,50.155636
0.138672,0.816895,-0.557129,-5.744934,-42.381283,31.112669
-0.243652,0.800537,-0.616699,-12.550353,-43.960567,19.897461
-0.428711,0.825928,-0.554443,-27.648924,-24.208067,17.990112
-0.313965,0.888184,-0.493896,-35.820007,-4.66156,25.657652
0.050049,0.914307,-0.437988,-29.33502,-3.074646,32.516479
0.072021,0.885986,-0.462402,-10.055541,-20.240782,29.754637
-0.110107,0.852051,-0.522461,1.289368,-30.288694,22.308348
-0.015625,0.832031,-0.522217,2.037048,-24.826048,14.884948
-0.108398,0.806885,-0.557129,0.732422,-20.507811,8.346558
-0.215576,0.81543,-0.586914,-6.965637,-10.902404,5.928039
-0.132324,0.841064,-0.557129,-15.258788,-0.50354,7.194519
-0.019043,0.857422,-0.512451,-16.113281,-1.350403,6.401062
-0.013672,0.868896,-0.490723,-10.757445,-7.759094,2.075195
-0.009277,0.875732,-0.494385,-2.883911,-11.528014,-4.875183
-0.086182,0.875244,-0.498779,3.181457,-12.802123,-11.383056
-0.140381,0.858643,-0.493164,6.896972,-10.307311,-13.481139
-0.144287,0.841064,-0.540283,7.369995,-6.523132,-12.306212
-0.117432,0.842285,-0.530029,4.425049,-3.097534,-10.780334
-0.102783,0.838867,-0.529785,3.173828,-2.838135,-8.94928
-0.11084,0.846924,-0.511719,3.64685,-4.379272,-7.453918
-0.049316,0.847168,-0.510742,6.91986,-6.195068,-7.118225
-0.101807,0.847412,-0.543213,9.45282,-9.70459,-8.68988
-0.164551,0.846924,-0.540771,6.996154,-6.988525,-10.597228
-0.152588,0.839111,-0.542725,3.448486,-1.098633,-10.238647
-0.130371,0.857666,-0.523438,1.13678,1.739502,-8.81958
-0.118652,0.845215,-0.537354,0.801086,1.861572,-7.125854
-0.128418,0.8396,-0.540527,-1.159668,1.586914,-6.462097
-0.099121,0.850342,-0.527832,-1.899719,1.991272,-6.393432
-0.123047,0.843506,-0.531738,-1.182556,1.51062,-7.164001
-0.123291,0.841553,-0.542969,-1.281738,4.425049,-9.101868
-0.128174,0.861572,-0.51709,-2.6474,7.659912,-12.21466
-0.12793,0.851318,-0.518555,-1.495361,9.811401,-13.85498
-0.116943,0.840088,-0.517578,0.473022,11.093139,-15.190124
-0.089355,0.859619,-0.5,4.768372,10.44464,-16.860962
-0.03418,0.846436,-0.510742,10.375976,7.537841,-19.126892
-0.100342,0.833008,-0.535889,14.22882,4.03595,-22.972105
-0.189697,0.851563,-0.543701,12.931823,4.02832,-24.314878
-0.148193,0.871582,-0.511719,11.116027,6.774902,-23.307798
-0.162109,0.845215,-0.527832,13.084411,4.951477,-20.484922
-0.149658,0.798828,-0.577881,9.70459,3.578186,-18.447876
-0.066406,0.811523,-0.566895,2.731323,3.608703,-20.751951
0.084229,0.805176,-0.577637,-0.923157,0.62561,-27.565001
-0.149902,0.83667,-0.531494,-0.541687,-5.065917,-37.101746
-0.363037,0.880859,-0.508057,4.188538,-5.28717,-33.958435
-0.163086,0.888428,-0.488037,10.810851,2.723694,-25.382994
-0.121338,0.849854,-0.523438,17.623901,1.098633,-22.331236
-0.230469,0.79541,-0.583496,17.39502,-3.494262,-20.698545
-0.20459,0.811279,-0.572021,10.879516,-1.449585,-19.90509
-0.122559,0.805176,-0.570801,5.187988,-1.365662,-21.301268
-0.108643,0.795654,-0.576172,0.38147,-4.981995,-27.915953
-0.097412,0.824707,-0.544434,-3.555298,-7.67517,-37.643433
0.010986,0.894043,-0.449951,-0.045776,-10.551452,-44.029232
-0.166748,0.792969,-0.573486,9.887695,-15.220641,-43.434139
-0.449707,0.755371,-0.595215,5.393981,-13.496398,-41.297909
-0.354004,0.810303,-0.582275,-3.77655,2.388,-34.538269
-0.15332,0.803467,-0.56665,-9.32312,11.550902,-31.753538
-0.179443,0.810547,-0.547852,-11.444091,5.508422,-35.400391
-0.229248,0.830078,-0.513184,-11.871337,-3.051758,-41.671749
-0.100342,0.843506,-0.531494,-10.231017,-6.126403,-48.408504
0.054443,0.854736,-0.517334,-8.369446,-8.117676,-51.933285
-0.192139,0.771973,-0.589111,-5.203247,-15.502929,-52.215572
-0.499023,0.77002,-0.575195,-12.145995,-23.54431,-52.238461
-0.446289,0.824707,-0.544189,-18.463135,-12.947082,-46.257015
-0.283936,0.832031,-0.509033,-20.149229,-1.869202,-43.449398
-0.249268,0.826904,-0.503662,-19.935608,-5.737304,-46.501156
-0.054932,0.883545,-0.455566,-14.305114,-15.48767,-45.845028
0.005127,0.88208,-0.473633,2.716064,-19.638062,-41.511532
-0.322754,0.765869,-0.584717,11.039733,-29.609678,-45.852657
-0.50293,0.710938,-0.604492,3.318786,-35.018921,-40.229794
-0.519775,0.802734,-0.548828,-6.370544,-20.51544,-30.555723
-0.334473,0.845215,-0.522705,-12.619018,-7.987976,-26.130674
-0.295654,0.804932,-0.512939,-13.107299,-5.088806,-27.976988
-0.364014,0.808105,-0.510742,-13.923644,-12.763976,-31.723021
-0.230469,0.837158,-0.475098,-13.191222,-14.884948,-33.859253
-0.075928,0.877441,-0.46875,-2.189636,-10.711669,-34.973145
-0.368164,0.79248,-0.555664,6.225585,-16.159058,-39.588928
-0.539551,0.729492,-0.541016,0.205994,-27.290342,-35.324097
-0.449951,0.804199,-0.532715,-4.180908,-16.12854,-26.077269
-0.305664,0.828125,-0.525635,-9.613037,-7.843017,-27.900694
-0.353271,0.789307,-0.522705,-11.634826,-14.953612,-32.89032
-0.419189,0.793457,-0.45166,-13.59558,-23.941038,-35.392761
-0.287109,0.812744,-0.438965,-6.370544,-21.614073,-34.996033
-0.227539,0.83374,-0.461426,6.027221,-12.542724,-31.890867
-0.505127,0.725342,-0.605957,9.162903,-13.824462,-29.754637
-0.643311,0.724365,-0.560547,-5.592346,-16.921997,-21.537779
-0.420654,0.813965,-0.502197,-14.976501,-6.04248,-15.556334
-0.285645,0.824951,-0.517334,-17.723083,-2.380371,-19.65332
-0.427734,0.782227,-0.503662,-21.64459,-8.895874,-27.648924
-0.360352,0.795898,-0.439697,-22.438047,-13.351439,-30.265806
-0.202881,0.86792,-0.427002,-9.315491,-9.162903,-26.031492
-0.385254,0.802246,-0.492188,-1.808166,-11.138915,-26.847837
-0.550781,0.800049,-0.452637,4.585266,-16.563416,-21.919249
-0.562744,0.786865,-0.476074,7.698059,-15.640258,-15.472411
-0.429443,0.768311,-0.543945,1.838684,-9.124756,-16.868591
-0.355957,0.804688,-0.507324,-4.66156,-9.506226,-22.071836
-0.35083,0.792725,-0.477051,-6.034851,-15.86914,-26.802061
-0.269775,0.822754,-0.427734,-0.511169,-19.378662,-25.505064
-0.448486,0.819092,-0.461426,8.728027,-21.01898,-22.109983
-0.65332,0.748047,-0.489746,11.039733,-22.628782,-19.187927
-0.575195,0.737305,-0.487549,7.957458,-14.73236,-15.571593
-0.406006,0.790039,-0.473633,4.524231,-6.912231,-15.975951
-0.338623,0.794922,-0.507568,2.799988,-6.370544,-19.866943
-0.321777,0.78418,-0.509766,1.098633,-13.488769,-23.773191
-0.452881,0.804688,-0.44043,4.440308,-21.598814,-23.269651
-0.452637,0.810547,-0.4104,13.328551,-23.147581,-18.119812
-0.530518,0.834229,-0.425293,23.735044,-21.125792,-14.030456
-0.64917,0.710449,-0.489014,25.0473,-16.906738,-16.059875
-0.513672,0.696533,-0.570801,17.158508,-7.118225,-17.372131
-0.470947,0.731689,-0.519043,7.43103,-5.851745,-21.667479
-0.5979,0.67334,-0.463623,1.373291,-7.629394,-20.881651
-0.561035,0.703857,-0.503418,-1.579285,-0.030518,-11.07788
-0.372803,0.802246,-0.523926,-5.142211,5.317688,-7.04956
-0.414307,0.793457,-0.485107,-5.226135,-2.296448,-9.437561
-0.517822,0.759277,-0.47876,-3.715515,-8.560181,-10.0708
-0.494385,0.734619,-0.481934,-7.492065,-6.683349,-14.205932
-0.421143,0.759766,-0.512939,-11.299132,-5.050659,-18.058777
-0.499023,0.739258,-0.496582,-15.327453,-8.369446,-22.193907
-0.500977,0.731445,-0.487061,-17.50946,-8.079529,-21.942137
-0.531494,0.790283,-0.438965,-13.809203,-7.263183,-17.364502
-0.526611,0.779297,-0.395752,-6.385803,-8.255005,-11.154174
-0.562256,0.71875,-0.450684,-4.058838,-4.371643,-8.94928
-0.606934,0.67334,-0.474365,-9.559631,2.288818,-10.581969
-0.473389,0.772217,-0.512939,-13.130187,8.773804,-8.407593
-0.311279,0.799316,-0.543213,-16.372681,4.043579,-12.039184
