ax,ay,az,gx,gy,gz
-0.474121,-0.554199,-0.0625,-16.281128,-72.067261,-23.971556
-0.057617,-0.712891,-0.14209,-42.594906,-21.591185,-13.84735
-0.012939,-0.830078,-0.161621,-49.484249,46.600338,-6.950378
-0.442627,-0.836914,-0.165527,-41.450497,103.080742,9.269714
-0.956299,-0.774414,-0.104492,-34.179688,120.010368,26.153563
-1.130615,-0.743164,-0.104492,-33.470154,103.248589,24.29962
-1.003174,-0.743164,-0.140625,-30.235289,75.675964,15.159606
-0.894043,-0.735352,-0.150635,-21.171568,54.397579,10.993957
-0.911133,-0.688232,-0.129639,-12.123107,39.047241,9.025574
-0.864746,-0.656006,-0.082031,-8.773804,21.499632,8.277893
-0.730469,-0.637451,-0.042969,-8.750916,4.951477,7.789611
-0.634521,-0.604736,0.012695,-9.132385,-5.302429,6.515502
-0.595703,-0.577148,0.05542,-10.726928,-10.787963,7.118225
-0.560059,-0.569092,0.048584,-13.137816,-14.686584,9.33075
-0.533691,-0.560303,0.050049,-15.411376,-19.15741,14.076232
-0.54541,-0.534912,0.077148,-18.234253,-24.04785,21.308897
-0.552734,-0.500732,0.089111,-23.452757,-30.433653,28.564451
-0.50293,-0.467285,0.127441,-31.85272,-38.002014,33.531189
-0.45166,-0.444824,0.206543,-43.006893,-44.845577,38.482666
-0.483887,-0.441406,0.324707,-53.482052,-52.841183,46.463009
-0.492188,-0.422119,0.341553,-58.845516,-59.17358,60.150143
-0.393555,-0.394043,0.230225,-59.509274,-60.714718,83.023064
-0.260498,-0.373779,0.138428,-51.376339,-50.415035,104.606621
-0.141846,-0.317871,0.133545,-35.682678,-20.095823,116.577141
-0.138428,-0.184326,0.253174,-32.325745,14.579772,128.746033
-0.297607,-0.119873,0.176514,-55.198666,36.849976,137.031555
-0.599365,-0.100098,0.009521,-65.750122,60.104366,131.217957
-0.875732,0.013672,-0.018311,-53.710934,93.048088,129.112244
-1.029541,0.189697,0.077393,-53.077694,112.197868,137.924194
-1.059082,0.294434,0.101563,-82.382195,100.753777,140.151978
-0.967041,0.302002,0.028564,-135.360718,75.3479,138.671875
-0.734863,0.280029,-0.019775,-186.309799,65.574646,142.997742
-0.544434,0.214111,-0.027832,-224.395737,65.818787,153.213501
-0.462891,0.123535,0.009277,-248.817429,74.684143,160.041809
-0.504639,0.080322,0.102295,-249.992355,90.354912,159.27887
-0.64502,0.109619,0.13501,-249.702438,104.461662,156.677246
-0.828369,0.213623,-0.006592,-246.498093,105.987541,157.00531
-0.904297,0.373535,-0.200928,-230.110153,93.055717,163.230881
-0.949707,0.556885,-0.288818,-217.285141,65.185547,176.147446
-0.911133,0.730957,-0.212891,-218.18541,32.806396,186.492905
-0.780762,0.878906,-0.182617,-233.528122,2.090454,195.327744
-0.813721,0.939697,-0.334961,-249.992355,-32.966614,209.800705
-0.954102,0.945801,-0.552246,-249.992355,-69.877625,222.274765
-0.978027,0.944092,-0.680664,-249.67955,-110.29052,234.794601
-0.906006,0.995361,-0.709473,-249.992355,-160.324097,249.992355
-0.802002,1.071289,-0.747314,-249.992355,-213.584885,249.992355
-0.742188,1.12207,-0.85791,-249.992355,-249.992355,249.725327
-0.915283,1.166504,-0.995361,-249.992355,-248.535141,249.977097
-0.779785,1.324707,-1.041748,-229.194626,-187.889084,249.992355
-0.758301,1.779541,-0.838379,-160.125732,-96.633904,249.992355
-0.964844,1.908936,-0.926025,-126.144402,-19.439697,249.992355
-1.110596,1.996338,-0.900879,-132.30896,28.07617,249.992355
-1.046875,1.494873,-0.870361,-167.778,50.628658,249.992355
-1.214844,1.464111,-0.85376,-143.814087,69.297791,249.992355
-1.256104,1.454834,-0.733887,-104.896538,60.577389,239.631638
-1.176025,1.239502,-0.699951,-80.749504,38.787842,198.410019
-1.105713,1.144775,-0.661377,-57.937618,18.112183,196.334824
-1.081055,1.116211,-0.636475,-33.64563,-3.105163,214.462265
-1.061768,1.132568,-0.609131,-8.796692,-26.611326,214.164719
-1.005127,1.14624,-0.598877,11.543273,-53.245541,199.623093
-0.891357,1.159912,-0.61084,27.481077,-78.994751,179.275497
-0.763672,1.169922,-0.618652,40.504452,-100.563042,159.797668
-0.620117,1.176758,-0.612061,49.003597,-115.272514,143.77594
-0.508789,1.169189,-0.583252,51.452633,-123.611443,131.584167
-0.453369,1.148438,-0.556396,51.170345,-126.617424,119.926445
-0.412598,1.123779,-0.542969,51.979061,-126.129143,108.192436
-0.373291,1.133789,-0.521484,55.5191,-124.595634,100.448601
-0.355225,1.154297,-0.476563,58.54034,-121.284477,98.579399
-0.369141,1.174561,-0.439941,60.134884,-115.165703,100.58593
-0.418457,1.182373,-0.408936,61.096188,-105.331413,104.469292
-0.466064,1.166016,-0.342529,60.18829,-89.889519,107.482903
-0.530518,1.13501,-0.207031,57.579037,-69.190979,107.13958
-0.597168,1.099609,-0.029785,56.15234,-39.672852,103.85894
-0.581787,1.07373,0.070801,62.19482,-2.037048,103.370659
-0.566406,1.061035,0.060791,73.692322,34.599304,107.51342
-0.562988,1.041748,-0.003906,81.726067,67.939758,109.191887
-0.536377,1.025146,-0.089844,82.756035,97.541801,105.514519
-0.509277,1.010498,-0.170898,74.577332,121.345512,100.71563
-0.507324,0.996826,-0.25415,58.532711,140.335083,98.983757
-0.5271,0.98584,-0.342285,38.42926,154.747009,99.685661
-0.5625,0.99707,-0.393311,19.287109,166.069016,97.549431
-0.615479,1.037354,-0.399902,2.716064,174.781784,87.020866
-0.677246,1.054932,-0.387451,-14.213561,178.329453,67.512512
-0.743408,1.023438,-0.401123,-30.494688,176.948532,47.95837
-0.828125,0.96582,-0.415283,-43.55621,167.65593,34.896851
-0.865479,0.91333,-0.433838,-51.445004,149.780273,26.748655
-0.887207,0.89624,-0.462891,-48.606869,124.938957,20.172117
-0.915039,0.92334,-0.445313,-34.690857,97.457878,11.978148
-0.863281,0.97876,-0.406982,-21.606443,75.386047,0.228882
-0.788574,1.012207,-0.389648,-17.219543,57.273861,-10.337829
-0.719238,1.012695,-0.35083,-20.523069,44.174191,-17.723083
-0.669189,0.985107,-0.323242,-23.818968,38.482666,-21.553038
-0.675049,0.946533,-0.275635,-18.882751,37.994385,-23.735044
-0.585205,0.931396,-0.255859,-8.331299,43.342587,-29.266356
-0.444092,0.97168,-0.265625,9.315491,46.150204,-28.152464
-0.398438,1.073975,-0.243408,30.731199,39.558411,-22.819517
-0.412354,1.188232,-0.201416,42.587276,28.808592,-22.232054
-0.41626,1.229492,-0.173096,39.619446,15.60974,-28.419493
-0.386475,1.17749,-0.16333,29.823301,0.495911,-36.132813
-0.334961,1.107422,-0.107178,23.963926,-16.151428,-37.155151
-0.270264,1.0354,-0.035889,23.010252,-38.391113,-28.182981
-0.205078,0.967041,-0.051758,24.650572,-62.683102,-15.686034
-0.145752,0.945801,-0.109619,32.081604,-77.75116,-4.447937
-0.115967,0.966309,-0.150879,40.946957,-78.987122,4.570007
-0.138428,1.005371,-0.193848,42.076107,-74.432373,9.811401
-0.155762,1.045654,-0.22876,37.010193,-65.345764,11.100768
-0.176758,1.066895,-0.227783,26.794432,-58.662411,10.932921
-0.206543,1.045654,-0.242188,11.138915,-56.388851,9.95636
-0.210693,0.993896,-0.265137,-1.76239,-54.916378,8.331299
-0.220215,0.946045,-0.290527,-9.910583,-51.765438,6.04248
-0.239258,0.914551,-0.314453,-12.573241,-48.912045,4.219055
-0.250244,0.916016,-0.314453,-9.658813,-47.744747,3.852844
-0.237061,0.936523,-0.31665,-6.202697,-47.348019,3.753662
-0.145996,0.975342,-0.313721,-4.013062,-46.134945,4.692078
-0.070068,1.037842,-0.304932,0.068665,-46.806332,12.229918
-0.102295,1.060303,-0.243896,6.41632,-48.011776,18.737793
-0.130371,1.024902,-0.256104,6.820678,-44.105526,12.268065
-0.168945,0.988525,-0.324951,7.858276,-37.887573,2.059937
-0.203857,0.974121,-0.366211,11.016845,-33.279419,-5.325317
-0.191895,0.971924,-0.371094,12.84027,-31.776426,-8.300781
-0.142334,0.974854,-0.360107,12.779235,-32.463074,-9.979248
-0.101074,0.9646,-0.349609,10.765075,-32.073975,-12.115478
-0.095459,0.944092,-0.344238,8.712769,-27.94647,-14.419555
-0.108398,0.929199,-0.349121,8.19397,-20.866392,-15.983581
-0.119141,0.938232,-0.366943,10.719298,-14.205932,-15.632628
-0.129639,0.980469,-0.361328,15.480041,-9.872437,-11.177062
-0.124756,1.020996,-0.344727,16.975403,-9.155273,-8.590698
-0.106201,1.038818,-0.335205,13.999938,-11.169433,-11.566161
-0.095703,1.040039,-0.317383,9.521484,-14.801024,-16.212463
-0.105957,1.023682,-0.298828,5.249023,-18.470764,-19.721985
-0.127686,1.000977,-0.297363,2.037048,-21.77429,-20.63751
-0.158936,0.986084,-0.291016,0.106812,-26.550291,-18.745422
-0.196289,0.98291,-0.28125,-0.724792,-33.050537,-15.144347
-0.220215,0.996826,-0.271973,0.808716,-39.871216,-9.849548
-0.237549,1.013916,-0.254639,3.890991,-45.486446,-5.119323
-0.257813,1.020264,-0.24707,4.234314,-48.797604,-4.333496
-0.28833,1.011963,-0.254395,1.63269,-50.86517,-6.462097
-0.312012,0.987305,-0.255371,-1.686096,-53.977962,-9.407043
-0.293213,0.951904,-0.245605,-3.730774,-58.982845,-11.749267
-0.240234,0.930664,-0.213867,-1.716614,-64.659119,-10.94818
-0.207764,0.922852,-0.188965,3.974914,-69.023132,-8.590698
-0.186035,0.922607,-0.205566,8.918762,-68.138123,-8.705139
-0.161377,0.914551,-0.214355,12.634276,-62.599178,-8.880615
-0.109131,0.911133,-0.196533,14.900207,-55.061337,-10.131835
-0.067383,0.928711,-0.193359,17.814636,-46.142574,-11.795043
-0.069336,0.965088,-0.202881,21.301268,-34.637451,-11.32965
-0.110107,1.000977,-0.206787,20.774839,-20.759581,-10.505675
-0.192139,1.028564,-0.239014,15.434264,-8.514404,-10.734557
-0.257568,1.042236,-0.268311,8.277893,-1.556396,-11.131286
-0.269043,1.048096,-0.271973,-0.419617,0.62561,-9.407043
-0.258301,1.041504,-0.284424,-9.086609,2.464294,-7.286071
-0.262695,1.031006,-0.309814,-14.945983,4.455566,-6.721496
-0.275146,1.038086,-0.329834,-16.845703,7.04956,-5.706787
-0.302002,1.049316,-0.33667,-18.028259,8.178711,-3.486633
-0.320068,1.047852,-0.343262,-21.354673,6.690979,-1.655578
-0.337158,1.039795,-0.342041,-24.688719,3.27301,-1.083374
-0.35791,1.023682,-0.342285,-26.664732,-1.960754,-1.64032
-0.36792,1.003906,-0.35083,-26.336668,-8.460999,-2.14386
-0.365479,0.986328,-0.348145,-22.65167,-14.747619,-1.586914
-0.354248,0.980469,-0.336914,-17.875671,-20.278929,-0.839233
-0.345703,0.979492,-0.331299,-12.733459,-25.070189,0.549316
-0.351074,0.982666,-0.318359,-7.80487,-29.830931,1.594543
-0.361084,0.987793,-0.307861,-3.90625,-35.064697,1.800537
-0.362793,0.990723,-0.297852,-0.953674,-40.626522,1.647949
-0.36084,0.990479,-0.285156,0.869751,-45.547482,0.602722
-0.361572,0.979004,-0.275635,1.121521,-50.003048,-1.228333
-0.365234,0.963135,-0.27124,0.701904,-54.38232,-3.028869
-0.366211,0.944824,-0.266846,0.617981,-59.089657,-3.77655
-0.370605,0.932617,-0.265137,1.213074,-64.300537,-3.14331
-0.370605,0.931152,-0.259521,2.807617,-68.832397,-2.204895
-0.35791,0.941406,-0.24707,4.91333,-71.922302,-1.289368
-0.34668,0.957764,-0.230713,6.065368,-73.509216,-0.190735
-0.351807,0.969482,-0.223877,5.485534,-74.607849,0.595093
-0.359863,0.97876,-0.22168,4.577637,-76.301575,1.060486
-0.368164,1.000977,-0.204346,4.486084,-78.056335,1.51062
-0.363525,1.024902,-0.19458,4.447937,-79.139709,1.716614
-0.353027,1.036865,-0.195557,2.914428,-80.451958,1.76239
-0.343994,1.031006,-0.195557,-0.305176,-80.589287,1.113892
-0.337402,1.01416,-0.190186,-3.761291,-79.658508,0.335693
-0.326904,0.993896,-0.188477,-6.04248,-77.590942,-0.343323
-0.319824,0.974609,-0.184326,-7.072448,-74.134827,-0.541687
-0.305664,0.963379,-0.17749,-6.538391,-69.107056,-0.869751
-0.29541,0.96582,-0.169434,-5.386352,-63.240047,-1.716614
-0.302002,0.97168,-0.165039,-4.447937,-57.365414,-2.670288
-0.318359,0.984131,-0.15918,-3.540039,-52.429195,-3.349304
-0.330322,1.002441,-0.155273,-2.326965,-49.026485,-3.372192
-0.328857,1.019043,-0.151367,-1.899719,-47.042843,-3.494262
-0.322998,1.018799,-0.151123,-3.311157,-45.516964,-3.677368
-0.334473,1.012695,-0.157715,-4.981995,-44.494625,-3.601074
-0.34082,1.00293,-0.158691,-5.851745,-45.326229,-3.532409
-0.328125,1.001465,-0.154785,-4.714966,-45.768734,-2.876281
-0.311035,0.999756,-0.141602,-3.158569,-45.120235,-1.098633
-0.307129,0.995361,-0.144043,-2.426147,-42.228695,0.045776
-0.317383,0.997559,-0.145996,-2.174377,-40.260311,-0.1297
-0.321533,1.004883,-0.151611,-1.838684,-39.81781,-0.442505
-0.30835,1.010498,-0.150391,-1.251221,-38.894653,0.488281
-0.2854,1.015137,-0.148193,-1.518249,-34.896851,1.213074
-0.276855,1.00708,-0.150635,-3.051758,-28.366087,0.938415
-0.284668,0.998535,-0.149414,-4.364014,-20.729063,0.007629
-0.288574,0.99585,-0.145996,-4.257202,-12.825011,-1.098633
-0.291992,0.99707,-0.142578,-3.921509,-5.332946,-2.212524
-0.303711,0.997314,-0.144531,-3.433227,1.075745,-2.746582
-0.310303,1.005371,-0.14917,-2.365112,6.584167,-2.311707
-0.319092,1.015625,-0.139648,-0.274658,11.039733,-0.50354
-0.333252,1.009277,-0.134033,0.740051,14.183043,0.198364
-0.338623,0.996826,-0.137451,0.62561,16.448975,-0.686645
-0.345947,0.98999,-0.140869,0.724792,17.829895,-1.525879
-0.352539,0.989502,-0.152344,1.281738,18.257141,-1.861572
-0.35791,0.993896,-0.159424,1.304626,17.883301,-1.808166
-0.363281,1.0,-0.161377,0.144958,16.403198,-1.419067
-0.366455,1.004395,-0.163574,-2.944946,13.771056,-0.915527
-0.369629,1.003174,-0.163574,-6.759643,10.551452,-0.473022
-0.368408,0.991943,-0.168701,-10.009766,7.904052,-0.25177
-0.366699,0.987061,-0.170898,-10.688781,5.928039,0.473022
-0.375,0.984863,-0.169189,-10.2005,3.822326,1.182556
-0.385254,0.98584,-0.162109,-9.803772,1.052856,1.335144
-0.385254,0.990723,-0.155273,-8.834839,-2.632141,1.609802
-0.377686,0.997803,-0.153564,-7.728576,-6.759643,1.518249
-0.365479,0.996338,-0.1521,-8.239746,-10.009766,1.586914
-0.354492,0.988037,-0.153809,-8.834839,-11.734008,1.792908
-0.342285,0.981201,-0.151367,-8.361816,-11.71112,1.716614
-0.33252,0.978516,-0.155273,-7.690429,-9.620667,1.296997
-0.327393,0.982422,-0.152832,-6.904602,-6.347656,0.732422
-0.323975,0.981689,-0.149902,-6.29425,-2.098083,0.106812
-0.333984,0.980713,-0.150146,-5.088806,1.716614,-0.419617
-0.341309,0.994629,-0.139893,-3.27301,4.501343,-0.869751
-0.337646,1.007324,-0.136719,-2.349854,6.858825,-0.862122
-0.341309,1.010254,-0.135498,-2.494812,7.93457,-1.083374
-0.346436,0.995361,-0.136475,-4.173279,8.232117,-1.724243
-0.351563,0.977783,-0.136719,-5.378723,7.453918,-1.922607
-0.352295,0.959229,-0.141602,-5.142211,5.943298,-1.037598
-0.347656,0.957031,-0.141846,-3.158569,4.776001,0.236511
-0.352051,0.964111,-0.137451,-1.464844,3.852844,1.342773
-0.361816,0.973633,-0.135254,-0.106812,3.097534,2.235413
-0.373535,0.979004,-0.134277,0.62561,2.159119,3.356933
-0.377441,0.981689,-0.134521,1.106262,0.694275,4.493713
-0.374268,0.987793,-0.13623,2.159119,-1.052856,5.41687
-0.372314,0.998779,-0.130371,4.173279,-2.822876,7.629394
-0.377686,1.005371,-0.128662,5.844116,-4.447937,9.635925
-0.378174,1.003418,-0.130859,5.126953,-5.966186,8.865356
-0.369385,0.994385,-0.133057,3.219604,-6.530761,6.66809
-0.36084,0.986816,-0.134521,1.396179,-6.370544,5.203247
-0.358398,0.982422,-0.137451,0.579834,-6.080627,4.615784
-0.363525,0.984375,-0.134766,0.717163,-5.737304,4.142761
-0.36499,0.98291,-0.128662,0.488281,-5.752563,2.662658
-0.363037,0.977539,-0.127197,0.198364,-5.645751,0.808716
-0.369629,0.981689,-0.128174,1.274109,-5.493164,-0.160217
-0.373779,0.998779,-0.124268,2.677917,-5.950927,-0.396728
-0.370117,1.00708,-0.126465,3.356933,-7.072448,-0.541687
-0.365479,1.008057,-0.131104,2.777099,-8.148193,-1.182556
-0.363037,0.994873,-0.132324,1.220703,-8.69751,-2.075195
-0.359863,0.985107,-0.13208,0.602722,-8.796692,-2.624511
-0.358887,0.97998,-0.135498,0.556946,-9.162903,-1.914978
-0.360596,0.983887,-0.133545,2.342224,-9.727478,-0.442505
-0.365479,1.006104,-0.128174,4.989624,-10.742187,1.281738
-0.375488,1.036865,-0.125,7.110595,-12.481688,2.830505
-0.377686,1.068359,-0.122803,7.5531,-13.870238,4.135132
-0.377441,1.084229,-0.120117,5.981445,-15.419005,5.729675
-0.379639,1.080566,-0.122314,3.372192,-17.242432,6.54602
-0.376709,1.057373,-0.126221,-0.022888,-18.623352,6.187438
-0.368896,1.026367,-0.129883,-3.295898,-19.668579,5.79071
-0.361572,0.992676,-0.130859,-5.828857,-19.996643,6.118774
-0.353516,0.961182,-0.131348,-7.194519,-19.821167,6.561279
-0.345947,0.936768,-0.130127,-7.484436,-19.378662,6.393432
-0.337891,0.92041,-0.128662,-6.896972,-18.585205,5.447387
-0.332764,0.913086,-0.124268,-5.477905,-17.044067,4.051208
-0.330566,0.916504,-0.125732,-3.64685,-15.220641,2.990722
-0.329102,0.935059,-0.125732,-1.396179,-13.694762,2.380371
-0.328369,0.957275,-0.125977,0.404358,-12.435912,2.037048
-0.325684,0.963867,-0.130859,0.785828,-10.971068,1.708984
-0.325195,0.965576,-0.132568,0.061035,-9.109497,1.144409
-0.321777,0.965332,-0.13623,-0.701904,-7.141113,0.900268
-0.328369,0.9729,-0.136963,-0.259399,-5.455017,1.38855
-0.339355,0.986328,-0.138916,1.396179,-4.524231,2.471924
-0.352783,1.010254,-0.139404,2.563476,-5.203247,3.890991
-0.363281,1.031006,-0.13916,2.525329,-7.575988,6.004333
-0.371338,1.046875,-0.140381,2.13623,-10.833739,8.239746
-0.365479,1.057861,-0.135986,1.853943,-12.748717,9.20105
-0.359863,1.062256,-0.135498,1.296997,-13.114928,9.216309
-0.363037,1.053955,-0.137939,-0.267029,-12.222289,8.331299
-0.366943,1.038086,-0.140137,-1.907349,-10.841369,6.622314
-0.366455,1.020508,-0.137939,-2.76947,-9.376526,5.142211
-0.360596,1.001465,-0.137207,-2.76947,-7.293701,3.829956
-0.355713,0.986328,-0.133545,-1.747131,-4.760742,2.464294
-0.357422,0.980225,-0.130371,0.289917,-2.716064,0.564575
-0.365967,0.985107,-0.125,2.380371,-1.770019,-1.754761
-0.366455,0.993408,-0.120117,4.455566,-2.105713,-3.730774
-0.36084,1.000977,-0.120117,6.080627,-3.425598,-4.936218
-0.351807,0.997314,-0.118896,6.858825,-4.852295,-5.142211
-0.352295,0.989014,-0.118896,7.102966,-5.783081,-4.547119
-0.354248,0.984863,-0.122803,7.347106,-6.622314,-3.952026
-0.350098,0.985107,-0.12207,7.286071,-8.308411,-2.792358
-0.349854,0.989746,-0.119385,7.133483,-10.490417,-0.617981
-0.354248,0.997314,-0.114746,6.820678,-12.794494,1.655578
-0.358398,1.006592,-0.111816,6.782531,-15.35797,3.837585
-0.357666,1.01709,-0.116699,6.42395,-18.356323,5.851745
-0.357666,1.032471,-0.116943,5.79071,-21.507261,7.858276
-0.360596,1.044922,-0.109863,4.608154,-24.993895,9.216309
-0.362793,1.038086,-0.112061,2.006531,-28.053282,9.887695
-0.362549,1.019531,-0.109375,-0.785828,-30.830381,9.918213
-0.359619,1.006348,-0.105713,-2.349854,-33.294678,9.69696
-0.354248,0.999268,-0.108398,-2.571106,-35.301208,9.559631
-0.345703,1.0,-0.105957,-2.098083,-36.941528,9.376526
-0.334229,1.009766,-0.102783,-1.853943,-37.620544,8.895874
-0.322998,1.014404,-0.098877,-2.670288,-36.659241,8.094788
-0.320313,1.012939,-0.095215,-3.379822,-34.698486,7.057189
-0.315918,1.014404,-0.094238,-4.096985,-32.302856,6.095886
-0.313721,1.011963,-0.09375,-4.53186,-30.067442,4.905701
-0.313965,1.011719,-0.09375,-4.699707,-28.175352,3.890991
-0.313721,1.01416,-0.092041,-4.402161,-26.870726,3.379822
-0.310547,1.019531,-0.094238,-4.02832,-25.718687,3.562927
-0.310303,1.023438,-0.098389,-4.203796,-24.92523,3.936767
-0.313232,1.020508,-0.095215,-4.928589,-24.909971,3.890991
-0.312012,1.018066,-0.093994,-5.577087,-25.520323,4.295349
-0.312988,1.016113,-0.095703,-5.577087,-26.710508,5.050659
-0.310791,1.013672,-0.091064,-4.859924,-28.045652,5.905151
-0.304932,1.012207,-0.088623,-4.180908,-28.869627,6.904602
-0.30249,1.010254,-0.084717,-3.753662,-28.808592,7.659912
-0.299805,1.006592,-0.078369,-3.486633,-27.770994,8.125305
-0.301025,1.001953,-0.075439,-3.326416,-26.260374,8.560181
-0.303467,0.997803,-0.07666,-2.952575,-24.612425,9.017944
-0.299561,0.99707,-0.075195,-2.403259,-23.16284,9.613037
-0.30249,1.000244,-0.073242,-1.38092,-21.408079,10.45227
-0.305176,1.008301,-0.073242,-0.389099,-19.798279,11.07788
-0.309082,1.018555,-0.069824,0.12207,-18.173218,11.268615
-0.314209,1.021973,-0.068115,-0.099182,-16.76178,10.94818
-0.315186,1.022461,-0.064453,-0.259399,-15.594481,10.276793
-0.317139,1.018066,-0.058594,-0.556946,-14.442443,9.559631
-0.319092,1.015625,-0.058105,-1.091003,-13.572692,8.781433
-0.31958,1.00708,-0.058838,-1.365662,-12.931823,8.026123
-0.316406,1.004639,-0.060303,-1.197815,-11.741637,7.591247
-0.314697,1.008057,-0.059814,-0.88501,-9.918213,7.270813
-0.313965,1.012451,-0.060059,-0.88501,-7.720947,6.820678
-0.318115,1.01709,-0.057373,-0.991821,-5.432128,6.210327
-0.314941,1.025391,-0.054932,-1.342773,-3.051758,5.28717
-0.318359,1.027588,-0.053711,-1.869202,-0.549316,4.310608
-0.318115,1.022705,-0.058838,-2.563476,1.502991,2.677917
-0.313965,1.013916,-0.058594,-3.387451,3.456115,1.319885
-0.31543,1.000977,-0.056152,-3.997802,5.462646,0.114441
-0.316895,0.993408,-0.058105,-3.890991,7.110595,-1.228333
-0.318115,0.990479,-0.060791,-3.181457,8.132935,-1.869202
-0.318359,0.997314,-0.060791,-2.113342,8.68988,-1.770019
-0.320068,1.006348,-0.063477,-1.548767,9.20105,-1.205444
-0.324707,1.014404,-0.06665,-1.541138,9.475708,-0.663757
-0.328369,1.017822,-0.066406,-2.067566,9.45282,-0.686645
-0.333252,1.016357,-0.0625,-3.005981,8.758545,-0.686645
-0.335938,1.007813,-0.063965,-3.532409,7.347106,-0.350952
-0.337158,1.004639,-0.066895,-3.128052,5.638122,0.267029
-0.336914,1.005371,-0.068115,-2.464294,3.684997,1.174927
-0.336914,1.007568,-0.067139,-2.296448,1.716614,2.059937
-0.334717,1.007324,-0.067627,-2.334595,0.213623,2.525329
-0.332764,1.007813,-0.067871,-2.388,-1.098633,2.738952
-0.32959,1.00708,-0.069092,-2.662658,-1.853943,2.784729
-0.326172,1.010986,-0.068604,-2.822876,-2.029419,2.677917
-0.324707,1.011963,-0.071533,-2.815246,-1.808166,2.250671
-0.324219,1.011719,-0.071533,-2.883911,-1.091003,1.914978
-0.322754,1.013184,-0.075684,-2.845764,-0.198364,2.075195
-0.324463,1.015869,-0.075684,-2.464294,0.442505,2.037048
-0.323242,1.01709,-0.078369,-1.998901,1.144409,1.281738
-0.321533,1.019287,-0.078125,-1.754761,1.831055,0.465393
-0.322754,1.010742,-0.077637,-1.823425,2.281189,-0.022888
-0.322021,1.006592,-0.080322,-1.678467,2.311707,-0.740051
-0.319824,1.001709,-0.082275,-0.991821,2.098083,-1.403808
-0.316406,0.999268,-0.081543,-0.244141,1.899719,-1.586914
-0.315186,0.999756,-0.08374,0.541687,1.541138,-1.724243
-0.314209,1.003174,-0.081787,1.342773,1.014709,-1.815796
-0.317871,1.008301,-0.076904,2.204895,0.053406,-1.586914
-0.318604,1.018066,-0.072754,3.601074,-1.00708,-1.159668
-0.316895,1.026611,-0.073242,4.447937,-2.166748,-0.587463
-0.314941,1.030273,-0.072266,4.66156,-3.044128,-0.259399
-0.313477,1.030518,-0.066895,4.295349,-3.532409,-0.053406
-0.312012,1.0271,-0.064209,3.814697,-3.692627,0.038147
-0.307617,1.023682,-0.061035,3.585815,-3.364563,0.015259
-0.305908,1.023682,-0.057861,3.540039,-2.799988,-0.007629
-0.307617,1.021484,-0.055908,3.578186,-2.029419,-0.083923
-0.307129,1.020508,-0.054443,3.128052,-1.174927,-0.259399
-0.303955,1.020264,-0.053223,2.593994,-0.160217,-0.686645
-0.303711,1.022217,-0.047607,2.288818,1.00708,-1.281738
-0.305664,1.020752,-0.045166,2.311707,2.174377,-1.419067
-0.306885,1.019531,-0.046387,2.204895,3.227234,-1.777649
-0.306152,1.018066,-0.043945,2.204895,4.165649,-2.471924
-0.30542,1.013916,-0.041504,2.319336,4.508972,-2.799988
-0.304199,1.013916,-0.044189,2.700805,4.455566,-2.708435
-0.305908,1.018799,-0.044922,3.349304,4.364014,-2.532959
-0.30835,1.018555,-0.046143,3.448486,4.203796,-2.02179
-0.310059,1.017334,-0.046631,3.067016,3.921509,-1.930237
-0.308594,1.015625,-0.046387,2.822876,3.509521,-1.693725
-0.311523,1.019043,-0.050537,2.731323,2.983093,-0.480652
-0.315674,1.022461,-0.051758,2.655029,1.945495,0.205994
-0.315674,1.031738,-0.053467,2.792358,0.709534,1.121521
-0.322266,1.040527,-0.052246,2.494812,-0.358582,2.189636
-0.325684,1.044922,-0.049072,1.701355,-1.373291,2.548218
-0.330566,1.037598,-0.044922,0.663757,-2.357483,2.815246
-0.328125,1.027588,-0.047119,0.114441,-3.425598,2.365112
-0.324463,1.019043,-0.047119,0.061035,-4.325867,2.418518
-0.325684,1.015869,-0.04834,0.0,-4.989624,2.502441
-0.323242,1.014404,-0.050049,-0.106812,-5.378723,2.037048
-0.324707,1.009277,-0.049072,-0.63324,-5.531311,1.731872
-0.324707,1.009277,-0.053467,-1.159668,-5.577087,1.220703
-0.325928,1.010254,-0.057373,-1.602173,-5.950927,0.717163
-0.32666,1.01001,-0.056396,-2.059937,-6.607055,0.511169
-0.325928,1.013184,-0.057373,-2.159119,-7.438659,0.450134
-0.317871,1.02002,-0.057861,-1.747131,-7.904052,0.366211
-0.310303,1.029785,-0.062988,-1.281738,-8.087158,0.816345
-0.309814,1.028076,-0.06958,-1.846313,-8.087158,0.930786
-0.30542,1.020264,-0.076172,-2.983093,-7.6828,0.007629
-0.302002,1.009033,-0.075928,-3.40271,-7.003784,-1.167297
-0.300537,1.000732,-0.078613,-3.005981,-6.340026,-1.296997
-0.300781,0.999512,-0.080566,-1.808166,-5.897521,-0.862122
-0.302734,1.00293,-0.081055,-0.205994,-5.653381,-0.297546
-0.305664,1.007813,-0.08252,0.816345,-6.011962,0.320435
-0.305176,1.007568,-0.08374,1.411438,-6.523132,0.694275
-0.305908,1.008057,-0.086914,2.174377,-7.04956,0.88501
-0.306152,1.010742,-0.085449,2.89154,-7.850646,1.518249
-0.308105,1.016113,-0.086914,3.440857,-8.552551,1.953125
-0.30957,1.02002,-0.085938,4.104614,-9.307861,2.326965
-0.311279,1.026123,-0.086182,4.974365,-10.086059,2.777099
-0.30957,1.026367,-0.083008,5.264282,-10.673522,2.822876
-0.30835,1.023926,-0.081299,4.928589,-11.032104,2.388
-0.310059,1.020508,-0.080322,5.126953,-11.138915,2.258301
-0.309326,1.020996,-0.07959,5.264282,-11.054992,2.433777
-0.307373,1.019775,-0.077148,5.043029,-10.848998,2.738952
-0.304443,1.019531,-0.077393,4.981995,-10.902404,2.754211
-0.302002,1.019287,-0.07959,5.111694,-11.192321,2.593994
-0.299072,1.022705,-0.076172,5.134582,-11.123656,2.426147
-0.297363,1.018799,-0.074463,4.692078,-10.742187,1.998901
-0.296387,1.011719,-0.072021,4.478455,-10.337829,1.335144
-0.296875,1.005615,-0.074951,4.432678,-10.147094,0.991821
-0.294434,1.003418,-0.075195,5.371093,-10.093688,1.205444
-0.294189,1.006104,-0.076416,6.568908,-10.276793,1.594543
-0.299805,1.01709,-0.077393,7.453918,-10.932921,2.113342
-0.289551,1.028076,-0.076172,8.209229,-11.20758,2.548218
-0.282959,1.042725,-0.078857,8.796692,-11.344909,2.990722
-0.279541,1.046875,-0.081543,7.888793,-10.879516,2.220154
-0.273926,1.035645,-0.084229,6.019592,-9.780884,0.740051
-0.270752,1.018066,-0.088135,4.966736,-8.44574,-0.411987
-0.267822,1.006836,-0.091553,4.989624,-6.759643,-0.564575
-0.273682,1.003662,-0.090088,5.897521,-5.767822,0.328064
-0.279541,1.006104,-0.085205,7.110595,-5.91278,1.594543
-0.2854,1.008789,-0.082275,7.995605,-7.202148,2.548218
-0.286133,1.006592,-0.082275,8.758545,-9.010315,3.448486
-0.285645,1.004883,-0.081787,9.628296,-10.810851,4.653931
-0.285156,1.00415,-0.083008,10.597228,-12.176513,5.973815
-0.283447,1.005615,-0.084717,11.398314,-13.229369,7.30133
-0.285645,1.006836,-0.087402,11.749267,-14.09912,8.354187
-0.29126,1.009766,-0.087646,11.680602,-15.083312,9.346008
-0.294678,1.010986,-0.084717,11.550902,-15.998839,10.017395
-0.298096,1.009766,-0.084229,11.222838,-17.204285,10.383605
-0.299316,1.005615,-0.087402,10.940551,-18.4021,10.749816
-0.301758,1.000488,-0.083252,10.780334,-19.737244,10.925292
-0.30249,1.003662,-0.083984,10.910033,-21.034239,10.94818
-0.300293,1.00708,-0.086426,11.32965,-22.247313,10.82611
-0.299072,1.01001,-0.090576,11.611938,-23.094175,10.94818
-0.294434,1.020752,-0.099609,12.016295,-23.16284,11.306762
-0.290283,1.03125,-0.10791,12.306212,-22.857664,11.505126
-0.291748,1.042969,-0.114258,11.543273,-22.048948,11.611938
-0.293945,1.043945,-0.117676,10.124206,-20.950315,10.620116
-0.294189,1.030029,-0.12085,8.277893,-19.989014,8.834839
-0.294434,1.006104,-0.122559,7.461547,-19.668579,7.17926
-0.292969,0.988037,-0.120605,8.018494,-19.561768,6.248474
-0.294434,0.97876,-0.118652,9.849548,-19.851685,5.615234
-0.295898,0.976318,-0.117432,12.08496,-20.523069,4.882813
-0.296143,0.979492,-0.119141,13.710021,-21.850584,4.119873
-0.290283,0.977539,-0.119629,14.587401,-23.109434,3.456115
-0.283203,0.978027,-0.121094,14.762877,-24.063108,3.211975
-0.278076,0.977783,-0.125732,15.1062,-24.566648,3.417969
-0.2771,0.987549,-0.125732,15.983581,-24.703978,3.753662
-0.27832,0.99707,-0.123047,16.220093,-25.123594,4.15802
-0.276123,1.000244,-0.121094,15.457152,-25.581358,4.547119
-0.279053,1.000732,-0.121338,15.029906,-26.588438,5.500793
-0.284668,1.008545,-0.12793,15.510558,-28.549192,6.156921
-0.277344,1.016357,-0.145264,16.639709,-30.654905,7.392883
-0.268066,1.047363,-0.161865,18.4021,-32.402039,9.613037
-0.26416,1.070068,-0.165283,18.135071,-32.943726,11.421203
-0.265625,1.075928,-0.166504,15.762328,-32.669067,12.763976
-0.268555,1.069092,-0.162109,13.72528,-33.363342,13.671874
-0.27832,1.067139,-0.151367,13.47351,-34.942627,13.893126
-0.277832,1.054688,-0.133789,14.030456,-36.857605,13.618468
-0.260254,1.045654,-0.123291,15.151977,-38.818359,13.404845
-0.242432,1.049316,-0.123535,16.639709,-40.115356,14.549254
-0.225342,1.063721,-0.123779,17.692566,-40.122986,16.090393
-0.19751,1.082764,-0.125488,16.304016,-36.987305,16.052246
-0.183594,1.086182,-0.125977,12.161254,-32.684326,14.785766
-0.180908,1.074463,-0.120605,7.225036,-29.106138,12.344359
-0.183838,1.05542,-0.106445,3.128052,-25.939939,10.56671
-0.182129,1.032715,-0.089355,0.488281,-23.124693,9.483337
-0.182129,1.014893,-0.084717,-0.526428,-21.492002,9.124756
-0.189941,1.006836,-0.080322,0.205994,-23.994444,8.659363
-0.177246,1.010498,-0.098145,1.792908,-27.740477,9.620667
-0.165039,1.041992,-0.100586,4.295349,-30.960081,12.344359
-0.14917,1.064453,-0.099854,3.890991,-32.333374,13.732909
-0.13501,1.059082,-0.103027,1.739502,-29.357908,13.778686
-0.125488,1.051514,-0.101318,-0.457764,-23.094175,11.909484
-0.11792,1.0354,-0.110107,-2.861023,-14.244079,9.246826
-0.124756,1.020264,-0.117432,-3.875732,-3.387451,7.133483
-0.13623,1.011963,-0.128662,-3.593445,7.896423,5.653381
-0.152344,1.014648,-0.140137,-2.39563,18.112183,5.142211
-0.177734,1.019531,-0.152344,-1.174927,26.519773,4.653931
-0.197998,1.018311,-0.165527,-0.434875,33.058167,2.624511
-0.211182,1.011963,-0.174561,-0.213623,38.42926,-1.014709
-0.223633,0.990234,-0.182617,-0.038147,42.892452,-4.455566
-0.235596,0.975098,-0.193604,1.495361,46.295162,-7.286071
-0.247803,0.971924,-0.212891,4.837036,47.7066,-8.407593
-0.259766,0.988525,-0.24292,9.658813,46.737667,-6.759643
-0.278564,1.025635,-0.26001,13.801574,43.586727,-3.372192
-0.29126,1.050049,-0.260986,14.518737,38.513184,-0.869751
-0.284912,1.041504,-0.263672,12.397765,33.01239,-1.083374
-0.277832,1.010986,-0.264404,10.421752,27.030943,-2.89154
-0.273193,0.980469,-0.260498,10.429381,20.866392,-4.440308
-0.264648,0.967529,-0.247314,12.46643,16.288757,-4.577637
-0.246826,0.971924,-0.223389,15.602111,14.564513,-3.349304
-0.209717,0.992676,-0.195801,18.52417,19.538879,-2.975464
-0.172852,1.023438,-0.188721,19.798279,33.027649,-4.707336
-0.164063,1.050781,-0.181641,19.752502,51.803585,-7.820129
-0.182861,1.06958,-0.169678,19.042969,71.838379,-11.138915
-0.202393,1.067627,-0.161133,15.342711,89.134209,-14.648437
-0.236084,1.050537,-0.138916,10.742187,99.487297,-17.807007
-0.274658,1.012939,-0.123291,6.340026,101.066582,-20.538328
-0.293701,0.966309,-0.112061,4.28772,94.696037,-23.048399
-0.288574,0.927979,-0.113281,5.0354,83.648674,-23.429869
-0.273193,0.90332,-0.124756,7.8125,72.570801,-21.553038
-0.261719,0.897461,-0.144043,12.275695,63.552853,-18.989563
-0.255615,0.918213,-0.166016,17.990112,56.358334,-17.410278
-0.258545,0.958496,-0.184326,23.16284,50.148006,-16.76178
-0.272705,1.006104,-0.186768,25.787352,43.41888,-16.136169
-0.281494,1.03833,-0.184814,24.032591,35.972595,-15.663146
-0.278809,1.046875,-0.187256,19.294739,28.541563,-14.86206
-0.266846,1.038086,-0.190186,15.083312,22.65167,-13.381957
-0.263916,1.022949,-0.201172,13.488769,18.890381,-11.543273
-0.262695,1.020264,-0.208252,15.182494,16.242981,-10.147094
-0.255859,1.041748,-0.213135,18.951416,14.060973,-9.117126
-0.250977,1.077148,-0.216797,21.369932,11.383056,-7.751464
-0.250732,1.110107,-0.210449,19.691467,7.530212,-6.401062
-0.255615,1.107178,-0.206787,14.633178,0.427246,-5.348205
-0.252441,1.071045,-0.217041,9.712219,-10.223388,-4.554749
-0.23584,1.034424,-0.2229,7.141113,-21.90399,-3.250122
-0.220703,1.012695,-0.226807,6.225585,-32.821655,-0.389099
-0.211182,0.99292,-0.241211,5.424499,-41.41235,3.326416
-0.19873,0.992432,-0.257568,4.852295,-46.714779,7.621765
-0.180908,1.002441,-0.263672,3.379822,-48.370358,12.222289
-0.16626,1.012207,-0.264404,0.602722,-45.539852,15.762328
-0.155518,1.009521,-0.262695,-3.166198,-38.566589,16.189575
-0.149414,0.98584,-0.258789,-6.729125,-27.70233,13.893126
-0.147461,0.963867,-0.255371,-7.957458,-13.015746,10.391234
-0.149658,0.955566,-0.257324,-6.637573,4.653931,6.553649
-0.162842,0.970703,-0.260498,-4.150391,23.79608,3.532409
-0.182861,0.999268,-0.263184,-1.945495,42.114254,1.76239
-0.207275,1.026855,-0.263184,-0.671387,57.861324,-0.12207
-0.234863,1.029053,-0.272217,-1.342773,69.984436,-3.189087
-0.263916,1.013916,-0.270752,-1.350403,77.552795,-8.209229
-0.296631,0.992676,-0.261963,0.50354,78.674316,-13.633727
-0.309326,0.984619,-0.252441,3.593445,75.294495,-17.364502
-0.302002,0.985352,-0.255371,7.186889,72.471619,-19.218445
-0.313721,0.994141,-0.260742,9.925842,69.038391,-19.104004
-0.330811,1.005371,-0.269775,11.390685,63.58337,-18.074036
-0.337158,1.023682,-0.269043,11.573791,56.205746,-16.593933
-0.336914,1.036865,-0.264648,10.307311,46.974178,-14.648437
-0.348389,1.040039,-0.258057,7.896423,34.034729,-12.130736
-0.35498,1.026855,-0.247803,5.386352,17.845154,-9.033203
-0.346191,1.015137,-0.236572,3.952026,1.152039,-5.882263
-0.332275,1.005127,-0.229736,3.65448,-13.153075,-2.746582
-0.313477,1.009766,-0.226563,3.936767,-24.482725,0.900268
-0.299561,1.027344,-0.216309,4.112244,-33.355713,4.692078
-0.28833,1.045898,-0.206543,2.754211,-40.710445,7.820129
-0.276855,1.056885,-0.193604,0.701904,-46.630856,9.70459
-0.262695,1.060059,-0.182617,-2.281189,-51.36108,9.986877
-0.24292,1.05249,-0.175537,-5.943298,-53.977962,9.513855
-0.224854,1.044189,-0.17334,-9.086609,-54.489132,9.269714
-0.213379,1.037598,-0.172607,-12.115478,-52.665707,9.178162
-0.209717,1.038086,-0.181152,-15.624999,-49.232479,9.338379
-0.220215,1.039795,-0.191406,-19.416809,-45.715328,9.887695
-0.227051,1.042725,-0.197021,-22.613523,-43.090816,10.414123
-0.227539,1.044189,-0.210693,-25.161741,-41.244503,10.848998
-0.224365,1.046631,-0.216797,-27.351377,-39.329529,10.932921
-0.221924,1.036621,-0.228027,-29.96826,-36.346436,10.482787
-0.223145,1.022949,-0.234863,-31.433104,-32.066345,9.216309
-0.230225,1.010254,-0.239502,-31.448362,-26.748655,7.575988
-0.241211,1.001709,-0.242676,-30.303953,-21.568296,6.500244
-0.248535,1.008789,-0.245117,-28.160093,-16.639709,6.103515
-0.249756,1.022949,-0.24585,-25.474546,-11.604308,5.79071
-0.250977,1.033203,-0.240723,-23.117064,-5.981445,3.707886
-0.248291,1.032959,-0.236328,-22.842405,0.556946,0.007629
-0.244141,1.016602,-0.230713,-23.857115,8.140564,-4.547119
-0.244141,0.998779,-0.222168,-23.841856,16.63208,-9.155273
-0.252197,0.986572,-0.205566,-22.560118,24.780272,-13.580321
-0.260498,0.980469,-0.194336,-20.835875,31.471251,-17.097473
-0.270264,0.976807,-0.186279,-18.821716,35.972595,-19.165039
-0.281982,0.975586,-0.175293,-16.624451,38.070679,-20.729063
-0.28418,0.981689,-0.166016,-13.999938,38.528442,-22.972105
-0.288086,0.991699,-0.159668,-11.71112,37.155151,-25.497435
-0.284912,0.993164,-0.154053,-10.848998,35.499573,-27.908323
-0.279785,0.990479,-0.148438,-9.933472,34.568787,-29.724119
-0.283936,0.987305,-0.143799,-9.284973,34.072876,-31.204222
-0.291016,0.980469,-0.137695,-8.766174,32.531738,-32.203674
-0.29126,0.97583,-0.13623,-7.827758,30.136106,-32.699585
-0.276611,0.980469,-0.147949,-5.66864,28.488157,-32.775879
-0.28125,0.998535,-0.161133,-3.097534,27.770994,-32.104492
-0.306885,1.014893,-0.175781,-3.135681,26.069639,-31.272886
-0.324951,1.008545,-0.185059,-6.118774,20.347593,-30.540464
-0.32251,0.985596,-0.200928,-9.483337,11.894225,-28.839109
-0.299072,0.970703,-0.21167,-10.19287,4.463196,-26.344297
-0.27002,0.970459,-0.206299,-8.300781,0.976562,-24.54376
-0.274658,0.982178,-0.202881,-5.950927,-0.747681,-23.53668
-0.298828,1.007568,-0.205322,-4.402161,-2.914428,-22.15576
-0.307861,1.041992,-0.198975,-3.585815,-6.080627,-19.088745
-0.302734,1.063721,-0.188232,-3.387451,-10.261535,-15.2359
-0.286865,1.069824,-0.174805,-3.921509,-14.938354,-13.931273
-0.258545,1.049561,-0.165039,-4.974365,-18.90564,-14.038085
-0.228516,1.030518,-0.159668,-5.958557,-20.103453,-13.183593
-0.210938,1.030029,-0.147217,-7.186889,-18.89801,-11.672973
-0.212891,1.023682,-0.142578,-7.545471,-17.433167,-9.315491
-0.231689,1.016846,-0.144531,-5.447387,-18.188477,-7.164001
-0.256592,1.02124,-0.136475,-2.510071,-23.178099,-6.210327
-0.270508,1.046387,-0.130859,-1.312256,-31.715391,-4.79126
-0.208252,1.077881,-0.121338,-4.173279,-39.260864,0.541687
-0.119873,1.082764,-0.101807,-11.734008,-43.151852,9.277344
-0.115967,1.053223,-0.103516,-18.203735,-40.557858,14.160155
-0.162842,1.007568,-0.12793,-20.835875,-35.53009,12.153625
-0.202148,0.967041,-0.143066,-20.286558,-31.646727,7.911682
-0.216309,0.947266,-0.156006,-17.341614,-27.038572,5.599975
-0.218262,0.948242,-0.167725,-13.961791,-19.287109,4.844666
-0.227783,0.952881,-0.168701,-12.657165,-8.19397,3.135681
-0.248535,0.961914,-0.171387,-13.252257,3.410339,1.625061
-0.242432,0.965332,-0.175781,-14.877318,15.411376,2.365112
-0.222656,0.97168,-0.169434,-15.419005,27.359007,4.516602
-0.23999,0.953125,-0.185791,-14.114379,35.53772,7.164001
-0.322998,0.916748,-0.209229,-4.066467,35.15625,4.920959
-0.365723,0.921143,-0.204834,12.397765,27.549742,-4.455566
-0.336914,0.955322,-0.212646,21.499632,17.127991,-9.849548
-0.306396,0.992432,-0.204346,23.933409,9.109497,-4.455566
-0.302246,0.996094,-0.218262,22.674559,6.408691,3.890991
-0.323242,0.983398,-0.250488,21.690367,5.874633,7.537841
-0.334717,0.975098,-0.250244,22.323606,5.401611,6.904602
-0.312256,0.980957,-0.248535,23.269651,4.875183,6.393432
-0.306885,0.995361,-0.243408,23.620604,3.616333,9.521484
-0.330078,1.011475,-0.234131,24.307249,2.876281,13.389586
-0.359131,1.031738,-0.224609,26.168821,2.532959,15.701293
-0.376953,1.053711,-0.199951,27.160643,-0.328064,16.00647
-0.401367,1.06665,-0.179688,27.053831,-6.523132,16.181946
-0.437012,1.072754,-0.155029,27.160643,-17.402649,16.616821
-0.432861,1.073486,-0.139404,26.56555,-31.532286,15.777587
-0.395996,1.066895,-0.131104,24.330137,-44.982906,15.159606
-0.363037,1.063965,-0.132324,20.622252,-53.817745,15.518188
-0.338135,1.053467,-0.136963,13.420104,-56.426998,15.304564
-0.321777,1.030029,-0.134521,4.302979,-56.060787,14.656066
-0.321045,0.991455,-0.123779,-3.997802,-55.740353,13.236999
-0.31543,0.958496,-0.119141,-8.834839,-55.297848,10.124206
-0.289063,0.956543,-0.108887,-8.789063,-52.810665,5.935668
-0.259766,0.991455,-0.08252,-7.865905,-47.21069,1.38855
-0.242676,1.018066,-0.058105,-9.567261,-37.445068,-1.617432
-0.227051,1.013916,-0.059082,-11.306762,-24.711607,-3.639221
-0.231445,1.000977,-0.05957,-11.123656,-13.824462,-6.256103
-0.250732,0.99292,-0.063721,-9.094238,-6.805419,-9.231567
-0.266113,1.000244,-0.077148,-5.691528,-5.149841,-9.223938
-0.279785,1.020996,-0.094727,-1.976013,-8.079529,-5.607605
-0.287109,1.053467,-0.108887,-0.236511,-13.519286,-1.411438
-0.276367,1.082031,-0.11792,-1.922607,-18.455505,1.586914
-0.260498,1.091553,-0.125244,-6.622314,-20.416258,4.051208
-0.252197,1.077393,-0.137207,-12.21466,-18.997192,5.836486
-0.222168,1.05249,-0.14502,-17.074585,-10.765075,6.492614
-0.222656,1.025879,-0.151611,-19.958496,2.494812,6.843566
-0.254883,1.003174,-0.157959,-20.03479,14.312743,4.814148
-0.278809,0.990723,-0.160645,-18.814087,22.796629,0.434875
-0.293457,0.983154,-0.164551,-17.456055,27.366636,-3.288269
-0.310059,0.97998,-0.161865,-14.846801,28.358458,-5.378723
-0.322266,0.98291,-0.163818,-11.634826,26.260374,-6.04248
-0.327148,0.984375,-0.168457,-9.300232,21.408079,-5.836486
-0.329346,0.980713,-0.168457,-8.209229,15.258788,-5.523681
-0.330078,0.975586,-0.164063,-7.850646,9.223938,-5.447387
-0.330566,0.969238,-0.158936,-7.011413,3.669739,-5.256652
-0.330322,0.965576,-0.152832,-5.714416,-1.403808,-4.402161
-0.335693,0.964355,-0.146973,-4.478455,-6.134033,-2.532959
-0.336426,0.963623,-0.14209,-3.234863,-11.253356,-0.183105
-0.3396,0.973145,-0.134766,-1.716614,-16.738892,2.27356
-0.336182,0.993652,-0.125,0.320435,-21.499632,4.608154
-0.325928,1.014893,-0.121338,2.487183,-24.330137,6.42395
-0.321777,1.032715,-0.115967,3.52478,-25.588987,7.392883
-0.326172,1.034912,-0.111084,2.479553,-26.176451,6.790161
-0.330078,1.028809,-0.109863,1.00708,-26.68762,5.615234
-0.329102,1.019043,-0.109619,0.328064,-27.580259,5.119323
-0.321045,1.012451,-0.111816,0.511169,-27.854918,5.142211
-0.314453,1.015137,-0.113037,0.679016,-26.763914,5.111694
-0.310059,1.028809,-0.115723,0.328064,-24.681089,4.53186
-0.30957,1.041504,-0.119141,-0.526428,-22.415159,3.089905
-0.303223,1.048828,-0.123291,-1.701355,-19.416809,1.502991
-0.29126,1.053223,-0.123535,-3.089905,-15.502929,-0.236511
-0.285156,1.050537,-0.125977,-5.172729,-11.138915,-2.792358
-0.28125,1.040771,-0.124756,-7.453918,-6.54602,-5.867004
-0.283203,1.029785,-0.123779,-8.857727,-2.27356,-8.44574
-0.289551,1.026123,-0.124023,-9.44519,1.365662,-10.208129
-0.294678,1.025391,-0.119141,-9.58252,3.944397,-11.428832
-0.299316,1.030518,-0.115234,-9.57489,5.599975,-12.237548
-0.298096,1.041016,-0.109131,-8.857727,6.484985,-12.771605
-0.299316,1.051514,-0.111084,-7.942199,6.599426,-12.878417
-0.294922,1.047607,-0.114746,-8.514404,5.950927,-12.863158
-0.29248,1.031006,-0.116211,-9.971619,5.081176,-13.061522
-0.286621,1.019531,-0.116699,-10.803222,4.402161,-13.404845
-0.28125,1.010498,-0.114502,-10.581969,4.226685,-12.855529
-0.281006,1.007324,-0.105957,-9.719849,4.333496,-11.627196
-0.283691,1.005615,-0.101318,-8.796692,4.478455,-10.841369
-0.283936,1.004395,-0.096191,-7.827758,4.333496,-10.307311
-0.283936,1.007324,-0.085205,-6.912231,4.15802,-9.628296
-0.286621,1.00293,-0.07959,-6.340026,4.142761,-8.415222
-0.285889,1.005127,-0.077393,-5.53894,4.219055,-7.034301
-0.28833,1.005615,-0.071045,-4.852295,4.646301,-5.477905
-0.293213,1.004883,-0.06665,-4.615784,4.928589,-3.768921
-0.300049,1.007813,-0.063965,-4.40979,4.966736,-2.510071
-0.302246,1.013916,-0.060791,-4.333496,4.753113,-1.571655
-0.30127,1.020264,-0.062744,-4.40979,4.508972,-0.450134
-0.30249,1.019531,-0.065186,-5.477905,4.40979,0.564575
-0.299561,1.017822,-0.064941,-6.790161,5.15747,0.75531
-0.297852,1.015381,-0.062256,-7.67517,6.79779,0.679016
-0.302979,1.010498,-0.060059,-8.407593,8.529663,0.862122
-0.311523,1.003418,-0.05542,-8.94928,9.666443,1.060486
-0.316406,1.000244,-0.056641,-8.705139,9.857178,1.182556
-0.319336,1.002686,-0.056396,-7.865905,9.58252,1.655578
-0.32373,1.009521,-0.056396,-7.087707,9.109497,2.128601
-0.324463,1.013916,-0.056641,-6.92749,8.506775,2.555847
-0.328857,1.015869,-0.060059,-7.164001,8.003235,2.914428
-0.335693,1.015381,-0.060791,-7.8125,7.148742,3.372192
-0.341309,1.01416,-0.064209,-7.919311,5.615234,3.730774
-0.343018,1.016357,-0.064941,-7.896423,3.082275,4.364014
-0.342773,1.019775,-0.063965,-7.705688,0.091553,5.0354
-0.343994,1.020508,-0.067871,-8.010864,-2.777099,5.317688
-0.341064,1.015381,-0.069824,-8.81958,-5.41687,5.546569
-0.33374,1.01123,-0.070801,-8.460999,-7.041931,5.569458
-0.333252,1.010986,-0.067383,-7.995605,-8.041382,5.271911
-0.33374,1.007568,-0.069824,-8.148193,-8.628845,5.180358
-0.333496,1.009277,-0.069824,-7.400512,-9.048462,5.065917
-0.331787,1.015137,-0.06665,-6.698608,-9.353638,5.027771
-0.332275,1.018799,-0.065918,-6.744384,-9.513855,5.0354
-0.325928,1.016602,-0.063965,-6.820678,-9.078979,4.501343
-0.322754,1.011475,-0.064941,-6.874084,-8.140564,3.77655
-0.325439,1.01001,-0.062256,-6.66809,-7.003784,2.861023
-0.323486,1.009766,-0.061768,-6.340026,-5.569458,2.372742
-0.320557,1.016846,-0.060303,-5.889892,-3.677368,2.105713
-0.320557,1.019043,-0.05957,-5.66101,-1.487732,1.564026
-0.321777,1.019775,-0.053223,-5.378723,0.961304,0.175476
-0.321289,1.019775,-0.051514,-5.905151,3.372192,-1.243591
-0.320068,1.016602,-0.053223,-5.836486,5.859375,-2.250671
-0.322266,1.016113,-0.04834,-5.561828,8.232117,-3.349304
-0.323242,1.013672,-0.047363,-5.523681,10.169982,-4.310608
-0.326172,1.014404,-0.049316,-5.348205,11.672973,-5.226135
-0.328857,1.014648,-0.045166,-5.28717,12.649535,-6.011962
-0.32666,1.014893,-0.043945,-5.302429,13.290404,-6.683349
-0.324707,1.013916,-0.042969,-5.729675,13.755797,-7.263183
-0.324463,1.012939,-0.04541,-5.996704,13.870238,-7.751464
-0.32251,1.01001,-0.049072,-6.233215,13.900756,-8.117676
-0.320557,1.013428,-0.046143,-6.04248,14.045714,-8.18634
-0.322021,1.013672,-0.044189,-6.011962,14.198302,-8.338928
-0.32251,1.013184,-0.036377,-5.722045,14.48059,-8.522034
-0.322754,1.012939,-0.032227,-5.218505,14.47296,-8.68988
-0.32251,1.01416,-0.03418,-4.730225,14.289855,-8.407593
-0.320313,1.015137,-0.037842,-4.211426,14.22119,-7.911682
-0.318359,1.01416,-0.041748,-4.379272,14.282226,-7.537841
-0.31665,1.012451,-0.04126,-4.806519,14.671325,-7.331848
-0.316895,1.013184,-0.040771,-5.111694,15.098571,-7.202148
-0.319092,1.010254,-0.039795,-5.294799,15.525817,-7.17163
-0.322998,1.010498,-0.041016,-5.050659,15.678405,-6.965637
-0.325195,1.01416,-0.040283,-4.768372,15.304564,-6.439209
-0.327148,1.019287,-0.04126,-4.646301,14.678954,-5.66101
-0.330078,1.021729,-0.041504,-4.798889,14.10675,-4.867554
-0.329834,1.022949,-0.043213,-5.012512,13.565063,-4.180908
-0.329346,1.020264,-0.043945,-5.40924,13.008117,-3.77655
-0.329834,1.016357,-0.04248,-5.653381,12.405395,-3.341675
-0.32959,1.01001,-0.043213,-5.531311,11.95526,-2.990722
-0.331055,1.00708,-0.041748,-5.088806,11.489867,-2.777099
-0.333496,1.00293,-0.041992,-4.638672,10.94818,-2.433777
-0.336914,0.998535,-0.041504,-4.127502,10.055541,-2.326965
-0.334717,0.997314,-0.043457,-3.234863,9.231567,-2.189636
-0.335693,0.99707,-0.044678,-2.5177,8.628845,-2.037048
-0.334473,0.999023,-0.044678,-1.991272,8.308411,-1.89209
-0.333008,1.002686,-0.046875,-1.38092,8.178711,-1.564026
-0.33252,1.007568,-0.049561,-1.243591,8.163452,-0.991821
-0.333496,1.012695,-0.043945,-1.159668,8.544922,-0.526428
-0.334961,1.01001,-0.042725,-1.358032,9.017944,-0.198364
-0.337402,1.008545,-0.044922,-1.556396,9.155273,-0.106812
-0.33667,1.006104,-0.044434,-1.319885,9.170532,-0.221252
-0.338135,1.003662,-0.043457,-0.999451,8.880615,0.083923
-0.3396,1.005859,-0.046631,-0.511169,8.766174,0.75531
-0.340576,1.011475,-0.042969,0.114441,8.972168,1.167297
-0.341064,1.015137,-0.041504,0.282288,9.338379,1.220703
-0.34375,1.017334,-0.041016,0.236511,9.57489,1.342773
-0.344238,1.018066,-0.041992,0.160217,9.506226,1.304626
-0.344482,1.016846,-0.040771,-0.099182,9.521484,1.190186
-0.346191,1.013916,-0.0354,-0.152588,9.178162,1.190186
-0.3479,1.009521,-0.036865,-0.37384,8.476257,1.289368
-0.350342,1.009033,-0.040771,-0.473022,7.217407,1.342773
-0.347656,1.012207,-0.040771,-0.640869,5.897521,1.831055
-0.34668,1.017578,-0.037354,-0.740051,4.653931,2.632141
-0.346191,1.022461,-0.035645,-1.182556,3.829956,3.417969
-0.344971,1.026367,-0.035156,-1.457214,3.128052,3.753662
-0.343994,1.02417,-0.034668,-1.495361,2.601623,3.768921
-0.342529,1.018311,-0.037842,-1.541138,2.120972,3.730774
-0.342529,1.011963,-0.038086,-1.304626,1.335144,3.425598
-0.342041,1.008057,-0.034912,-0.961304,0.297546,2.944946
-0.34375,1.008545,-0.03418,-0.358582,-0.938415,2.807617
-0.346436,1.009521,-0.035645,0.640869,-2.624511,3.280639
-0.346191,1.010254,-0.03833,1.00708,-4.631042,3.707886
-0.342773,1.008545,-0.040283,1.213074,-6.202697,3.768921
-0.339844,1.009521,-0.04126,1.564026,-7.728576,3.509521
-0.335205,1.010254,-0.040527,1.495361,-8.895874,3.639221
-0.335938,1.008301,-0.040039,1.373291,-9.880066,4.013062
-0.335693,1.009033,-0.040527,1.525879,-10.765075,4.325867
-0.330811,1.010742,-0.043213,1.815796,-11.497497,4.478455
-0.329346,1.017334,-0.041992,2.227783,-11.871337,4.676819
-0.328125,1.020996,-0.046143,2.258301,-11.932372,4.653931
-0.327148,1.020264,-0.046387,2.029419,-12.031554,4.28009
-0.326416,1.017578,-0.042725,1.869202,-11.993407,3.669739
-0.32373,1.018799,-0.041748,1.800537,-11.741637,3.440857
-0.323242,1.018555,-0.044678,1.716614,-11.650084,3.372192
-0.323242,1.015869,-0.045898,1.63269,-11.947631,3.379822
-0.320801,1.019287,-0.047119,1.548767,-12.268065,3.15094
-0.317139,1.020508,-0.045654,1.319885,-12.542724,3.074646
-0.315918,1.021484,-0.045166,1.190186,-12.7182,2.838135
-0.314697,1.019775,-0.043457,1.00708,-13.107299,2.861023
-0.313965,1.01709,-0.042725,1.029968,-13.702392,2.792358
-0.30957,1.020752,-0.040771,1.373291,-14.183043,2.830505
-0.303711,1.023438,-0.041504,1.533508,-14.495849,3.051758
-0.298828,1.020508,-0.04126,1.441955,-14.488219,3.211975
-0.293213,1.018799,-0.040039,1.12915,-14.060973,2.906799
-0.29126,1.019043,-0.041504,0.854492,-13.175963,2.63977
-0.287842,1.018311,-0.037598,0.839233,-11.840819,2.662658
-0.286865,1.018066,-0.034424,1.113892,-10.32257,2.914428
-0.285645,1.019043,-0.03418,1.289368,-8.804321,2.830505
-0.287842,1.02002,-0.029541,1.487732,-7.293701,2.731323
-0.287598,1.027832,-0.027588,1.747131,-5.546569,2.845764
-0.289307,1.031982,-0.027832,1.548767,-3.334045,2.754211
-0.287598,1.032715,-0.027832,0.999451,-0.854492,2.784729
-0.287109,1.03125,-0.030273,0.091553,1.655578,2.76947
-0.291748,1.02832,-0.028809,-0.701904,4.005432,2.548218
-0.300537,1.02417,-0.027344,-1.411438,5.584716,2.189636
-0.306641,1.023682,-0.026611,-1.853943,6.568908,2.059937
-0.310791,1.026123,-0.025146,-1.739502,6.912231,2.006531
-0.313721,1.030518,-0.025146,-1.76239,7.003784,1.838684
-0.313721,1.027344,-0.024658,-1.876831,7.019042,1.785278
-0.312256,1.029541,-0.029297,-1.831055,7.080078,1.457214
-0.316895,1.024414,-0.030762,-2.288818,7.102966,1.197815
-0.31958,1.020996,-0.0271,-2.26593,6.835937,0.778198
-0.322266,1.020996,-0.025391,-2.128601,6.225585,0.213623
-0.324463,1.02002,-0.026611,-1.983642,5.081176,-0.038147
-0.323242,1.021484,-0.023926,-1.426697,3.845215,-0.045776
-0.322998,1.022705,-0.028076,-1.365662,2.670288,-0.114441
-0.318115,1.02002,-0.032471,-1.51062,1.541138,-0.213623
-0.315186,1.015869,-0.035156,-1.960754,0.663757,-0.175476
-0.317383,1.014404,-0.031006,-2.227783,0.0,-0.221252
-0.318115,1.010742,-0.030762,-2.525329,-0.88501,-0.083923
-0.316895,1.009766,-0.031982,-2.410889,-2.044678,0.221252
-0.31665,1.009033,-0.038086,-1.88446,-3.532409,0.679016
-0.315186,1.012939,-0.041504,-1.037598,-5.104064,1.266479
-0.312012,1.01709,-0.041016,-0.457764,-6.29425,1.63269
-0.309814,1.019043,-0.040039,-0.259399,-7.148742,1.815796
-0.310059,1.014893,-0.039307,-0.228882,-7.598876,1.876831
-0.311035,1.018066,-0.035645,0.114441,-7.827758,1.930237
-0.310547,1.018066,-0.033691,0.473022,-8.277893,2.090454
-0.310547,1.017578,-0.034668,0.869751,-8.613586,2.182007
-0.309082,1.023926,-0.034424,1.068115,-8.811951,2.128601
-0.305908,1.025146,-0.033203,1.052856,-8.804321,1.823425
-0.306885,1.025146,-0.028564,0.778198,-9.010315,1.403808
-0.308105,1.025879,-0.029297,0.511169,-9.506226,0.930786
-0.306396,1.0271,-0.02832,0.526428,-10.177611,0.518799
-0.303223,1.029053,-0.026611,0.495911,-10.711669,0.297546
-0.29834,1.03125,-0.0271,0.419617,-11.032104,0.114441
-0.293457,1.027344,-0.026855,0.259399,-10.910033,-0.12207
-0.289063,1.02417,-0.024902,-0.022888,-10.520934,-0.274658
-0.286865,1.020508,-0.024902,-0.434875,-10.025024,-0.297546
-0.284912,1.017822,-0.023682,-0.457764,-9.315491,-0.267029
-0.285889,1.012207,-0.026123,-0.221252,-8.506775,-0.053406
-0.285889,1.012451,-0.026611,0.549316,-7.774353,0.205994
-0.2854,1.012695,-0.026123,1.068115,-7.141113,0.37384
-0.286865,1.012207,-0.027832,1.289368,-6.729125,0.968933
-0.285156,1.014893,-0.029053,1.678467,-6.263732,1.304626
-0.288818,1.019043,-0.028564,2.059937,-5.508422,1.38092
-0.289795,1.020752,-0.031006,2.250671,-4.760742,1.586914
-0.291016,1.018555,-0.034424,2.197266,-4.318237,1.747131
-0.296143,1.018799,-0.034912,2.342224,-4.058838,1.930237
-0.297607,1.018555,-0.032959,2.677917,-4.127502,2.113342
-0.301514,1.016602,-0.030518,3.044128,-4.493713,2.189636
-0.308105,1.017334,-0.030518,3.585815,-5.180358,2.388
-0.306641,1.014648,-0.03125,3.974914,-6.233215,2.563476
-0.307617,1.019287,-0.032959,4.371643,-7.308959,2.777099
-0.30835,1.020752,-0.033936,4.463196,-8.346558,2.929687
-0.308105,1.019775,-0.032471,4.28009,-9.101868,2.845764
-0.308838,1.020752,-0.028809,4.318237,-9.811401,2.487183
-0.307617,1.025391,-0.026123,4.516602,-10.559081,2.204895
-0.308838,1.027588,-0.026367,4.28772,-11.360168,2.227783
-0.305664,1.024658,-0.026855,3.807068,-12.123107,2.220154
-0.300293,1.023193,-0.029297,3.631592,-12.367248,2.01416
-0.296387,1.021973,-0.029785,3.532409,-12.092589,1.655578
-0.296143,1.019287,-0.02832,3.14331,-11.787414,1.564026
-0.298828,1.017822,-0.024902,3.112793,-11.474608,1.419067
-0.299072,1.014893,-0.023926,3.219604,-11.665343,1.373291
-0.297363,1.014404,-0.029541,3.761291,-12.260436,1.571655
-0.29541,1.015137,-0.029541,4.417419,-12.619018,1.495361
-0.291992,1.020508,-0.031982,4.615784,-12.924193,1.411438
-0.292969,1.02002,-0.032471,4.211426,-12.939452,1.350403
-0.291016,1.020508,-0.034912,3.890991,-13.038634,1.365662
-0.291748,1.023438,-0.03418,3.944397,-13.229369,1.464844
-0.290771,1.02417,-0.035156,4.074097,-13.496398,1.88446
-0.29126,1.031006,-0.03418,4.112244,-13.801574,2.418518
-0.29126,1.032227,-0.035645,4.135132,-14.236449,2.723694
-0.288574,1.030029,-0.034912,4.226685,-14.785766,2.563476
-0.286133,1.029785,-0.034424,4.356384,-15.167235,2.319336
-0.28125,1.031494,-0.034668,4.562378,-15.533446,2.525329
-0.280762,1.031982,-0.034424,4.653931,-15.686034,2.876281
-0.279053,1.030029,-0.036621,4.859924,-15.708922,3.074646
-0.276123,1.029785,-0.033691,4.837036,-15.480041,3.089905
-0.272705,1.0271,-0.032471,4.501343,-14.923095,3.013611
-0.272217,1.022461,-0.032715,4.234314,-14.236449,2.738952
-0.271484,1.016357,-0.031738,4.493713,-13.694762,2.700805
-0.270996,1.018799,-0.033203,4.974365,-13.183593,3.005981
-0.270752,1.022461,-0.031494,5.531311,-12.756347,3.425598
-0.270996,1.026123,-0.031982,6.118774,-12.039184,3.494262
-0.272461,1.023193,-0.033447,6.240844,-11.169433,3.723144
-0.276123,1.020996,-0.034424,6.401062,-10.44464,3.738403
-0.277832,1.017578,-0.036865,6.507873,-10.0708,3.593445
-0.283203,1.014404,-0.035156,6.622314,-10.040282,3.601074
-0.287109,1.010254,-0.037109,7.057189,-10.459899,3.623962
-0.29126,1.008789,-0.040771,7.461547,-11.489867,3.684997
-0.291748,1.010498,-0.038818,8.277893,-12.7182,3.52478
-0.294434,1.007324,-0.044922,8.903503,-13.97705,3.555298
-0.289795,1.01123,-0.047363,9.666443,-14.465331,3.433227
-0.288818,1.010742,-0.046143,10.078429,-14.625548,2.975464
-0.289551,1.010742,-0.049561,10.269164,-14.572143,2.464294
-0.286133,1.01709,-0.052246,10.032654,-14.022826,2.227783
-0.28833,1.015625,-0.057373,9.231567,-13.099669,2.281189
-0.28833,1.012207,-0.059082,8.18634,-12.252807,2.27356
-0.289795,1.01416,-0.060303,7.965087,-11.924743,2.113342
-0.291992,1.02002,-0.05957,8.766174,-11.871337,1.815796
-0.292969,1.02417,-0.055176,9.216309,-11.993407,1.205444
-0.295654,1.020752,-0.059814,9.040833,-12.496947,0.389099
-0.295166,1.013672,-0.069336,8.979797,-13.244628,-0.244141
-0.290771,1.012695,-0.070557,9.567261,-13.710021,-0.473022
-0.289307,1.018799,-0.065674,10.177611,-13.801574,-0.259399
-0.294922,1.028809,-0.061279,10.429381,-13.84735,0.015259
-0.300293,1.032959,-0.056641,9.925842,-14.427184,-0.289917
-0.298828,1.028564,-0.057129,8.972168,-15.686034,-0.984192
-0.297119,1.022217,-0.05542,8.102417,-17.440796,-1.464844
-0.29126,1.021484,-0.058838,7.537841,-19.012451,-1.647949
-0.284912,1.018799,-0.059814,7.148742,-19.729614,-1.670837
-0.2771,1.021973,-0.058105,7.148742,-19.416809,-2.01416
-0.272217,1.029785,-0.064209,7.04956,-18.333435,-2.433777
-0.271484,1.036377,-0.059814,6.156921,-17.059326,-2.807617
-0.276123,1.036377,-0.059326,4.837036,-15.693664,-3.532409
-0.271973,1.033203,-0.059326,4.28009,-14.236449,-4.219055
-0.27124,1.028564,-0.058594,3.684997,-13.236999,-4.768372
-0.267822,1.026123,-0.060547,3.211975,-12.153625,-5.386352
-0.265869,1.028076,-0.058838,3.097534,-10.505675,-5.691528
-0.261963,1.032227,-0.063721,3.051758,-8.865356,-5.691528
-0.260742,1.032715,-0.066895,2.700805,-7.034301,-5.638122
-0.257813,1.030518,-0.067627,2.151489,-4.829407,-5.676269
-0.259033,1.028076,-0.068848,1.426697,-2.761841,-5.691528
-0.261719,1.025146,-0.06958,1.228333,-0.88501,-5.477905
-0.264893,1.023682,-0.072266,1.495361,0.747681,-4.966736
-0.268799,1.026611,-0.072754,1.815796,1.617432,-4.318237
-0.274414,1.027588,-0.07666,2.174377,1.708984,-3.77655
-0.275146,1.029785,-0.07666,2.426147,1.373291,-3.311157
-0.27832,1.034668,-0.076416,2.075195,1.00708,-3.173828
-0.274902,1.030029,-0.077148,1.373291,0.610352,-3.135681
-0.27417,1.028809,-0.08252,1.480102,0.686645,-2.777099
-0.275635,1.036621,-0.080811,1.64032,0.62561,-2.502441
-0.274902,1.035889,-0.080078,1.556396,0.396728,-2.418518
-0.276855,1.031006,-0.07959,1.449585,0.12207,-2.258301
-0.276611,1.029541,-0.079834,1.579285,-0.350952,-2.113342
-0.281738,1.034424,-0.075195,1.914978,-1.342773,-1.922607
-0.283691,1.033447,-0.075928,2.433777,-2.746582,-1.594543
-0.280029,1.034912,-0.07251,2.830505,-4.302979,-1.251221
-0.27417,1.039795,-0.068604,3.089905,-5.638122,-0.801086
-0.269775,1.043701,-0.065918,3.14331,-6.057739,-0.350952
-0.265869,1.047607,-0.0625,2.975464,-5.41687,0.030518
-0.266357,1.047119,-0.057373,2.27356,-4.333496,0.167847
-0.265625,1.04126,-0.053955,1.480102,-3.074646,0.0
-0.262451,1.039551,-0.052002,1.052856,-1.960754,-0.076294
-0.263916,1.041748,-0.050537,0.938415,-0.717163,-0.12207
-0.268311,1.04126,-0.047852,0.640869,0.25177,-0.274658
-0.269043,1.040527,-0.052246,0.099182,0.930786,-0.465393
-0.269287,1.039551,-0.051758,-0.534058,1.525879,-0.617981
-0.269531,1.036865,-0.053711,-0.984192,2.029419,-0.671387
-0.273926,1.03418,-0.049072,-1.594543,2.304077,-0.556946
-0.279053,1.030029,-0.046387,-2.098083,2.128601,-0.213623
-0.280762,1.024414,-0.050049,-2.319336,1.708984,0.236511
-0.278809,1.027344,-0.051758,-2.159119,0.984192,0.694275
-0.28125,1.0271,-0.053467,-2.433777,0.37384,1.13678
-0.280518,1.022705,-0.054199,-2.929687,0.0,1.213074
-0.280029,1.021484,-0.056396,-3.250122,-0.068665,1.38855
-0.282471,1.025635,-0.057617,-3.15094,0.083923,1.747131
-0.283936,1.026367,-0.055664,-2.830505,0.434875,2.189636
-0.287598,1.02832,-0.060303,-2.677917,0.648498,2.571106
-0.290283,1.028809,-0.059082,-2.975464,0.595093,2.525329
-0.290283,1.025391,-0.064209,-3.189087,0.572205,2.220154
-0.288818,1.023682,-0.065186,-3.303528,0.839233,2.128601
-0.29248,1.02124,-0.065674,-3.64685,1.25885,2.13623
-0.290527,1.016602,-0.065918,-3.875732,1.625061,2.037048
-0.292236,1.009521,-0.067627,-3.730774,1.998901,1.754761
-0.293457,1.013916,-0.069092,-3.639221,2.326965,1.472473
-0.292725,1.016113,-0.07373,-3.570556,2.761841,1.541138
-0.294189,1.016113,-0.068359,-3.730774,3.02124,1.541138
-0.298096,1.014893,-0.068115,-4.089355,3.219604,1.228333
-0.302734,1.013916,-0.066162,-4.264832,2.929687,0.915527
-0.302246,1.017822,-0.065674,-4.051208,2.105713,0.892639
-0.299561,1.020264,-0.069824,-3.684997,1.457214,1.434326
-0.301025,1.022705,-0.069092,-3.952026,1.052856,1.51062
-0.301025,1.024902,-0.058838,-5.569458,0.679016,0.831604
-0.298584,1.018555,-0.073975,-6.958007,-0.236511,0.823975
-0.295898,1.011719,-0.075195,-6.54602,-0.450134,1.823425
-0.293457,1.012695,-0.065186,-6.652832,-0.022888,1.739502
-0.293213,1.023682,-0.075439,-7.453918,-0.816345,1.152039
-0.299561,1.037842,-0.08667,-8.049011,-2.822876,1.564026
-0.305908,1.037109,-0.08667,-9.83429,-5.874633,2.616882
-0.29834,1.019531,-0.058838,-13.183593,-8.842468,1.876831
-0.297607,1.006836,-0.032959,-15.724181,-10.513305,0.152588
-0.308105,1.019043,-0.007324,-15.502929,-11.856078,-0.572205
-0.325684,1.048584,0.012207,-15.258788,-14.73236,-0.488281
-0.333984,1.06958,-0.003418,-17.082214,-18.325806,-0.221252
-0.319092,1.03833,-0.027344,-17.707825,-21.934507,0.099182
-0.289795,0.997559,-0.023926,-14.831542,-22.499083,-0.846863
-0.250488,0.99292,-0.00708,-11.138915,-17.822266,-3.036499
-0.235107,1.009277,-0.003906,-8.308411,-9.468079,-4.089355
-0.255371,1.027832,-0.004883,-5.66101,-1.716614,-3.623962
-0.275146,1.034668,-0.007813,-4.79126,2.822876,-4.127502
-0.27417,1.032227,-0.018066,-5.493164,4.776001,-5.798339
-0.2771,1.025146,-0.020996,-5.867004,5.638122,-7.064819
-0.27832,1.024414,-0.011963,-6.134033,6.805419,-7.575988
-0.279541,1.026855,-0.001953,-6.92749,7.17163,-7.415771
-0.282959,1.035889,0.004395,-7.957458,6.187438,-6.202697
-0.289307,1.053711,0.003174,-8.789063,3.814697,-4.333496
-0.281494,1.050537,-0.01001,-9.757996,1.152039,-2.731323
-0.270752,1.036865,-0.019531,-9.83429,0.328064,-2.113342
-0.26709,1.027588,-0.014893,-10.086059,2.357483,-3.082275
-0.26416,1.029785,-0.010498,-10.673522,5.645751,-4.058838
-0.267822,1.031982,-0.004395,-11.161803,8.155823,-3.517151
-0.276611,1.025635,-0.00415,-10.848998,9.315491,-2.685547
-0.282959,1.012207,-0.009766,-9.933472,9.773254,-2.960205
-0.280518,1.006348,-0.008301,-8.682251,10.147094,-3.974914
-0.283203,1.01001,-0.005127,-7.476806,10.635375,-4.135132
-0.284912,1.013672,-0.01001,-6.332397,10.902404,-3.501892
-0.283447,1.013916,-0.012207,-5.630493,11.390685,-3.15094
-0.282715,1.01709,-0.016602,-5.15747,12.001037,-3.471374
-0.281738,1.016602,-0.024658,-4.859924,12.7182,-3.372192
-0.28418,1.019287,-0.026611,-4.974365,13.076781,-2.967834
-0.289307,1.015869,-0.024902,-5.683898,13.137816,-2.716064
-0.29541,1.017334,-0.019531,-6.660461,12.657165,-2.555847
-0.301758,1.021729,-0.015381,-7.659912,11.909484,-2.39563
-0.299561,1.023926,-0.01001,-8.422852,10.940551,-1.647949
-0.296875,1.020264,-0.009277,-8.659363,9.895325,-0.671387
-0.297852,1.015625,-0.010498,-8.255005,9.57489,-0.427246
-0.299316,1.01123,-0.02124,-7.514953,9.803772,-0.953674
-0.301514,1.005371,-0.019531,-6.126403,10.368346,-1.693725
-0.298584,1.01001,-0.018066,-4.447937,10.993957,-1.991272
-0.298584,1.015625,-0.02002,-3.303528,11.634826,-1.678467
-0.303467,1.013428,-0.020752,-2.609253,11.810302,-1.25885
-0.305176,1.01001,-0.016846,-1.991272,11.573791,-1.525879
-0.309814,1.010498,-0.010498,-1.480102,10.986327,-1.876831
-0.306885,1.012451,-0.009766,-0.839233,10.101317,-1.64032
-0.304932,1.011475,-0.008057,0.350952,9.170532,-1.00708
-0.305908,1.011963,-0.013428,1.213074,8.415222,-1.121521
-0.306885,1.015381,-0.015625,1.976013,7.949829,-1.602173
-0.307129,1.02124,-0.01123,2.174377,7.827758,-1.739502
-0.307129,1.026367,-0.005371,1.228333,7.843017,-1.419067
-0.310303,1.023926,-0.003906,0.091553,7.202148,-0.724792
-0.310791,1.021973,-0.002197,-0.213623,6.111145,-0.404358
-0.311768,1.027344,0.006348,0.12207,5.073547,-0.328064
-0.311768,1.031982,0.005615,0.289917,4.211426,0.114441
-0.310547,1.035889,0.001221,0.62561,3.517151,0.701904
-0.310303,1.031738,0.002686,0.694275,2.922058,0.526428
-0.309814,1.030518,0.005127,0.480652,3.288269,0.106812
-0.309814,1.027344,0.00415,0.63324,3.929138,-0.061035
-0.312012,1.023926,0.00708,0.930786,4.180908,0.045776
-0.314453,1.022217,0.007324,1.052856,3.997802,-0.205994
-0.313477,1.021484,0.012207,0.740051,3.501892,-0.709534
-0.308594,1.020508,0.019043,0.343323,3.265381,-1.00708
-0.308105,1.023926,0.019287,0.12207,3.128052,-1.091003
-0.304199,1.021484,0.015137,0.015259,2.960205,-1.091003
-0.302002,1.018555,0.015381,0.228882,3.166198,-1.312256
-0.304443,1.019531,0.016602,0.099182,3.669739,-1.823425
-0.303955,1.024414,0.009766,-0.015259,4.089355,-2.067566
-0.304199,1.032959,0.007813,-0.37384,4.03595,-1.785278
-0.306152,1.03125,0.008301,-1.38092,3.692627,-1.235962
-0.306152,1.030273,0.009766,-2.410889,3.135681,-1.037598
-0.307861,1.030273,0.013916,-2.838135,2.349854,-0.808716
-0.307861,1.029785,0.013428,-3.044128,1.609802,-0.343323
-0.305664,1.031006,0.010254,-2.883911,0.923157,0.137329
-0.30542,1.032227,0.005127,-2.502441,0.213623,0.411987
-0.305908,1.0271,0.004639,-2.441406,0.152588,-0.076294
-0.301514,1.022949,0.0,-2.5177,0.549316,-0.617981
-0.297607,1.022217,-0.004395,-2.609253,0.816345,-0.526428
-0.300049,1.022217,-0.00415,-2.662658,0.534058,-0.1297
-0.305176,1.021484,0.0,-2.944946,-0.297546,0.144958
-0.304443,1.022217,-0.001709,-3.27301,-1.342773,0.106812
-0.299072,1.019287,-0.004639,-3.318786,-2.365112,0.549316
-0.295898,1.014893,-0.000732,-2.792358,-2.731323,0.923157
-0.296875,1.013184,-0.000977,-2.113342,-2.288818,0.831604
-0.298096,1.013916,-0.00415,-1.319885,-1.51062,0.526428
-0.296631,1.018799,-0.006104,-0.892639,-0.701904,0.480652
-0.287842,1.021973,-0.001465,-1.304626,0.289917,0.747681
-0.281982,1.016846,-0.000732,-1.937866,1.182556,1.441955
-0.295654,1.010254,-0.005371,-1.625061,1.373291,1.823425
-0.31543,1.009033,-0.009277,-0.694275,0.488281,1.106262
-0.322021,1.01709,-0.006348,0.442505,-0.923157,-0.12207
-0.316162,1.030273,-0.002686,0.617981,-2.052307,-0.663757
-0.296631,1.033203,-0.000977,-0.518799,-2.082825,0.396728
-0.284424,1.0271,0.000732,-2.281189,-1.411438,1.869202
-0.299805,1.014893,0.000732,-2.876281,-0.839233,1.731872
-0.327637,1.009766,0.006348,-1.617432,-1.495361,-0.457764
-0.338135,1.016357,0.02417,-0.526428,-3.64685,-2.494812
-0.32959,1.021729,0.029541,0.518799,-5.569458,-2.807617
-0.313477,1.017578,0.021484,2.578735,-5.813598,-2.037048
-0.304443,1.01123,0.010986,5.386352,-5.531311,-0.62561
-0.303955,1.006348,0.002686,8.026123,-5.40924,-0.144958
-0.295654,1.009033,-0.010986,10.94818,-4.608154,-0.816345
-0.290283,1.01416,-0.006836,12.96234,-1.670837,-2.586365
-0.303223,1.005371,-0.033203,13.732909,1.907349,-4.920959
-0.329102,1.01123,-0.031494,15.846251,1.022339,-5.508422
-0.324707,1.028564,-0.008789,14.617919,-1.831055,-5.508422
-0.296143,1.038086,-0.006836,11.497497,-3.082275,-4.15802
-0.281982,1.034668,-0.012695,9.07135,-2.685547,-2.006531
-0.281982,1.030518,-0.01123,6.858825,-1.502991,-1.106262
-0.279785,1.030273,-0.009521,4.898071,-0.007629,-1.266479
-0.287598,1.022949,-0.007813,4.066467,0.50354,-1.502991
-0.306152,1.023193,-0.010254,4.302979,0.244141,-2.128601
-0.309814,1.027588,-0.010254,4.829407,-0.862122,-2.258301
-0.307861,1.0271,-0.010742,5.065917,-2.525329,-1.518249
-0.301758,1.020996,-0.013428,5.348205,-4.173279,-0.976562
-0.29834,1.01709,-0.010254,5.79071,-5.111694,-0.946045
-0.294678,1.019043,-0.010986,6.446838,-5.554199,-0.846863
-0.293457,1.019531,-0.01123,6.973266,-5.760192,-0.457764
-0.287598,1.022217,-0.01416,7.110595,-5.630493,-0.1297
-0.285889,1.026123,-0.015625,7.17163,-5.111694,0.106812
-0.2854,1.025391,-0.014648,6.500244,-4.272461,0.0
-0.28125,1.024658,-0.01416,5.531311,-2.944946,-0.38147
-0.281006,1.026367,-0.013672,4.890442,-1.365662,-0.518799
-0.283203,1.027832,-0.013428,4.211426,0.030518,-0.213623
-0.291748,1.027832,-0.020996,3.753662,0.808716,0.091553
-0.294922,1.023438,-0.024414,3.463745,1.083374,0.038147
-0.294922,1.017822,-0.029297,3.204345,1.022339,0.190735
-0.296875,1.015137,-0.032715,3.326416,1.00708,0.495911
-0.299316,1.015869,-0.031006,3.448486,0.907898,0.831604
-0.298828,1.02124,-0.029785,3.288269,0.75531,1.197815
-0.298096,1.024414,-0.031738,3.219604,0.839233,1.38855
-0.295898,1.024658,-0.031982,3.15094,1.190186,1.289368
-0.296387,1.027832,-0.033936,2.708435,1.89209,0.907898
-0.300049,1.0271,-0.032227,2.418518,2.738952,0.640869
-0.303223,1.0271,-0.027832,2.113342,3.65448,0.465393
-0.301514,1.026855,-0.025146,1.800537,4.676819,0.488281
-0.305664,1.023193,-0.02832,1.663208,5.447387,0.175476
-0.316406,1.025146,-0.028076,1.068115,6.103515,-0.976562
-0.325684,1.02832,-0.023926,0.0,6.729125,-2.349854
-0.310303,1.025879,-0.014404,-1.25885,7.67517,-2.479553
-0.29126,1.017578,-0.012207,-1.770019,8.43811,-0.907898
-0.28418,1.008545,-0.016846,-0.869751,9.056091,0.297546
-0.296631,1.007568,-0.023682,1.12915,9.017944,-0.022888
-0.321533,1.013184,-0.027832,2.532959,8.087158,-1.518249
-0.328125,1.023682,-0.030273,2.586365,6.095886,-2.281189
-0.312012,1.032227,-0.026123,1.464844,3.753662,-1.075745
-0.289795,1.022461,-0.04126,1.159668,1.365662,1.945495
-0.286133,1.009521,-0.041504,3.280639,-0.862122,4.394531
-0.286133,1.009277,-0.038818,4.547119,-1.037598,4.447937
-0.295898,1.015381,-0.041748,4.692078,-0.259399,3.036499
-0.324951,1.010254,-0.04126,3.547668,-0.473022,0.534058
-0.321777,1.008301,-0.044434,3.791809,0.083923,-0.572205
-0.294189,1.01416,-0.046875,5.058288,1.63269,0.854492
-0.288818,1.015625,-0.052979,5.134582,3.700256,2.174377
-0.305664,1.013428,-0.064697,5.012512,6.401062,1.068115
-0.322021,1.019531,-0.072998,5.645751,8.026123,-0.587463
-0.319824,1.023682,-0.071777,6.67572,7.6828,-0.671387
-0.313477,1.025146,-0.070801,6.820678,6.256103,-0.137329
-0.305908,1.020996,-0.063477,5.645751,4.737854,0.595093
-0.299072,1.010254,-0.05957,5.180358,3.387451,1.487732
-0.29248,0.999756,-0.057129,5.889892,2.441406,2.14386
-0.290039,0.990967,-0.059814,6.752014,1.853943,2.464294
-0.295166,0.988037,-0.061279,7.408142,1.480102,2.044678
-0.296387,0.996826,-0.066162,8.224487,1.38855,1.502991
-0.292725,1.009766,-0.071045,8.750916,1.739502,1.663208
-0.287598,1.015381,-0.071777,8.590698,2.960205,2.418518
-0.285889,1.015869,-0.074219,8.079529,4.806519,3.39508
-0.282715,1.015625,-0.079102,8.583069,6.851196,4.524231
-0.283691,1.015869,-0.07959,9.590149,8.895874,5.66864
-0.282471,1.009521,-0.081787,10.581969,10.894774,6.408691
-0.282471,1.001221,-0.083008,11.83319,12.657165,6.690979
-0.282715,0.990479,-0.090576,13.587951,14.190673,6.774902
-0.28418,0.987061,-0.099365,15.411376,15.640258,6.881713
-0.284424,0.987549,-0.101074,16.76178,16.76178,7.247924
-0.285645,0.987305,-0.101074,17.784119,17.539978,8.148193
-0.291748,0.98877,-0.102051,18.669128,17.921448,8.926392
-0.294678,0.987793,-0.103271,19.714355,17.478943,9.552002
-0.288086,0.98877,-0.10376,20.797728,17.150879,9.750366
-0.278809,0.991943,-0.103271,21.423338,17.341614,9.841919
-0.277832,0.985107,-0.108643,21.766661,17.623901,9.933472
-0.273682,0.976563,-0.110107,22.674559,18.638611,9.918213
-0.263672,0.968018,-0.110596,23.773191,20.561216,9.536743
-0.260742,0.962158,-0.114746,24.80316,22.789,9.475708
-0.268311,0.955566,-0.116211,25.573729,24.681089,9.841919
-0.273926,0.944824,-0.116943,25.901793,25.688169,9.941101
-0.273438,0.93042,-0.112549,26.290892,25.688169,10.307311
-0.267334,0.914795,-0.113281,27.046202,25.291441,10.643004
-0.263916,0.904053,-0.118652,28.182981,24.92523,11.634826
-0.263672,0.898438,-0.121826,29.273985,24.017332,13.084411
-0.267578,0.888672,-0.117676,29.71649,22.544859,14.877318
-0.27002,0.880859,-0.064453,29.45709,20.736692,16.242981
-0.252197,0.872803,0.002686,28.129576,19.65332,15.747069
-0.233643,0.856445,0.013184,28.366087,20.164488,15.281676
-0.227539,0.841553,0.008789,29.556273,22.811888,14.526366
-0.218994,0.809814,0.010498,26.290892,29.144285,13.046264
-0.218994,0.757568,0.010742,18.318176,37.04071,10.528563
-0.223633,0.693359,0.013916,9.002686,45.166012,6.744384
-0.226318,0.62085,0.017822,0.816345,52.612301,2.983093
-0.23291,0.547852,0.010986,-5.1651,57.975765,-0.1297
-0.249756,0.482178,0.011719,-8.110046,60.821529,-2.883911
-0.269531,0.435547,0.016602,-8.163452,61.576839,-4.806519
-0.292969,0.401611,0.027588,-6.29425,58.731075,-5.622863
-0.30957,0.37915,0.037842,-3.852844,52.764889,-6.683349
-0.297363,0.364746,0.034668,-2.044678,45.349117,-8.18634
-0.277344,0.343994,0.01416,-2.02179,37.132263,-9.651184
-0.259277,0.320313,-0.007813,-2.380371,29.396055,-11.070251
-0.243652,0.314209,-0.023193,-1.426697,23.994444,-12.252807
-0.237061,0.333984,-0.023682,1.846313,20.500181,-11.947631
-0.24292,0.373535,-0.008057,6.759643,17.951965,-10.154723
-0.266602,0.42041,0.009277,9.559631,14.793395,-8.392334
-0.283936,0.460205,0.006348,8.125305,9.712219,-7.987976
-0.28125,0.482422,-0.014893,3.669739,3.02124,-7.835388
-0.261719,0.501953,-0.041748,-0.50354,-3.593445,-6.385803
-0.237549,0.538086,-0.046875,-1.655578,-8.94165,-2.746582
-0.230469,0.604248,-0.041504,0.183105,-12.84027,2.716064
-0.23999,0.701416,-0.033447,2.914428,-15.190124,8.972168
-0.250488,0.818604,-0.027344,2.586365,-15.838622,15.274047
-0.260742,0.925293,-0.027588,-4.554749,-15.029906,21.263121
-0.245361,1.012695,-0.060059,-16.654968,-11.825561,26.763914
-0.239014,1.114502,-0.081543,-26.298521,-7.751464,33.126831
-0.286377,1.261963,-0.092285,-29.815672,-4.478455,38.825989
-0.344238,1.411377,-0.140869,-32.234192,-2.662658,40.382381
-0.395996,1.543457,-0.162598,-37.002563,-4.348755,37.841797
-0.422852,1.650391,-0.132813,-47.485348,-7.751464,32.562256
-0.429199,1.678711,-0.115967,-64.590454,-10.551452,26.489256
-0.435791,1.58667,-0.137695,-81.901543,-11.71112,20.629881
-0.406738,1.450439,-0.148193,-91.850273,-10.475158,14.640807
-0.324951,1.328125,-0.160645,-93.40667,-3.829956,8.361816
-0.249023,1.283691,-0.143311,-91.155998,12.519835,1.502991
-0.238525,1.308105,-0.076172,-94.91729,39.894104,-7.324218
-0.311035,1.357422,0.01001,-108.5205,70.167542,-18.821716
-0.406738,1.320068,0.025879,-124.053947,91.00341,-32.463074
-0.476563,1.185059,0.010498,-129.058838,96.755974,-49.057003
-0.475098,1.0625,0.032715,-121.536247,93.39904,-67.78717
-0.443359,1.059082,0.114746,-107.536308,91.712944,-81.367485
-0.459961,1.176025,0.222168,-96.397392,95.008842,-85.235588
-0.518311,1.268066,0.251953,-91.957085,97.358696,-83.923332
-0.550781,1.238525,0.230225,-85.350029,93.91021,-85.807793
-0.520264,1.217773,0.247314,-74.317932,84.968559,-93.971245
-0.450439,1.246826,0.274414,-67.214966,75.080872,-102.699272
-0.424072,1.286133,0.287842,-64.38446,66.28418,-107.276909
-0.447754,1.299805,0.279785,-61.981197,59.410091,-111.053459
-0.463623,1.298584,0.2771,-58.128353,54.244991,-118.659966
-0.512451,1.251709,0.313477,-50.750729,47.58453,-127.342216
-0.84375,1.143066,0.444336,-20.782469,0.648498,-145.126343
-0.937012,1.296631,0.466553,30.250547,-115.554802,-179.061874
-0.552002,1.538574,0.506592,41.53442,-223.281845,-178.085312
0.039795,1.626465,0.538086,17.356873,-249.992355,-126.91497
0.246826,1.596924,0.474121,-27.534483,-248.275742,-70.159912
0.096924,1.620117,0.327881,-81.05468,-224.662766,-42.083736
-0.040771,1.675049,0.1875,-136.199951,-188.995346,-37.216187
-0.122559,1.493896,0.068848,-170.883163,-136.680603,-43.998714
-0.17334,1.291504,0.088135,-137.85553,-52.726742,-71.578979
-0.240234,1.291748,0.079102,-88.539116,46.096798,-97.534172
-0.354004,1.388916,0.046387,-69.198608,139.694214,-110.374443
-0.465576,1.461426,0.033447,-69.442749,216.346725,-121.185295
-0.630859,1.444092,0.072754,-78.117371,249.992355,-126.754753
-0.947021,1.325928,0.030273,-84.70916,249.992355,-122.055046
-1.13501,1.311279,0.062988,-67.810059,219.230637,-112.838737
-1.043945,1.368164,0.072021,-44.494625,155.784607,-96.405022
-0.883545,1.386719,0.022705,-30.624388,97.190849,-71.228027
-0.808594,1.305664,-0.020264,-23.124693,59.715267,-49.34692
-0.805908,1.137695,-0.009521,-13.015746,39.848328,-39.993286
-0.806396,0.973145,0.046875,3.440857,31.723021,-38.330078
-0.800049,0.826416,0.095947,20.828245,30.639647,-35.987854
-0.846436,0.692139,0.160889,33.607483,28.182981,-33.721924
-0.931641,0.583008,0.231934,37.986755,21.492002,-35.926819
-1.010254,0.486816,0.269043,35.02655,10.597228,-39.710999
-1.035645,0.38916,0.244385,32.432556,-2.632141,-36.582947
-1.025635,0.319824,0.227539,36.003113,-17.51709,-22.926329
-1.009277,0.29541,0.232178,43.472286,-32.852173,-3.959656
-0.995605,0.331787,0.223389,52.459713,-45.776363,13.809203
-0.981689,0.392822,0.192871,58.052059,-54.069515,27.053831
-0.939453,0.408203,0.132813,57.136532,-60.035702,32.37915
-0.885986,0.336426,0.098389,54.000851,-65.299988,31.196592
-0.803711,0.262939,0.116211,55.839535,-68.809509,23.063658
-0.755371,0.257568,0.122559,60.798641,-75.85144,6.820678
-0.815186,0.305176,0.131836,62.385555,-87.577812,-14.518737
-0.880371,0.398682,0.176025,59.097286,-96.443169,-32.76825
-0.891846,0.491943,0.222412,50.895687,-103.569023,-38.818359
-0.870605,0.530518,0.25,39.69574,-110.771172,-33.294678
-0.822266,0.507813,0.26709,28.861998,-115.44799,-23.582457
-0.762207,0.460938,0.297852,21.728514,-115.82946,-15.99121
-0.708496,0.434326,0.315918,18.90564,-109.596245,-13.252257
-0.655273,0.433105,0.289307,21.194456,-95.817558,-13.603209
-0.61792,0.467529,0.255615,26.153563,-76.278687,-13.442992
-0.595703,0.519287,0.213867,28.755186,-55.511471,-13.587951
-0.62793,0.551758,0.161133,24.978636,-42.556759,-16.769409
-0.716797,0.517822,0.130615,16.143799,-42.083736,-24.070738
-0.766602,0.48999,0.189697,7.575988,-45.936581,-32.623291
-0.722412,0.497559,0.300781,2.63977,-45.280453,-35.369873
-0.67334,0.522217,0.371826,2.372742,-42.839046,-32.409668
-0.681152,0.58252,0.375732,9.437561,-44.746395,-28.923033
-0.691895,0.691406,0.354736,19.40918,-52.818295,-28.808592
-0.676514,0.779297,0.327148,20.408628,-64.369202,-31.86035
-0.668701,0.770752,0.29541,11.32965,-74.661255,-36.430359
-0.671387,0.699219,0.268555,2.693176,-82.237236,-42.442318
-0.690186,0.675049,0.306641,-1.846313,-93.101494,-45.173641
-0.747559,0.717773,0.39209,-6.736755,-106.712334,-43.746944
-0.77417,0.803711,0.435547,-11.779784,-115.20385,-40.962215
-0.761963,0.897705,0.458984,-16.433716,-118.293755,-35.438538
-0.766602,0.939453,0.454346,-17.349243,-120.132439,-26.657103
-0.699951,0.931641,0.451904,-15.037536,-115.280144,-19.477844
-0.598633,0.920166,0.445801,-15.983581,-101.547234,-15.037536
-0.547607,0.948486,0.427246,-24.719236,-79.063416,-16.38031
-0.578857,1.002441,0.467773,-35.560608,-48.019405,-24.780272
-0.63501,1.097412,0.49707,-48.46954,-13.442992,-38.230896
-0.744629,1.112305,0.472412,-66.551208,13.069152,-42.900082
-0.9021,0.974609,0.474609,-72.372437,25.344847,-36.064148
-0.947021,0.928711,0.462158,-75.561523,21.247862,-41.946407
-0.810059,0.964355,0.455078,-80.085754,10.467528,-52.589413
-0.800781,0.8125,0.46582,-82.550041,9.559631,-37.765503
-0.782471,0.778809,0.488281,-77.430725,14.47296,-34.332275
-0.727051,0.846924,0.487305,-76.202393,26.588438,-40.504452
-0.674805,0.814453,0.429932,-73.936462,41.099545,-43.594357
-0.729492,0.70459,0.424805,-63.827511,45.768734,-36.941528
-0.789307,0.681885,0.450439,-54.809566,42.785641,-32.791138
-0.829102,0.716797,0.478271,-47.637936,32.676697,-29.327391
-0.86792,0.748779,0.511963,-36.979675,11.421203,-19.78302
-0.830078,0.756348,0.5271,-21.949766,-18.2724,-10.147094
-0.745361,0.719727,0.500488,-7.583618,-49.064632,-1.800537
-0.686279,0.681641,0.469727,2.159119,-74.279785,2.464294
-0.646484,0.692627,0.427246,7.080078,-95.321648,1.037598
-0.649658,0.686279,0.40332,8.81958,-111.885063,5.889892
-0.647217,0.666992,0.384033,12.672423,-126.67083,14.060973
-0.588867,0.670898,0.419922,18.112183,-142.585754,16.616821
-0.51709,0.699463,0.455566,19.485474,-154.891968,16.616821
-0.4729,0.736328,0.457031,18.814087,-158.058167,21.530149
-0.454346,0.779541,0.425537,18.013,-154.563904,32.669067
-0.44751,0.774902,0.352295,16.082764,-145.088196,44.197079
-0.440186,0.759033,0.311035,15.441894,-127.54821,51.765438
-0.43335,0.770752,0.303467,13.47351,-99.685661,53.733822
-0.390869,0.79834,0.311768,9.643555,-67.634583,53.581234
-0.384766,0.812988,0.342529,7.942199,-42.266842,53.138729
-0.441406,0.886963,0.391357,15.266418,-18.371582,58.242794
-0.452393,0.936279,0.437256,19.302368,5.523681,59.715267
-0.439453,0.881836,0.410645,17.837524,32.524109,54.428097
-0.434082,0.846924,0.325195,21.118162,59.654232,52.330013
-0.493408,0.91333,0.227539,27.565001,77.362061,56.114193
-0.531006,1.067871,0.141602,31.593321,88.020317,61.470028
-0.532471,1.105225,0.080322,36.018372,90.324394,66.940308
-0.566895,1.031494,0.105225,39.093018,74.035645,68.214417
-0.558594,0.998779,0.180908,44.738766,42.839046,66.001892
-0.514404,1.053711,0.21582,58.2962,12.092589,73.745728
-0.47168,1.093994,0.178223,73.173523,-12.672423,84.129326
-0.433594,1.199219,-0.052246,88.447563,-30.59387,86.334221
-0.441162,1.657227,-0.062012,93.345634,-29.891966,87.188713
-0.464355,1.574219,0.019287,57.106014,-48.248287,89.767448
-0.716309,1.800537,0.380615,12.435912,-127.029411,72.761536
-0.473633,1.55249,0.878418,-56.716915,-158.584595,-0.610352
-0.147949,1.018799,1.032959,-71.144104,-108.215324,1.556396
-0.465576,0.828613,0.810791,-50.582882,-76.545715,61.759945
-0.498535,0.922363,0.740234,-39.901733,-60.424801,60.05859
-0.137451,0.874268,0.760986,-37.04834,-42.846676,41.206356
-0.076416,0.641113,0.771973,-20.050049,-21.659849,35.797119
-0.229248,0.606689,0.753174,6.04248,1.998901,24.955748
-0.276367,0.72168,0.658203,21.324156,18.65387,19.515991
-0.261963,0.770996,0.52832,26.237486,31.082151,24.345396
-0.398926,0.893311,0.432861,27.57263,30.624388,25.566099
-0.626465,0.952637,0.482178,23.109434,15.670775,14.045714
-0.654297,0.83252,0.547363,19.721985,-3.684997,2.349854
-0.438721,0.780273,0.58252,21.354673,-17.875671,7.438659
-0.300781,0.859619,0.576416,21.575926,-17.234802,19.348145
-0.355225,0.865479,0.520264,18.356323,-9.895325,18.196106
-0.441162,0.849121,0.49707,15.60974,-6.347656,10.116576
-0.435303,0.864014,0.504395,12.748717,-10.047912,8.857727
-0.289307,0.86792,0.511719,9.109497,-13.923644,12.260436
-0.279785,0.785889,0.577148,8.94928,-10.70404,16.143799
-0.364502,0.793945,0.580322,15.693664,-4.249573,10.627746
-0.445801,0.814453,0.531738,20.408628,-1.495361,10.353087
-0.412842,0.862061,0.526367,21.171568,-7.057189,11.222838
-0.286377,0.902588,0.508301,17.669678,-8.857727,12.367248
-0.321533,0.866211,0.542725,13.885497,-3.868103,9.101868
-0.349609,0.891113,0.518311,12.611388,2.5177,6.362915
-0.398438,0.844482,0.516113,9.681702,4.684448,5.859375
-0.439209,0.819824,0.528564,10.307311,2.655029,3.814697
-0.397217,0.8396,0.531738,11.894225,-3.379822,4.631042
-0.326416,0.866455,0.516846,13.618468,-6.736755,4.547119
-0.296143,0.860352,0.506104,13.85498,-5.775451,3.585815
-0.37207,0.847412,0.528076,15.327453,-2.876281,1.846313
-0.408691,0.873535,0.512207,16.75415,-1.693725,2.5177
-0.407227,0.858887,0.520508,16.098022,-3.669739,4.066467
-0.326416,0.86499,0.509521,14.503478,-5.027771,5.760192
-0.295166,0.867676,0.513672,10.32257,-2.151489,6.492614
-0.309814,0.896484,0.508545,8.468628,3.822326,6.500244
-0.324951,0.886719,0.527588,6.782531,6.645202,6.614685
-0.354492,0.885498,0.539307,7.484436,9.117126,6.057739
-0.373535,0.884766,0.52002,7.957458,8.766174,5.073547
-0.413818,0.894531,0.48291,6.118774,6.973266,5.500793
-0.446777,0.861816,0.440918,-0.572205,4.66156,8.842468
-0.426514,0.840332,0.515625,-4.234314,-0.328064,11.016845
-0.292969,0.880859,0.539063,-2.983093,-3.768921,12.672423
-0.297607,0.862549,0.541992,-1.998901,-0.244141,9.307861
-0.333984,0.879395,0.536377,1.373291,5.447387,6.744384
-0.289307,0.891357,0.534668,4.547119,7.026672,3.768921
-0.286133,0.910156,0.503174,6.156921,8.003235,-1.792908
-0.312744,0.895264,0.487793,2.761841,9.254456,-4.890442
-0.357666,0.856689,0.499023,-1.228333,10.841369,-4.379272
-0.404541,0.811768,0.523438,0.137329,10.971068,-3.120422
-0.383057,0.845703,0.54248,6.950378,6.828308,-2.204895
-0.341064,0.87207,0.521484,13.488769,3.700256,-2.624511
-0.350342,0.905762,0.489746,14.633178,3.936767,-3.456115
-0.284668,0.941895,0.462158,8.81958,4.951477,-2.952575
-0.325684,0.906738,0.490234,1.63269,9.056091,-2.433777
-0.407471,0.884766,0.482666,-0.175476,13.153075,-2.02179
-0.462891,0.849365,0.494385,-0.694275,10.658263,-1.586914
-0.318848,0.869629,0.508057,-1.220703,6.698608,0.724792
-0.351074,0.861816,0.507813,-1.441955,8.659363,1.045227
-0.381104,0.893799,0.499023,-0.312805,9.872437,-0.045776
-0.320068,0.918457,0.479492,-2.838135,8.18634,-0.717163
-0.374023,0.925781,0.458252,-8.903503,9.94873,-0.419617
-0.466309,0.879639,0.453125,-15.983581,8.499146,2.059937
-0.45166,0.848877,0.497803,-18.791199,2.288818,4.615784
-0.308594,0.836182,0.50293,-18.77594,-2.311707,7.865905
-0.320801,0.804443,0.570557,-12.786864,-1.365662,7.385253
-0.257324,0.862061,0.549072,-2.159119,0.846863,5.744934
-0.299561,0.875732,0.526855,4.089355,4.570007,1.159668
-0.334717,0.904053,0.477295,4.013062,7.499694,-0.328064
-0.383057,0.897705,0.484863,-1.678467,7.652282,0.228882
-0.354004,0.887207,0.485352,-6.286621,7.957458,1.945495
-0.38501,0.85376,0.511719,-9.880066,8.514404,3.868103
-0.43335,0.845459,0.517578,-7.064819,6.958007,4.875183
-0.462646,0.824707,0.505615,-2.26593,3.929138,7.057189
-0.443848,0.842041,0.518555,2.670288,-0.549316,9.58252
-0.279541,0.892578,0.506104,4.768372,-3.64685,9.780884
-0.261719,0.900879,0.501465,3.486633,-0.152588,8.285522
-0.343018,0.86377,0.520752,2.708435,3.768921,6.950378
-0.334473,0.866943,0.524658,5.561828,5.180358,6.004333
-0.23877,0.904785,0.49585,4.203796,8.087158,6.896972
-0.302246,0.911377,0.481201,-2.998352,14.625548,6.462097
-0.311768,0.908447,0.457275,-10.375976,18.600464,6.935119
-0.318848,0.845947,0.539307,-12.123107,20.26367,7.209777
-0.230713,0.848633,0.548828,-3.90625,24.787901,6.072998
-0.289795,0.859619,0.536133,5.401611,30.632017,3.448486
-0.353271,0.870361,0.514893,11.924743,34.545898,1.541138
-0.427246,0.857178,0.494629,16.090393,35.820007,0.579834
-0.511475,0.856689,0.473145,17.677307,32.524109,1.068115
-0.476074,0.856201,0.47876,18.112183,23.963926,1.068115
-0.374756,0.872803,0.480469,19.081116,17.417908,-1.541138
-0.370361,0.899658,0.462646,16.517639,15.579223,-3.341675
-0.402588,0.901611,0.461182,11.924743,15.876769,-4.135132
-0.413818,0.880859,0.470947,9.086609,14.533996,-5.340576
-0.386719,0.896729,0.455566,9.262085,11.375426,-6.66809
-0.272949,0.915527,0.467529,7.110595,9.048462,-8.743286
-0.364502,0.875,0.48999,5.821228,12.351989,-11.466979
-0.48877,0.862549,0.454834,7.667541,12.535094,-12.481688
-0.499512,0.880371,0.430664,7.858276,5.966186,-12.779235
-0.361572,0.921387,0.419189,2.632141,-0.358582,-13.458251
-0.414551,0.871094,0.455811,-3.89862,-0.312805,-13.404845
-0.462646,0.844727,0.474609,-4.859924,-0.961304,-12.451171
-0.395996,0.884033,0.462891,-2.723694,-4.211426,-11.71112
-0.422363,0.871094,0.467285,-2.754211,-3.601074,-8.880615
-0.508789,0.868408,0.451904,-3.829956,-3.433227,-4.959106
-0.466064,0.842773,0.473389,-2.716064,-9.635925,-1.907349
-0.375488,0.848877,0.504395,1.266479,-13.404845,-3.517151
-0.231201,0.903809,0.497314,6.843566,-12.023925,-7.385253
-0.196045,0.93457,0.476807,9.277344,-4.585266,-12.382506
-0.436035,0.916748,0.425049,4.493713,4.646301,-13.809203
-0.640625,0.853516,0.419678,-1.350403,2.319336,-9.902954
-0.481934,0.864258,0.449951,-3.456115,-9.475708,-7.17926
-0.187012,0.927734,0.485107,-5.325317,-13.328551,-9.811401
-0.327393,0.89502,0.493408,-8.705139,-2.510071,-11.58142
-0.521484,0.862061,0.459717,-7.850646,2.433777,-9.83429
-0.53125,0.873779,0.432373,-6.393432,-4.150391,-7.6828
-0.428467,0.878906,0.466797,-7.911682,-14.85443,-7.751464
-0.248535,0.899658,0.516602,-7.202148,-19.538879,-13.961791
-0.303711,0.928955,0.484375,-10.345458,-10.597228,-18.630981
-0.482666,0.872314,0.476074,-16.403198,-1.091003,-15.220641
-0.523438,0.845459,0.459473,-18.043518,-2.784729,-9.277344
-0.501221,0.819336,0.486816,-13.244628,-10.841369,-6.210327
-0.493896,0.817139,0.477783,-4.974365,-20.751951,-5.935668
-0.459229,0.813965,0.499756,3.707886,-29.884336,-7.865905
-0.356689,0.838379,0.516113,12.367248,-33.416748,-9.872437
-0.261719,0.864502,0.519287,18.791199,-28.572081,-11.96289
-0.304932,0.904541,0.440674,13.687133,-21.743773,-11.589049
-0.505859,0.807861,0.533203,11.466979,-21.621702,-12.451171
-0.443359,0.826904,0.473389,19.477844,-25.939939,-10.520934
-0.446289,0.813721,0.514404,25.352476,-31.684874,-9.20105
-0.401367,0.837402,0.478516,31.051634,-34.675598,-8.468628
-0.370117,0.8396,0.520752,41.572567,-42.724606,-12.016295
-0.271484,0.893799,0.516846,53.268429,-47.721859,-17.89856
-0.288818,0.898926,0.490479,50.964352,-41.40472,-17.921448
-0.417725,0.849121,0.515381,47.607418,-31.692503,-15.213012
-0.404541,0.866943,0.464355,48.164364,-26.664732,-9.094238
-0.41748,0.892578,0.470703,49.392696,-23.78845,-8.31604
-0.543213,0.91748,0.406006,47.164913,-24.620054,-8.857727
-0.483154,0.906738,0.462158,46.630856,-37.712097,-11.947631
-0.240967,0.9375,0.429443,44.403072,-39.993286,-13.435363
-0.108398,0.928955,0.428711,40.039063,-31.196592,-17.196655
-0.392334,0.886475,0.418701,38.764954,-18.508911,-22.720335
-0.640137,0.864258,0.446777,42.16003,-25.367735,-24.368284
-0.510742,0.888916,0.429443,42.953487,-39.108276,-20.584105
-0.466309,0.918213,0.423096,39.44397,-43.251034,-18.760681
-0.398926,0.933594,0.429932,37.17041,-41.709896,-20.446775
-0.174316,0.962158,0.444824,38.124084,-36.445618,-26.824949
0.043213,0.913086,0.385986,37.391663,-34.011841,-34.790039
-0.420898,0.861084,0.499512,43.502804,-28.366087,-40.519711
-0.62207,0.825195,0.390137,53.192135,-26.115416,-34.90448
-0.677246,0.830322,0.41333,48.400875,-37.200928,-26.641844
-0.556152,0.890137,0.543945,39.482117,-43.495174,-17.547607
-0.25415,0.972656,0.60791,29.525755,-59.700008,-19.248962
-0.255371,0.989746,0.456543,21.492002,-72.166443,-32.356262
-0.321045,0.970703,0.172607,19.134521,-74.363708,-44.845577
-0.15332,0.892334,0.244629,24.734495,-66.207886,-42.503353
-0.586182,0.873779,0.170654,26.519773,-46.470638,-37.277222
-0.872559,0.848145,0.215088,26.916502,-24.742125,-28.999327
-0.499756,0.94165,0.30957,13.778686,-26.031492,-15.090941
-0.309082,1.043701,0.356689,-0.862122,-22.384642,-10.726928
-0.384033,1.011719,0.329834,-14.839171,-15.998839,-15.86151
-0.4646,0.949951,0.24707,-30.456541,-12.71057,-17.974854
-0.446045,0.865723,0.266846,-46.836849,-14.869689,-15.686034
-0.389648,0.847412,0.403564,-55.702206,-12.451171,-11.253356
-0.435791,0.861084,0.486816,-53.108212,0.450134,-7.04956
-0.466553,0.909424,0.492188,-42.282101,8.651733,-5.279541
-0.422363,0.939697,0.46582,-36.430359,10.70404,-6.980896
-0.325439,0.962646,0.364258,-38.108826,13.244628,-8.758545
-0.361328,0.903809,0.394043,-48.851009,14.007567,-8.773804
-0.459717,0.811035,0.499023,-49.453732,12.96997,-7.896423
-0.529297,0.784912,0.500732,-34.759521,11.550902,-9.109497
-0.42334,0.864014,0.425049,-24.16992,10.330199,-7.240295
-0.31665,0.909424,0.462646,-33.14209,11.07788,-1.396179
-0.414307,0.918701,0.442383,-39.68811,18.066406,1.464844
-0.543213,0.87793,0.425537,-40.054321,22.674559,-4.051208
-0.540283,0.812744,0.479248,-39.077759,17.555237,-9.231567
-0.388916,0.807373,0.501953,-35.064697,13.603209,-7.659912
-0.358887,0.813477,0.572266,-27.343748,12.107848,-3.379822
-0.355713,0.866455,0.501709,-14.739989,16.532898,-6.027221
-0.392578,0.882813,0.471924,-13.916015,21.408079,-9.223938
-0.455566,0.937256,0.395996,-22.78137,23.323057,-6.683349
-0.56665,0.872803,0.434326,-35.469055,23.109434,-9.307861
-0.603516,0.787109,0.482422,-41.397091,18.814087,-9.880066
-0.580811,0.776367,0.519043,-35.667419,14.564513,-6.225585
-0.471191,0.758545,0.53833,-23.605345,8.972168,-6.683349
-0.2854,0.859375,0.501953,-16.090393,6.942749,-4.737854
-0.35376,0.871582,0.52417,-19.844055,9.353638,-4.180908
-0.519043,0.834229,0.496094,-17.272949,16.296387,-10.513305
-0.657471,0.821045,0.424072,-19.981384,15.220641,-9.864807
-0.585449,0.785156,0.484863,-24.505613,3.387451,-3.768921
-0.28833,0.783936,0.591064,-19.325256,-2.861023,-0.595093
-0.28418,0.80542,0.606445,-6.103515,8.529663,-6.385803
-0.474365,0.805176,0.510254,4.318237,22.956846,-14.938354
-0.66748,0.8125,0.446045,3.517151,22.331236,-14.541625
-0.540771,0.86084,0.432617,-6.080627,12.344359,-4.302979
-0.500977,0.852539,0.474365,-15.083312,6.698608,1.251221
-0.575195,0.760254,0.518066,-14.404296,4.310608,-2.777099
-0.491211,0.757813,0.537842,-5.973815,-0.511169,-3.570556
-0.410645,0.806885,0.538574,1.38855,-0.38147,-3.875732
-0.360596,0.846436,0.537598,3.738403,4.852295,-6.080627
-0.504883,0.856934,0.479004,0.953674,11.802672,-8.285522
-0.70166,0.799805,0.423828,-5.393981,10.887145,-8.346558
-0.588623,0.797852,0.468262,-11.550902,-1.197815,-1.266479
-0.440186,0.797607,0.543701,-9.70459,-8.384705,1.533508
-0.399414,0.76709,0.572266,-0.495911,-6.599426,-3.677368
-0.359131,0.809814,0.549561,6.011962,-0.297546,-5.874633
-0.521973,0.834229,0.502441,5.714416,8.483887,-5.378723
-0.678223,0.818848,0.432861,1.113892,7.942199,-3.326416
-0.625732,0.821777,0.438965,-5.989074,-3.440857,3.181457
-0.443848,0.808594,0.522461,-9.078979,-11.32965,6.469726
-0.361572,0.804443,0.567627,-4.798889,-7.17163,4.234314
-0.407471,0.801758,0.550049,0.663757,1.64032,-0.62561
-0.44751,0.810303,0.520752,3.77655,7.92694,-3.39508
-0.581543,0.822998,0.46167,1.228333,10.025024,-2.304077
-0.688477,0.797363,0.431152,-3.845215,2.944946,1.228333
-0.523926,0.789795,0.493652,-5.737304,-8.68988,5.516052
-0.379395,0.820313,0.541504,-3.540039,-10.32257,7.041931
-0.42334,0.795898,0.550049,0.221252,-3.234863,3.013611
-0.473633,0.795166,0.5271,3.829956,1.724243,0.350952
-0.476318,0.802734,0.529541,5.714416,4.631042,-0.144958
-0.541748,0.82666,0.473633,5.149841,7.514953,0.640869
-0.622559,0.817871,0.439209,2.609253,3.753662,2.418518
-0.520264,0.792969,0.492432,3.27301,-5.554199,2.731323
-0.424805,0.80127,0.534912,7.003784,-8.117676,1.091003
-0.380371,0.807617,0.562744,10.32257,-3.829956,-1.00708
-0.428467,0.799561,0.560059,12.168883,2.754211,-1.976013
-0.514648,0.835205,0.482422,12.260436,8.18634,-0.259399
-0.640869,0.838867,0.416992,8.903503,6.309509,1.831055
-0.545166,0.805908,0.47168,7.095336,-3.555298,2.441406
-0.46167,0.808838,0.498291,8.728027,-8.041382,1.701355
-0.474365,0.792725,0.529785,12.641906,-7.347106,-0.297546
-0.439697,0.79541,0.540771,16.891479,-5.462646,-1.12915
-0.426025,0.82373,0.528564,18.753052,-1.846313,-0.12207
-0.506104,0.846924,0.465576,17.280579,2.578735,1.38092
-0.544922,0.838379,0.455322,14.282226,1.480102,2.6474
-0.502197,0.836426,0.466553,12.252807,-1.251221,3.433227
-0.474365,0.816895,0.496094,12.245177,-1.335144,3.692627
-0.475098,0.822266,0.488037,13.183593,0.030518,4.180908
-0.4646,0.827148,0.504395,12.596129,0.686645,5.401611
-0.458984,0.847168,0.486816,11.001586,2.128601,6.301879
-0.585938,0.867432,0.391602,6.637573,2.677917,7.598876
-0.581299,0.830811,0.441406,2.113342,-5.439758,8.972168
-0.419678,0.845947,0.474854,1.335144,-11.337279,8.728027
-0.465576,0.820801,0.495361,2.388,-10.635375,6.324768
-0.465332,0.794678,0.524902,7.583618,-10.101317,5.058288
-0.439453,0.823486,0.525391,11.650084,-8.041382,7.011413
-0.41626,0.86499,0.477539,11.734008,-2.861023,9.399414
-0.556885,0.87085,0.40332,7.545471,0.999451,11.291503
-0.539795,0.826172,0.471924,5.455017,-4.455566,12.527465
-0.38501,0.82666,0.520508,7.759094,-6.752014,12.603759
-0.390869,0.853027,0.502441,8.956909,-0.961304,12.939452
-0.47583,0.864014,0.46875,7.499694,3.219604,12.855529
-0.534912,0.872559,0.415039,2.822876,1.937866,14.396667
-0.556641,0.861328,0.416992,-2.304077,-4.386902,17.150879
-0.405518,0.834961,0.516113,-1.205444,-10.406493,17.326355
-0.380371,0.83252,0.517334,2.220154,-5.317688,16.693115
-0.453613,0.841309,0.5,4.936218,1.716614,17.906189
-0.462402,0.861816,0.484375,4.760742,1.121521,18.104553
-0.447021,0.884277,0.450439,1.480102,-0.12207,18.943787
-0.480469,0.884277,0.421875,-3.39508,0.991821,20.950315
-0.479492,0.862061,0.454834,-5.615234,-0.900268,21.713255
-0.407471,0.854004,0.492676,-5.599975,-3.837585,21.080015
-0.398682,0.848877,0.505859,-3.227234,-2.487183,19.760132
-0.448486,0.852051,0.488525,-1.815796,-0.228882,20.225523
-0.424805,0.872803,0.481201,-2.807617,-1.060486,21.324156
-0.39624,0.899902,0.447998,-6.805419,0.587463,23.490904
-0.453369,0.885498,0.444336,-10.307311,3.761291,24.879454
-0.446289,0.866699,0.470215,-11.840819,2.059937,24.559019
-0.392334,0.861328,0.485352,-12.283324,-1.281738,22.346495
-0.359375,0.851074,0.515869,-11.375426,-0.572205,21.308897
-0.405273,0.84082,0.506592,-8.171082,2.288818,22.834776
-0.450195,0.866699,0.485596,-6.141662,2.89154,25.436399
-0.450195,0.884766,0.460449,-8.277893,1.235962,27.19879
-0.385498,0.880371,0.477539,-9.727478,-0.923157,28.114317
-0.365479,0.877441,0.497314,-11.093139,-2.731323,29.197691
-0.412598,0.874023,0.49292,-9.063721,-2.494812,28.923033
-0.427246,0.853027,0.497314,-7.919311,-3.952026,27.900694
-0.37793,0.859375,0.529297,-8.628845,-7.270813,26.504515
-0.343262,0.901855,0.503662,-10.719298,-9.811401,26.969908
-0.346924,0.922607,0.500977,-12.916564,-6.79779,30.662535
-0.365479,0.915283,0.494629,-19.798279,-2.02179,35.133362
-0.415771,0.898438,0.490967,-22.430418,1.434326,35.842896
-0.36084,0.8479,0.491211,-20.179747,-1.579285,31.562803
-0.197754,0.806152,0.582764,-15.518188,-3.692627,26.046751
-0.18335,0.83252,0.587402,-13.671874,-3.555298,22.567747
-0.547607,0.858887,0.465332,-8.934021,-5.53894,23.452757
-0.716064,0.874023,0.431885,-3.219604,-20.713804,28.388975
-0.522949,0.82959,0.53418,-1.602173,-39.222717,38.612366
-0.348145,0.8479,0.519043,4.608154,-50.537106,41.473385
-0.079346,0.974121,0.481201,4.867554,-48.133846,44.036861
-0.05542,0.827881,0.556396,0.762939,-23.605345,53.009029
-0.364014,0.847168,0.530762,4.570007,-14.312743,46.096798
-0.551514,0.891602,0.416992,5.134582,-18.325806,43.083187
-0.557861,0.89624,0.415283,5.722045,-25.375364,38.322449
0.004883,0.909668,0.551025,0.770569,-25.436399,36.193848
0.151611,0.819336,0.590332,1.808166,-16.166687,27.603148
0.040527,0.901123,0.531738,5.516052,6.759643,10.551452
-0.031982,0.820068,0.59668,2.990722,12.176513,3.27301
-0.177246,0.875977,0.53833,7.965087,14.60266,-7.606506
-0.312744,0.909668,0.482422,12.428283,15.73944,-12.695312
-0.38623,0.900879,0.482422,9.681702,13.008117,-12.977599
-0.317871,0.915039,0.498047,5.813598,8.842468,-10.643004
-0.246826,0.889648,0.518799,4.501343,7.354736,-7.781982
-0.295166,0.890381,0.509277,5.973815,9.33075,-8.422852
-0.35791,0.922607,0.478271,7.110595,7.492065,-9.567261
-0.432373,0.894775,0.498779,5.775451,1.869202,-6.118774
-0.480225,0.894043,0.482178,4.646301,-3.799438,0.427246
-0.352295,0.893799,0.500977,2.571106,-12.031554,7.736206
-0.164063,0.893311,0.52002,2.479553,-15.2359,9.246826
-0.1521,0.884521,0.522705,3.890991,-11.230468,5.485534
-0.202148,0.901855,0.506104,5.279541,-10.44464,0.091553
-0.252197,0.898193,0.509033,5.828857,-12.977599,-3.120422
-0.341797,0.894043,0.496826,6.576538,-13.671874,-3.356933
-0.344727,0.880371,0.502686,7.43103,-18.203735,-0.396728
-0.262695,0.871338,0.526855,12.443542,-26.290892,2.494812
-0.215576,0.882568,0.50708,18.013,-29.518126,1.869202
-0.200928,0.890381,0.51001,21.728514,-29.647825,-1.38855
-0.125,0.904053,0.512939,23.643492,-30.59387,-5.447387
-0.212402,0.884277,0.526611,26.657103,-33.821106,-11.184691
-0.330322,0.9021,0.504883,31.837461,-33.630371,-13.610839
-0.36499,0.903076,0.506836,34.332275,-38.467407,-7.949829
-0.323242,0.914551,0.469238,33.790588,-40.695187,-3.52478
-0.287354,0.915527,0.474121,33.248901,-38.482666,-1.968384
-0.19873,0.928223,0.484131,33.821106,-36.628723,-3.227234
-0.150879,0.911133,0.501953,35.171509,-37.612915,-8.789063
-0.175537,0.924072,0.485596,37.696838,-35.896301,-18.90564
-0.291992,0.944092,0.463379,36.697388,-32.76825,-25.344847
-0.350098,0.930664,0.4646,32.501221,-37.849426,-26.954649
-0.298584,0.940918,0.456787,28.312681,-42.457577,-25.985716
-0.303467,0.963867,0.481445,25.917051,-47.264095,-26.512144
-0.284668,0.966797,0.558838,26.016233,-59.082027,-31.219481
-0.039551,0.894531,0.533447,24.787901,-79.856873,-35.331726
0.01123,0.820557,0.391113,24.131773,-87.882988,-42.602535
-0.248535,0.958252,0.27124,19.515991,-47.492977,-45.028683
-0.466309,1.021729,0.307129,13.694762,-11.054992,-28.030394
-0.300537,0.992188,0.44873,8.201599,-10.772704,-17.372131
-0.236816,0.988281,0.448242,3.509521,-13.633727,-18.951416
-0.257568,0.975586,0.453613,2.13623,-12.794494,-26.893614
0.015137,0.905518,0.473633,0.045776,-24.497984,-32.63092
0.066406,0.824951,0.301514,-8.117676,-25.032042,-38.208008
-0.565186,0.970947,0.314453,-17.814636,14.312743,-42.335506
-0.643311,0.97583,0.439941,-21.278379,25.077818,-19.920349
-0.165771,0.913818,0.560547,-19.790649,-0.488281,-5.477905
-0.164551,0.956543,0.504639,-13.732909,5.874633,-15.243529
-0.297119,0.964111,0.420654,-8.911133,16.975403,-27.755735
-0.15625,0.901367,0.441895,-9.605408,11.344909,-35.942078
-0.05249,0.874268,0.395264,-14.373778,12.802123,-43.80798
-0.25708,0.890625,0.434082,-18.859863,31.692503,-46.081539
-0.591064,0.916016,0.467773,-21.301268,44.662472,-37.727356
-0.506592,0.898926,0.469238,-16.372681,36.903381,-25.985716
-0.226563,0.92334,0.463135,-15.228271,27.618406,-21.026609
-0.226807,0.919922,0.510498,-15.937804,27.595518,-23.651121
-0.212646,0.876953,0.46167,-8.224487,29.846189,-32.196045
-0.252197,0.881104,0.458496,-7.614135,28.373716,-32.936096
-0.524414,0.886475,0.463867,-11.58142,33.958435,-34.77478
-0.384277,0.887207,0.429932,-9.254456,33.760071,-31.501768
-0.32959,0.906738,0.48291,-15.594481,30.570982,-26.405333
-0.495117,0.868164,0.456299,-9.765625,39.642334,-27.244566
-0.558838,0.823242,0.511963,-0.053406,32.63855,-29.243467
-0.498535,0.841064,0.491943,10.185241,21.217344,-23.681639
-0.346924,0.9104,0.464844,17.906189,16.960144,-23.765562
-0.078857,0.976074,0.405762,8.094788,17.494202,-24.192808
-0.237549,0.953369,0.424316,-11.062621,21.324156,-23.193357
-0.560547,0.860107,0.415771,-15.563964,32.402039,-26.237486
-0.714844,0.786865,0.451172,-12.474059,30.616758,-24.414061
-0.57666,0.841309,0.482666,-5.958557,18.127441,-12.756347
-0.376709,0.884766,0.510986,1.243591,5.172729,-9.773254
-0.336914,0.893555,0.487549,9.20105,8.232117,-15.495299
-0.354248,0.899658,0.465576,14.251708,11.604308,-21.720884
-0.196045,0.962646,0.375732,7.888793,12.756347,-25.68054
-0.422119,0.91333,0.403076,-10.597228,12.306212,-25.711058
-0.613281,0.8396,0.388184,-15.3656,17.051697,-25.436399
-0.69165,0.797363,0.443848,-17.677307,13.938903,-17.311096
-0.530762,0.868408,0.474365,-15.220641,4.981995,-6.843566
-0.329834,0.869873,0.514404,-10.658263,-1.480102,-8.293152
-0.323242,0.856934,0.484863,-0.785828,6.195068,-17.082214
-0.306885,0.908203,0.432373,-1.686096,10.19287,-20.88928
-0.515869,0.892822,0.408203,-7.354736,14.045714,-22.605894
-0.570068,0.833252,0.40332,-13.931273,14.198302,-20.431517
-0.561279,0.830322,0.445313,-17.692566,8.056641,-14.823913
-0.390137,0.863037,0.499756,-17.14325,3.64685,-10.154723
-0.398926,0.829834,0.53125,-8.995056,6.095886,-13.96942
-0.604492,0.794189,0.445313,3.341675,10.475158,-21.65222
-0.581543,0.813232,0.436523,8.773804,1.106262,-23.086546
-0.308594,0.914063,0.449463,3.265381,-5.455017,-17.616272
-0.447998,0.899414,0.432129,-5.79071,3.746032,-14.320373
-0.618896,0.852051,0.372314,-11.627196,8.232117,-14.282226
-0.644531,0.810303,0.419678,-17.280579,1.396179,-10.040282
-0.492188,0.798096,0.509521,-13.320922,-8.125305,-7.225036
-0.390137,0.791016,0.546631,-1.953125,-8.81958,-9.979248
-0.410889,0.800293,0.536865,9.368896,-1.724243,-12.977599
-0.470947,0.849365,0.458984,16.479492,4.226685,-15.136718
-0.550049,0.894531,0.385498,10.238647,4.737854,-11.505126
-0.60083,0.891846,0.373535,-1.876831,0.37384,-5.386352
-0.557861,0.823975,0.442627,-8.552551,-5.950927,-3.639221
-0.4646,0.824463,0.479004,-6.690979,-8.239746,-3.791809
-0.447021,0.829346,0.499023,-2.624511,-8.010864,-5.271911
-0.459717,0.800049,0.500977,3.639221,-5.134582,-8.506775
-0.467041,0.836914,0.47583,7.026672,-1.777649,-7.6828
-0.524414,0.875977,0.417236,3.890991,0.526428,-5.195617
-0.556152,0.863037,0.413086,-2.922058,-1.495361,-2.182007
-0.538086,0.824707,0.453125,-5.630493,-4.226685,-1.251221
-0.507813,0.815186,0.453857,-4.005432,-4.508972,-1.25885
-0.444824,0.815918,0.489014,-0.427246,-6.439209,-1.846313
-0.437256,0.817383,0.510986,5.821228,-6.004333,-4.310608
-0.522461,0.833008,0.471191,8.560181,-2.113342,-4.28772
-0.493164,0.86084,0.450684,6.179809,-1.88446,-2.166748
-0.515625,0.870605,0.416992,1.800537,-1.335144,-1.068115
-0.50708,0.828125,0.469971,0.114441,-2.502441,-1.335144
-0.477539,0.831055,0.469482,1.533508,-2.059937,-1.747131
-0.511963,0.833496,0.452637,2.693176,-2.487183,-2.197266
-0.516113,0.825195,0.465576,3.959656,-4.882813,-2.380371
-0.473633,0.831543,0.478516,4.486084,-5.622863,-1.441955
-0.517334,0.85083,0.436279,3.585815,-2.716064,0.434875
-0.532471,0.828613,0.445801,2.357483,-2.281189,1.899719
-0.466797,0.833984,0.47998,5.142211,-4.524231,0.175476
-0.475586,0.834473,0.473145,8.666992,-5.271911,-3.570556
-0.473389,0.838135,0.473877,9.941101,-4.516602,-4.15802
-0.482178,0.841064,0.476074,8.872986,-2.212524,-2.365112
-0.524414,0.865723,0.419678,6.118774,0.053406,-0.823975
-0.575195,0.854248,0.397705,1.480102,-2.105713,1.609802
-0.513428,0.845703,0.427979,-1.205444,-7.583618,2.555847
-0.451416,0.83374,0.480469,-0.701904,-9.681702,1.579285
-0.446045,0.832031,0.484375,2.304077,-7.202148,-0.747681
-0.458252,0.83252,0.484619,3.639221,-4.142761,-1.289368
-0.487305,0.855957,0.446777,3.532409,-1.197815,-1.106262
-0.576416,0.838379,0.418213,1.38855,0.099182,1.411438
-0.480469,0.839844,0.454834,1.968384,-2.685547,3.265381
-0.463379,0.841064,0.466309,3.913879,-0.762939,3.578186
-0.459717,0.83374,0.467041,5.554199,1.739502,3.761291
-0.477295,0.829102,0.471436,7.377624,0.946045,2.14386
-0.49707,0.83252,0.465332,8.972168,-0.556946,0.793457
-0.523682,0.836426,0.446045,9.361267,-1.434326,1.358032
-0.52002,0.848145,0.425293,8.277893,-2.349854,4.249573
-0.476074,0.841064,0.455322,8.720398,-4.066467,4.920959
-0.454834,0.8479,0.461182,10.917663,-3.173828,3.547668
-0.43457,0.858643,0.464355,11.734008,0.75531,3.387451
-0.479004,0.86084,0.44873,11.047362,4.890442,3.067016
-0.531982,0.865723,0.40332,8.338928,5.325317,3.761291
-0.54126,0.848877,0.423096,5.798339,0.358582,5.302429
-0.492676,0.848877,0.436035,5.874633,-4.112244,6.187438
-0.507324,0.853027,0.435303,5.760192,-5.508422,7.637023
-0.494385,0.875977,0.423828,3.509521,-6.950378,8.796692
-0.481689,0.86499,0.432861,-0.053406,-8.758545,8.972168
-0.477295,0.85376,0.445068,-1.075745,-10.375976,7.438659
-0.479004,0.841553,0.463623,-0.335693,-10.208129,6.935119
-0.418213,0.858398,0.483643,2.14386,-6.637573,7.995605
-0.464111,0.874268,0.432129,1.708984,-0.137329,10.490417
-0.525635,0.869629,0.40918,-0.282288,-0.511169,11.474608
-0.494385,0.865967,0.424805,-3.013611,-5.1651,12.428283
-0.425293,0.860107,0.469971,-3.349304,-6.027221,12.153625
-0.443604,0.857666,0.460449,-2.563476,-2.563476,11.444091
-0.444336,0.854736,0.469971,-1.205444,-0.205994,10.95581
-0.466309,0.869873,0.451416,-2.067566,2.189636,11.474608
-0.526855,0.887451,0.384766,-5.683898,3.005981,13.778686
-0.5,0.865234,0.433105,-8.216858,-1.808166,16.288757
-0.391602,0.857666,0.481934,-6.240844,-4.173279,16.098022
-0.428467,0.860352,0.465332,-5.104064,-1.045227,15.335082
-0.44043,0.850342,0.485596,-2.960205,1.792908,15.342711
-0.439941,0.865479,0.476074,-2.799988,3.990173,15.960692
-0.446289,0.897705,0.424561,-5.645751,5.485534,16.75415
-0.490234,0.909668,0.387207,-11.367797,6.408691,19.14978
-0.476563,0.87793,0.436035,-15.350341,4.646301,21.362303
-0.405518,0.876709,0.460938,-18.15033,3.250122,21.743773
-0.38916,0.883789,0.472656,-19.775391,6.111145,20.1416
-0.393066,0.878174,0.470947,-21.049498,11.634826,19.119263
-0.411377,0.875244,0.467529,-21.965025,13.710021,19.622803
-0.446777,0.884033,0.434326,-25.100706,13.015746,20.378111
-0.508301,0.865479,0.44043,-27.595518,11.421203,22.216795
-0.492676,0.851807,0.484863,-27.809141,7.476806,24.581907
-0.417969,0.885742,0.464844,-30.204771,3.845215,26.733397
-0.421387,0.88916,0.441406,-32.12738,5.569458,28.472898
-0.449951,0.848633,0.472412,-31.35681,5.119323,28.434752
-0.40332,0.802002,0.545898,-24.841307,-4.051208,24.627684
-0.314941,0.820313,0.563477,-16.365051,-9.536743,21.881102
-0.338867,0.867676,0.508545,-12.283324,-3.356933,24.940489
-0.494141,0.866943,0.473389,-13.732909,1.358032,28.861998
-0.56958,0.85498,0.45874,-14.373778,-2.326965,32.020569
-0.50415,0.852539,0.467041,-14.884948,-14.343261,32.485962
-0.332031,0.87207,0.49707,-14.274596,-26.496885,28.907774
-0.135986,0.875,0.552246,-14.884948,-29.197691,26.962278
-0.168457,0.848633,0.590332,-12.786864,-19.592285,26.931761
-0.423584,0.848145,0.530518,-7.957458,-8.987427,30.273436
-0.657227,0.854492,0.473389,-1.792908,-13.740539,34.088135
-0.64624,0.863037,0.488037,-1.617432,-29.190062,37.101746
-0.427734,0.882324,0.51416,-7.659912,-43.228146,39.756775
-0.17627,0.907959,0.529541,-12.260436,-43.685909,40.145874
0.011475,0.958984,0.519287,-16.349792,-28.274534,41.450497
-0.101563,0.922119,0.516357,-23.445127,-9.506226,42.28973
-0.414795,0.863525,0.495605,-26.855467,2.044678,38.18512
-0.520996,0.822754,0.503418,-25.238035,-3.166198,35.820007
-0.397949,0.80542,0.542969,-22.842405,-12.283324,39.512634
-0.366455,0.769531,0.579102,-15.937804,-11.840819,38.902283
-0.35791,0.760254,0.597412,-4.623413,-9.124756,30.830381
-0.105225,0.822021,0.638916,7.278442,-16.738892,19.088745
0.261963,0.877686,0.599365,14.411925,-18.478394,7.499694
0.04834,0.900635,0.531006,13.458251,1.655578,-3.974914
-0.383789,0.949219,0.435303,8.094788,18.630981,-10.345458
-0.479004,0.897705,0.513184,1.861572,15.930175,-5.569458
-0.463135,0.767822,0.591797,3.089905,9.69696,-3.494262
-0.285645,0.868164,0.543213,6.805419,10.803222,-0.88501
-0.227051,0.921143,0.493652,6.729125,9.391785,-0.961304
-0.364746,0.910645,0.471191,4.074097,11.230468,-5.294799
-0.407471,0.860596,0.537354,-1.083374,6.637573,-6.729125
-0.193604,0.887695,0.527832,-4.425049,4.570007,-4.455566
-0.10376,0.902588,0.53833,-6.17218,12.435912,-3.181457
-0.272949,0.825928,0.585205,-2.098083,18.028259,-4.737854
-0.480957,0.827393,0.547607,7.263183,13.778686,-5.905151
-0.496582,0.851563,0.527588,13.076781,0.88501,-1.396179
-0.35498,0.864014,0.527832,14.877318,-7.644653,4.318237
-0.255127,0.88623,0.518555,13.206481,-7.331848,6.645202
-0.220947,0.904297,0.49707,10.665893,-1.319885,5.1651
-0.227783,0.912598,0.489258,5.729675,2.838135,2.128601
-0.220215,0.868896,0.543213,4.592896,0.816345,-1.281738
-0.204346,0.853516,0.558594,8.827209,2.227783,-6.385803
-0.312988,0.866211,0.532715,12.428283,5.264282,-10.581969
-0.32666,0.898926,0.504639,13.183593,3.585815,-12.741088
-0.277832,0.91626,0.485352,9.811401,3.028869,-13.244628
-0.292236,0.911133,0.482422,3.562927,3.555298,-15.029906
-0.245117,0.931641,0.487793,-2.929687,4.508972,-16.036987
-0.311523,0.852783,0.551025,-5.012512,6.248474,-13.931273
-0.406982,0.850098,0.533203,-0.190735,8.31604,-12.580871
-0.362549,0.875,0.51001,2.029419,8.239746,-7.04956
-0.28833,0.884033,0.515869,2.372742,10.330199,-5.027771
-0.302734,0.901123,0.501709,0.709534,12.580871,-7.736206
-0.319092,0.907227,0.492188,-2.876281,11.543273,-11.100768
-0.302002,0.910889,0.491699,-7.095336,8.491516,-13.031005
-0.319336,0.867432,0.531494,-10.635375,8.69751,-13.46588
-0.31958,0.890137,0.501221,-9.757996,13.85498,-13.59558
-0.372314,0.848877,0.517822,-9.620667,14.205932,-11.795043
-0.40625,0.854248,0.514893,-6.568908,11.383056,-8.171082
-0.373047,0.871338,0.505859,-4.631042,6.774902,-4.91333
-0.163574,0.919922,0.499268,-5.249023,9.483337,-4.470825
-0.123291,0.876709,0.54834,-10.978698,21.347044,-6.530761
-0.34668,0.861084,0.512939,-8.857727,31.639097,-15.769958
-0.485596,0.840576,0.523193,-7.575988,25.917051,-20.88928
-0.408203,0.847168,0.532471,-5.294799,16.914368,-20.324705
-0.344727,0.848877,0.539307,-1.686096,10.459899,-20.446775
-0.28833,0.893066,0.496094,0.747681,10.398864,-22.087095
-0.332275,0.863281,0.499268,-3.471374,9.384155,-19.645691
-0.430176,0.830811,0.509766,-3.311157,12.031554,-23.628233
-0.369385,0.865234,0.489502,-4.020691,11.779784,-25.108335
-0.458252,0.835205,0.524658,-7.698059,9.57489,-24.024961
-0.450195,0.816162,0.555664,-3.601074,8.026123,-23.933409
-0.337891,0.787109,0.5896,5.149841,0.50354,-22.888182
-0.342041,0.841064,0.539551,17.677307,0.434875,-25.489805
-0.347412,0.875488,0.461426,21.408079,0.854492,-26.893614
-0.395752,0.902588,0.400635,13.023376,-4.096985,-25.123594
-0.555176,0.874023,0.466797,-0.831604,-13.961791,-21.453856
-0.32666,0.893311,0.489746,-6.91986,-16.563416,-17.906189
-0.31665,0.829834,0.562256,-13.793944,-10.910033,-17.433167
-0.549316,0.776611,0.58374,-3.166198,4.463196,-14.656066
-0.45752,0.796143,0.585449,9.338379,-1.403808,-11.634826
-0.306152,0.823975,0.575684,19.790649,-8.346558,-11.314391
-0.403564,0.82666,0.51123,31.364439,-2.815246,-16.860962
-0.511963,0.860107,0.459961,34.599304,-0.572205,-20.523069
-0.259521,0.961182,0.426514,18.64624,-10.231017,-17.242432
-0.244873,0.919922,0.513916,-2.922058,-11.520385,-14.465331
-0.536377,0.816406,0.489746,3.570556,11.886596,-17.997742
-0.67749,0.780518,0.510254,8.659363,12.855529,-16.738892
-0.460938,0.831299,0.522461,11.558532,-4.623413,-11.009215
-0.345947,0.849121,0.50708,19.523621,-7.789611,-17.227173
-0.298096,0.878174,0.480225,23.094175,3.257751,-24.520872
-0.17627,0.977051,0.441406,3.288269,0.38147,-17.379761
-0.502686,0.885742,0.490234,-7.072448,8.583069,-15.716552
-0.672119,0.767578,0.469482,-3.120422,17.547607,-19.050598
-0.574707,0.801025,0.492432,-2.746582,3.074646,-11.428832
-0.43457,0.848145,0.520508,3.417969,-5.653381,-10.993957
-0.418701,0.821045,0.52417,12.351989,-2.075195,-18.867493
-0.349365,0.872314,0.487549,14.648437,1.602173,-19.851685
-0.331543,0.936035,0.440918,6.019592,5.989074,-15.197753
-0.322266,0.914307,0.4646,-10.078429,7.286071,-9.872437
-0.509521,0.857422,0.475342,-15.441894,10.902404,-10.147094
-0.638916,0.790771,0.441162,-13.21411,12.733459,-15.876769
-0.633789,0.75415,0.498779,-10.803222,-0.892639,-15.258788
-0.503418,0.773926,0.558838,2.563476,-9.620667,-17.501831
-0.296143,0.830322,0.558594,14.839171,-6.141662,-20.324705
-0.197998,0.936035,0.476807,11.215209,5.340576,-16.159058
-0.405762,0.897461,0.456787,-1.716614,11.497497,-13.130187
-0.537598,0.830078,0.458252,-5.378723,12.092589,-16.334534
-0.542236,0.817139,0.475098,-7.225036,10.360717,-15.510558
-0.538086,0.822754,0.484375,-7.141113,9.82666,-12.46643
-0.563477,0.788086,0.506592,-2.26593,7.56073,-12.931823
-0.446045,0.804688,0.525391,4.203796,3.707886,-12.184142
-0.359863,0.852539,0.505371,7.446289,5.798339,-11.253356
-0.40332,0.84375,0.493652,6.622314,10.185241,-12.397765
-0.490723,0.871826,0.425049,2.166748,13.420104,-11.96289
-0.623291,0.843994,0.419678,-6.965637,10.253905,-10.581969
-0.588623,0.838623,0.435059,-13.763427,3.387451,-6.156921
-0.470947,0.798584,0.540039,-12.481688,-3.448486,-4.768372
-0.401611,0.794434,0.551025,-2.14386,-1.25885,-8.369446
-0.457275,0.808105,0.522217,5.134582,5.111694,-10.551452
-0.486572,0.845703,0.473633,5.744934,8.979797,-9.300232
-0.61377,0.817139,0.452637,3.067016,8.132935,-9.048462
-0.632813,0.806152,0.432129,1.617432,0.740051,-8.018494
-0.466064,0.845215,0.4375,-1.914978,-7.843017,-4.592896
-0.30249,0.825928,0.547607,-2.326965,-8.857727,-5.943298
-0.442871,0.838623,0.487549,-0.083923,3.463745,-7.980346
-0.676758,0.777344,0.474609,-0.488281,6.492614,-6.767272
-0.570313,0.787598,0.497314,2.471924,-1.335144,-4.28772
-0.492432,0.837402,0.475098,2.510071,-3.440857,-1.266479
-0.45752,0.847412,0.47583,0.297546,-3.135681,-0.320435
-0.464355,0.817627,0.495605,1.022339,-1.747131,-3.555298
-0.508789,0.825195,0.468994,1.12915,0.343323,-3.15094
-0.532715,0.814697,0.481201,0.473022,-1.083374,-1.739502
-0.500977,0.835449,0.475342,-0.396728,-2.685547,-0.839233
-0.533691,0.831055,0.452881,-2.243042,-2.716064,-0.434875
-0.517822,0.807373,0.500732,-2.166748,-5.775451,-1.38092
-0.41626,0.829834,0.525146,0.137329,-5.081176,-2.532959
-0.481934,0.829102,0.491943,-0.564575,0.785828,-2.403259
-0.550537,0.8125,0.47583,-2.906799,0.282288,-1.434326
-0.561279,0.8396,0.439941,-6.04248,-4.676819,1.052856
-0.551514,0.82959,0.451904,-9.208679,-10.116576,2.662658
-0.474854,0.810303,0.505371,-8.415222,-12.596129,2.304077
-0.460938,0.791748,0.526123,-4.135132,-10.925292,0.274658
-0.44165,0.794434,0.541504,0.953674,-8.94165,-1.88446
-0.469971,0.812012,0.519287,4.188538,-4.890442,-2.5177
-0.530273,0.837646,0.464844,2.754211,-2.738952,-0.450134
-0.571533,0.835449,0.443604,-0.366211,-5.15747,1.571655
-0.498047,0.800293,0.498779,-0.602722,-9.140015,1.853943
-0.443115,0.801514,0.513672,2.662658,-8.811951,1.579285
-0.462646,0.804443,0.519287,6.286621,-6.835937,0.740051
-0.454834,0.818604,0.518799,8.605957,-3.90625,0.320435
-0.486084,0.833252,0.491699,7.751464,-0.907898,1.335144
-0.545898,0.848389,0.450684,3.875732,-0.961304,2.944946
-0.592529,0.848633,0.412109,-1.228333,-5.638122,4.692078
-0.490723,0.803711,0.505859,-1.937866,-13.259887,4.829407
-0.422607,0.807129,0.518555,1.121521,-13.793944,2.929687
-0.476074,0.801025,0.526611,4.28009,-11.520385,1.426697
-0.418457,0.817871,0.533691,6.462097,-8.728027,1.228333
-0.442627,0.855957,0.485596,5.279541,-3.379822,1.853943
-0.599121,0.855957,0.415771,0.862122,-1.319885,3.15094
-0.551758,0.810303,0.482178,-2.243042,-9.742737,4.257202
-0.435547,0.809082,0.518311,-1.342773,-13.282775,4.905701
-0.430664,0.808594,0.52832,1.907349,-10.345458,5.386352
-0.439209,0.815674,0.523682,5.317688,-5.92041,5.126953
-0.431396,0.835205,0.510498,6.027221,-1.853943,5.455017
-0.504639,0.853027,0.45459,4.257202,1.098633,5.554199
-0.532227,0.83667,0.470459,2.227783,-1.716614,6.080627
-0.481934,0.826172,0.494141,1.472473,-4.455566,7.041931
-0.446289,0.814453,0.526367,2.487183,-4.127502,7.583618
-0.42041,0.820313,0.52417,4.959106,-0.892639,7.545471
-0.452148,0.831787,0.500977,5.882263,2.716064,7.56073
-0.492188,0.84668,0.469238,4.455566,3.379822,8.201599
-0.532715,0.841797,0.461914,2.174377,0.572205,8.911133
-0.475342,0.827148,0.50708,1.586914,-2.449036,9.628296
-0.424805,0.860107,0.480713,0.267029,-0.083923,11.856078
-0.47168,0.843262,0.483643,-1.495361,1.899719,12.199401
-0.476318,0.822754,0.507568,-1.838684,0.938415,11.657714
-0.420898,0.828369,0.508301,-0.915527,1.800537,12.916564
-0.42749,0.820801,0.510254,2.006531,4.211426,13.763427
-0.483398,0.841064,0.472168,5.187988,5.363464,14.274596
-0.516846,0.839111,0.479736,5.081176,0.823975,14.968871
-0.474854,0.835449,0.496582,5.218505,-4.676819,15.846251
-0.439453,0.854004,0.479736,4.066467,-4.844666,18.318176
-0.427002,0.853027,0.494385,2.235413,-3.669739,20.545958
-0.435791,0.854248,0.482422,2.822876,-1.838684,20.080564
-0.447998,0.854492,0.489258,2.723694,-0.038147,20.660398
-0.402588,0.845947,0.496826,3.120422,1.63269,21.247862
-0.419678,0.851807,0.493652,1.785278,3.936767,23.574827
-0.466309,0.862305,0.477051,1.976013,4.501343,26.550291
-0.486572,0.865479,0.460205,1.327515,-0.999451,26.252745
-0.490967,0.854248,0.480713,1.213074,-9.95636,24.513243
-0.41748,0.868408,0.485352,1.770019,-15.464782,24.703978
-0.347656,0.880127,0.484375,0.282288,-14.663695,25.695799
-0.325684,0.884277,0.496826,-2.471924,-8.506775,25.787352
-0.36792,0.865234,0.497314,-5.630493,-0.450134,27.336119
-0.466064,0.858154,0.483154,-4.249573,3.097534,29.403685
-0.47583,0.867188,0.482178,-2.586365,0.259399,30.418394
-0.41333,0.871338,0.469482,-4.432678,-5.546569,30.883787
-0.366699,0.87793,0.489746,-4.081726,-11.619567,28.95355
-0.285156,0.868408,0.525146,-4.074097,-14.915465,26.55792
-0.368652,0.874512,0.49707,-5.729675,-12.275695,26.19171
-0.410889,0.884766,0.51123,-6.843566,-10.551452,28.717039
-0.382324,0.863525,0.514404,-9.223938,-11.238097,32.653809
-0.429443,0.882813,0.469727,-5.813598,-10.330199,35.148621
-0.458252,0.893555,0.463867,-5.294799,-15.48767,35.545349
-0.323486,0.902832,0.465576,-8.583069,-20.126341,35.743713
-0.186768,0.866211,0.549072,-10.841369,-17.959595,33.424377
-0.130859,0.838623,0.595215,-8.68988,-11.634826,31.509398
-0.360352,0.849365,0.545166,-2.26593,-9.292603,31.455992
-0.522217,0.886475,0.508789,3.02124,-11.169433,31.73065
-0.4646,0.906738,0.481934,1.281738,-17.471313,38.856506
-0.263184,0.935547,0.487305,-2.449036,-17.654419,43.281551
-0.097412,0.906006,0.50415,-11.054992,-5.744934,44.097897
-0.23877,0.8479,0.518066,-13.038634,9.918213,41.450497
-0.453613,0.803467,0.576416,-5.760192,15.86151,38.864136
-0.438477,0.769775,0.603027,7.263183,10.292052,38.406372
-0.169678,0.87793,0.548096,19.821167,6.317138,37.605286
-0.006592,0.904053,0.47998,22.819517,8.773804,36.247253
-0.074707,0.882568,0.512207,26.56555,19.058228,30.85327
-0.227051,0.858887,0.511475,30.303953,28.602598,23.612974
-0.237549,0.874512,0.487793,34.973145,26.275633,18.936157
-0.218018,0.854004,0.503418,39.985657,20.26367,14.953612
-0.249023,0.878906,0.482666,46.69952,17.082214,13.702392
-0.392578,0.813965,0.595215,59.249874,7.614135,14.595031
-0.318604,1.008301,0.364502,67.741394,-0.63324,10.223388
-0.310547,1.058105,0.307129,52.040096,1.106262,15.655517
-0.300049,0.97876,0.382568,33.065796,8.918762,23.330687
-0.278076,0.926025,0.436035,24.032591,13.549804,26.420591
-0.269287,0.917725,0.445313,23.658751,14.953612,25.459288
-0.294922,0.940186,0.416992,25.115965,13.862609,24.04022
-0.270996,0.964111,0.374268,21.919249,10.719298,23.719786
-0.215332,0.952881,0.414063,16.616821,7.5531,22.377012
-0.189209,0.980225,0.407959,14.35852,8.19397,18.707275
-0.231445,0.946777,0.442871,13.534545,12.161254,15.594481
-0.280518,0.970703,0.40918,11.71112,11.817931,10.940551
-0.25708,0.970215,0.407227,9.155273,6.156921,7.858276
-0.237305,0.976074,0.389648,5.79071,2.944946,5.950927
-0.182373,0.966309,0.404785,0.343323,3.036499,4.165649
-0.191162,0.952393,0.415039,-2.540588,4.66156,1.419067
-0.212646,0.937012,0.437012,-3.196716,5.187988,-0.846863
-0.244873,0.927734,0.450195,0.442505,4.165649,-2.830505
-0.277588,0.950684,0.411621,3.990173,1.678467,-4.493713
-0.265381,0.966064,0.390625,2.861023,-1.556396,-4.470825
-0.273193,0.965332,0.393799,-0.610352,-3.715515,-3.768921
-0.253174,0.955078,0.407959,-3.784179,-3.52478,-2.067566
-0.264893,0.932129,0.428955,-4.180908,-2.418518,-0.091553
-0.252441,0.92749,0.441162,-0.900268,-2.990722,1.350403
-0.267334,0.93042,0.440918,3.753662,-4.219055,1.823425
-0.24585,0.950928,0.421875,7.56073,-7.705688,1.289368
-0.211182,0.968506,0.400391,7.278442,-9.506226,-0.320435
-0.226074,0.971924,0.391602,4.119873,-8.522034,-2.044678
-0.183594,0.984863,0.366699,-1.502991,-8.140564,-4.173279
-0.196289,0.95166,0.41333,-8.338928,-5.172729,-5.828857
