ax,ay,az,gx,gy,gz
-1.070801,-0.489258,-0.774414,37.078857,-98.648064,27.145384
-1.181885,-0.380615,-0.802979,53.87878,-55.000301,16.288757
-1.118896,-0.344238,-0.86499,72.731018,2.098083,7.919311
-0.924561,-0.328857,-0.98584,92.208855,50.781246,2.716064
-0.808105,-0.338867,-1.07666,115.272514,69.168091,-1.304626
-0.820801,-0.385254,-1.082031,140.457153,66.833496,-3.40271
-0.825928,-0.459961,-0.99292,159.584045,64.628601,-1.075745
-0.763672,-0.516846,-0.841309,169.548019,66.375732,2.090454
-0.69165,-0.560059,-0.702637,175.399765,64.857483,5.729675
-0.628174,-0.575928,-0.592529,176.437363,54.244991,9.513855
-0.677734,-0.544678,-0.525391,180.412277,40.588375,9.841919
-0.678955,-0.564453,-0.449951,180.809006,34.393311,6.561279
-0.625977,-0.60083,-0.405762,176.109299,37.773132,4.074097
-0.568604,-0.641113,-0.337646,168.952927,45.356747,2.914428
-0.544922,-0.67749,-0.245117,159.515381,54.367062,1.495361
-0.550781,-0.724365,-0.158203,149.06311,63.781734,0.953674
-0.519043,-0.768555,-0.081787,138.496399,72.875977,2.044678
-0.513916,-0.802002,-0.04541,128.852844,79.00238,5.081176
-0.525391,-0.815674,0.001221,120.300285,79.940796,8.06427
-0.532959,-0.826172,0.061768,110.931389,77.590942,8.102417
-0.534424,-0.854492,0.134277,99.403374,74.378967,5.737304
-0.520508,-0.901367,0.200195,86.738579,70.861816,2.960205
-0.514893,-0.942383,0.259277,75.59967,66.223145,0.221252
-0.506104,-0.984863,0.299316,66.627502,60.554501,-2.39563
-0.486816,-1.008789,0.32373,58.151241,54.954525,-5.447387
-0.465332,-1.003418,0.354492,50.582882,47.760006,-8.178711
-0.462891,-1.005371,0.390381,43.113705,38.520813,-10.299682
-0.506836,-1.011963,0.413818,34.324646,28.350828,-11.772155
-0.55249,-1.019043,0.438721,24.284361,18.470764,-15.510558
-0.54126,-1.032959,0.446533,13.694762,8.811951,-21.476744
-0.521484,-1.044922,0.434326,2.861023,-1.976013,-25.81024
-0.518555,-1.04248,0.415283,-7.873535,-14.793395,-29.037474
-0.531494,-1.037109,0.416504,-18.249512,-28.32794,-32.752991
-0.572266,-1.038086,0.430908,-29.014585,-41.297909,-36.079407
-0.620605,-1.019287,0.458984,-42.16003,-50.743099,-38.871765
-0.665039,-0.999756,0.507813,-58.212276,-54.13818,-41.618343
-0.700195,-0.986816,0.578613,-79.063416,-53.108212,-43.724056
-0.677979,-0.984619,0.624023,-106.704704,-53.863522,-47.851559
-0.652588,-0.942627,0.599121,-138.22937,-63.4613,-53.291317
-0.699951,-0.875977,0.539063,-167.945847,-83.236687,-59.410091
-0.764648,-0.803711,0.455078,-195.968613,-106.246941,-67.596436
-0.793213,-0.734619,0.370605,-224.555954,-123.146049,-75.431824
-0.801514,-0.65625,0.296387,-248.649582,-130.508423,-80.703728
-0.774414,-0.584473,0.222412,-249.992355,-125.984184,-83.831779
-0.686523,-0.507813,0.160156,-249.68718,-110.633842,-84.289543
-0.602783,-0.40625,0.091064,-249.923691,-85.71624,-81.611626
-0.549561,-0.270508,-0.043945,-249.992355,-57.525631,-78.529358
-0.594727,-0.161621,0.16333,-249.992355,-33.615112,-80.390923
-0.143066,1.59082,-0.592285,-210.632309,-83.999626,-85.861198
-1.310791,6.495361,-7.999756,40.344234,-26.023863,37.857056
-1.347168,3.522461,-3.914551,44.952389,84.762566,25.627134
-0.243408,-2.611816,-1.048828,81.18438,59.120174,2.006531
0.169922,-2.684082,-0.124512,41.191097,-26.649473,-66.093445
-0.316895,-2.018311,0.462158,58.92181,-87.219231,-47.950741
-0.337891,-1.437988,0.707764,56.808468,-85.372917,-12.20703
-0.031494,-1.003662,0.571045,5.79071,-29.426573,7.652282
0.082764,-0.686768,0.034668,-53.558346,44.517513,20.591734
0.30957,-0.52417,-0.631104,-76.652527,83.015434,22.293089
0.331787,-0.441406,-1.030518,-68.771362,70.526123,43.04504
0.093018,-0.412842,-1.151611,-52.238461,48.095699,59.036251
-0.283447,-0.456543,-1.164063,-36.590576,42.358395,63.232418
-0.496338,-0.557617,-1.149658,-29.937742,59.715267,66.184998
-0.443848,-0.595947,-1.128418,-25.123594,63.865658,63.064571
-0.338867,-0.580566,-0.972412,-14.328002,21.232603,50.888058
-0.436523,-0.557617,-0.789551,4.302979,-47.821041,45.104977
-0.704102,-0.510254,-0.666992,22.384642,-102.355949,39.604187
-0.901367,-0.395508,-0.702148,38.101196,-114.158623,27.809141
-0.976563,-0.31958,-1.002686,55.679317,-79.833984,23.193357
-0.871826,-0.379639,-1.247559,71.44928,-23.101805,24.024961
-0.735596,-0.404785,-1.336182,89.202873,25.764463,21.90399
-0.677979,-0.420898,-1.300049,110.191338,58.708187,20.820616
-0.653564,-0.469727,-1.166504,128.700256,80.184937,22.613523
-0.604736,-0.538574,-0.981934,143.623352,91.552727,26.80969
-0.566895,-0.578613,-0.82373,155.921936,91.903679,32.112122
-0.515381,-0.606445,-0.699219,165.145859,81.390373,36.376953
-0.482422,-0.612061,-0.601807,170.440659,63.285824,38.970947
-0.476074,-0.601563,-0.516602,174.446091,42.335506,40.016174
-0.51416,-0.597656,-0.442627,175.315842,27.343748,40.176388
-0.543457,-0.611816,-0.35498,172.836288,24.581907,38.475037
-0.525391,-0.653076,-0.287598,166.908249,34.072876,35.972595
-0.502197,-0.675537,-0.234131,157.859802,50.270077,35.713196
-0.480225,-0.701904,-0.17334,147.155762,67.443848,36.270142
-0.460449,-0.729248,-0.104736,135.856628,80.726616,36.277771
-0.453125,-0.766113,-0.053955,124.588005,88.310234,36.514282
-0.479736,-0.806641,0.002197,113.777153,90.240471,36.941528
-0.510742,-0.848877,0.052979,103.385918,86.837761,36.109924
-0.514648,-0.880859,0.088135,92.849724,79.071045,34.393311
-0.52124,-0.900146,0.112549,84.182732,67.016602,33.39386
-0.561279,-0.922119,0.137939,76.698303,53.749081,32.287598
-0.579346,-0.934326,0.161865,69.17572,42.41943,29.060362
-0.553711,-0.949463,0.182373,61.965939,33.050537,24.818419
-0.543457,-0.965576,0.201904,55.114742,24.818419,22.033689
-0.5354,-0.970947,0.213623,47.973629,17.028809,19.294739
-0.528809,-0.970459,0.212891,40.534969,8.811951,15.594481
-0.534912,-0.963623,0.221191,32.798767,-0.564575,12.100219
-0.547852,-0.950439,0.22583,24.864195,-10.124206,8.743286
-0.57251,-0.945068,0.219238,16.75415,-19.668579,5.584716
-0.594971,-0.947998,0.225342,7.575988,-28.823851,1.541138
-0.612793,-0.945557,0.223877,-1.518249,-38.002014,-3.196716
-0.623779,-0.945068,0.227783,-10.398864,-46.768185,-7.087707
-0.621338,-0.932129,0.230713,-20.51544,-55.374142,-10.986327
-0.605957,-0.924072,0.239502,-31.555174,-64.704895,-14.785766
-0.606445,-0.910889,0.254883,-43.899532,-74.813843,-17.791748
-0.625977,-0.881592,0.253906,-56.701656,-84.251396,-20.309446
-0.682373,-0.865723,0.273193,-71.281433,-90.652458,-22.796629
-0.718506,-0.857666,0.306885,-88.729851,-94.398491,-25.466917
-0.753906,-0.842285,0.336914,-107.536308,-96.832268,-28.121946
-0.815674,-0.842041,0.39917,-127.464287,-101.058952,-31.166075
-0.865234,-0.822266,0.450684,-150.749207,-110.008232,-37.200928
-0.852051,-0.741211,0.389648,-176.650986,-128.448486,-48.072811
-0.804199,-0.672607,0.360596,-203.81163,-151.748657,-61.027523
-0.82666,-0.650635,0.38916,-234.893784,-167.915329,-68.17627
-0.807861,-0.598877,0.381592,-249.992355,-171.56218,-72.486877
-0.69165,-0.500977,0.294922,-249.992355,-165.145859,-76.416016
-0.571289,-0.429932,0.168701,-249.641403,-146.987915,-74.073792
-0.548828,-0.361572,0.019531,-249.992355,-117.904655,-67.398071
-0.57959,-0.262451,0.072266,-249.992355,-76.774597,-63.194271
0.121582,0.716553,0.862549,-229.553207,-75.042725,-52.337643
-1.758789,4.921387,-7.999756,-42.259212,21.667479,75.660706
-1.62915,4.637451,-5.518311,78.811646,144.340515,34.301758
-0.66626,-1.304199,-1.264404,88.821404,153.961182,23.750303
-0.077881,-2.175781,-0.557373,86.09008,30.082701,-15.220641
-1.043457,-2.209717,0.14917,78.37677,-121.582024,-59.242245
-0.615234,-2.009766,0.5896,66.680908,-169.975266,-79.177856
-0.204346,-1.411621,0.553223,38.108826,-113.945,-40.748592
-0.116211,-1.005859,0.218262,-28.030394,4.951477,-20.095823
0.346436,-0.803955,-0.24292,-72.540283,97.320549,-17.906189
0.490234,-0.574951,-0.51416,-81.916801,109.443657,6.019592
0.191406,-0.466553,-0.555664,-75.767517,76.728821,27.427671
-0.170898,-0.479004,-0.564697,-72.158813,44.692989,28.228758
-0.419189,-0.550049,-0.639404,-70.709229,35.903931,25.131224
-0.493408,-0.586426,-0.683594,-68.595886,52.284237,24.436949
-0.45752,-0.578613,-0.643311,-58.738705,58.906551,24.024961
-0.487305,-0.577148,-0.552002,-44.105526,39.802551,22.14813
-0.551514,-0.583984,-0.461914,-32.569885,13.748168,18.241882
-0.579834,-0.585938,-0.404297,-26.985167,-3.64685,13.427733
-0.574707,-0.567139,-0.409668,-26.130674,-11.512755,11.245727
-0.561035,-0.534424,-0.463135,-25.611876,-14.72473,10.910033
-0.563721,-0.512695,-0.513916,-24.520872,-14.823913,11.756896
-0.568115,-0.522705,-0.565918,-22.575377,-11.810302,13.885497
-0.578125,-0.523682,-0.648193,-19.187927,-7.743835,17.105103
-0.590332,-0.508545,-0.717773,-12.237548,-6.652832,21.240232
-0.620117,-0.504639,-0.748535,-3.211975,-10.536193,25.352476
-0.666016,-0.514893,-0.744385,4.920959,-18.234253,27.687071
-0.691162,-0.530273,-0.714111,11.45172,-26.214598,27.610777
-0.69458,-0.533447,-0.677979,15.99121,-32.516479,26.664732
-0.670654,-0.520264,-0.643066,17.601013,-37.559509,25.344847
-0.622803,-0.500732,-0.633057,16.838074,-42.198177,24.124144
-0.571777,-0.473633,-0.643066,14.98413,-46.585079,23.971556
-0.539795,-0.448975,-0.657959,12.725829,-48.332211,24.559019
-0.510986,-0.45459,-0.657471,9.32312,-45.265194,26.229856
-0.466309,-0.480713,-0.664795,4.53949,-38.269043,28.945921
-0.426758,-0.490723,-0.69165,0.50354,-30.036924,33.187866
-0.40625,-0.471191,-0.724854,-1.609802,-22.727964,38.749695
-0.40918,-0.45166,-0.751953,-2.63977,-17.677307,44.281002
-0.434082,-0.435547,-0.767334,-2.601623,-15.129088,48.896786
-0.466309,-0.428711,-0.763672,-2.63977,-15.289306,52.146908
-0.48584,-0.418701,-0.756348,-2.738952,-18.798828,53.649899
-0.508545,-0.396484,-0.751221,-1.609802,-23.811338,55.000301
-0.5354,-0.406982,-0.719727,-1.419067,-27.832029,56.03027
-0.556885,-0.447266,-0.685059,-3.082275,-29.655455,56.106564
-0.57373,-0.476074,-0.676025,-4.943848,-28.877256,57.449337
-0.593506,-0.474121,-0.677246,-5.355834,-25.93231,60.264584
-0.604248,-0.453369,-0.678467,-5.302429,-23.04077,62.873837
-0.593506,-0.435303,-0.683838,-5.065917,-21.614073,65.414429
-0.583252,-0.415527,-0.690674,-4.333496,-23.353575,68.031311
-0.57666,-0.396729,-0.686279,-3.52478,-28.511045,70.800781
-0.558105,-0.375977,-0.671875,-3.105163,-35.919189,72.746277
-0.544678,-0.355957,-0.648926,-1.693725,-43.968197,74.783325
-0.543213,-0.339355,-0.612793,-0.465393,-50.041195,77.438354
-0.552246,-0.31958,-0.564453,-0.37384,-53.497311,80.528252
-0.560547,-0.28418,-0.514893,-0.442505,-54.016109,83.869926
-0.595215,-0.253174,-0.47876,-1.739502,-49.331661,88.36364
-0.665283,-0.219971,-0.471191,-5.615234,-43.403622,93.086235
-0.712646,-0.206299,-0.456787,-9.986877,-40.382381,95.222466
-0.749268,-0.20874,-0.447998,-13.96942,-41.336056,96.214287
-0.738525,-0.204346,-0.449707,-17.852783,-44.273373,97.206108
-0.693115,-0.200439,-0.459473,-20.751951,-48.622128,100.700371
-0.684082,-0.196289,-0.440674,-24.490355,-56.495663,106.307976
-0.695313,-0.17041,-0.423584,-29.075621,-66.665649,111.465446
-0.731445,-0.133545,-0.412598,-32.142639,-77.087402,116.905205
-0.786377,-0.126221,-0.410645,-30.937193,-82.603447,123.062126
-0.837402,-0.127197,-0.434082,-28.686522,-78.132629,128.181458
-0.864502,-0.110596,-0.45752,-26.489256,-63.514706,133.491516
-0.878906,-0.086914,-0.477051,-23.986814,-44.990536,139.152527
-0.884766,-0.077393,-0.48999,-21.659849,-26.550291,143.173218
-0.860107,-0.08667,-0.49292,-20.065308,-10.757445,145.530701
-0.831543,-0.0979,-0.493408,-18.356323,-1.083374,149.154663
-0.825439,-0.104736,-0.489014,-16.792297,0.663757,153.442383
-0.837402,-0.092285,-0.479004,-16.273499,-3.341675,156.028748
-0.861084,-0.068115,-0.468262,-15.930175,-10.848998,157.722473
-0.911377,-0.035645,-0.464844,-15.426635,-19.546509,159.614563
-0.961182,-0.001221,-0.454346,-14.442443,-26.367186,160.621643
-0.977539,0.031494,-0.431396,-14.076232,-28.526304,159.477234
-0.973389,0.066162,-0.429199,-13.748168,-26.084898,158.576965
-0.932861,0.088135,-0.422363,-14.22119,-20.339964,158.279419
-0.876221,0.101563,-0.414795,-16.494751,-14.526366,158.500671
-0.842285,0.122803,-0.407959,-19.165039,-11.169433,159.545898
-0.826416,0.144043,-0.389648,-21.278379,-10.925292,161.170944
-0.789307,0.16333,-0.36084,-24.353025,-12.21466,163.024887
-0.766846,0.194336,-0.346924,-27.900694,-14.648437,166.01561
-0.800049,0.238281,-0.352051,-30.052183,-18.676758,171.035751
-0.85498,0.28833,-0.354004,-31.249998,-22.193907,175.544724
-0.882813,0.330566,-0.352783,-32.821655,-23.376463,177.078232
-0.880615,0.366455,-0.359131,-34.858704,-23.780821,177.238449
-0.860107,0.400391,-0.352783,-36.628723,-25.375364,179.12291
-0.825439,0.411377,-0.330322,-39.024353,-28.442381,183.036789
-0.762451,0.414063,-0.29541,-42.526241,-34.103394,186.668381
-0.670898,0.4375,-0.240723,-47.065731,-43.624874,191.558823
-0.573486,0.472412,-0.165283,-52.505489,-55.549618,198.822006
-0.550537,0.542969,-0.104004,-57.571407,-67.54303,207.855209
-0.696289,0.650391,-0.118896,-57.296749,-74.84436,217.460617
-0.919922,0.713623,-0.169922,-52.711483,-70.4422,223.915085
-1.041992,0.726074,-0.220215,-54.801937,-56.587215,223.754868
-1.042969,0.754639,-0.262207,-64.552307,-45.349117,219.032272
-0.973877,0.789551,-0.282959,-72.807312,-49.652096,213.64592
-0.894531,0.843018,-0.275879,-76.698303,-74.172974,210.502609
-0.855469,0.911621,-0.249512,-77.865601,-112.731926,209.579453
-0.834961,1.003418,-0.217285,-73.745728,-155.647278,208.213791
-0.879639,1.095947,-0.170898,-62.44659,-190.750107,207.191452
-0.960693,1.124023,-0.122559,-49.148556,-208.633408,207.351669
-1.018799,1.093506,-0.092041,-40.992733,-204.902634,206.7108
-1.015625,1.086182,-0.093506,-38.398743,-184.425339,203.117355
-1.005127,1.100098,-0.105225,-37.376404,-152.832031,197.097763
-0.971924,1.107422,-0.138184,-38.94043,-114.44854,188.934311
-0.907715,1.133057,-0.1521,-43.434139,-78.208923,180.480942
-0.866211,1.160889,-0.160889,-48.309322,-52.391048,172.431931
-0.801025,1.173584,-0.211914,-48.568722,-43.571468,156.25
-0.567383,1.188232,-0.396729,-44.219967,-74.241638,131.843567
-0.521729,1.193604,-0.541016,-34.500122,-177.307114,105.75103
-0.993408,1.159668,-0.447754,-15.464782,-249.992355,82.527153
-1.186279,1.048584,-0.371826,-9.689331,-228.01207,62.683102
-1.044189,0.995117,-0.287354,-18.64624,-160.270691,41.213985
-0.868896,1.008545,-0.189209,-22.933958,-105.812065,26.931761
-0.684082,1.04126,-0.102539,-19.676208,-80.459587,17.524719
-0.552734,1.035645,-0.001221,-9.979248,-71.861267,9.086609
-0.52002,1.007324,0.023682,4.524231,-68.634033,2.212524
-0.554932,0.958008,0.045654,17.25769,-57.28912,-6.462097
-0.684814,0.957031,0.031982,12.046813,-37.635803,-15.327453
-0.770996,0.975098,-0.012695,7.209777,-9.902954,-20.606993
-0.763428,0.935791,0.034912,2.593994,32.821655,-26.161192
-0.648193,0.90332,0.058838,-6.126403,83.19091,-33.279419
-0.505127,0.896484,0.043457,-12.870788,120.36895,-36.018372
-0.446533,0.888916,0.034912,-17.234802,131.027222,-36.453247
-0.429199,0.885742,0.007324,-17.486572,119.705193,-39.848328
-0.423828,0.888184,-0.018066,-14.86206,99.548332,-45.181271
-0.444092,0.890137,-0.030273,-12.222289,79.933167,-48.33984
-0.483154,0.888428,-0.041016,-11.970519,66.711426,-49.995419
-0.483398,0.89624,-0.052246,-13.336181,59.577938,-51.277157
-0.460449,0.904297,-0.062012,-13.900756,53.016659,-49.98016
-0.446045,0.907227,-0.063232,-13.130187,43.731686,-46.440121
-0.438477,0.898926,-0.053955,-11.054992,32.592773,-42.205807
-0.441406,0.887451,-0.032959,-8.682251,21.926878,-37.162781
-0.450684,0.873779,-0.015625,-7.118225,13.793944,-31.890867
-0.46582,0.859863,0.001221,-6.370544,9.57489,-26.855467
-0.473145,0.848633,0.010742,-6.195068,9.361267,-21.598814
-0.475342,0.844482,0.016846,-6.622314,12.176513,-16.029358
-0.4729,0.841797,0.02124,-7.186889,16.647339,-10.276793
-0.467529,0.838379,0.021729,-7.80487,21.263121,-4.852295
-0.460693,0.842285,0.018555,-8.552551,25.05493,-0.007629
-0.446777,0.847168,0.017578,-9.216309,27.976988,4.249573
-0.437988,0.854736,0.013672,-9.262085,29.891966,8.224487
-0.435059,0.869629,0.01001,-9.590149,31.059263,11.375426
-0.432617,0.887939,0.006592,-9.57489,31.318663,14.633178
-0.435791,0.898926,0.005371,-9.185791,30.96771,17.402649
-0.435547,0.908691,0.002441,-8.850098,29.869078,19.02771
-0.434814,0.920654,-0.001953,-8.598328,27.6947,20.080564
-0.436768,0.929443,-0.004395,-8.537292,24.749754,21.034239
-0.440186,0.938477,-0.008301,-7.957458,21.041868,21.476744
-0.439941,0.94458,-0.009033,-7.705688,16.88385,21.179197
-0.440674,0.951904,-0.008545,-7.865905,12.191772,20.408628
-0.439697,0.95166,-0.011963,-7.17926,7.194519,19.477844
-0.442871,0.952393,-0.012695,-6.889343,1.670837,18.310547
-0.442627,0.955078,-0.01709,-7.17926,-4.150391,16.365051
-0.44458,0.958252,-0.026367,-7.278442,-10.185241,13.96942
-0.44873,0.95874,-0.034424,-7.263183,-16.059875,11.543273
-0.457275,0.955078,-0.039795,-6.759643,-21.331785,9.361267
-0.465576,0.953369,-0.053223,-6.248474,-25.329588,7.148742
-0.475342,0.950684,-0.059814,-5.714416,-27.976988,5.142211
-0.480225,0.947266,-0.066406,-4.638672,-29.762266,3.578186
-0.490234,0.940186,-0.06665,-2.861023,-30.998228,2.304077
-0.503662,0.9375,-0.064453,-0.892639,-31.234739,1.25885
-0.51709,0.933105,-0.066406,0.717163,-29.953001,0.244141
-0.53125,0.93457,-0.073975,1.914978,-26.802061,-0.701904
-0.534424,0.929932,-0.074463,2.89154,-21.957396,-1.396179
-0.531006,0.92041,-0.067871,3.448486,-16.334534,-1.853943
-0.526855,0.915527,-0.055908,3.532409,-11.283874,-1.876831
-0.520996,0.911377,-0.043457,3.135681,-6.935119,-1.853943
-0.51416,0.903809,-0.032471,2.388,-2.204895,-1.579285
-0.507568,0.891113,-0.026611,0.923157,3.356933,-1.502991
-0.504395,0.884033,-0.018311,-1.426697,9.590149,-1.312256
-0.494385,0.87915,-0.011963,-3.90625,15.640258,-0.900268
-0.479736,0.87915,-0.01123,-5.249023,20.095823,-0.785828
-0.47168,0.880371,-0.005859,-5.126953,23.086546,-0.534058
-0.467529,0.884521,0.001465,-4.180908,25.619505,0.144958
-0.464111,0.896729,0.008545,-3.77655,27.595518,1.091003
-0.459473,0.910645,0.011719,-4.081726,28.549192,1.945495
-0.449463,0.92334,0.016602,-4.478455,27.732847,2.510071
-0.445068,0.932617,0.01123,-4.943848,24.200438,3.166198
-0.45166,0.941406,0.01123,-4.692078,19.691467,3.852844
-0.45874,0.943604,0.008057,-3.990173,16.204834,4.844666
-0.457764,0.945801,0.002441,-3.288269,13.999938,5.973815
-0.44751,0.94873,0.001709,-2.754211,10.963439,6.568908
-0.447021,0.949219,-0.002197,-1.968384,6.355285,6.446838
-0.45874,0.943604,-0.004883,-0.732422,1.647949,6.088256
-0.466553,0.939209,-0.005371,0.709534,-1.525879,5.363464
-0.467529,0.944092,-0.006348,1.571655,-3.562927,4.562378
-0.472412,0.942383,-0.007568,2.464294,-5.615234,3.509521
-0.474365,0.933594,-0.012451,3.494262,-7.598876,2.166748
-0.477783,0.928223,-0.021484,4.180908,-8.918762,0.694275
-0.477051,0.920654,-0.025146,4.440308,-9.223938,-0.617981
-0.477539,0.914063,-0.028564,4.364014,-9.292603,-1.853943
-0.481201,0.909912,-0.03418,3.868103,-9.620667,-2.716064
-0.482666,0.900635,-0.039551,3.456115,-9.315491,-3.471374
-0.482666,0.892578,-0.045654,3.067016,-8.102417,-3.875732
-0.481445,0.886719,-0.044922,2.479553,-5.699157,-3.807068
-0.480713,0.885986,-0.043213,1.51062,-3.005981,-3.448486
-0.48291,0.891357,-0.03833,0.38147,-0.37384,-2.746582
-0.487061,0.897705,-0.028076,-0.396728,2.220154,-1.586914
-0.495117,0.902344,-0.026855,-1.342773,5.058288,0.267029
-0.502197,0.90625,-0.030273,-2.26593,8.148193,2.166748
-0.508057,0.908447,-0.030762,-2.754211,11.688231,4.03595
-0.510254,0.908936,-0.025391,-3.440857,15.327453,5.714416
-0.511963,0.909424,-0.023193,-3.997802,18.783569,7.110595
-0.510742,0.914795,-0.014404,-3.89862,22.193907,8.117676
-0.508301,0.920654,-0.007324,-3.936767,24.955748,8.392334
-0.499268,0.929199,-0.010986,-4.15802,27.351377,7.972717
-0.491699,0.937256,-0.009277,-4.058838,29.129026,7.080078
-0.490234,0.939697,-0.011719,-3.623962,30.532835,6.309509
-0.489258,0.944824,-0.011475,-2.6474,31.921385,5.104064
-0.47998,0.943604,-0.011963,-1.777649,33.172607,3.738403
-0.464355,0.947021,-0.018066,-1.518249,34.164429,2.632141
-0.45166,0.946045,-0.021484,-1.38855,34.057617,1.960754
-0.44458,0.942627,-0.023193,-0.663757,32.691956,0.961304
-0.440674,0.936279,-0.020996,0.267029,30.509947,-0.061035
-0.441406,0.9375,-0.025879,0.808716,28.038023,-0.709534
-0.438232,0.941162,-0.031006,0.778198,25.115965,-1.159668
-0.428467,0.939453,-0.032959,1.289368,20.927427,-1.564026
-0.423828,0.937744,-0.03125,1.998901,15.792846,-1.76239
-0.428955,0.932129,-0.027344,2.655029,10.620116,-1.25885
-0.436035,0.928955,-0.025391,2.830505,6.408691,-0.617981
-0.440186,0.924805,-0.024658,1.991272,3.318786,-0.244141
-0.442383,0.926514,-0.019043,0.869751,0.778198,0.198364
-0.446777,0.924316,-0.020264,-0.495911,-1.602173,0.709534
-0.449219,0.919678,-0.019531,-1.159668,-3.578186,1.434326
-0.459717,0.910889,-0.017334,-1.937866,-4.859924,2.02179
-0.466797,0.900391,-0.015381,-2.868652,-5.203247,2.510071
-0.471436,0.896729,-0.016113,-3.982544,-4.730225,2.975464
-0.476563,0.896973,-0.016846,-5.317688,-3.471374,3.417969
-0.47876,0.893555,-0.016846,-5.958557,-2.426147,3.631592
-0.485596,0.887451,-0.016113,-6.408691,-1.564026,3.791809
-0.493652,0.882813,-0.01123,-7.415771,0.099182,3.616333
-0.503418,0.886963,-0.013428,-8.43811,2.960205,4.249573
-0.517334,0.888916,-0.018799,-9.292603,7.003784,5.340576
-0.52832,0.887451,-0.027588,-10.253905,12.359618,5.851745
-0.52832,0.888184,-0.036865,-11.184691,18.722534,6.179809
-0.52417,0.895996,-0.043213,-12.413024,25.848387,6.385803
-0.520264,0.907959,-0.037109,-14.213561,32.836914,6.538391
-0.512207,0.925049,-0.026123,-15.480041,38.322449,6.500244
-0.503418,0.938232,-0.02417,-15.800475,41.763302,6.324768
-0.494629,0.94165,-0.031006,-15.136718,43.846127,5.821228
-0.494141,0.937744,-0.037842,-13.870238,46.340939,5.744934
-0.489502,0.937988,-0.04126,-12.672423,49.613949,6.217956
-0.471436,0.94165,-0.035645,-11.146544,51.895138,6.187438
-0.458008,0.940186,-0.03125,-9.735107,52.391048,5.592346
-0.440674,0.939697,-0.029541,-8.522034,51.002499,5.294799
-0.428467,0.936279,-0.027588,-7.308959,48.370358,5.325317
-0.419922,0.933594,-0.02417,-6.301879,45.410152,5.203247
-0.414551,0.938232,-0.021973,-5.729675,42.755123,4.78363
-0.408447,0.945313,-0.024414,-5.348205,40.100098,4.524231
-0.404053,0.954346,-0.025146,-5.020141,37.193298,4.470825
-0.4021,0.95874,-0.029541,-4.150391,34.156799,4.53186
-0.397217,0.959229,-0.029053,-2.952575,31.295774,4.570007
-0.395996,0.961914,-0.025879,-2.418518,29.235838,5.264282
-0.403076,0.974854,-0.027832,-2.296448,27.725218,6.301879
-0.405518,0.990479,-0.0354,-1.464844,26.000975,6.996154
-0.404541,1.001465,-0.037842,0.495911,24.009703,7.568359
-0.395996,1.00708,-0.040527,3.135681,21.957396,8.598328
-0.387695,1.00415,-0.042725,6.103515,18.676758,9.666443
-0.383057,0.994873,-0.046387,9.429932,13.72528,10.292052
-0.385254,0.983643,-0.051025,12.46643,8.018494,10.543822
-0.389648,0.973633,-0.060547,14.801024,3.211975,10.56671
-0.390869,0.968262,-0.066406,16.838074,-0.671387,10.665893
-0.386963,0.957275,-0.071533,19.050598,-4.234314,10.612487
-0.383301,0.943604,-0.074951,21.049498,-7.606506,10.19287
-0.385986,0.932129,-0.074951,22.377012,-10.894774,10.047912
-0.390869,0.927002,-0.081299,23.178099,-13.412475,10.124206
-0.398438,0.920654,-0.085693,22.842405,-14.617919,9.933472
-0.399658,0.915527,-0.087646,22.056578,-15.136718,9.498596
-0.399658,0.910889,-0.087402,20.721434,-15.304564,8.674622
-0.401855,0.909912,-0.08667,19.035339,-15.411376,7.705688
-0.405273,0.905029,-0.084961,17.715454,-14.396667,7.232666
-0.407227,0.904541,-0.085205,16.159058,-12.329101,6.958007
-0.406006,0.900391,-0.08374,14.175414,-9.086609,6.774902
-0.399902,0.900146,-0.08374,11.810302,-5.325317,6.29425
-0.392578,0.899658,-0.080322,8.811951,-2.128601,5.828857
-0.381348,0.898193,-0.082764,6.034851,0.62561,5.332946
-0.376709,0.898193,-0.088135,3.39508,3.074646,5.226135
-0.383057,0.901855,-0.100098,0.564575,5.851745,5.622863
-0.385742,0.914063,-0.11084,-2.227783,9.498596,5.500793
-0.37793,0.924805,-0.12207,-4.53186,13.47351,5.279541
-0.366455,0.92334,-0.131592,-6.011962,16.807556,5.378723
-0.361816,0.924561,-0.129395,-7.041931,19.821167,5.91278
-0.362305,0.929688,-0.131592,-7.751464,22.926329,6.568908
-0.360352,0.943604,-0.140137,-8.255005,26.718138,6.950378
-0.358887,0.958008,-0.141846,-7.980346,30.700682,7.453918
-0.358643,0.970947,-0.148438,-7.690429,34.324646,7.652282
-0.356445,0.97876,-0.150635,-7.156372,37.994385,7.469177
-0.345947,0.991455,-0.151611,-7.019042,41.78619,7.30133
-0.331787,0.999756,-0.145996,-6.355285,44.860836,7.095336
-0.331055,1.001221,-0.139404,-5.554199,47.233578,7.324218
-0.327148,1.00293,-0.133789,-4.997253,49.690243,7.942199
-0.322266,0.998291,-0.124512,-4.623413,51.757809,8.033752
-0.305176,0.990723,-0.115234,-4.951477,53.161617,8.117676
-0.295654,0.980957,-0.111572,-5.271911,52.841183,8.003235
-0.293457,0.970215,-0.109375,-5.584716,51.11694,7.026672
-0.286133,0.959717,-0.106201,-6.156921,49.942013,5.783081
-0.289551,0.949951,-0.118164,-7.240295,49.499508,4.936218
-0.294434,0.945801,-0.126953,-8.682251,50.048824,4.005432
-0.280518,0.945313,-0.135498,-10.0708,51.23901,2.670288
-0.266602,0.939209,-0.143311,-10.910033,51.704403,1.312256
-0.256836,0.932861,-0.142334,-11.230468,52.139278,1.014709
-0.243896,0.935791,-0.14624,-12.008666,51.475521,1.220703
-0.239502,0.94458,-0.150879,-12.779235,49.354549,1.846313
-0.237061,0.956055,-0.161865,-13.450622,45.967098,2.14386
-0.238037,0.961426,-0.171631,-13.267516,42.015072,2.990722
-0.244873,0.968506,-0.177002,-12.809752,37.963867,4.127502
-0.244873,0.972412,-0.178223,-11.909484,33.843994,4.615784
-0.234863,0.972412,-0.170898,-10.879516,28.877256,4.676819
-0.230225,0.975098,-0.16626,-10.025024,22.514341,4.959106
-0.23877,0.978271,-0.161377,-9.155273,15.296935,5.256652
-0.251953,0.978516,-0.158447,-7.980346,7.995605,5.241394
-0.266113,0.97876,-0.153076,-6.896972,2.258301,4.928589
-0.271973,0.979004,-0.145508,-5.699157,-2.311707,4.554749
-0.279541,0.979248,-0.138916,-4.920959,-6.347656,3.814697
-0.293457,0.982666,-0.132813,-4.264832,-9.689331,3.234863
-0.300781,0.981934,-0.128906,-3.723144,-11.932372,2.693176
-0.310059,0.982666,-0.124756,-3.14331,-13.275146,1.914978
-0.32251,0.977051,-0.12085,-3.204345,-13.748168,0.663757
-0.327637,0.959961,-0.11792,-3.288269,-12.825011,-0.366211
-0.329102,0.948486,-0.11792,-3.753662,-10.414123,-1.312256
-0.330566,0.944092,-0.118408,-4.226685,-7.232666,-2.311707
-0.321045,0.944336,-0.120605,-5.027771,-3.730774,-2.914428
-0.316895,0.9375,-0.121826,-4.91333,-0.534058,-3.15094
-0.310059,0.938721,-0.125244,-5.142211,2.113342,-3.204345
-0.306396,0.943604,-0.127686,-5.40924,4.348755,-3.051758
-0.296143,0.946289,-0.123779,-5.40924,5.851745,-3.02124
-0.277344,0.946289,-0.124268,-5.310058,6.729125,-2.853393
-0.276123,0.950928,-0.122803,-5.439758,6.179809,-2.059937
-0.289795,0.959473,-0.123291,-6.072998,5.40924,-1.571655
-0.289795,0.972656,-0.124756,-6.210327,5.40924,-1.861572
-0.281494,0.977783,-0.118164,-6.126403,5.332946,-1.945495
-0.281738,0.976074,-0.110352,-6.019592,3.860473,-1.777649
-0.286377,0.973633,-0.105225,-5.813598,1.792908,-1.930237
-0.282715,0.97998,-0.111572,-5.844116,-0.320435,-2.449036
-0.286133,0.983887,-0.11377,-5.737304,-2.227783,-2.845764
-0.292969,0.980957,-0.116699,-5.096435,-3.608703,-2.708435
-0.281494,0.971924,-0.116455,-4.325867,-5.317688,-3.364563
-0.282715,0.963379,-0.108398,-3.547668,-7.80487,-4.165649
-0.287354,0.966064,-0.107422,-3.410339,-10.482787,-4.600525
-0.284668,0.973877,-0.107666,-3.158569,-12.817382,-5.53894
-0.276367,0.970703,-0.104736,-2.449036,-15.678405,-6.134033
-0.279541,0.966064,-0.0979,-1.602173,-19.691467,-6.027221
-0.303467,0.963379,-0.096191,-1.335144,-23.620604,-6.118774
-0.320313,0.967285,-0.09668,-0.938415,-25.650023,-6.614685
-0.324463,0.9729,-0.102051,-0.50354,-25.863646,-6.782531
-0.313965,0.970459,-0.104248,0.061035,-25.42877,-6.484985
-0.314209,0.9646,-0.099121,0.595093,-25.947569,-6.286621
-0.319336,0.961914,-0.095459,0.640869,-27.153013,-6.54602
-0.323486,0.961914,-0.095947,0.663757,-28.091429,-6.813049
-0.328857,0.9646,-0.0979,0.839233,-28.648375,-6.835937
-0.337158,0.966309,-0.101563,0.63324,-28.648375,-6.683349
-0.342529,0.965332,-0.103271,0.892639,-27.9541,-6.66809
-0.341064,0.962646,-0.103516,1.037598,-27.229307,-6.805419
-0.340576,0.958496,-0.10376,0.88501,-26.840208,-6.767272
-0.343994,0.956787,-0.104248,0.717163,-26.893614,-6.904602
-0.344482,0.953857,-0.110352,0.915527,-27.397154,-7.316589
-0.351318,0.955566,-0.110352,1.358032,-28.053282,-7.759094
-0.346924,0.959229,-0.109375,1.754761,-28.671263,-8.270264
-0.34375,0.956299,-0.107422,2.479553,-29.571531,-8.613586
-0.351318,0.956543,-0.101318,2.799988,-31.005857,-8.56781
-0.359863,0.958496,-0.09668,3.128052,-31.867979,-8.43811
-0.367676,0.956299,-0.093018,3.356933,-31.806944,-8.224487
-0.373047,0.958008,-0.086426,3.173828,-30.830381,-8.262634
-0.370117,0.958252,-0.090576,2.555847,-29.327391,-8.422852
-0.36084,0.955322,-0.093262,2.029419,-28.190611,-8.621216
-0.358398,0.953125,-0.096924,1.548767,-27.94647,-8.842468
-0.359375,0.952148,-0.10498,1.342773,-27.908323,-9.109497
-0.372559,0.95166,-0.103516,1.266479,-27.801512,-9.223938
-0.382568,0.95459,-0.109619,1.274109,-26.840208,-9.559631
-0.383545,0.954834,-0.112061,1.098633,-24.841307,-9.735107
-0.378418,0.953613,-0.115479,0.984192,-22.552488,-9.57489
-0.36792,0.955566,-0.112305,1.037598,-20.88928,-9.468079
-0.363037,0.953613,-0.106934,1.052856,-20.103453,-9.498596
-0.368164,0.952148,-0.101074,0.656128,-19.760132,-9.45282
-0.377686,0.951172,-0.094482,0.167847,-18.928528,-9.651184
-0.38916,0.955078,-0.094727,-0.480652,-17.181396,-9.803772
-0.406494,0.958984,-0.090576,-0.709534,-14.343261,-9.83429
-0.40332,0.965088,-0.088135,-0.808716,-10.337829,-10.093688
-0.392822,0.967041,-0.083984,-0.869751,-6.278991,-10.353087
-0.394043,0.965332,-0.078125,-0.953674,-3.128052,-10.742187
-0.392578,0.964111,-0.074707,-1.480102,-0.396728,-11.45935
-0.386475,0.964355,-0.072266,-1.983642,2.349854,-12.268065
-0.383545,0.9646,-0.067871,-2.464294,4.737854,-12.512206
-0.38208,0.966553,-0.064453,-2.89154,6.401062,-12.7182
-0.383789,0.969727,-0.062988,-3.074646,7.644653,-12.519835
-0.381592,0.973145,-0.066406,-2.655029,8.552551,-11.772155
-0.376465,0.979004,-0.069336,-1.754761,8.926392,-10.429381
-0.375488,0.983398,-0.071533,-0.267029,8.926392,-8.850098
-0.374756,0.980713,-0.07373,1.472473,8.613586,-7.408142
-0.370605,0.969482,-0.073486,3.059387,8.659363,-6.240844
-0.362793,0.958252,-0.072021,4.104614,8.750916,-5.073547
-0.35498,0.951904,-0.06665,4.417419,8.407593,-4.142761
-0.351318,0.955322,-0.065918,4.379272,7.232666,-3.494262
-0.350098,0.958252,-0.064697,4.310608,5.500793,-3.082275
-0.348145,0.959473,-0.061279,4.53949,3.39508,-2.754211
-0.350342,0.956543,-0.056152,4.760742,1.419067,-2.227783
-0.355713,0.949219,-0.052734,4.66156,0.053406,-1.548767
-0.358154,0.940186,-0.049072,4.196167,-0.770569,-1.197815
-0.359863,0.937744,-0.045654,3.242492,-1.25885,-0.976562
-0.359619,0.936768,-0.046387,2.151489,-1.853943,-0.526428
-0.360107,0.93335,-0.043701,1.228333,-2.784729,0.007629
-0.362793,0.932129,-0.040771,0.488281,-3.936767,0.602722
-0.36792,0.937256,-0.041992,-0.366211,-5.111694,1.190186
-0.369873,0.939209,-0.043701,-0.732422,-6.378173,1.838684
-0.375732,0.940918,-0.047363,-0.823975,-7.713317,2.586365
-0.382813,0.94165,-0.049561,-0.907898,-9.208679,3.166198
-0.391357,0.943604,-0.050293,-0.770569,-10.604857,3.494262
-0.401611,0.946289,-0.054199,-0.495911,-11.863708,3.631592
-0.40918,0.942871,-0.054932,-0.091553,-12.893676,3.501892
-0.414551,0.938232,-0.050537,0.244141,-13.59558,3.204345
-0.416992,0.936768,-0.048828,0.175476,-14.122008,2.746582
-0.421143,0.942383,-0.051758,0.099182,-14.411925,2.227783
-0.42749,0.944824,-0.055664,0.1297,-14.320373,1.63269
-0.433105,0.945801,-0.052734,0.1297,-13.458251,1.174927
-0.438477,0.943115,-0.056396,0.343323,-11.940001,0.671387
-0.437012,0.943848,-0.055664,0.671387,-9.796143,0.213623
-0.432861,0.943115,-0.055176,0.953674,-7.217407,-0.144958
-0.431885,0.94458,-0.051758,0.862122,-4.974365,-0.480652
-0.427246,0.949219,-0.053467,0.595093,-2.967834,-0.541687
-0.422119,0.947266,-0.053223,0.25177,-0.740051,-0.602722
-0.412354,0.943359,-0.053955,0.083923,1.121521,-0.556946
-0.402832,0.944336,-0.052734,-0.160217,2.372742,-0.671387
-0.398926,0.954102,-0.054932,-0.602722,2.868652,-0.572205
-0.395752,0.960449,-0.061523,-0.305176,3.204345,-0.320435
-0.390381,0.959961,-0.067383,-0.083923,3.837585,-0.175476
-0.389648,0.956543,-0.067383,0.0,4.463196,-0.022888
-0.385742,0.953857,-0.068359,0.106812,5.058288,0.167847
-0.383301,0.951416,-0.06958,0.411987,5.40924,0.312805
-0.379883,0.947266,-0.066162,1.098633,5.027771,0.549316
-0.375977,0.945313,-0.066895,1.449585,4.302979,0.679016
-0.375488,0.94751,-0.064209,1.525879,3.173828,0.747681
-0.373779,0.950195,-0.065674,1.655578,1.747131,0.915527
-0.373779,0.952881,-0.063965,2.075195,0.198364,1.037598
-0.375977,0.952148,-0.067139,2.433777,0.328064,1.487732
-0.377197,0.955322,-0.064209,2.5177,1.976013,2.235413
-0.369873,0.95874,-0.066406,2.784729,3.059387,2.662658
-0.363281,0.961426,-0.066895,3.356933,3.067016,2.929687
-0.359863,0.959717,-0.065674,3.784179,2.540588,3.494262
-0.359619,0.959961,-0.064209,4.180908,1.182556,3.890991
-0.359619,0.962646,-0.063232,4.28772,-0.724792,4.150391
-0.362061,0.967773,-0.062744,4.295349,-2.861023,4.142761
-0.365967,0.96875,-0.065918,4.394531,-5.180358,4.104614
-0.368408,0.96875,-0.069824,4.920959,-7.362365,3.837585
-0.371094,0.962646,-0.075439,5.622863,-9.361267,3.578186
-0.374268,0.953613,-0.078369,6.29425,-11.245727,3.341675
-0.374756,0.947266,-0.07666,6.996154,-12.832641,2.952575
-0.376221,0.942139,-0.074707,7.56073,-14.511107,2.380371
-0.379639,0.937012,-0.074463,7.827758,-16.311646,2.220154
-0.384766,0.929443,-0.077393,7.919311,-17.776489,2.14386
-0.391602,0.923828,-0.080811,7.621765,-18.592834,1.785278
-0.395996,0.921387,-0.081299,7.003784,-18.859863,1.480102
-0.401367,0.922119,-0.077148,5.958557,-18.699646,1.205444
-0.404053,0.925293,-0.074951,4.974365,-18.501282,1.052856
-0.407959,0.930908,-0.075928,4.356384,-18.302917,1.106262
-0.414795,0.931885,-0.078369,4.112244,-18.013,1.419067
-0.422607,0.929688,-0.078613,3.761291,-17.39502,1.647949
-0.429932,0.927734,-0.077637,3.280639,-16.288757,1.686096
-0.432617,0.929443,-0.07959,2.746582,-14.72473,1.487732
-0.435303,0.931885,-0.073975,2.01416,-12.924193,1.25885
-0.438232,0.937256,-0.077393,1.571655,-10.82611,0.862122
-0.441895,0.940674,-0.079102,1.533508,-8.590698,0.534058
-0.438477,0.937744,-0.07959,1.617432,-6.072998,0.312805
-0.437744,0.936523,-0.078613,1.335144,-3.295898,-0.053406
-0.433838,0.938721,-0.077881,0.923157,-0.816345,-0.473022
-0.430664,0.940918,-0.075928,0.38147,1.502991,-1.098633
-0.424561,0.940918,-0.073975,0.106812,3.379822,-1.808166
-0.419434,0.943359,-0.07373,0.022888,5.012512,-2.532959
-0.41626,0.94458,-0.076904,-0.1297,6.462097,-3.074646
-0.410889,0.950195,-0.076172,-0.183105,7.8125,-3.547668
-0.403076,0.951172,-0.074707,-0.022888,9.056091,-4.150391
-0.391846,0.950684,-0.073975,0.198364,9.727478,-4.638672
-0.383057,0.951416,-0.074219,0.267029,9.773254,-4.875183
-0.382324,0.952637,-0.072021,0.312805,9.559631,-5.050659
-0.375977,0.950439,-0.075684,0.846863,9.223938,-5.218505
-0.367432,0.946777,-0.073975,1.411438,8.460999,-5.195617
-0.358643,0.942139,-0.077148,1.976013,6.843566,-5.104064
-0.352295,0.944092,-0.074951,2.586365,4.325867,-4.920959
-0.348389,0.944336,-0.074463,3.051758,1.022339,-4.676819
-0.346436,0.947266,-0.071777,3.486633,-2.700805,-4.341125
-0.3479,0.945557,-0.069824,3.837585,-6.607055,-3.936767
-0.355469,0.943604,-0.069824,4.104614,-10.330199,-3.593445
-0.364502,0.947266,-0.06543,4.28772,-13.374328,-3.303528
-0.367188,0.947266,-0.064941,4.440308,-15.701293,-3.036499
-0.371094,0.942627,-0.064941,4.562378,-17.555237,-2.754211
-0.378418,0.944336,-0.064453,4.684448,-19.226074,-2.403259
-0.386719,0.947754,-0.064453,4.707336,-20.339964,-1.914978
-0.392822,0.948242,-0.065918,4.753113,-20.881651,-1.495361
-0.398193,0.941895,-0.06665,4.776001,-20.904539,-1.213074
-0.406494,0.934814,-0.067627,4.638672,-20.729063,-0.923157
-0.417725,0.939697,-0.067627,4.264832,-20.149229,-0.709534
-0.418701,0.94165,-0.068604,4.150391,-18.623352,-0.564575
-0.420654,0.940674,-0.069092,4.043579,-16.998291,-0.396728
-0.423584,0.945557,-0.067139,3.868103,-15.35797,-0.427246
-0.423096,0.94751,-0.068848,3.64685,-14.030456,-0.587463
-0.423584,0.946533,-0.071533,3.494262,-12.878417,-0.663757
-0.424805,0.943604,-0.072754,3.509521,-11.71112,-0.801086
-0.42627,0.943359,-0.075439,3.387451,-10.482787,-0.961304
-0.423828,0.939941,-0.074219,3.181457,-9.178162,-1.106262
-0.420654,0.939697,-0.077148,3.105163,-7.92694,-1.25885
-0.418457,0.940918,-0.078613,2.838135,-6.79779,-1.350403
-0.41333,0.938965,-0.077148,2.601623,-6.057739,-1.564026
-0.410156,0.935547,-0.073975,2.357483,-5.615234,-1.747131
-0.407227,0.937256,-0.073242,1.937866,-5.256652,-1.945495
-0.406982,0.937256,-0.069824,1.831055,-5.027771,-2.006531
-0.404541,0.936035,-0.071533,1.937866,-4.699707,-2.090454
-0.400391,0.94043,-0.068359,1.823425,-4.341125,-1.914978
-0.395264,0.944336,-0.070068,1.777649,-4.318237,-1.617432
-0.394775,0.94458,-0.067383,1.937866,-4.608154,-1.190186
-0.4021,0.94458,-0.06665,1.846313,-5.104064,-0.915527
-0.405029,0.947266,-0.067383,2.006531,-5.104064,-1.13678
-0.40332,0.951416,-0.070068,1.960754,-4.486084,-0.946045
-0.402832,0.954102,-0.068848,1.930237,-4.112244,-0.587463
-0.40332,0.953857,-0.069336,1.937866,-3.952026,-0.396728
-0.402344,0.951416,-0.074219,2.105713,-3.952026,-0.175476
-0.403564,0.949463,-0.07959,2.510071,-4.066467,-0.221252
-0.401123,0.945557,-0.078125,3.028869,-4.272461,-0.328064
-0.402832,0.944824,-0.075928,3.288269,-4.653931,-0.534058
-0.404053,0.945313,-0.077881,3.52478,-5.058288,-0.648498
-0.404785,0.937988,-0.080811,3.761291,-5.493164,-0.587463
-0.403076,0.93335,-0.080322,3.860473,-5.760192,-0.686645
-0.406006,0.929443,-0.076172,3.761291,-6.072998,-0.854492
-0.409424,0.932861,-0.070557,3.334045,-6.149292,-0.953674
-0.410645,0.934814,-0.066162,2.990722,-5.729675,-1.281738
-0.406738,0.932861,-0.059814,2.578735,-5.439758,-1.403808
-0.412354,0.9375,-0.060303,2.01416,-5.53894,-1.235962
-0.419678,0.941406,-0.063965,1.716614,-5.134582,-1.174927
-0.420898,0.939209,-0.063721,1.289368,-3.761291,-1.174927
-0.418701,0.935547,-0.061768,1.00708,-2.365112,-1.235962
-0.415771,0.932129,-0.063232,0.801086,-1.037598,-1.213074
-0.415527,0.936035,-0.066162,0.511169,0.053406,-1.045227
-0.412109,0.939697,-0.064697,0.480652,0.808716,-0.938415
-0.408447,0.94043,-0.071289,0.389099,1.495361,-0.968933
-0.405762,0.941895,-0.075439,0.320435,1.754761,-1.235962
-0.401611,0.944092,-0.074707,0.411987,1.701355,-1.312256
-0.400391,0.946289,-0.073975,0.358582,1.464844,-1.220703
-0.398438,0.947021,-0.077881,0.228882,1.113892,-1.411438
-0.395508,0.948242,-0.080566,0.350952,0.63324,-1.403808
-0.395752,0.948242,-0.084961,0.50354,0.099182,-1.106262
-0.399658,0.945068,-0.084717,0.724792,-0.335693,-0.87738
-0.406494,0.947021,-0.084717,0.747681,-0.144958,-0.587463
-0.404297,0.948242,-0.081055,0.869751,0.526428,-0.572205
-0.400635,0.943848,-0.078613,1.022339,1.121521,-0.442505
-0.404297,0.944824,-0.079102,0.862122,1.319885,-0.221252
-0.409424,0.944824,-0.077881,0.846863,1.907349,-0.12207
-0.407471,0.941162,-0.076904,0.839233,2.89154,-0.114441
-0.40332,0.938721,-0.073242,0.808716,3.684997,-0.045776
-0.40625,0.941162,-0.069092,0.205994,4.074097,0.114441
-0.408447,0.944336,-0.070313,-0.205994,4.547119,0.183105
-0.401367,0.943115,-0.067383,-0.358582,5.393981,0.37384
-0.393799,0.936279,-0.067139,-0.38147,5.79071,0.50354
-0.392578,0.935791,-0.067383,-0.480652,5.233764,0.648498
-0.396973,0.941406,-0.068359,-0.663757,4.554749,0.816345
-0.400146,0.944092,-0.07251,-0.610352,4.478455,0.892639
-0.391846,0.942383,-0.077393,-0.442505,4.371643,0.88501
-0.389648,0.940674,-0.07666,-0.488281,3.707886,0.923157
-0.39624,0.942383,-0.07666,-0.602722,2.738952,0.785828
-0.397461,0.942139,-0.072998,-0.75531,2.006531,0.457764
-0.398438,0.941895,-0.072754,-0.770569,1.617432,0.144958
-0.402832,0.943115,-0.075195,-0.656128,1.190186,-0.053406
-0.4021,0.943359,-0.078369,-0.663757,0.991821,-0.091553
-0.400391,0.942139,-0.083252,-0.518799,1.281738,-0.12207
-0.395508,0.9375,-0.081543,-0.335693,1.106262,-0.160217
-0.39209,0.94043,-0.077393,-0.320435,0.663757,-0.114441
-0.383301,0.940674,-0.074463,-0.518799,0.045776,-0.160217
-0.371582,0.942871,-0.072754,-0.411987,-1.472473,-0.083923
-0.371826,0.941895,-0.074463,-0.335693,-3.89862,0.205994
-0.401367,0.943848,-0.079834,-0.228882,-6.16455,0.411987
-0.433594,0.944092,-0.08374,-0.091553,-6.210327,0.061035
-0.433838,0.9375,-0.08252,0.007629,-3.364563,-0.50354
-0.417969,0.938477,-0.081787,-0.25177,-0.190735,-0.709534
-0.402832,0.943359,-0.084961,-0.640869,1.197815,-0.747681
-0.393311,0.940918,-0.080566,-0.801086,1.152039,-0.579834
-0.393555,0.937744,-0.074463,-0.907898,0.541687,-0.549316
-0.399658,0.94165,-0.071289,-1.014709,0.350952,-0.457764
-0.397461,0.940918,-0.068604,-1.296997,0.747681,-0.259399
-0.394287,0.940186,-0.064209,-1.609802,0.892639,-0.015259
-0.393311,0.941895,-0.065186,-2.067566,0.488281,0.106812
-0.398193,0.945313,-0.069336,-2.342224,0.289917,0.183105
-0.399902,0.945313,-0.072754,-2.311707,0.564575,0.297546
-0.397461,0.939209,-0.073486,-2.166748,0.968933,0.37384
-0.39624,0.9375,-0.072266,-1.968384,0.808716,0.411987
-0.39917,0.939453,-0.070068,-1.88446,0.396728,0.335693
-0.398682,0.943359,-0.071289,-2.044678,-0.1297,0.434875
-0.397217,0.942383,-0.072754,-2.105713,-0.38147,0.541687
-0.39917,0.940918,-0.076416,-2.128601,-0.709534,0.511169
-0.399658,0.941895,-0.076416,-2.052307,-1.121521,0.450134
-0.400879,0.943848,-0.07373,-1.998901,-1.182556,0.25177
-0.399902,0.944092,-0.074219,-1.670837,-1.197815,0.221252
-0.399658,0.947754,-0.072021,-1.602173,-1.220703,0.1297
-0.401123,0.950928,-0.071533,-1.472473,-1.365662,0.183105
-0.399902,0.949219,-0.06958,-1.411438,-1.861572,0.1297
-0.398926,0.949951,-0.071533,-1.281738,-2.456665,-0.083923
-0.397461,0.943359,-0.070801,-1.113892,-3.219604,-0.160217
-0.395996,0.942383,-0.067627,-1.091003,-3.982544,-0.205994
-0.397217,0.945557,-0.070068,-1.060486,-4.852295,-0.221252
-0.39624,0.94873,-0.072754,-0.923157,-5.928039,-0.198364
-0.401367,0.950195,-0.075928,-0.526428,-7.102966,-0.205994
-0.406494,0.948486,-0.079102,-0.167847,-8.079529,-0.152588
-0.407959,0.943848,-0.080322,0.358582,-8.399963,-0.022888
-0.414307,0.945557,-0.07959,0.656128,-8.056641,0.030518
-0.418701,0.943115,-0.079102,1.014709,-7.240295,0.137329
-0.417969,0.937744,-0.082764,1.373291,-6.217956,-0.007629
-0.414551,0.931396,-0.084229,1.655578,-5.630493,-0.358582
-0.413574,0.928223,-0.081055,1.686096,-5.607605,-0.556946
-0.418213,0.928711,-0.077148,1.403808,-5.561828,-0.686645
-0.421631,0.931885,-0.075684,0.930786,-5.088806,-1.022339
-0.420654,0.929199,-0.07373,0.541687,-3.929138,-1.426697
-0.414551,0.926514,-0.068848,0.015259,-2.655029,-1.449585
-0.415283,0.929199,-0.062012,-0.488281,-1.51062,-1.487732
-0.418701,0.938721,-0.060303,-0.976562,-0.12207,-1.403808
-0.414307,0.943359,-0.063477,-1.144409,1.571655,-1.411438
-0.405518,0.940186,-0.061523,-1.426697,2.792358,-1.213074
-0.407959,0.942871,-0.063721,-1.747131,2.929687,-0.991821
-0.409912,0.948486,-0.064697,-2.037048,3.089905,-0.869751
-0.408936,0.949219,-0.067627,-1.922607,3.921509,-0.892639
-0.407959,0.949463,-0.068604,-1.586914,4.890442,-0.854492
-0.404785,0.946289,-0.068848,-1.480102,5.439758,-0.63324
-0.398926,0.942871,-0.071045,-1.38855,5.584716,-0.762939
-0.392578,0.941406,-0.070313,-1.060486,5.203247,-0.854492
-0.391113,0.942383,-0.071045,-0.801086,4.341125,-0.907898
-0.393066,0.943359,-0.070557,-0.450134,3.39508,-1.052856
-0.392334,0.943604,-0.068848,-0.305176,2.731323,-1.251221
-0.388916,0.944092,-0.066895,-0.236511,2.120972,-1.304626
-0.386963,0.94165,-0.064941,-0.190735,1.358032,-1.426697
-0.388184,0.941895,-0.060547,-0.549316,0.404358,-1.419067
-0.396973,0.946045,-0.060303,-0.785828,-0.312805,-1.335144
-0.399414,0.946533,-0.064453,-0.701904,-0.350952,-1.197815
-0.394287,0.943848,-0.062988,-0.610352,-0.160217,-0.930786
-0.39624,0.9375,-0.061035,-0.701904,-0.411987,-0.793457
-0.397949,0.937012,-0.058838,-0.63324,-0.679016,-0.785828
-0.399658,0.939697,-0.059814,-0.701904,-0.732422,-0.793457
-0.400635,0.942139,-0.060059,-0.816345,-0.656128,-0.62561
-0.399902,0.946533,-0.062256,-0.808716,-0.610352,-0.587463
-0.400391,0.945557,-0.062012,-1.00708,-0.679016,-0.518799
-0.404297,0.946533,-0.062744,-1.091003,-0.511169,-0.488281
-0.405518,0.948242,-0.062988,-1.213074,0.343323,-0.526428
-0.40332,0.947021,-0.062256,-1.281738,1.197815,-0.457764
-0.396484,0.946533,-0.0625,-1.296997,1.663208,-0.366211
-0.394531,0.94458,-0.065918,-1.182556,1.647949,-0.328064
-0.39624,0.945557,-0.066895,-1.205444,1.434326,-0.274658
-0.394775,0.945801,-0.069092,-0.938415,1.205444,-0.244141
-0.391357,0.946045,-0.066406,-0.770569,0.656128,-0.099182
-0.39209,0.949951,-0.066895,-0.762939,0.015259,-0.061035
-0.393555,0.947754,-0.06958,-0.610352,-0.396728,-0.137329
-0.391113,0.943848,-0.068604,-0.442505,-0.663757,-0.221252
-0.394287,0.943604,-0.065674,-0.282288,-0.991821,-0.205994
-0.397705,0.945557,-0.063965,-0.312805,-1.205444,-0.358582
-0.391602,0.94458,-0.061768,-0.320435,-1.541138,-0.465393
-0.389893,0.942871,-0.060791,-0.335693,-2.326965,-0.282288
-0.400391,0.948242,-0.061035,-0.404358,-3.013611,-0.236511
-0.400146,0.948486,-0.062988,-0.427246,-2.792358,-0.244141
-0.398438,0.944824,-0.0625,-0.259399,-2.494812,-0.160217
-0.402344,0.945801,-0.063965,-0.25177,-2.357483,-0.038147
-0.401855,0.946045,-0.062988,-0.305176,-2.182007,-0.198364
-0.403809,0.94458,-0.060303,-0.320435,-1.953125,0.0
-0.404297,0.94458,-0.061035,-0.37384,-1.480102,0.061035
-0.401611,0.944824,-0.060547,-0.37384,-1.052856,-0.045776
-0.397461,0.94043,-0.059814,-0.411987,-0.892639,-0.114441
-0.394775,0.937744,-0.062744,-0.236511,-1.434326,-0.106812
-0.402832,0.939941,-0.062988,-0.198364,-2.258301,-0.030518
-0.403809,0.943604,-0.063232,-0.038147,-2.326965,-0.221252
-0.401855,0.942627,-0.060303,0.244141,-2.02179,-0.236511
-0.400146,0.942383,-0.060791,0.419617,-2.059937,-0.274658
-0.400391,0.939209,-0.059082,0.419617,-2.410889,-0.38147
-0.400635,0.937988,-0.058838,0.244141,-2.63977,-0.38147
-0.403076,0.939941,-0.053955,-0.053406,-2.487183,-0.587463
-0.406494,0.944092,-0.053467,-0.244141,-2.319336,-0.579834
-0.407227,0.950684,-0.052002,-0.335693,-1.76239,-0.595093
-0.402344,0.950195,-0.054932,-0.335693,-1.243591,-0.511169
-0.40625,0.947266,-0.055908,-0.38147,-1.098633,-0.419617
-0.407959,0.946533,-0.059326,-0.564575,-0.732422,-0.335693
-0.408203,0.946533,-0.0625,-0.442505,-0.076294,-0.167847
-0.405029,0.94458,-0.061035,-0.38147,0.999451,-0.022888
-0.39917,0.941895,-0.064697,-0.282288,2.052307,-0.007629
-0.395264,0.943359,-0.063965,-0.289917,2.227783,-0.12207
-0.392334,0.941406,-0.065918,-0.312805,1.770019,-0.404358
-0.388672,0.941406,-0.06543,-0.190735,1.022339,-0.572205
-0.38916,0.942871,-0.065186,-0.175476,-0.061035,-0.480652
-0.391602,0.945557,-0.065186,-0.1297,-0.938415,-0.427246
-0.392822,0.947266,-0.063232,0.076294,-1.64032,-0.404358
-0.396484,0.947021,-0.061523,0.190735,-2.403259,-0.366211
-0.399658,0.945313,-0.060059,0.480652,-2.838135,-0.434875
-0.402344,0.946045,-0.057373,0.587463,-3.166198,-0.610352
-0.405762,0.94458,-0.059326,0.663757,-3.27301,-0.846863
-0.410645,0.944336,-0.058838,0.75531,-3.120422,-1.014709
-0.407959,0.946045,-0.056641,0.785828,-2.563476,-1.083374
-0.406982,0.946533,-0.057129,0.87738,-1.922607,-1.029968
-0.403809,0.946045,-0.057129,0.823975,-1.228333,-0.907898
-0.401855,0.945068,-0.056396,0.648498,-0.640869,-0.823975
-0.404785,0.943115,-0.062012,0.419617,-0.244141,-0.602722
-0.402832,0.942871,-0.060303,0.213623,0.358582,-0.328064
-0.404053,0.945801,-0.060059,0.038147,0.854492,-0.114441
-0.404053,0.943848,-0.058838,-0.106812,1.487732,-0.083923
-0.39624,0.942139,-0.060059,-0.305176,1.991272,-0.213623
-0.395752,0.939209,-0.061035,-0.389099,2.044678,-0.045776
-0.403564,0.945068,-0.062012,-0.610352,2.159119,-0.053406
-0.401367,0.948242,-0.063477,-0.572205,2.532959,-0.167847
-0.394531,0.945801,-0.064697,-0.404358,2.876281,-0.091553
-0.395264,0.944092,-0.063232,-0.389099,2.708435,-0.114441
-0.397461,0.945801,-0.060303,-0.473022,2.334595,-0.267029
-0.397705,0.946289,-0.061279,-0.541687,2.159119,-0.343323
-0.39502,0.947754,-0.064941,-0.366211,2.044678,-0.343323
-0.396973,0.947754,-0.060303,-0.015259,1.808166,-0.282288
-0.393066,0.948486,-0.059326,-0.061035,1.647949,-0.366211
-0.390381,0.946045,-0.059326,0.312805,1.182556,-0.495911
-0.394287,0.946777,-0.057129,0.320435,0.534058,-0.541687
-0.395508,0.944336,-0.05957,0.389099,0.312805,-0.587463
-0.391846,0.942139,-0.06543,0.419617,-0.061035,-0.694275
-0.395508,0.946289,-0.062012,0.350952,-0.587463,-0.572205
-0.400146,0.94751,-0.0625,0.518799,-1.00708,-0.686645
-0.39917,0.946533,-0.064697,0.617981,-1.029968,-0.717163
-0.398926,0.94751,-0.062256,0.671387,-1.068115,-0.617981
-0.402832,0.947266,-0.063721,0.823975,-1.152039,-0.686645
-0.401855,0.946289,-0.063477,0.854492,-0.740051,-0.915527
-0.398193,0.946533,-0.062988,0.991821,-0.396728,-1.00708
-0.396484,0.943848,-0.062012,1.022339,-0.434875,-0.953674
-0.397949,0.942871,-0.060547,0.915527,-0.610352,-0.869751
-0.398682,0.944824,-0.061279,0.900268,-0.38147,-0.854492
-0.396973,0.943359,-0.060791,0.900268,0.015259,-0.564575
-0.396729,0.94165,-0.058838,0.816345,-0.007629,-0.442505
-0.395752,0.94043,-0.057617,0.717163,0.106812,-0.434875
-0.394287,0.940186,-0.05835,0.396728,0.289917,-0.473022
-0.397705,0.943115,-0.056641,0.167847,0.289917,-0.450134
-0.400635,0.945801,-0.056885,-0.061035,0.38147,-0.190735
-0.404297,0.949463,-0.055176,-0.25177,0.816345,0.068665
-0.404053,0.952148,-0.055664,-0.358582,1.556396,0.335693
-0.404053,0.951416,-0.058594,-0.442505,2.510071,0.419617
-0.405762,0.948975,-0.05957,-0.419617,3.250122,0.38147
-0.404541,0.945557,-0.061523,-0.488281,3.768921,0.228882
-0.400146,0.941406,-0.060303,-0.610352,4.089355,0.114441
-0.400391,0.938477,-0.05957,-0.694275,4.203796,-0.022888
-0.393555,0.938721,-0.062256,-0.793457,4.135132,-0.213623
-0.389648,0.941162,-0.063965,-0.62561,4.013062,-0.305176
-0.389404,0.94043,-0.062744,-0.465393,3.601074,-0.534058
-0.385254,0.938477,-0.064453,-0.419617,2.685547,-0.823975
-0.380859,0.935791,-0.064941,-0.396728,1.358032,-0.984192
-0.383789,0.939209,-0.065674,-0.328064,-0.694275,-0.991821
-0.390625,0.944336,-0.065186,-0.091553,-2.967834,-0.801086
-0.39917,0.946533,-0.066162,0.213623,-4.585266,-0.602722
-0.403809,0.942871,-0.070313,0.572205,-5.447387,-0.740051
-0.408936,0.941162,-0.067871,0.976562,-5.783081,-0.984192
-0.41626,0.948242,-0.063232,1.13678,-5.455017,-1.319885
-0.416992,0.950195,-0.060303,1.38092,-4.638672,-1.670837
-0.416992,0.951904,-0.0625,1.480102,-3.761291,-1.808166
-0.416748,0.953613,-0.062988,1.617432,-2.777099,-1.708984
-0.416992,0.953369,-0.065674,1.861572,-1.350403,-1.342773
-0.412598,0.948486,-0.067627,1.945495,0.183105,-1.205444
-0.404785,0.942383,-0.067871,1.754761,1.51062,-1.182556
-0.397949,0.940674,-0.063721,1.655578,2.685547,-0.968933
-0.39502,0.941406,-0.065918,1.64032,3.051758,-0.770569
-0.392334,0.94165,-0.068848,1.594543,3.166198,-0.831604
-0.386719,0.944336,-0.071045,1.548767,3.067016,-0.75531
-0.384766,0.944336,-0.067627,1.609802,2.39563,-0.602722
-0.384277,0.942871,-0.066162,1.63269,1.51062,-0.740051
-0.385254,0.946777,-0.064209,1.541138,0.617981,-0.701904
-0.388428,0.948486,-0.062988,1.396179,-0.183105,-0.808716
-0.388672,0.949219,-0.062988,1.319885,-0.671387,-0.793457
-0.391113,0.946533,-0.064941,1.426697,-1.220703,-0.656128
-0.398926,0.948486,-0.06665,1.38092,-1.716614,-0.679016
-0.397949,0.94751,-0.067627,1.663208,-1.899719,-0.617981
-0.396973,0.947754,-0.068115,1.754761,-2.258301,-0.526428
-0.4021,0.94873,-0.06958,1.701355,-2.708435,-0.488281
-0.406006,0.949219,-0.067139,1.876831,-2.471924,-0.465393
-0.405029,0.944336,-0.073242,2.067566,-1.937866,-0.480652
-0.40332,0.938721,-0.075684,2.220154,-1.548767,-0.595093
-0.398926,0.936523,-0.072021,1.983642,-1.319885,-0.732422
-0.400146,0.939697,-0.072998,1.937866,-1.091003,-0.740051
-0.397949,0.942383,-0.071533,1.914978,-1.113892,-0.778198
-0.400635,0.941895,-0.069824,1.754761,-1.533508,-0.648498
-0.401611,0.942383,-0.070313,1.655578,-1.739502,-0.526428
-0.401611,0.94165,-0.068848,1.63269,-1.777649,-0.579834
-0.400635,0.937744,-0.067139,1.701355,-1.930237,-0.572205
-0.400635,0.940918,-0.067871,1.533508,-1.831055,-0.541687
-0.403564,0.939697,-0.067139,1.243591,-1.876831,-0.610352
-0.405518,0.942139,-0.062744,1.228333,-1.846313,-0.709534
-0.407715,0.947021,-0.065674,1.266479,-1.739502,-0.701904
-0.402832,0.945313,-0.067871,1.342773,-1.495361,-0.793457
-0.398926,0.942871,-0.069824,1.518249,-1.335144,-0.88501
-0.397461,0.939697,-0.071289,1.396179,-1.602173,-0.976562
-0.399414,0.939209,-0.069092,1.243591,-2.029419,-1.037598
-0.399414,0.944092,-0.070801,1.106262,-2.311707,-0.915527
-0.397217,0.946533,-0.070068,1.091003,-2.410889,-0.701904
-0.395264,0.944824,-0.072754,1.296997,-2.700805,-0.534058
-0.399414,0.943848,-0.073242,1.373291,-3.097534,-0.411987
-0.402832,0.945801,-0.073486,1.396179,-3.120422,-0.488281
-0.398682,0.942627,-0.076172,1.403808,-2.929687,-0.579834
-0.400635,0.937012,-0.07251,1.396179,-3.013611,-0.419617
-0.406982,0.938965,-0.07251,1.197815,-3.227234,-0.38147
-0.408447,0.942383,-0.072754,1.182556,-3.02124,-0.274658
-0.405273,0.942139,-0.072021,1.266479,-2.624511,-0.244141
-0.403564,0.938965,-0.067383,1.037598,-2.296448,-0.236511
-0.404053,0.937012,-0.066895,0.854492,-2.098083,-0.335693
-0.405518,0.940186,-0.063721,0.419617,-2.082825,-0.480652
-0.404297,0.939453,-0.063721,0.282288,-1.693725,-0.579834
-0.401367,0.941162,-0.064697,0.076294,-1.426697,-0.534058
-0.39917,0.938965,-0.063965,0.0,-1.419067,-0.274658
-0.39917,0.936768,-0.064697,-0.190735,-1.564026,-0.274658
-0.395996,0.936768,-0.066162,-0.297546,-2.006531,-0.106812
-0.400635,0.940186,-0.067627,-0.411987,-2.777099,-0.038147
-0.404297,0.944092,-0.068604,-0.511169,-3.379822,0.022888
-0.405762,0.945313,-0.071045,-0.236511,-3.410339,0.015259
-0.411377,0.946777,-0.070313,-0.114441,-3.189087,-0.053406
-0.413086,0.94751,-0.071289,-0.389099,-2.510071,-0.297546
-0.407959,0.945313,-0.07251,-0.389099,-1.770019,-0.488281
-0.40625,0.945068,-0.070801,-0.434875,-1.419067,-0.465393
-0.409668,0.946533,-0.071533,-0.511169,-1.190186,-0.350952
-0.406006,0.946289,-0.079834,-0.282288,-0.770569,-0.022888
-0.4021,0.943359,-0.080811,-0.007629,-0.335693,0.366211
-0.396729,0.939697,-0.079834,0.137329,-0.541687,0.541687
-0.398438,0.940186,-0.07666,0.190735,-1.403808,0.549316
-0.400879,0.939209,-0.073975,0.106812,-2.288818,0.25177
-0.39917,0.939209,-0.071045,0.183105,-2.761841,0.144958
-0.400146,0.936279,-0.070068,0.259399,-3.189087,-0.030518
-0.404541,0.933594,-0.072754,0.022888,-3.433227,-0.297546
-0.410156,0.938721,-0.075195,-0.267029,-3.181457,-0.534058
-0.411621,0.943115,-0.075195,-0.335693,-2.487183,-0.762939
-0.410645,0.943848,-0.073486,-0.488281,-1.792908,-0.923157
-0.411865,0.946533,-0.074219,-0.442505,-1.296997,-0.801086
-0.410889,0.947021,-0.074707,-0.198364,-0.801086,-0.617981
-0.408203,0.945068,-0.072754,0.335693,-0.411987,-0.541687
-0.410889,0.946045,-0.071533,0.488281,-0.015259,-0.289917
-0.406982,0.946533,-0.070557,0.762939,0.526428,-0.350952
-0.406006,0.941162,-0.073242,1.068115,0.946045,-0.511169
-0.404053,0.941406,-0.073975,1.12915,1.121521,-0.610352
-0.397949,0.94165,-0.070068,1.022339,0.976562,-0.968933
-0.392334,0.942871,-0.069824,0.923157,0.595093,-1.014709
-0.396484,0.945313,-0.069092,0.839233,-0.045776,-0.984192
-0.393555,0.946045,-0.070313,0.846863,-0.312805,-1.152039
-0.393799,0.946777,-0.071045,0.999451,-0.572205,-1.098633
-0.397949,0.949463,-0.073242,0.961304,-0.686645,-1.083374
-0.396729,0.947754,-0.074951,1.037598,-0.595093,-1.159668
-0.397217,0.943604,-0.073242,1.312256,-0.495911,-1.037598
-0.395996,0.943848,-0.070801,1.327515,-0.320435,-1.00708
-0.397461,0.943604,-0.06958,1.419067,-0.25177,-1.037598
-0.39502,0.94458,-0.065674,1.411438,-0.213623,-0.923157
-0.390625,0.941895,-0.064697,1.518249,-0.495911,-0.63324
-0.394775,0.942627,-0.063721,1.441955,-0.892639,-0.442505
-0.397217,0.943848,-0.066895,1.197815,-0.999451,-0.450134
-0.397705,0.943848,-0.064453,1.190186,-0.801086,-0.350952
-0.399414,0.943848,-0.063232,0.991821,-0.457764,-0.442505
-0.398438,0.945801,-0.0625,0.793457,0.007629,-0.564575
-0.395508,0.944092,-0.057129,0.495911,0.236511,-0.717163
-0.391113,0.942627,-0.05957,0.350952,0.091553,-0.732422
-0.392578,0.942627,-0.062012,0.228882,-0.267029,-0.640869
-0.393311,0.944824,-0.067871,0.045776,-0.541687,-0.556946
-0.390869,0.945557,-0.069336,0.099182,-1.045227,-0.37384
-0.396484,0.947998,-0.070801,0.190735,-1.708984,0.045776
-0.400146,0.949219,-0.071533,0.564575,-1.937866,0.1297
-0.397949,0.947998,-0.070801,0.816345,-2.075195,0.198364
-0.399414,0.949219,-0.072998,0.900268,-2.372742,0.267029
-0.398682,0.946045,-0.071533,1.312256,-2.388,0.015259
-0.395508,0.944336,-0.071777,1.533508,-2.311707,-0.350952
-0.395752,0.944092,-0.072998,1.670837,-2.593994,-0.572205
-0.39209,0.941895,-0.072754,1.754761,-3.028869,-0.732422
-0.390625,0.9375,-0.072021,1.76239,-3.700256,-0.839233
-0.391357,0.937988,-0.071045,1.708984,-4.615784,-0.869751
-0.392822,0.937988,-0.068848,1.63269,-5.493164,-0.785828
-0.396729,0.938232,-0.070068,1.426697,-6.034851,-0.518799
-0.40332,0.938232,-0.071289,1.13678,-6.134033,-0.335693
-0.406006,0.939941,-0.071289,1.045227,-5.729675,-0.244141
-0.408447,0.938232,-0.073486,0.938415,-4.875183,-0.289917
-0.409668,0.940186,-0.071045,0.862122,-4.188538,-0.267029
-0.411377,0.941406,-0.070068,0.640869,-3.807068,-0.297546
-0.414063,0.941406,-0.06958,0.770569,-3.517151,-0.228882
-0.416504,0.944336,-0.070313,0.617981,-2.975464,-0.144958
-0.417236,0.946533,-0.071777,0.740051,-1.960754,-0.244141
-0.414795,0.946289,-0.071777,0.75531,-0.88501,-0.320435
-0.410645,0.945801,-0.070557,0.686645,0.144958,-0.50354
-0.404785,0.942139,-0.070557,0.656128,0.823975,-0.938415
-0.399902,0.939209,-0.069092,0.518799,0.75531,-1.106262
-0.397949,0.937744,-0.070801,0.411987,0.335693,-1.060486
-0.395752,0.938232,-0.07251,0.465393,-0.12207,-1.060486
-0.392578,0.938721,-0.069336,0.656128,-0.785828,-0.88501
-0.392822,0.942139,-0.06958,0.63324,-1.533508,-0.587463
-0.395264,0.942383,-0.070801,0.808716,-2.120972,-0.572205
-0.395996,0.942383,-0.068115,0.846863,-2.418518,-0.450134
-0.397705,0.940918,-0.069824,0.762939,-2.670288,-0.282288
-0.404785,0.945313,-0.070068,0.732422,-2.952575,-0.236511
-0.406982,0.945068,-0.069092,0.946045,-2.693176,-0.312805
-0.405273,0.945313,-0.067383,1.052856,-2.403259,-0.396728
-0.405029,0.942871,-0.065674,0.831604,-2.464294,-0.450134
-0.406982,0.942627,-0.067139,0.610352,-2.456665,-0.701904
-0.406982,0.942871,-0.067871,0.640869,-2.311707,-0.816345
-0.407227,0.943115,-0.071289,0.610352,-1.693725,-0.846863
-0.40625,0.941406,-0.070313,0.411987,-1.098633,-0.747681
-0.405273,0.942383,-0.070313,0.244141,-0.854492,-0.663757
-0.403076,0.94043,-0.071045,0.137329,-0.617981,-0.656128
-0.404541,0.939209,-0.070313,-0.053406,-0.488281,-0.534058
-0.403076,0.938232,-0.074707,-0.213623,-0.099182,-0.450134
-0.401611,0.937012,-0.073486,-0.175476,0.259399,-0.427246
-0.398193,0.94043,-0.069336,-0.213623,0.183105,-0.465393
-0.398926,0.943604,-0.067383,-0.099182,-0.320435,-0.465393
-0.39917,0.946533,-0.064941,0.091553,-1.106262,-0.343323
-0.404541,0.950195,-0.064209,0.312805,-1.808166,-0.244141
-0.405518,0.949463,-0.068848,0.419617,-2.105713,-0.282288
-0.405029,0.946289,-0.073486,0.648498,-1.76239,-0.25177
-0.409668,0.942139,-0.073486,0.610352,-1.083374,-0.289917
-0.407959,0.937988,-0.070801,0.556946,-0.396728,-0.595093
-0.400635,0.938477,-0.068115,0.572205,0.12207,-0.862122
-0.395996,0.940918,-0.067139,0.457764,0.1297,-0.953674
-0.396484,0.941895,-0.069336,0.564575,-0.366211,-1.068115
-0.396729,0.941162,-0.072998,0.694275,-0.846863,-0.839233
-0.397705,0.939453,-0.07251,0.87738,-1.319885,-0.762939
-0.398193,0.939453,-0.071045,0.869751,-1.518249,-0.617981
-0.399658,0.940674,-0.07373,0.907898,-1.426697,-0.419617
-0.402832,0.944824,-0.068604,0.87738,-1.411438,-0.404358
-0.403809,0.94458,-0.068604,0.999451,-1.358032,-0.556946
-0.403076,0.942627,-0.070068,1.167297,-1.38092,-0.793457
-0.4021,0.945068,-0.06665,1.190186,-1.63269,-0.915527
-0.404785,0.946777,-0.066162,1.144409,-1.846313,-1.060486
-0.403076,0.947266,-0.067627,1.304626,-1.625061,-1.075745
-0.400391,0.947266,-0.068604,1.480102,-1.296997,-1.167297
-0.398438,0.939941,-0.069824,1.525879,-1.243591,-1.098633
-0.396973,0.938965,-0.06665,1.358032,-1.373291,-0.946045
-0.400391,0.943359,-0.069336,1.12915,-1.449585,-0.862122
-0.397461,0.942383,-0.07373,1.121521,-1.38092,-0.808716
-0.396973,0.940918,-0.071289,1.159668,-1.235962,-0.663757
-0.399902,0.940918,-0.070801,1.205444,-1.205444,-0.602722
-0.4021,0.94043,-0.074463,1.014709,-1.045227,-0.610352
-0.401123,0.940186,-0.070068,0.915527,-1.00708,-0.488281
-0.400146,0.941162,-0.06958,0.87738,-0.938415,-0.442505
-0.400391,0.943115,-0.071777,0.854492,-0.785828,-0.495911
-0.401367,0.945557,-0.070068,0.892639,-0.785828,-0.473022
-0.399902,0.945068,-0.068115,0.953674,-0.823975,-0.50354
-0.399902,0.94458,-0.070068,0.915527,-0.961304,-0.50354
-0.399902,0.943359,-0.070068,0.976562,-1.243591,-0.526428
-0.401367,0.943604,-0.073486,1.068115,-1.602173,-0.663757
-0.398438,0.941162,-0.072998,1.220703,-1.88446,-0.778198
-0.400391,0.937988,-0.071045,1.159668,-2.182007,-0.846863
-0.401367,0.94165,-0.070801,1.220703,-2.235413,-0.808716
-0.404053,0.945068,-0.071533,1.159668,-2.342224,-0.839233
-0.401855,0.943115,-0.070801,1.174927,-2.311707,-0.778198
-0.4021,0.942871,-0.070801,1.182556,-2.189636,-0.740051
-0.404785,0.941162,-0.072021,1.197815,-2.113342,-0.808716
-0.404297,0.942627,-0.073486,1.075745,-1.937866,-0.816345
-0.401855,0.943359,-0.073975,0.87738,-1.792908,-0.831604
-0.402344,0.94458,-0.072266,0.869751,-1.716614,-0.816345
-0.403564,0.943848,-0.073486,0.961304,-1.625061,-0.762939
-0.39917,0.940918,-0.07666,0.862122,-1.419067,-0.732422
-0.397949,0.937988,-0.075195,0.900268,-1.235962,-0.701904
-0.397949,0.939941,-0.074219,0.961304,-1.335144,-0.740051
-0.396484,0.942871,-0.074463,0.862122,-1.701355,-0.556946
-0.400391,0.940674,-0.074951,0.778198,-2.197266,-0.572205
-0.405762,0.939941,-0.075439,0.816345,-2.555847,-0.579834
-0.405273,0.938721,-0.075195,0.839233,-2.746582,-0.549316
-0.40625,0.94043,-0.074219,0.915527,-2.761841,-0.549316
-0.406006,0.939697,-0.070068,0.999451,-2.708435,-0.724792
-0.407959,0.940674,-0.067871,0.946045,-2.738952,-0.907898
-0.408691,0.94165,-0.070801,0.846863,-2.616882,-0.999451
-0.406006,0.94165,-0.071045,0.816345,-2.548218,-1.014709
-0.407471,0.940186,-0.073486,0.701904,-2.616882,-1.091003
-0.40918,0.941162,-0.072266,0.762939,-2.532959,-1.091003
-0.408691,0.939209,-0.074951,0.732422,-2.27356,-0.999451
-0.407715,0.940186,-0.075439,0.656128,-2.02179,-0.991821
-0.406494,0.94165,-0.072021,0.694275,-1.983642,-0.907898
-0.405273,0.940186,-0.075928,0.686645,-1.846313,-0.976562
-0.40625,0.938477,-0.073975,0.656128,-1.693725,-0.915527
-0.404541,0.942871,-0.07373,0.541687,-1.556396,-0.808716
-0.403564,0.943848,-0.070801,0.419617,-1.296997,-0.740051
-0.402832,0.943604,-0.071533,0.297546,-1.197815,-0.686645
-0.401855,0.941895,-0.071777,0.274658,-1.304626,-0.640869
-0.402832,0.939209,-0.072021,0.205994,-1.281738,-0.579834
-0.401855,0.939941,-0.070313,0.228882,-1.396179,-0.488281
-0.401855,0.939941,-0.071045,0.144958,-1.525879,-0.480652
-0.401611,0.941162,-0.068359,0.045776,-1.670837,-0.442505
-0.401123,0.939941,-0.070801,0.061035,-2.151489,-0.442505
-0.401123,0.935791,-0.074463,0.068665,-2.311707,-0.518799
-0.402344,0.937744,-0.074219,0.099182,-2.494812,-0.427246
-0.405273,0.941406,-0.069336,0.068665,-2.731323,-0.50354
-0.405029,0.948242,-0.068848,0.144958,-2.952575,-0.595093
-0.405762,0.950928,-0.070801,0.457764,-3.120422,-0.518799
-0.407715,0.945557,-0.071777,0.694275,-3.387451,-0.282288
-0.409424,0.946289,-0.071533,0.831604,-3.234863,-0.259399
-0.412109,0.94458,-0.071533,0.75531,-2.792358,-0.25177
-0.410645,0.940918,-0.070557,0.770569,-2.281189,-0.328064
-0.408203,0.94043,-0.072021,0.801086,-1.693725,-0.473022
-0.405273,0.94043,-0.074219,0.709534,-1.350403,-0.587463
-0.400635,0.937012,-0.074219,0.778198,-1.518249,-0.541687
-0.400879,0.937744,-0.074951,0.831604,-1.953125,-0.564575
-0.400879,0.938232,-0.075195,0.88501,-2.319336,-0.534058
-0.404297,0.939209,-0.075684,0.816345,-2.479553,-0.450134
-0.405029,0.938721,-0.074463,0.892639,-2.799988,-0.259399
-0.407959,0.941162,-0.074951,0.953674,-2.868652,-0.213623
-0.408447,0.942139,-0.073242,1.022339,-2.616882,-0.267029
-0.407471,0.942139,-0.07251,0.846863,-2.449036,-0.320435
-0.407959,0.942139,-0.075195,0.862122,-2.380371,-0.366211
-0.407471,0.942139,-0.073486,0.839233,-2.5177,-0.556946
-0.408203,0.944092,-0.073975,0.87738,-2.716064,-0.541687
-0.408447,0.943359,-0.072754,1.052856,-2.784729,-0.419617
-0.406494,0.938965,-0.070068,1.289368,-2.815246,-0.343323
-0.408691,0.937988,-0.074707,1.319885,-2.815246,-0.282288
-0.408203,0.938721,-0.074463,1.266479,-2.746582,-0.282288
-0.411865,0.941162,-0.074951,1.182556,-2.548218,-0.37384
-0.412598,0.942627,-0.074219,1.327515,-2.14386,-0.480652
-0.411377,0.940186,-0.07373,1.358032,-1.808166,-0.450134
-0.410156,0.939209,-0.074219,1.304626,-1.480102,-0.465393
-0.411377,0.939697,-0.074707,1.182556,-1.327515,-0.495911
-0.4104,0.940674,-0.073242,1.121521,-1.022339,-0.564575
-0.408691,0.939941,-0.074707,1.098633,-0.793457,-0.511169
-0.408447,0.939209,-0.074707,0.968933,-0.724792,-0.595093
-0.405273,0.937988,-0.074951,0.984192,-0.579834,-0.572205
-0.405273,0.936523,-0.07373,1.13678,-0.495911,-0.511169
-0.405273,0.937012,-0.074463,1.052856,-0.549316,-0.50354
-0.40332,0.939941,-0.073486,0.999451,-0.869751,-0.389099
-0.400879,0.941895,-0.07251,0.88501,-0.984192,-0.434875
-0.401611,0.939697,-0.073486,0.915527,-1.182556,-0.488281
-0.404785,0.940674,-0.074707,0.862122,-1.228333,-0.335693
-0.404297,0.941162,-0.072266,0.88501,-1.342773,-0.297546
-0.405029,0.937988,-0.074951,0.923157,-1.617432,-0.282288
-0.409424,0.939697,-0.075439,0.679016,-1.625061,-0.198364
-0.412109,0.94043,-0.074219,0.724792,-1.464844,-0.114441
-0.410156,0.940674,-0.074463,0.717163,-1.25885,-0.198364
-0.412109,0.938232,-0.074951,0.595093,-0.88501,-0.320435
-0.413574,0.937988,-0.076416,0.50354,-0.442505,-0.358582
-0.414063,0.939453,-0.075928,0.358582,0.015259,-0.320435
-0.411133,0.940674,-0.077148,0.267029,0.442505,-0.465393
-0.409912,0.941895,-0.075928,0.198364,0.915527,-0.541687
-0.409912,0.940186,-0.073975,0.076294,1.243591,-0.495911
-0.406494,0.937988,-0.074463,-0.061035,1.518249,-0.419617
-0.405273,0.938232,-0.076904,-0.053406,1.724243,-0.335693
-0.402588,0.937744,-0.073975,-0.030518,1.754761,-0.328064
-0.400146,0.939941,-0.071289,-0.160217,1.579285,-0.389099
-0.400635,0.941406,-0.073975,-0.099182,1.213074,-0.274658
-0.401367,0.939697,-0.074463,0.0,0.869751,-0.236511
-0.401123,0.942139,-0.072998,-0.106812,0.679016,-0.267029
-0.402832,0.943848,-0.074707,-0.244141,0.450134,-0.267029
-0.403809,0.943115,-0.073486,-0.221252,0.343323,-0.289917
-0.403564,0.944092,-0.07373,-0.282288,0.312805,-0.389099
-0.403564,0.94458,-0.075439,-0.114441,0.236511,-0.411987
-0.402344,0.940918,-0.077148,-0.022888,0.160217,-0.37384
-0.400391,0.941406,-0.075684,0.030518,0.091553,-0.396728
-0.403809,0.943848,-0.076904,0.1297,0.015259,-0.411987
-0.40332,0.943604,-0.075928,0.236511,0.12207,-0.396728
-0.401367,0.942383,-0.075928,0.37384,0.160217,-0.267029
-0.401123,0.940674,-0.078125,0.587463,0.068665,-0.259399
-0.401123,0.942871,-0.076416,0.556946,-0.015259,-0.320435
-0.400146,0.945557,-0.072754,0.617981,-0.213623,-0.366211
-0.401611,0.943604,-0.07373,0.793457,-0.358582,-0.312805
-0.401855,0.943604,-0.071289,0.915527,-0.389099,-0.358582
-0.4021,0.943848,-0.073242,0.862122,-0.442505,-0.419617
-0.402344,0.942383,-0.072998,0.915527,-0.411987,-0.350952
-0.39917,0.942871,-0.071533,0.976562,-0.518799,-0.419617
-0.395508,0.943115,-0.070557,1.190186,-0.869751,-0.488281
-0.397217,0.940918,-0.071045,1.281738,-1.441955,-0.511169
-0.395996,0.939697,-0.073242,1.38092,-2.235413,-0.495911
-0.397217,0.937256,-0.074951,1.350403,-2.944946,-0.717163
-0.392822,0.934082,-0.073242,1.434326,-3.479004,-0.900268
-0.393066,0.935547,-0.066895,1.365662,-4.096985,-0.984192
-0.393066,0.944336,-0.066895,1.13678,-4.707336,-1.083374
-0.395508,0.951416,-0.068604,0.961304,-5.203247,-0.740051
-0.400391,0.957031,-0.075439,1.068115,-5.401611,-0.305176
-0.406006,0.955566,-0.077881,1.319885,-5.348205,0.244141
-0.412354,0.94873,-0.080322,1.579285,-4.837036,0.846863
-0.416748,0.942139,-0.080078,1.518249,-3.829956,1.296997
-0.424072,0.936768,-0.084473,1.403808,-2.357483,1.586914
-0.422119,0.930664,-0.084229,1.13678,-0.747681,1.487732
-0.416504,0.931396,-0.076416,0.839233,0.534058,1.075745
-0.412354,0.93457,-0.075928,0.808716,1.296997,0.564575
-0.40625,0.933594,-0.075195,0.648498,1.502991,0.160217
-0.401611,0.933838,-0.073242,0.434875,1.38855,-0.007629
-0.401611,0.937256,-0.072754,0.465393,0.907898,-0.167847
-0.400146,0.942871,-0.070801,0.473022,0.289917,-0.144958
-0.395264,0.944336,-0.071777,0.518799,0.045776,-0.068665
-0.397705,0.944092,-0.068359,0.770569,-0.152588,0.083923
-0.396484,0.939941,-0.070068,1.022339,-0.740051,0.137329
-0.39624,0.938232,-0.070068,1.167297,-1.564026,-0.015259
-0.397705,0.941406,-0.072021,1.220703,-2.418518,-0.175476
-0.398926,0.942871,-0.07373,1.342773,-3.242492,-0.419617
-0.398682,0.94873,-0.075684,1.541138,-3.944397,-0.526428
-0.39917,0.94751,-0.078857,1.968384,-4.302979,-0.572205
-0.400879,0.947021,-0.085449,2.151489,-4.570007,-0.511169
-0.399414,0.94458,-0.084229,2.182007,-4.737854,-0.579834
-0.398438,0.942871,-0.086426,2.357483,-4.653931,-0.75531
-0.395996,0.945313,-0.085205,2.502441,-4.608154,-0.762939
-0.398193,0.942871,-0.083008,2.525329,-4.814148,-0.709534
-0.399658,0.945068,-0.080811,2.494812,-5.004883,-0.63324
-0.401611,0.942627,-0.079346,2.540588,-5.012512,-0.480652
-0.404053,0.94043,-0.07666,2.563476,-4.699707,-0.38147
-0.404541,0.938965,-0.075439,2.540588,-4.302979,-0.183105
-0.40625,0.935791,-0.07373,2.418518,-3.723144,-0.061035
-0.407959,0.937012,-0.07251,2.120972,-3.555298,-0.076294
-0.407227,0.939941,-0.073486,1.823425,-3.341675,-0.045776
-0.408691,0.939453,-0.075684,1.731872,-3.105163,-0.091553
-0.408447,0.939941,-0.075928,1.770019,-2.754211,-0.160217
-0.409424,0.939453,-0.076172,1.655578,-2.487183,-0.114441
-0.410645,0.9375,-0.078613,1.625061,-2.204895,-0.144958
-0.408936,0.939697,-0.077393,1.693725,-2.044678,-0.274658
-0.405273,0.942139,-0.079102,1.724243,-1.930237,-0.434875
-0.405273,0.943848,-0.078125,1.89209,-1.869202,-0.427246
-0.404297,0.942871,-0.077393,1.991272,-1.922607,-0.541687
-0.402588,0.942871,-0.076904,2.006531,-2.029419,-0.717163
-0.400635,0.944336,-0.080566,1.998901,-2.212524,-0.770569
-0.398682,0.942627,-0.079346,2.044678,-2.449036,-0.862122
-0.396973,0.939941,-0.079346,2.113342,-2.754211,-0.740051
-0.395508,0.939453,-0.079102,1.945495,-3.14331,-0.694275
-0.39624,0.941895,-0.083008,1.914978,-3.517151,-0.640869
-0.398926,0.943604,-0.084717,2.120972,-3.822326,-0.480652
-0.399414,0.94043,-0.084473,2.128601,-3.990173,-0.37384
-0.399658,0.938721,-0.081787,2.120972,-4.03595,-0.419617
-0.4021,0.939209,-0.084229,2.090454,-3.967285,-0.526428
-0.403564,0.939697,-0.085205,2.113342,-4.325867,-0.694275
-0.4021,0.938477,-0.081055,2.166748,-4.608154,-0.762939
-0.401855,0.940674,-0.080078,2.113342,-4.981995,-0.846863
-0.404541,0.935547,-0.07959,2.067566,-5.249023,-0.88501
-0.406738,0.935303,-0.081543,1.930237,-5.432128,-0.87738
-0.408203,0.936279,-0.080322,1.655578,-5.325317,-0.854492
-0.408447,0.936279,-0.080322,1.480102,-4.821777,-0.88501
-0.40918,0.936523,-0.079102,1.289368,-4.28009,-0.770569
-0.409668,0.936768,-0.078613,0.984192,-3.707886,-0.556946
-0.412109,0.938477,-0.081055,0.686645,-3.242492,-0.564575
-0.410645,0.937988,-0.079834,0.419617,-2.494812,-0.595093
-0.407715,0.936279,-0.080078,0.160217,-1.914978,-0.541687
-0.405273,0.935547,-0.081787,-0.091553,-1.594543,-0.419617
-0.403564,0.938965,-0.081299,-0.190735,-1.419067,-0.366211
-0.404053,0.940918,-0.076904,-0.190735,-1.419067,-0.411987
-0.402832,0.942627,-0.076172,-0.213623,-1.358032,-0.396728
-0.40332,0.943115,-0.075684,-0.25177,-1.457214,-0.350952
-0.402588,0.945801,-0.077393,0.007629,-1.602173,-0.38147
-0.402344,0.94458,-0.079834,-0.030518,-1.579285,-0.358582
-0.400635,0.943115,-0.078613,-0.030518,-1.678467,-0.335693
-0.399658,0.943115,-0.077881,0.12207,-1.960754,-0.099182
-0.398193,0.943848,-0.077637,0.015259,-2.388,-0.1297
-0.400391,0.943604,-0.078613,0.076294,-2.975464,-0.099182
-0.401855,0.939453,-0.080811,0.190735,-3.387451,-0.022888
-0.400146,0.935547,-0.083252,0.221252,-3.372192,-0.114441
-0.399902,0.93335,-0.081299,0.137329,-3.349304,-0.183105
-0.399414,0.935303,-0.077148,0.030518,-3.608703,-0.205994
-0.400879,0.94165,-0.077148,-0.137329,-4.089355,-0.114441
-0.403076,0.947998,-0.078125,-0.076294,-4.402161,-0.106812
-0.405518,0.948242,-0.077881,0.183105,-4.470825,0.12207
-0.405518,0.942139,-0.078613,0.25177,-4.310608,0.358582
-0.407715,0.940918,-0.073486,0.236511,-3.890991,0.38147
-0.406006,0.938965,-0.074219,0.022888,-3.40271,0.213623
-0.40625,0.938965,-0.073486,-0.106812,-3.105163,0.167847
-0.405273,0.942139,-0.075195,-0.076294,-2.960205,0.12207
-0.404785,0.941406,-0.078613,-0.015259,-3.044128,0.152588
-0.406006,0.943359,-0.080322,0.244141,-3.295898,0.221252
-0.40625,0.945313,-0.079834,0.328064,-3.501892,0.091553
-0.404297,0.941895,-0.080322,0.465393,-3.684997,-0.083923
-0.40332,0.942139,-0.078125,0.694275,-4.081726,-0.099182
-0.405518,0.942871,-0.077637,0.747681,-4.272461,-0.236511
-0.40625,0.94458,-0.081055,1.022339,-4.173279,-0.442505
-0.407959,0.945557,-0.080811,1.13678,-3.974914,-0.541687
-0.408691,0.947266,-0.080566,1.304626,-3.578186,-0.610352
-0.406982,0.948486,-0.079102,1.586914,-3.364563,-0.75531
-0.404297,0.942627,-0.07666,1.823425,-3.471374,-0.823975
-0.401123,0.938477,-0.07251,1.76239,-3.753662,-0.915527
-0.401367,0.942139,-0.074463,1.594543,-4.150391,-0.88501
-0.401123,0.939697,-0.076172,1.350403,-3.829956,-0.801086
-0.396484,0.937012,-0.077393,1.182556,-3.479004,-0.762939
-0.396729,0.935791,-0.07373,1.029968,-3.341675,-0.717163
-0.396973,0.9375,-0.070801,0.823975,-3.448486,-0.694275
-0.39502,0.939697,-0.070801,0.526428,-3.77655,-0.457764
-0.398193,0.938477,-0.07373,0.38147,-4.272461,-0.091553
-0.4021,0.940918,-0.077881,0.297546,-4.623413,0.221252
-0.408936,0.943848,-0.079102,0.259399,-4.470825,0.62561
-0.412109,0.944092,-0.078369,0.160217,-3.814697,0.602722
-0.414063,0.940186,-0.073486,0.061035,-2.922058,0.419617
-0.408203,0.939209,-0.074951,0.038147,-2.281189,0.198364
-0.404297,0.933838,-0.073975,0.053406,-1.976013,0.12207
-0.408936,0.937744,-0.07373,-0.1297,-2.464294,0.198364
-0.410156,0.941895,-0.076904,-0.267029,-2.799988,0.312805
-0.409424,0.943359,-0.078369,-0.030518,-2.677917,0.389099
-0.406494,0.942627,-0.078369,0.152588,-2.693176,0.602722
-0.406494,0.94043,-0.074951,0.297546,-2.876281,0.465393
-0.411621,0.941406,-0.071289,0.1297,-2.937317,0.38147
-0.412354,0.940186,-0.072998,0.25177,-2.700805,0.236511
-0.409668,0.939941,-0.075928,0.274658,-2.456665,0.244141
-0.409424,0.940918,-0.074463,0.450134,-2.471924,0.289917
-0.4104,0.938477,-0.07251,0.366211,-2.197266,0.328064
-0.40918,0.938721,-0.076172,0.289917,-1.831055,0.335693
-0.406006,0.94043,-0.07666,0.190735,-1.487732,0.221252
-0.40332,0.94043,-0.072754,0.152588,-1.426697,0.099182
-0.40332,0.9375,-0.07373,0.137329,-1.670837,0.083923
-0.401611,0.937744,-0.07373,0.061035,-1.953125,0.228882
-0.407715,0.941895,-0.072021,0.083923,-2.037048,0.450134
-0.408691,0.944336,-0.075928,-0.076294,-1.495361,0.541687
-0.405762,0.940674,-0.074951,-0.076294,-0.801086,0.488281
-0.403809,0.939697,-0.07251,-0.144958,-0.541687,0.282288
-0.399902,0.936035,-0.073242,-0.320435,-0.335693,0.12207
-0.403564,0.939209,-0.072998,-0.511169,-0.389099,0.091553
-0.405029,0.943115,-0.072754,-0.427246,-0.389099,0.244141
-0.397217,0.941162,-0.07373,-0.305176,-0.137329,0.358582
-0.397461,0.938965,-0.072266,-0.434875,-0.617981,0.63324
-0.400146,0.943115,-0.068115,-0.473022,-1.426697,0.495911
-0.403809,0.943359,-0.06665,-0.480652,-1.625061,0.396728
-0.404053,0.944336,-0.070068,-0.701904,-1.51062,0.526428
-0.407471,0.944336,-0.070313,-0.808716,-1.083374,0.343323
-0.409424,0.943604,-0.070801,-0.75531,-0.473022,0.221252
-0.40625,0.942627,-0.071777,-0.694275,0.030518,0.045776
-0.4021,0.939453,-0.069824,-0.617981,0.419617,-0.114441
-0.398682,0.938721,-0.067383,-0.648498,0.37384,-0.198364
-0.399414,0.938965,-0.070068,-0.686645,0.091553,-0.144958
-0.399902,0.942627,-0.06665,-0.549316,-0.022888,-0.038147
-0.395996,0.941895,-0.069092,-0.465393,-0.114441,0.25177
-0.393799,0.94165,-0.071045,-0.495911,-0.144958,0.305176
-0.394531,0.943359,-0.068115,-0.358582,-0.25177,0.213623
-0.394775,0.945801,-0.06543,-0.297546,-0.434875,0.022888
-0.394775,0.944092,-0.06665,-0.228882,-0.770569,-0.167847
-0.393066,0.944092,-0.067383,-0.236511,-1.220703,-0.350952
-0.394043,0.942139,-0.070068,-0.12207,-1.861572,-0.350952
-0.397217,0.942627,-0.06958,-0.236511,-2.235413,-0.259399
-0.396729,0.944092,-0.069824,-0.305176,-2.159119,-0.213623
-0.395752,0.94458,-0.068604,-0.259399,-2.090454,-0.183105
-0.395752,0.948486,-0.068115,-0.25177,-2.113342,0.015259
-0.398682,0.949463,-0.065918,-0.198364,-2.288818,0.12207
-0.403076,0.950195,-0.068115,0.061035,-2.281189,0.160217
-0.406006,0.950195,-0.06958,0.198364,-1.815796,0.305176
-0.398438,0.949219,-0.071533,0.297546,-0.961304,0.434875
-0.397217,0.94458,-0.070557,0.297546,-0.411987,0.549316
-0.398193,0.940918,-0.071045,0.236511,0.083923,0.495911
-0.394043,0.939453,-0.069824,0.053406,0.183105,0.335693
-0.389893,0.945801,-0.071289,-0.198364,-0.099182,0.328064
-0.394531,0.947266,-0.072754,-0.221252,-0.648498,0.511169
-0.396729,0.947266,-0.07373,-0.099182,-0.930786,0.434875
-0.395752,0.944092,-0.072998,0.25177,-0.999451,0.37384
-0.39502,0.946777,-0.068115,0.282288,-1.075745,0.114441
-0.395264,0.947021,-0.064209,0.274658,-0.953674,0.0
-0.394775,0.946533,-0.065918,0.396728,-0.709534,-0.015259
-0.396484,0.947266,-0.06543,0.320435,-0.648498,0.022888
-0.395264,0.948975,-0.065186,0.267029,-0.572205,-0.053406
-0.395264,0.945313,-0.06665,0.343323,-0.541687,-0.076294
-0.392334,0.94458,-0.065186,0.38147,-0.724792,0.007629
-0.394287,0.94751,-0.064453,0.419617,-0.999451,-0.144958
-0.39502,0.94873,-0.068604,0.442505,-1.022339,-0.205994
-0.395264,0.945068,-0.070557,0.511169,-0.938415,-0.312805
-0.396729,0.946289,-0.070068,0.38147,-0.526428,-0.259399
-0.391846,0.945313,-0.067871,0.328064,-0.091553,-0.282288
-0.387207,0.94458,-0.068359,0.190735,-0.12207,-0.358582
-0.384521,0.946289,-0.068604,0.259399,-0.640869,-0.289917
-0.389893,0.949219,-0.06543,0.297546,-0.976562,0.030518
-0.393799,0.952637,-0.065918,0.289917,-0.953674,0.106812
-0.388916,0.949219,-0.067627,0.457764,-0.656128,0.190735
-0.390381,0.947754,-0.063965,0.267029,-0.419617,0.37384
-0.39624,0.949463,-0.063477,-0.061035,-0.114441,0.053406
-0.386475,0.947266,-0.061523,-0.091553,0.465393,-0.25177
-0.380371,0.943604,-0.059326,-0.106812,0.289917,-0.076294
-0.383057,0.943604,-0.062988,-0.37384,-0.526428,0.0
-0.386719,0.947266,-0.064941,-0.50354,-1.060486,0.175476
-0.384033,0.947266,-0.067627,-0.38147,-1.144409,0.335693
-0.385498,0.949219,-0.068604,-0.404358,-1.281738,0.411987
-0.384277,0.953613,-0.071777,-0.434875,-1.434326,0.274658
-0.382813,0.954102,-0.07373,-0.213623,-1.358032,0.0
-0.382324,0.955566,-0.070068,-0.076294,-1.800537,-0.114441
-0.384033,0.959229,-0.068359,0.305176,-2.243042,-0.366211
-0.375488,0.958008,-0.068604,0.534058,-2.693176,-0.778198
-0.361084,0.954346,-0.069336,0.862122,-4.104614,-0.938415
-0.361572,0.95166,-0.064941,1.197815,-6.538391,-0.892639
-0.371094,0.950928,-0.063721,1.289368,-8.743286,-0.953674
-0.374023,0.952148,-0.06958,1.441955,-9.719849,-1.091003
-0.37085,0.95459,-0.071289,1.289368,-10.009766,-1.419067
-0.367188,0.960205,-0.081787,1.419067,-10.643004,-1.945495
-0.364258,0.964355,-0.081543,1.808166,-12.443542,-2.89154
-0.353271,0.959229,-0.074951,2.258301,-13.496398,-4.432678
-0.345947,0.962158,-0.07373,2.700805,-15.823363,-5.180358
-0.359863,0.960938,-0.072021,3.387451,-18.341064,-5.752563
-0.360596,0.958496,-0.076416,3.913879,-19.378662,-6.538391
-0.346191,0.960205,-0.077637,4.493713,-19.40918,-6.91986
-0.349854,0.961426,-0.07959,5.210876,-20.103453,-6.233215
-0.357422,0.962646,-0.077881,5.737304,-21.049498,-5.760192
-0.355957,0.966553,-0.07666,5.973815,-21.629332,-5.744934
-0.351074,0.967529,-0.081299,5.92041,-22.926329,-5.630493
-0.356201,0.970459,-0.090576,6.67572,-25.665281,-5.729675
-0.359863,0.969971,-0.096436,7.835388,-29.20532,-6.736755
-0.363281,0.967529,-0.097168,9.140015,-32.356262,-7.789611
-0.368896,0.964355,-0.094238,10.475158,-34.751892,-8.674622
-0.367676,0.960938,-0.091553,11.756896,-35.919189,-9.094238
-0.355713,0.955322,-0.099365,12.664794,-35.675049,-7.759094
-0.335693,0.954834,-0.111572,13.984679,-38.246155,-6.866455
-0.324463,0.955078,-0.121338,16.51001,-44.929501,-6.195068
-0.328613,0.95166,-0.127686,19.363403,-52.558895,-4.341125
-0.328857,0.946777,-0.13916,21.842955,-59.17358,-3.059387
-0.337402,0.938232,-0.139404,25.009153,-65.231323,-2.258301
-0.350098,0.929199,-0.13208,27.763365,-69.442749,-1.342773
-0.361572,0.923096,-0.133545,29.884336,-70.800781,-0.305176
-0.374756,0.911133,-0.151367,31.34918,-69.244385,0.50354
-0.381592,0.901367,-0.155273,33.081055,-65.895081,0.312805
-0.387451,0.897217,-0.152588,34.141541,-64.941406,-1.434326
-0.405273,0.882324,-0.157227,35.110474,-65.307617,-3.715515
-0.414551,0.8479,-0.15918,37.162781,-63.07983,-4.615784
-0.408203,0.812744,-0.155029,38.085938,-58.197018,-5.928039
-0.393066,0.790039,-0.158691,37.757874,-53.848263,-8.476257
-0.385254,0.759521,-0.163818,37.948608,-50.392147,-10.856627
-0.381836,0.728516,-0.166016,37.986755,-46.768185,-13.130187
-0.375977,0.704102,-0.165527,37.384033,-41.740414,-15.007018
-0.375977,0.685303,-0.172607,36.422729,-35.835266,-16.044617
-0.373535,0.667236,-0.181641,36.026001,-29.71649,-16.494751
-0.369385,0.643799,-0.188721,36.354065,-23.582457,-17.173767
-0.362549,0.618408,-0.178711,36.956787,-17.784119,-17.654419
-0.355957,0.595215,-0.164551,37.17804,-12.725829,-17.318726
-0.343994,0.579102,-0.148193,37.216187,-8.766174,-16.75415
-0.332764,0.567139,-0.133545,36.804199,-5.798339,-16.059875
-0.319336,0.562988,-0.126953,36.018372,-3.341675,-15.098571
-0.305664,0.559814,-0.120605,35.346985,-1.243591,-13.603209
-0.282227,0.551514,-0.105713,34.736633,0.640869,-11.840819
-0.275635,0.551758,-0.105225,33.920288,2.624511,-9.529114
-0.281738,0.564941,-0.122314,33.096313,3.913879,-6.973266
-0.28418,0.563965,-0.136963,33.454895,4.165649,-5.973815
-0.287109,0.547363,-0.143311,34.446716,3.517151,-5.638122
-0.288574,0.527832,-0.156982,35.301208,2.571106,-4.768372
-0.288086,0.504639,-0.185059,36.529541,2.571106,-4.508972
-0.281982,0.481445,-0.20874,38.467407,3.173828,-4.920959
-0.269775,0.454834,-0.207031,41.206356,3.952026,-5.889892
-0.255615,0.431152,-0.181152,43.579098,5.126953,-6.988525
-0.234863,0.414307,-0.141113,44.586178,7.011413,-8.026123
-0.214355,0.408936,-0.11499,44.258114,8.750916,-9.017944
-0.215088,0.428467,-0.125732,43.586727,10.383605,-9.483337
-0.239502,0.461914,-0.145264,44.166561,14.495849,-9.033203
-0.2771,0.489014,-0.156982,45.280453,22.583006,-7.293701
-0.29126,0.515625,-0.17749,45.69244,32.798767,-5.119323
-0.287354,0.552002,-0.195068,47.050472,41.687008,-3.181457
-0.285645,0.583252,-0.192871,49.797054,47.218319,0.183105
-0.289063,0.602539,-0.170166,51.719662,50.392147,5.485534
-0.275391,0.630859,-0.143799,52.650448,51.383968,10.711669
-0.234863,0.652832,-0.144531,53.413387,50.704952,15.182494
-0.215576,0.665771,-0.17041,53.215023,47.58453,19.477844
-0.228516,0.675781,-0.194092,53.810116,40.588375,22.834776
-0.26709,0.678223,-0.213867,55.488583,32.554626,24.238585
-0.338379,0.670898,-0.23291,56.564327,27.000425,24.749754
-0.418945,0.66748,-0.232178,56.77795,25.93231,25.29907
-0.482178,0.680664,-0.221436,54.527279,28.663633,26.016233
-0.515625,0.728271,-0.220215,49.865719,32.13501,27.099607
-0.520264,0.78833,-0.225098,45.494076,34.172058,28.228758
-0.498047,0.858643,-0.245361,41.358944,34.40094,29.541014
-0.464844,0.921143,-0.300293,38.993835,32.867432,30.700682
-0.444092,0.955078,-0.356934,39.047241,27.412413,30.799864
-0.476318,0.986572,-0.391357,40.855404,18.585205,30.72357
-0.563721,1.028809,-0.418457,43.701168,9.925842,29.891966
-0.642334,1.068359,-0.413574,46.188351,6.477355,28.511045
-0.711914,1.115479,-0.38623,46.127316,10.231017,27.809141
-0.782227,1.188477,-0.393066,43.17474,17.471313,27.801512
-0.793701,1.263184,-0.445557,39.482117,23.628233,26.885984
-0.736084,1.316162,-0.531982,36.308289,24.993895,24.185179
-0.648438,1.3479,-0.635254,36.66687,19.203186,21.675108
-0.616943,1.372559,-0.741211,39.772034,5.767822,19.65332
-0.67749,1.405518,-0.800293,43.365475,-13.008117,16.166687
-0.758301,1.442383,-0.793213,46.508785,-28.839109,12.71057
-0.789307,1.487793,-0.765625,44.761654,-34.805298,11.009215
-0.817383,1.54834,-0.783203,40.168758,-32.38678,11.344909
-0.903076,1.628662,-0.876465,37.42218,-28.388975,13.702392
-0.943115,1.710693,-1.001465,36.300659,-25.337217,15.594481
-0.920898,1.788818,-1.117676,36.369324,-27.076719,13.313293
-0.89209,1.844482,-1.196533,38.093567,-35.102844,8.239746
-0.923096,1.876221,-1.231689,40.977474,-46.623226,4.776001
-1.007568,1.939697,-1.243408,43.968197,-54.977413,2.677917
-1.07251,2.039307,-1.224854,43.128963,-53.283688,0.343323
-1.137939,2.101563,-1.209229,41.290279,-43.746944,-2.357483
-1.153564,2.07251,-1.223877,40.77911,-32.562256,-7.637023
-1.115479,1.956787,-1.26001,42.808529,-23.231504,-15.60974
-1.118896,1.806396,-1.29834,50.331112,-18.302917,-24.505613
-1.120361,1.660645,-1.317139,59.547421,-15.823363,-35.28595
-1.101074,1.526611,-1.281494,65.727234,-13.946532,-48.294064
-1.060791,1.427979,-1.223389,68.382263,-13.748168,-61.897274
-1.0,1.361816,-1.167969,69.526672,-14.259337,-74.813843
-0.939697,1.299316,-1.124756,71.052551,-15.693664,-85.411064
-0.919189,1.233398,-1.115234,73.928833,-16.342163,-93.284599
-0.912598,1.163818,-1.106934,78.056335,-13.580321,-99.868767
-0.92334,1.105225,-1.073486,82.611076,-5.210876,-105.651848
-0.93042,1.084473,-1.021729,86.318962,8.552551,-111.282341
-0.887451,1.090088,-0.996094,89.187614,23.727415,-118.034355
-0.861816,1.091064,-0.98999,92.544548,33.622742,-124.298088
-0.901367,1.080322,-0.983887,96.504204,37.353516,-128.868103
-0.914063,1.069336,-0.995605,98.1903,40.641781,-134.70459
-0.906006,1.078613,-1.035156,99.220268,44.906612,-141.212463
-0.907227,1.091797,-1.078613,101.394646,49.415585,-147.392273
-0.950684,1.098145,-1.102295,104.087822,53.497311,-152.267456
-0.990723,1.140625,-1.099365,106.246941,59.707638,-157.585144
-1.003418,1.186035,-1.115479,109.298698,70.289612,-163.413986
-1.01709,1.1875,-1.153076,112.670891,81.420891,-166.686996
-1.02417,1.133789,-1.170654,115.936272,89.87426,-168.754562
-1.046631,1.07959,-1.178955,117.34771,96.031181,-172.386154
-1.072021,1.036865,-1.197266,119.590752,98.289482,-178.001389
-1.046143,0.974121,-1.214111,120.773308,94.551079,-186.30217
-1.000977,0.896484,-1.216064,121.208183,84.014885,-195.320114
-0.949951,0.787842,-1.170166,121.414177,67.550659,-203.536972
-0.908691,0.672607,-1.074951,117.500298,50.582882,-211.219772
-0.887451,0.584961,-0.942871,108.085625,37.506104,-217.330917
-0.878906,0.519531,-0.787598,94.53582,28.877256,-220.413193
-0.884766,0.460693,-0.645752,79.429626,24.414061,-221.626266
-0.872314,0.406006,-0.54834,62.499996,18.760681,-222.724899
-0.843018,0.381348,-0.490234,45.1889,9.147644,-226.097092
-0.735107,0.370361,-0.433594,28.419493,-8.255005,-231.201157
-0.644775,0.366699,-0.327881,15.228271,-25.970457,-233.757004
-0.610352,0.338135,-0.257568,8.255005,-31.616209,-232.833847
-0.593506,0.277832,-0.232422,6.645202,-21.324156,-233.116135
-0.525879,0.184814,-0.128418,1.655578,2.098083,-240.10466
-0.441406,0.140137,0.020264,-10.70404,33.248901,-248.809799
-0.350098,0.14917,0.147217,-19.424438,60.18066,-249.992355
-0.278809,0.170166,0.23999,-20.89691,73.745728,-249.923691
-0.220703,0.193848,0.260742,-18.371582,70.098877,-249.961838
-0.146484,0.195557,0.272949,-15.930175,52.673336,-249.992355
-0.08667,0.206299,0.298096,-13.687133,32.775879,-249.992355
-0.045898,0.199707,0.287598,-9.124756,19.309998,-249.992355
-0.016357,0.174072,0.25293,-6.950378,11.619567,-249.992355
-0.033936,0.158447,0.228516,-4.501343,9.300232,-249.992355
-0.031494,0.179443,0.227539,-0.152588,16.067505,-249.992355
0.003906,0.223877,0.211426,5.584716,31.410215,-249.992355
0.052979,0.291504,0.189453,10.841369,46.524044,-249.992355
0.119629,0.338867,0.195313,13.954162,56.335445,-249.992355
0.189453,0.340576,0.234863,14.457702,58.242794,-249.992355
0.253174,0.352783,0.263428,14.633178,51.856991,-249.992355
0.284424,0.35498,0.260742,16.433716,36.102295,-247.276291
0.287109,0.363281,0.242188,17.112732,13.85498,-232.765182
0.259033,0.379883,0.185059,17.623901,-6.324768,-214.126572
0.316162,0.411621,0.143799,18.333435,-16.88385,-196.037277
0.270996,0.707275,0.018311,23.841856,-4.737854,-169.776901
-0.030273,0.670166,-0.227783,23.91815,-3.921509,-141.403198
0.652832,0.531982,-0.313721,22.041319,-6.256103,-127.494804
0.704834,0.621582,-0.4021,27.427671,-7.225036,-86.448662
0.454346,0.684082,-0.407471,37.384033,-16.014099,-48.202511
0.361572,0.666748,-0.362549,45.81451,-8.529663,-33.401489
0.244629,0.620117,-0.273193,49.842831,11.016845,-24.787901
0.175781,0.556396,-0.217041,48.690792,32.844543,-16.227722
0.206787,0.479492,-0.195068,46.264645,46.585079,-13.206481
0.258545,0.370117,-0.18335,46.31805,43.998714,-12.435912
0.257813,0.262695,-0.175293,49.377438,28.892515,-12.977599
0.164063,0.15918,-0.165771,53.176876,13.336181,-15.640258
0.074707,0.050049,-0.200684,53.825375,7.728576,-19.515991
0.088623,-0.068848,-0.269531,50.750729,9.94873,-23.384092
0.154541,-0.169678,-0.372559,47.096249,10.19287,-28.549192
0.189209,-0.279297,-0.436279,42.068478,0.991821,-32.63092
0.150879,-0.455566,-0.529053,34.210205,-18.035889,-30.006407
-0.013428,-0.637939,-0.715576,26.56555,-39.993286,-15.228271
-0.242188,-0.739258,-0.988525,22.308348,-53.146358,6.278991
-0.46582,-0.808838,-1.216797,19.088745,-49.209591,23.445127
-0.570801,-0.897705,-1.328369,14.045714,-30.242918,33.546448
-0.512207,-0.971924,-1.404541,7.759094,-9.902954,43.762203
-0.409424,-0.998047,-1.506104,5.935668,-6.530761,61.44714
-0.380859,-1.038086,-1.574951,9.788513,-20.13397,82.450859
-0.383545,-1.11377,-1.546143,10.414123,-33.370972,96.618645
-0.414063,-1.1604,-1.503906,3.768921,-34.294128,104.125969
-0.410645,-1.159668,-1.485352,-7.377624,-26.802061,112.350456
-0.365479,-1.10376,-1.4729,-21.507261,-16.853333,123.992912
-0.294434,-1.014893,-1.421143,-35.28595,-11.161803,136.474609
-0.210205,-0.908203,-1.337646,-46.874996,-13.374328,146.339417
-0.138672,-0.783447,-1.232422,-56.694027,-20.660398,155.021667
-0.108154,-0.650635,-1.07959,-66.055298,-28.488157,166.114792
-0.108887,-0.531006,-0.921143,-74.699402,-34.255981,179.634079
-0.126953,-0.405518,-0.819336,-83.374016,-37.818909,193.313583
-0.15625,-0.2771,-0.759277,-91.51458,-43.434139,205.57402
-0.181396,-0.156738,-0.71875,-97.000114,-53.085323,213.317856
-0.186523,-0.051758,-0.708984,-98.518364,-63.056942,216.316208
-0.16333,0.00708,-0.688965,-97.412102,-69.862366,217.452988
-0.150391,0.032715,-0.649658,-95.008842,-72.525024,218.727097
-0.182617,0.059326,-0.606201,-92.384331,-69.259644,219.543442
-0.244141,0.094971,-0.560059,-91.445915,-57.891842,218.261703
-0.298584,0.119141,-0.500732,-93.612663,-39.619446,213.623032
-0.306641,0.126221,-0.431396,-98.129265,-19.424438,206.626877
-0.26709,0.129639,-0.371094,-102.828972,-2.693176,200.40892
-0.218506,0.14624,-0.335693,-106.185905,6.195068,197.471603
-0.175537,0.170166,-0.317871,-107.551567,6.538391,197.311386
-0.179688,0.194092,-0.342041,-107.048027,0.350952,198.005661
-0.285645,0.24585,-0.397217,-103.889458,-9.780884,198.493942
-0.41748,0.299072,-0.44873,-97.930901,-18.287659,194.969162
-0.487305,0.32373,-0.487793,-92.094414,-21.881102,185.53923
-0.55249,0.340576,-0.538086,-86.410515,-22.5296,176.231369
-0.647705,0.356201,-0.564697,-80.764763,-22.377012,168.739304
-0.706299,0.363281,-0.549805,-77.674866,-20.927427,159.263611
-0.691406,0.35376,-0.526855,-77.171326,-18.592834,148.262024
-0.610596,0.337402,-0.508057,-78.50647,-14.915465,139.961243
-0.512695,0.31543,-0.485107,-80.26123,-11.634826,136.810303
-0.441895,0.294189,-0.496338,-82.008354,-10.69641,138.000488
-0.409668,0.30249,-0.554688,-83.358757,-12.847899,140.113831
-0.448486,0.349365,-0.606934,-81.161491,-17.471313,140.7547
-0.521729,0.410156,-0.629639,-76.10321,-18.859863,139.884949
-0.626709,0.44751,-0.636719,-72.441101,-10.147094,137.22229
-0.736328,0.491699,-0.630371,-73.08197,6.17218,135.108948
-0.814697,0.561768,-0.640869,-77.636719,26.092527,132.30896
-0.789063,0.622803,-0.682617,-84.762566,45.547482,125.579826
-0.661377,0.588379,-0.752197,-89.49279,56.739803,114.242546
-0.516846,0.491211,-0.804199,-91.194145,54.626461,100.769035
-0.429443,0.428711,-0.783447,-91.194145,39.871216,89.027397
-0.39917,0.428955,-0.720947,-89.576714,18.325806,81.092827
-0.383301,0.440674,-0.663818,-87.646477,-3.288269,76.980591
-0.37915,0.44165,-0.613037,-87.203972,-19.348145,74.317932
-0.395508,0.444336,-0.619873,-89.614861,-25.642393,70.381165
-0.37793,0.437256,-0.674561,-91.094963,-25.787352,65.353394
-0.361328,0.431396,-0.719482,-89.24102,-25.062559,61.355587
-0.374512,0.439941,-0.735352,-85.083,-24.726866,60.096737
-0.406006,0.427979,-0.706299,-79.231262,-22.91107,58.647152
-0.443848,0.415771,-0.645996,-73.501587,-17.63916,54.977413
-0.447998,0.416016,-0.603271,-69.656372,-8.651733,49.09515
-0.410645,0.416504,-0.586426,-68.687439,0.610352,43.93005
-0.373535,0.417725,-0.58667,-67.459106,5.523681,40.222164
-0.359131,0.413574,-0.594238,-65.010071,5.943298,37.42218
-0.359863,0.423096,-0.613525,-62.301632,3.845215,35.728455
-0.368164,0.452148,-0.634766,-58.54797,1.25885,34.324646
-0.389893,0.492432,-0.66626,-54.901119,-1.586914,33.538818
-0.446777,0.5354,-0.701904,-49.644466,-4.920959,33.348083
-0.491455,0.562988,-0.718506,-43.159481,-7.652282,31.677244
-0.508057,0.575195,-0.71582,-36.468506,-8.239746,27.938841
-0.513184,0.568115,-0.704346,-29.96826,-6.591796,24.818419
-0.506836,0.547607,-0.699219,-24.642942,-4.463196,21.354673
-0.491211,0.52832,-0.701416,-20.332335,-3.715515,15.090941
-0.484131,0.533447,-0.699219,-16.181946,-3.837585,8.857727
-0.503906,0.565918,-0.705566,-12.96997,-3.601074,4.165649
-0.525879,0.600342,-0.723145,-10.345458,-2.502441,-0.808716
-0.519775,0.621094,-0.746094,-7.980346,-1.495361,-6.050109
-0.506836,0.637939,-0.759766,-6.202697,-1.609802,-9.857178
-0.501953,0.654785,-0.764648,-3.791809,-3.173828,-12.046813
-0.502197,0.674316,-0.763916,-0.442505,-4.714966,-13.519286
-0.52002,0.692871,-0.750244,3.349304,-4.28009,-15.068053
-0.557373,0.71167,-0.741455,5.66864,-0.88501,-15.823363
-0.58252,0.748291,-0.764893,5.119323,4.356384,-16.609192
-0.595947,0.799316,-0.802246,4.714966,9.346008,-18.02063
-0.599365,0.853271,-0.830078,5.172729,12.96997,-19.035339
-0.606201,0.91333,-0.852783,6.599426,17.250061,-18.928528
-0.598145,0.960205,-0.866699,8.659363,20.591734,-18.882751
-0.598389,1.003906,-0.86792,12.145995,20.339964,-18.890381
-0.583008,1.040283,-0.867432,16.952515,16.151428,-19.348145
-0.557617,1.046631,-0.881104,20.973204,11.024474,-19.927979
-0.535889,1.031494,-0.917969,22.994993,4.669189,-19.943237
-0.529053,1.021484,-0.986328,23.91815,-2.807617,-21.095274
-0.525635,1.004639,-1.04126,24.208067,-9.483337,-24.650572
-0.526855,0.98999,-1.073975,23.597715,-13.015746,-29.067991
-0.540771,0.985107,-1.085938,22.071836,-10.910033,-31.631468
-0.547119,0.985352,-1.118652,20.080564,-3.959656,-31.539915
-0.551025,0.988525,-1.174805,19.439697,5.645751,-29.548643
-0.592285,1.016602,-1.226563,19.226074,17.532349,-24.871824
-0.669678,1.091309,-1.294434,18.333435,32.836914,-19.371033
-0.719971,1.167725,-1.385254,17.074585,49.812313,-13.938903
-0.731445,1.241699,-1.457764,14.266967,63.034054,-7.949829
-0.742676,1.339111,-1.519043,10.498046,67.222595,-1.441955
-0.73584,1.461426,-1.588623,7.522583,62.355038,6.935119
-0.706055,1.571045,-1.652588,7.331848,50.300594,15.640258
-0.671631,1.630615,-1.675537,8.056641,34.77478,22.354124
-0.653076,1.637939,-1.635986,7.499694,18.188477,26.969908
-0.652588,1.625,-1.57373,7.80487,3.059387,29.342649
-0.649902,1.572754,-1.519043,9.422302,-9.819031,30.326841
-0.615967,1.497803,-1.49585,9.94873,-21.820066,30.128477
-0.568359,1.43042,-1.501465,10.765075,-34.126282,28.945921
-0.536621,1.376709,-1.505127,12.351989,-45.684811,27.519224
-0.512695,1.32959,-1.492188,14.73236,-52.711483,26.573179
-0.503418,1.286621,-1.462158,18.52417,-52.589413,25.81024
-0.525879,1.253662,-1.41626,25.260923,-45.44067,24.978636
-0.537354,1.216553,-1.362061,33.103943,-34.240723,22.766111
-0.50708,1.175049,-1.274658,41.557308,-23.117064,19.042969
-0.454346,1.122314,-1.186035,51.208492,-15.090941,15.167235
-0.400391,1.046387,-1.110596,60.012814,-12.733459,11.772155
-0.36377,0.969482,-1.049561,66.474915,-18.051147,8.453369
-0.343506,0.913818,-1.007568,70.922852,-30.197142,5.226135
-0.346924,0.89209,-0.993408,74.951172,-42.877193,3.486633
-0.4021,0.890137,-1.008545,79.452515,-50.430294,3.456115
-0.471436,0.898438,-1.048828,82.962029,-50.872799,2.113342
-0.551514,0.918213,-1.091309,86.730949,-44.120785,-1.586914
-0.610352,0.933105,-1.131836,90.202324,-31.913755,-6.484985
-0.62793,0.942627,-1.196777,92.636101,-17.425537,-11.253356
-0.639648,0.926514,-1.248535,96.031181,-5.447387,-15.190124
-0.64209,0.905273,-1.283936,99.388115,1.25885,-19.577026
-0.667725,0.896484,-1.30957,103.3554,2.197266,-24.139402
-0.694336,0.89624,-1.307861,109.107964,-1.625061,-28.236387
-0.715088,0.88916,-1.302979,114.562981,-5.691528,-32.440186
-0.727295,0.876709,-1.290283,118.324272,-8.956909,-37.109375
-0.746582,0.865723,-1.274902,123.031609,-12.229918,-43.205257
-0.731934,0.829834,-1.25415,128.242493,-13.816833,-50.186153
-0.709229,0.771484,-1.211426,131.561279,-13.862609,-57.945248
-0.690918,0.696289,-1.130371,131.149292,-15.518188,-65.124512
-0.694336,0.622803,-1.034424,126.403801,-20.668028,-71.861267
-0.692627,0.562012,-0.931152,118.469231,-30.860899,-78.102112
-0.664063,0.498047,-0.832764,107.185356,-45.585629,-85.418694
-0.637451,0.426025,-0.740234,92.796318,-62.713619,-91.270439
-0.627686,0.366943,-0.665039,76.820374,-79.795837,-93.368523
-0.638184,0.32666,-0.60791,60.668941,-93.589775,-92.994682
-0.688721,0.317383,-0.55957,48.46191,-98.663322,-91.728203
-0.761475,0.302734,-0.490234,44.372555,-88.829033,-92.094414
-0.81958,0.220215,-0.435547,41.41235,-61.027523,-94.253532
-0.79248,0.133789,-0.455566,28.015135,-22.979734,-98.82354
-0.652344,0.089844,-0.455566,15.624999,9.384155,-107.147209
-0.495117,0.068848,-0.375732,15.090941,24.261473,-116.600029
-0.403809,0.035645,-0.245361,20.935057,25.535582,-124.809258
-0.338379,0.001465,-0.102051,24.734495,21.598814,-133.529663
-0.26001,-0.028809,0.004639,26.756285,16.044617,-143.623352
-0.187256,-0.060059,0.045654,27.114866,6.576538,-152.862549
-0.131592,-0.061523,0.033936,26.93939,-8.575439,-160.621643
-0.070068,-0.03833,0.044678,29.853819,-29.319761,-168.739304
-0.046631,-0.031494,0.09668,35.743713,-49.781796,-176.391586
-0.088135,-0.000977,0.145996,40.801998,-60.791012,-181.495651
-0.157471,0.015869,0.185059,44.860836,-55.435177,-185.218796
-0.188721,0.036133,0.193359,44.364925,-35.354614,-188.858017
-0.183838,0.091553,0.165771,41.526791,-8.918762,-191.436752
-0.166016,0.152832,0.143555,41.236874,13.633727,-193.321213
-0.128906,0.180664,0.138672,43.411251,27.915953,-195.426926
-0.086914,0.181641,0.137939,44.639584,34.606934,-197.090134
-0.04834,0.185059,0.132568,44.471737,35.560608,-197.990402
-0.008545,0.199951,0.135498,44.967648,31.47888,-198.112473
0.056641,0.210938,0.138428,46.882626,21.697996,-197.074875
0.108887,0.210938,0.121094,49.446102,4.463196,-193.252548
0.116943,0.221924,0.057861,52.658077,-17.494202,-187.477097
0.046387,0.2229,0.0,54.786678,-34.439087,-182.327255
-0.11377,0.208984,0.002441,56.40411,-33.164978,-179.077133
-0.234863,0.188232,-0.005127,54.13818,-12.771605,-177.581772
-0.234863,0.225586,-0.033936,47.782894,18.966675,-175.392136
-0.148926,0.258301,-0.071533,44.410702,51.23901,-170.181259
-0.02417,0.274902,-0.142578,43.457027,68.450928,-164.093002
0.06665,0.307129,-0.207275,47.615047,64.147949,-160.02655
0.114502,0.311523,-0.221191,53.588863,46.844479,-157.714844
0.125732,0.263672,-0.24707,55.381771,29.090879,-157.524109
0.097412,0.200195,-0.305176,53.291317,15.174865,-159.210205
0.065918,0.146729,-0.393066,50.140377,6.568908,-161.613449
0.052246,0.057373,-0.474609,46.19598,5.111694,-162.727341
0.116455,-0.141357,-0.5354,36.872864,8.31604,-161.323532
0.177734,-0.413818,-0.65332,21.263121,9.147644,-151.306152
0.133545,-0.623291,-0.877686,12.092589,3.372192,-127.288811
-0.061523,-0.780518,-1.116943,16.395569,-1.25885,-91.232292
-0.301758,-0.841553,-1.36084,17.50946,7.225036,-58.746334
-0.389893,-0.86084,-1.578125,16.540527,23.361204,-40.161129
-0.324707,-0.963135,-1.681885,19.386292,22.094725,-23.91815
-0.274414,-1.063232,-1.761719,26.664732,2.487183,-0.25177
-0.30127,-1.113037,-1.779053,36.300659,-20.057678,24.024961
-0.291992,-1.103271,-1.681641,39.932251,-26.550291,36.026001
-0.21582,-1.080322,-1.51709,35.301208,-15.518188,41.114803
-0.156494,-1.037598,-1.343994,25.817869,-8.18634,48.59161
-0.12207,-0.964844,-1.180176,16.426086,-19.683838,56.198116
-0.115967,-0.912842,-1.012695,10.253905,-48.71368,60.424801
-0.147217,-0.877686,-0.868652,3.39508,-85.159294,64.52179
-0.196045,-0.826172,-0.786133,-6.774902,-115.570061,70.022583
-0.214355,-0.760254,-0.754639,-17.997742,-133.262634,76.683044
-0.194336,-0.685303,-0.755371,-26.855467,-140.525818,84.19799
-0.171143,-0.613525,-0.733154,-30.830381,-143.226624,90.606682
-0.179932,-0.547852,-0.663818,-29.563902,-145.256042,93.124382
-0.20459,-0.468506,-0.554199,-26.161192,-147.270203,93.536369
-0.192139,-0.387451,-0.436768,-23.53668,-146.194458,92.376701
-0.127197,-0.31665,-0.36377,-21.812437,-140.830994,92.781059
-0.072021,-0.246338,-0.321045,-18.409729,-134.490967,96.031181
-0.052979,-0.190674,-0.29248,-12.664794,-128.15094,97.763054
-0.036865,-0.152832,-0.245117,-6.66809,-121.139519,94.41375
-0.019287,-0.125732,-0.178467,-2.372742,-116.2033,86.730949
-0.010742,-0.091553,-0.118164,-0.854492,-113.761894,78.071594
-0.033447,-0.070557,-0.101074,-0.679016,-111.740105,70.69397
-0.053223,-0.069336,-0.123779,-1.243591,-106.346123,63.423153
-0.051758,-0.085449,-0.134521,-1.060486,-95.199577,56.251522
-0.063965,-0.083008,-0.136963,-1.579285,-77.514648,51.689144
-0.086182,-0.058594,-0.145996,-3.913879,-55.366512,51.223751
-0.114502,-0.038818,-0.14502,-6.973266,-34.004211,54.100033
-0.147461,-0.026611,-0.141602,-9.735107,-18.676758,57.228085
-0.189209,-0.015137,-0.129883,-11.032104,-10.490417,59.379574
-0.237061,-0.006836,-0.127197,-11.253356,-5.485534,63.262936
-0.277832,0.011475,-0.140137,-12.252807,1.586914,71.929932
-0.294922,0.03418,-0.131836,-13.816833,12.069701,86.196892
-0.306885,0.058105,-0.102539,-18.104553,21.743773,107.162468
-0.476318,0.152588,-0.119141,-25.779722,27.412413,136.901855
-0.832764,0.373779,-0.203369,-32.180786,32.653809,170.585617
-1.214355,0.620361,-0.320313,-32.50885,50.323483,197.38768
-1.342285,0.770508,-0.469238,-33.859253,82.18383,216.255173
-1.240967,0.797607,-0.582275,-46.737667,115.264885,234.298691
-1.072998,0.767578,-0.637207,-71.670532,122.711174,249.992355
-0.936035,0.785645,-0.693604,-95.5429,85.33477,249.992355
-0.822998,0.84668,-0.700195,-108.596794,10.231017,249.710068
-0.794434,0.885498,-0.666992,-113.487236,-74.966431,249.984726
-0.896729,0.885742,-0.678223,-117.874138,-144.416809,249.992355
-1.037598,0.893066,-0.757324,-120.582573,-187.652573,249.992355
-1.177002,0.922119,-0.847412,-117.46978,-206.062302,248.649582
-1.372559,0.976074,-0.909668,-109.90905,-198.01329,240.653976
-1.518555,0.99707,-0.922607,-101.264946,-158.332825,228.01207
-1.478027,0.950684,-0.921875,-98.114006,-94.367973,211.021408
-1.30835,0.886963,-0.925293,-100.517265,-27.671812,193.977341
-1.148193,0.813232,-0.913574,-101.104729,23.506163,179.534897
-1.033203,0.717285,-0.887207,-99.433891,56.015011,164.848312
-0.912842,0.610352,-0.838379,-97.145073,71.403503,148.628235
-0.776611,0.517578,-0.759766,-96.05407,72.44873,134.841919
-0.669678,0.483398,-0.693359,-97.511284,63.117977,124.64904
-0.647217,0.49292,-0.653076,-95.16143,46.302792,117.248528
-0.645752,0.519775,-0.616943,-93.01757,27.900694,111.80114
-0.634766,0.568604,-0.603027,-92.658989,11.543273,106.834404
-0.665283,0.624023,-0.624512,-90.064995,-3.379822,104.667656
-0.722412,0.658691,-0.630371,-84.426872,-15.86914,104.24041
-0.79248,0.656494,-0.617188,-77.957153,-24.131773,104.476921
-0.838379,0.651855,-0.611816,-73.112488,-28.976439,106.414787
-0.866211,0.668213,-0.624268,-68.328857,-31.677244,109.817497
-0.875488,0.67041,-0.632813,-62.049862,-33.828735,112.655632
-0.872803,0.653076,-0.624512,-55.809017,-35.270691,113.56353
-0.873291,0.648193,-0.617676,-50.193783,-35.03418,112.571709
-0.88916,0.654785,-0.612305,-43.891903,-32.173157,109.703056
-0.914307,0.663574,-0.594727,-37.811279,-27.19879,104.675285
-0.922363,0.672363,-0.572021,-32.981873,-19.714355,97.763054
-0.911865,0.691895,-0.559814,-29.151915,-11.100768,89.309685
-0.89502,0.72998,-0.539063,-25.459288,-4.707336,80.879204
-0.89917,0.774414,-0.509521,-21.827696,-1.564026,73.471069
-0.913818,0.817139,-0.482422,-18.188477,-0.663757,66.429138
-0.923828,0.856689,-0.465332,-14.976501,-1.12915,59.93652
-0.916016,0.894775,-0.458008,-12.5885,-2.433777,54.397579
-0.915039,0.915039,-0.451416,-10.536193,-5.531311,49.926754
-0.89209,0.922607,-0.439697,-9.048462,-11.062621,45.463558
-0.87915,0.921631,-0.428711,-6.690979,-16.853333,41.91589
-0.891846,0.910645,-0.412109,-4.638672,-22.628782,40.573116
-0.919922,0.902832,-0.415039,-2.983093,-25.642393,39.833069
-0.927246,0.881836,-0.425293,-1.289368,-25.169371,37.879944
-0.900146,0.845947,-0.436035,0.518799,-22.628782,34.858704
-0.848389,0.804443,-0.43457,2.63977,-20.454405,30.830381
-0.78833,0.759033,-0.415283,6.072998,-19.866943,25.184629
-0.739258,0.706055,-0.390381,10.307311,-19.851685,18.661499
-0.701416,0.64209,-0.361572,12.641906,-18.661499,12.33673
-0.67749,0.591309,-0.338623,12.855529,-15.502929,6.752014
-0.668457,0.586182,-0.339844,12.603759,-9.605408,1.945495
-0.653076,0.593262,-0.350342,12.519835,-1.716614,-1.998901
-0.622559,0.582275,-0.357422,10.925292,6.469726,-3.837585
-0.595459,0.580322,-0.358154,7.232666,13.809203,-3.532409
-0.568604,0.592529,-0.358643,5.340576,18.081665,-2.593994
-0.535889,0.598633,-0.359131,6.088256,18.203735,-1.571655
-0.522461,0.593994,-0.351318,8.19397,15.373229,0.427246
-0.534668,0.587646,-0.339844,10.032654,11.245727,2.738952
-0.552246,0.598389,-0.340332,10.276793,8.270264,3.959656
-0.565918,0.630127,-0.359375,9.971619,8.308411,4.005432
-0.57959,0.653809,-0.388184,10.078429,10.81848,2.708435
-0.590332,0.663818,-0.432861,9.727478,14.404296,0.762939
-0.602295,0.664307,-0.474121,8.781433,19.15741,-1.731872
-0.614258,0.659424,-0.498291,8.171082,25.451658,-4.440308
-0.605469,0.660156,-0.519775,7.781982,32.318115,-7.774353
-0.580322,0.667725,-0.541016,8.491516,37.963867,-11.344909
-0.565674,0.667725,-0.551514,10.055541,40.588375,-13.816833
-0.562744,0.664795,-0.553467,11.817931,40.672298,-15.525817
-0.55957,0.67041,-0.562744,13.900756,39.245605,-17.38739
-0.543213,0.671387,-0.566406,16.38031,36.949158,-19.523621
-0.517334,0.654541,-0.567383,19.020081,34.378052,-21.812437
-0.503662,0.624023,-0.572754,22.041319,31.455992,-23.490904
-0.49585,0.581543,-0.577393,24.887083,28.572081,-25.55847
-0.499756,0.543213,-0.580811,27.847288,26.649473,-28.411863
-0.524902,0.520264,-0.574707,30.883787,26.878355,-31.211851
-0.548584,0.515625,-0.561035,32.218933,29.533384,-34.378052
-0.542725,0.52417,-0.543701,31.684874,33.935547,-38.246155
-0.523438,0.537109,-0.539795,30.670164,38.505554,-41.297909
-0.500244,0.538086,-0.533691,30.517576,41.099545,-43.540951
-0.497803,0.539795,-0.523438,30.624388,41.366573,-45.242306
-0.496338,0.546875,-0.528076,31.364439,41.450497,-47.180172
-0.482178,0.542969,-0.54126,33.226013,41.091915,-49.430843
-0.470703,0.536133,-0.55249,35.583496,38.978577,-50.758358
-0.464111,0.538574,-0.567627,37.971497,35.621643,-51.017757
-0.475586,0.5354,-0.582275,40.321346,32.485962,-50.628658
-0.481689,0.520996,-0.586426,42.221066,29.251097,-49.97253
-0.488037,0.502197,-0.580078,44.212337,27.275084,-49.766537
-0.498291,0.490967,-0.586914,45.753475,26.878355,-49.110409
-0.511719,0.486816,-0.605225,46.661373,26.596067,-47.912594
-0.529297,0.48877,-0.62207,47.546383,25.596617,-46.539303
-0.556396,0.496338,-0.632568,48.034664,24.42169,-45.234676
-0.581787,0.512207,-0.632568,47.866817,23.254393,-43.975826
-0.616699,0.533936,-0.65625,46.913143,22.315977,-42.900082
-0.637451,0.557129,-0.703125,45.478817,20.690916,-41.824337
-0.649658,0.578857,-0.748779,44.754025,18.501282,-41.633602
-0.663818,0.584717,-0.776611,43.983456,16.441345,-42.068478
-0.679199,0.58252,-0.806641,42.968746,16.189575,-42.747494
-0.693848,0.59375,-0.830322,41.801449,18.203735,-43.403622
-0.736816,0.624512,-0.860352,40.496822,22.422789,-43.258663
-0.797607,0.68042,-0.90332,38.841248,28.861998,-41.618343
-0.852783,0.747803,-0.965088,36.758423,37.574768,-40.451046
-0.910645,0.82251,-1.038574,35.667419,47.851559,-39.878845
-0.952637,0.908203,-1.122314,35.614014,59.730526,-39.649963
-0.990479,1.0,-1.215332,36.16333,72.158813,-39.550781
-1.018311,1.068604,-1.27832,37.353516,82.733147,-39.44397
-1.018799,1.110352,-1.293213,37.139893,88.775627,-41.122433
-0.998779,1.153809,-1.295654,36.056519,87.821953,-43.67828
-0.975586,1.205566,-1.286865,36.399841,78.712463,-44.006344
-0.961426,1.261963,-1.285645,36.399841,61.676022,-41.244503
-0.944092,1.306396,-1.290527,35.964966,38.192749,-35.903931
-0.935547,1.312256,-1.294678,36.697388,11.268615,-28.068541
-0.974854,1.284424,-1.292969,37.940979,-14.778136,-18.318176
-1.027344,1.26123,-1.285645,35.324097,-37.818909,-10.56671
-1.030029,1.268555,-1.287598,29.632566,-59.722897,-6.614685
-0.999512,1.267578,-1.279297,27.282713,-82.336418,-4.295349
-0.978027,1.21875,-1.221924,26.771544,-104.080193,-1.976013
-0.990723,1.132324,-1.133789,24.818419,-120.819084,-0.526428
-1.006836,1.037109,-1.043457,22.308348,-127.128593,-0.259399
-1.003906,0.946533,-0.977539,18.089294,-122.200005,-1.13678
-0.996094,0.88623,-0.943359,11.947631,-111.831657,-2.082825
-0.971436,0.85791,-0.914795,6.278991,-102.676384,-2.624511
-0.938721,0.836182,-0.87793,4.425049,-96.130363,-1.609802
-0.90625,0.807617,-0.84375,6.820678,-90.393059,1.609802
-0.884766,0.763916,-0.80835,11.619567,-85.052483,5.279541
-0.885986,0.721191,-0.794678,17.242432,-79.51355,10.116576
-0.900391,0.69043,-0.801025,22.384642,-71.06781,14.846801
-0.927002,0.675049,-0.794922,27.297972,-58.998104,17.478943
-0.999512,0.681641,-0.799561,31.623838,-43.655392,17.295837
-1.078125,0.691406,-0.818848,33.7677,-24.963377,14.259337
-1.107666,0.67041,-0.861084,34.088135,-6.04248,9.185791
-1.082031,0.644043,-0.926758,33.988953,5.66101,4.53949
-1.0271,0.617188,-0.989014,35.224915,8.323669,0.167847
-1.003906,0.59375,-1.031738,37.986755,5.989074,-3.479004
-1.026367,0.577148,-1.070801,41.793819,4.371643,-5.569458
-1.098389,0.572266,-1.109131,46.440121,5.981445,-7.8125
-1.174805,0.583984,-1.151367,50.73547,11.734008,-12.161254
-1.213623,0.613037,-1.182617,54.534908,23.811338,-19.371033
-1.261475,0.624756,-1.217773,58.761593,41.213985,-28.114317
-1.296875,0.601807,-1.243164,61.599728,59.593197,-36.895752
-1.282959,0.563721,-1.212646,60.234066,76.10321,-47.760006
-1.207764,0.542725,-1.130127,53.993221,85.243217,-59.967037
-1.102295,0.55542,-1.038574,46.882626,79.193115,-70.747375
-1.015869,0.616455,-1.031006,44.494625,58.578487,-77.75116
-0.952148,0.669434,-1.10498,49.47662,32.722473,-82.5653
-0.975586,0.663086,-1.144775,57.502743,10.681151,-86.578362
-1.076416,0.655273,-1.11499,66.200256,2.456665,-90.744011
-1.184082,0.673828,-1.043945,75.515747,16.647339,-95.245354
-1.169678,0.622559,-0.915039,79.772949,47.546383,-99.678032
-1.035156,0.528809,-0.756836,72.883606,79.467773,-104.011528
-0.826172,0.447754,-0.612061,62.660213,92.567436,-105.682365
-0.592773,0.375732,-0.493652,56.945797,75.286865,-102.966301
-0.41748,0.294434,-0.400391,54.580685,31.517027,-97.236626
-0.352051,0.203125,-0.360352,49.514767,-22.804258,-93.818657
-0.351807,0.108398,-0.333496,41.244503,-72.944641,-97.05352
-0.393066,0.040527,-0.252197,35.774231,-108.589165,-104.476921
-0.483887,-0.016113,-0.183838,33.02002,-119.598381,-112.945549
-0.511963,-0.082764,-0.135254,25.215147,-104.804985,-122.825615
-0.465332,-0.114746,-0.116943,15.769958,-70.297241,-135.650635
-0.404785,-0.119629,-0.119629,8.346558,-29.144285,-150.932312
-0.32666,-0.108154,-0.082275,1.861572,6.469726,-168.815598
-0.22583,-0.110107,0.000488,-3.807068,32.341003,-187.461838
-0.098633,-0.098145,0.092529,-8.872986,48.706051,-202.781662
0.028809,-0.059082,0.123047,-11.917113,56.28204,-211.242661
0.118164,0.009033,0.110107,-9.773254,54.801937,-213.569626
