ax,ay,az,gx,gy,gz
-0.348633,-0.901855,-0.200684,8.018494,-4.78363,6.835937
-0.359619,-0.921387,-0.200928,7.591247,-7.621765,7.827758
-0.371582,-0.947998,-0.202637,6.91986,-9.44519,8.789063
-0.383301,-0.96875,-0.200928,6.050109,-10.726928,9.651184
-0.392578,-0.980469,-0.201416,4.859924,-11.901855,10.658263
-0.404053,-0.985352,-0.19873,3.479004,-13.21411,11.871337
-0.41333,-0.98584,-0.191895,2.090454,-14.396667,13.084411
-0.417725,-0.977539,-0.186523,1.251221,-14.793395,14.343261
-0.411621,-0.96167,-0.177246,0.839233,-13.771056,15.457152
-0.398193,-0.949707,-0.169434,1.098633,-11.665343,16.288757
-0.382568,-0.944336,-0.165039,1.548767,-9.300232,16.876221
-0.367188,-0.9375,-0.157959,1.808166,-7.118225,17.089844
-0.353271,-0.932861,-0.153809,1.861572,-5.630493,17.028809
-0.347412,-0.928711,-0.150146,1.907349,-4.806519,16.25061
-0.34082,-0.925537,-0.154053,1.663208,-4.180908,14.884948
-0.335938,-0.919922,-0.155273,1.319885,-3.448486,13.236999
-0.33667,-0.91626,-0.156982,1.182556,-2.906799,11.306762
-0.336182,-0.918701,-0.154053,1.144409,-2.571106,9.338379
-0.339355,-0.921143,-0.147461,0.991821,-2.403259,7.369995
-0.344238,-0.923096,-0.141846,0.923157,-2.235413,5.401611
-0.353516,-0.924561,-0.135254,0.823975,-2.326965,3.662109
-0.361816,-0.924072,-0.123047,0.717163,-2.784729,2.098083
-0.369873,-0.922119,-0.109863,0.75531,-2.975464,0.930786
-0.375244,-0.920654,-0.101318,0.915527,-2.738952,-0.030518
-0.379395,-0.918945,-0.090332,1.121521,-2.761841,-0.808716
-0.377441,-0.919189,-0.084473,1.274109,-2.975464,-0.930786
-0.378906,-0.918701,-0.083496,1.205444,-3.013611,-0.831604
-0.380371,-0.916504,-0.07959,0.999451,-3.417969,-0.900268
-0.380615,-0.911621,-0.075928,0.785828,-4.486084,-0.808716
-0.383789,-0.905273,-0.075439,0.434875,-5.783081,-0.068665
-0.388916,-0.900391,-0.068115,0.282288,-7.026672,0.724792
-0.395508,-0.895996,-0.064209,0.541687,-7.659912,1.457214
-0.403076,-0.898926,-0.06543,1.083374,-7.225036,1.983642
-0.410156,-0.906006,-0.064941,1.617432,-5.729675,2.494812
-0.416748,-0.918701,-0.067871,2.258301,-3.311157,2.723694
-0.419434,-0.935303,-0.070068,2.799988,-0.617981,2.388
-0.416016,-0.94751,-0.071045,2.838135,1.358032,1.373291
-0.416016,-0.94873,-0.070801,2.098083,1.800537,0.144958
-0.408936,-0.94043,-0.071533,1.083374,0.663757,-0.854492
-0.40625,-0.933838,-0.071045,0.305176,-2.182007,-1.495361
-0.407715,-0.931641,-0.071045,-0.640869,-6.050109,-1.739502
-0.406982,-0.927979,-0.069092,-1.922607,-9.925842,-1.586914
-0.407959,-0.918457,-0.070313,-3.227234,-13.816833,-1.373291
-0.40918,-0.911377,-0.064941,-4.272461,-17.250061,-0.984192
-0.411377,-0.903809,-0.060303,-5.126953,-19.767761,-0.305176
-0.412842,-0.898438,-0.051025,-5.79071,-21.049498,0.526428
-0.410156,-0.894531,-0.045654,-5.950927,-21.621702,0.823975
-0.408447,-0.892822,-0.043945,-5.744934,-21.751402,0.694275
-0.410156,-0.892578,-0.038574,-5.500793,-21.804808,0.297546
-0.413818,-0.895264,-0.040771,-5.439758,-22.209166,-0.366211
-0.419922,-0.896973,-0.036865,-5.210876,-22.979734,-1.235962
-0.426025,-0.903564,-0.035889,-4.829407,-23.872374,-2.166748
-0.433838,-0.904541,-0.041748,-4.356384,-25.009153,-3.036499
-0.440674,-0.909424,-0.040283,-3.77655,-26.298521,-3.997802
-0.443604,-0.915039,-0.04126,-3.082275,-27.488707,-4.730225
-0.45166,-0.919434,-0.043701,-2.120972,-27.984617,-5.226135
-0.459717,-0.923096,-0.046143,-0.846863,-27.305601,-5.607605
-0.46582,-0.927734,-0.049561,0.778198,-25.115965,-6.195068
-0.469971,-0.929443,-0.051025,2.510071,-21.728514,-6.54602
-0.468262,-0.928467,-0.054199,4.211426,-17.738342,-6.752014
-0.465088,-0.926514,-0.055908,6.011962,-13.801574,-6.660461
-0.462646,-0.926025,-0.061279,7.446289,-10.406493,-6.492614
-0.460449,-0.927002,-0.067627,8.453369,-7.492065,-6.179809
-0.457275,-0.923096,-0.078369,9.117126,-4.79126,-5.271911
-0.452393,-0.919434,-0.090576,9.429932,-2.174377,-4.043579
-0.446533,-0.914795,-0.103271,9.628296,0.50354,-2.960205
-0.436768,-0.912598,-0.114746,9.742737,2.830505,-1.899719
-0.428467,-0.914551,-0.126221,9.57489,4.501343,-0.946045
-0.421387,-0.919678,-0.138916,9.025574,5.470275,-0.312805
-0.412109,-0.92334,-0.150635,8.323669,5.699157,0.045776
-0.399902,-0.926514,-0.163818,7.43103,5.073547,-0.198364
-0.389648,-0.93042,-0.171387,6.332397,3.196716,-1.075745
-0.383789,-0.933838,-0.172607,5.012512,0.389099,-2.26593
-0.38623,-0.936035,-0.172852,3.52478,-2.89917,-3.509521
-0.395752,-0.936035,-0.171631,2.311707,-6.401062,-4.516602
-0.408936,-0.9375,-0.167725,1.281738,-9.262085,-5.203247
-0.427246,-0.936523,-0.16333,0.434875,-10.902404,-5.569458
-0.440186,-0.940674,-0.155762,0.045776,-10.963439,-5.737304
-0.442383,-0.940186,-0.14917,-0.183105,-9.429932,-5.737304
-0.445068,-0.936279,-0.143555,-0.320435,-7.072448,-5.577087
-0.442627,-0.929443,-0.139893,-0.50354,-4.219055,-5.378723
-0.439697,-0.923828,-0.135498,-0.38147,-1.274109,-5.249023
-0.437256,-0.919678,-0.130127,-0.198364,1.434326,-4.959106
-0.434326,-0.911133,-0.127686,-0.160217,3.974914,-4.844666
-0.434082,-0.90625,-0.126709,0.038147,6.202697,-4.631042
-0.431641,-0.905029,-0.123779,0.144958,8.31604,-4.364014
-0.430664,-0.904297,-0.122803,0.457764,10.32257,-4.264832
-0.426758,-0.904541,-0.121582,0.50354,11.95526,-4.394531
-0.424805,-0.903564,-0.118164,0.50354,13.191222,-4.425049
-0.423096,-0.904297,-0.114258,0.564575,14.137267,-4.417419
-0.42041,-0.905762,-0.11084,0.846863,15.1062,-4.394531
-0.418701,-0.908203,-0.108398,1.174927,16.067505,-4.379272
-0.414795,-0.910645,-0.106201,1.373291,16.76178,-4.295349
-0.411865,-0.911377,-0.105469,1.411438,17.227173,-4.272461
-0.410156,-0.911133,-0.103516,1.647949,17.303467,-4.15802
-0.410645,-0.9104,-0.100342,1.770019,17.250061,-3.982544
-0.407715,-0.912109,-0.098633,1.815796,17.036438,-3.936767
-0.40625,-0.912354,-0.094238,1.571655,16.815186,-3.837585
-0.402588,-0.910645,-0.093506,1.701355,16.51001,-3.509521
-0.399902,-0.911865,-0.089355,1.792908,16.487122,-3.295898
-0.397461,-0.907715,-0.089844,1.647949,16.601563,-3.036499
-0.395508,-0.908447,-0.088867,1.609802,16.868591,-2.677917
-0.393066,-0.907471,-0.085938,1.792908,17.250061,-2.342224
-0.392822,-0.907471,-0.087646,2.01416,17.913818,-1.945495
-0.389893,-0.9104,-0.087646,2.14386,18.90564,-1.792908
-0.387939,-0.91626,-0.090332,2.403259,20.225523,-1.571655
-0.381348,-0.920898,-0.093018,2.555847,21.423338,-1.434326
-0.377197,-0.922607,-0.096436,2.281189,22.293089,-1.548767
-0.375244,-0.929199,-0.099609,2.006531,22.506712,-1.678467
-0.374756,-0.937744,-0.105713,1.571655,22.422789,-1.708984
-0.377686,-0.942383,-0.106934,0.701904,21.743773,-1.670837
-0.378906,-0.939697,-0.106445,-0.579834,20.858763,-1.281738
-0.378662,-0.94043,-0.107666,-1.670837,19.943237,-0.602722
-0.370117,-0.941406,-0.102051,-2.716064,18.310547,0.038147
-0.35791,-0.94043,-0.098877,-3.639221,16.021729,0.579834
-0.349121,-0.938477,-0.099121,-4.501343,12.420653,1.205444
-0.3479,-0.936035,-0.097168,-5.317688,7.652282,2.059937
-0.354492,-0.93335,-0.09668,-6.019592,2.876281,3.364563
-0.370117,-0.92749,-0.096191,-6.66809,-1.342773,4.882813
-0.388428,-0.922363,-0.093506,-6.965637,-4.386902,6.660461
-0.398438,-0.917725,-0.092773,-6.820678,-6.095886,8.598328
-0.403564,-0.912598,-0.087402,-6.729125,-6.477355,10.269164
-0.412109,-0.905273,-0.081055,-6.507873,-5.798339,11.466979
-0.416992,-0.900635,-0.077637,-5.882263,-3.40271,12.351989
-0.410889,-0.895996,-0.077881,-4.768372,0.900268,13.114928
-0.398926,-0.895996,-0.08374,-3.40271,6.156921,13.198852
-0.376953,-0.89624,-0.091309,-2.456665,10.56671,12.138366
-0.364502,-0.897949,-0.093994,-1.914978,12.741088,10.787963
-0.365234,-0.894287,-0.093994,-1.625061,13.09204,9.857178
-0.365967,-0.892334,-0.098389,-1.38855,12.33673,8.827209
-0.361572,-0.892822,-0.101563,-1.12915,11.100768,7.499694
-0.356689,-0.893555,-0.10498,-1.091003,9.346008,6.065368
-0.353027,-0.89209,-0.108887,-1.228333,7.30133,4.478455
-0.349365,-0.895996,-0.111572,-1.13678,5.455017,3.051758
-0.34668,-0.898438,-0.113525,-0.869751,3.77655,1.63269
-0.34668,-0.901123,-0.118164,-0.785828,1.831055,0.259399
-0.349854,-0.899658,-0.115479,-0.75531,-0.473022,-0.709534
-0.354004,-0.898682,-0.118652,-0.808716,-2.777099,-1.342773
-0.367432,-0.895264,-0.119385,-0.488281,-4.707336,-1.724243
-0.378662,-0.894287,-0.119873,-0.144958,-5.889892,-1.823425
-0.391602,-0.901123,-0.121094,0.274658,-6.111145,-1.464844
-0.398438,-0.905273,-0.119385,0.694275,-5.264282,-1.159668
-0.404785,-0.909912,-0.121826,1.235962,-3.669739,-0.823975
-0.406006,-0.912354,-0.125,1.518249,-1.647949,-0.511169
-0.404297,-0.915771,-0.125,1.724243,0.457764,0.099182
-0.404541,-0.920898,-0.127686,2.113342,2.27356,0.816345
-0.404297,-0.923828,-0.130615,2.380371,3.715515,1.426697
-0.397217,-0.925293,-0.13501,2.532959,4.615784,1.831055
-0.392578,-0.927246,-0.135254,2.456665,5.096435,2.189636
-0.384766,-0.927734,-0.133545,2.433777,5.065917,2.410889
-0.382324,-0.925049,-0.131592,2.593994,4.821777,2.39563
-0.380371,-0.928955,-0.132324,2.708435,4.692078,2.159119
-0.375977,-0.929443,-0.133545,3.036499,4.623413,1.922607
-0.374756,-0.929199,-0.132813,3.082275,4.585266,1.541138
-0.371582,-0.927002,-0.129395,3.14331,4.302979,1.075745
-0.36792,-0.922852,-0.125488,3.158569,3.814697,0.663757
-0.369629,-0.915283,-0.123291,3.158569,3.463745,0.434875
-0.368408,-0.90918,-0.122314,3.082275,3.555298,0.259399
-0.365234,-0.906006,-0.12207,3.181457,3.89862,0.274658
-0.365479,-0.909424,-0.122314,3.463745,4.562378,0.083923
-0.363281,-0.9104,-0.123047,3.738403,5.187988,0.0
-0.364258,-0.912109,-0.119873,3.860473,5.424499,-0.175476
-0.365479,-0.916992,-0.121826,3.761291,5.531311,-0.610352
-0.367188,-0.92041,-0.123535,3.753662,5.424499,-0.961304
-0.367432,-0.920654,-0.121582,3.738403,5.424499,-1.327515
-0.373779,-0.924561,-0.12207,3.700256,5.371093,-1.747131
-0.372314,-0.92627,-0.12207,3.723144,5.249023,-1.998901
-0.372803,-0.928955,-0.12207,3.440857,4.78363,-2.204895
-0.37207,-0.92749,-0.120117,3.14331,3.77655,-2.365112
-0.375,-0.926025,-0.122559,3.005981,2.441406,-2.357483
-0.375977,-0.92627,-0.123047,2.494812,1.457214,-2.349854
-0.381348,-0.926758,-0.126221,2.174377,0.869751,-2.26593
-0.384277,-0.926025,-0.127441,1.968384,0.610352,-2.067566
-0.387939,-0.923584,-0.125,1.792908,0.740051,-1.571655
-0.387451,-0.920898,-0.129883,1.739502,1.197815,-1.319885
-0.383545,-0.916504,-0.126221,1.976013,1.869202,-1.144409
-0.38208,-0.914795,-0.122559,2.250671,2.532959,-0.900268
-0.372559,-0.910156,-0.120117,2.563476,2.89917,-0.839233
-0.370605,-0.906494,-0.119873,3.211975,2.792358,-0.587463
-0.369141,-0.900635,-0.115967,3.784179,2.182007,-0.686645
-0.369629,-0.894043,-0.117676,3.944397,1.098633,-0.953674
-0.378174,-0.891846,-0.121582,4.264832,-0.190735,-0.991821
-0.390381,-0.891846,-0.123291,4.493713,-0.137329,-1.037598
-0.394775,-0.894043,-0.124268,4.78363,1.373291,-1.091003
-0.39624,-0.896484,-0.12207,5.15747,3.410339,-1.312256
-0.396973,-0.901123,-0.123047,5.561828,5.15747,-1.731872
-0.401123,-0.900879,-0.121582,5.645751,5.882263,-1.983642
-0.404785,-0.902588,-0.119873,5.424499,5.599975,-1.960754
-0.409912,-0.909912,-0.120117,5.256652,4.898071,-1.823425
-0.413818,-0.910645,-0.118408,5.065917,4.379272,-1.64032
-0.419434,-0.916992,-0.116455,5.187988,4.03595,-1.373291
-0.420898,-0.921875,-0.109375,5.096435,3.784179,-1.022339
-0.424316,-0.920654,-0.107178,4.981995,3.326416,-0.717163
-0.424316,-0.920898,-0.112061,5.043029,3.005981,-0.38147
-0.424561,-0.920898,-0.115234,5.020141,3.105163,-0.030518
-0.425049,-0.91748,-0.120605,5.004883,3.692627,0.305176
-0.421875,-0.916016,-0.119629,4.882813,4.875183,0.617981
-0.416016,-0.914307,-0.118408,4.905701,6.217956,0.938415
-0.408936,-0.917725,-0.114014,4.981995,7.400512,1.098633
-0.40332,-0.924316,-0.116455,4.890442,8.293152,1.296997
-0.400879,-0.922119,-0.119873,4.692078,8.537292,1.335144
-0.39502,-0.924561,-0.118652,4.432678,8.407593,1.564026
-0.388428,-0.923584,-0.119141,4.142761,8.613586,1.731872
-0.385742,-0.927979,-0.120117,4.089355,9.124756,1.930237
-0.381836,-0.930908,-0.119141,4.081726,9.750366,2.128601
-0.376465,-0.934814,-0.119385,4.043579,10.078429,2.26593
-0.374023,-0.939941,-0.118896,3.875732,10.231017,2.357483
-0.369873,-0.942627,-0.116211,3.52478,10.337829,2.365112
-0.367432,-0.942383,-0.119629,3.166198,10.360717,2.082825
-0.365723,-0.942383,-0.122559,2.960205,10.299682,1.831055
-0.361328,-0.941895,-0.124023,2.792358,10.337829,1.716614
-0.360352,-0.942627,-0.124023,2.525329,10.398864,1.548767
-0.360107,-0.94043,-0.12793,2.037048,10.429381,1.434326
-0.358398,-0.935059,-0.128174,1.441955,10.345458,1.411438
-0.356201,-0.932373,-0.126465,0.862122,9.94873,1.571655
-0.353271,-0.935547,-0.12207,0.366211,8.972168,1.731872
-0.354248,-0.936523,-0.120117,-0.434875,7.217407,2.059937
-0.352295,-0.9375,-0.118652,-1.220703,5.149841,2.326965
-0.355469,-0.934326,-0.11792,-1.861572,3.051758,2.540588
-0.361572,-0.931885,-0.116699,-2.166748,1.579285,2.63977
-0.367432,-0.926514,-0.119141,-2.105713,0.801086,2.731323
-0.372803,-0.923584,-0.118896,-1.953125,0.442505,2.685547
-0.376465,-0.921631,-0.117432,-1.655578,0.289917,2.571106
-0.380371,-0.919922,-0.117188,-1.327515,0.404358,2.403259
-0.384766,-0.916016,-0.116943,-1.029968,1.144409,1.693725
-0.38916,-0.90625,-0.118896,-0.816345,2.128601,1.014709
-0.39209,-0.904297,-0.119385,-0.465393,2.983093,0.610352
-0.392822,-0.904053,-0.12085,-0.198364,3.677368,0.205994
-0.395996,-0.902344,-0.12085,-0.152588,4.203796,-0.419617
-0.395508,-0.900391,-0.122559,0.015259,4.295349,-0.801086
-0.396729,-0.899414,-0.12207,-0.015259,4.165649,-0.923157
-0.398926,-0.900879,-0.121094,0.015259,4.112244,-1.00708
-0.40332,-0.903809,-0.123779,0.312805,4.074097,-1.075745
-0.404785,-0.905518,-0.123535,0.679016,4.417419,-1.12915
-0.405029,-0.906982,-0.123779,1.060486,5.119323,-1.052856
-0.40332,-0.90918,-0.122803,1.350403,5.706787,-0.961304
-0.400391,-0.907959,-0.122314,1.586914,6.17218,-0.808716
-0.399658,-0.908447,-0.124268,1.846313,6.523132,-0.785828
-0.398438,-0.9104,-0.123047,2.037048,6.698608,-0.63324
-0.397217,-0.91333,-0.120605,2.319336,6.988525,-0.526428
-0.393799,-0.908936,-0.12207,2.349854,7.385253,-0.511169
-0.392822,-0.9104,-0.120361,2.5177,7.858276,-0.465393
-0.393799,-0.912598,-0.12085,2.876281,8.06427,-0.679016
-0.391357,-0.914063,-0.120361,2.761841,8.422852,-0.63324
-0.389648,-0.912109,-0.121826,2.983093,8.94165,-0.358582
-0.386719,-0.912109,-0.12207,3.044128,9.498596,-0.465393
-0.382568,-0.913574,-0.124512,3.036499,9.757996,-0.526428
-0.382813,-0.915771,-0.120361,3.112793,10.032654,-0.511169
-0.383301,-0.91626,-0.117188,3.036499,10.19287,-0.38147
-0.381348,-0.919922,-0.117676,2.876281,10.475158,-0.152588
-0.379883,-0.916992,-0.119873,2.807617,10.81848,0.1297
-0.377197,-0.917236,-0.121582,2.914428,10.734557,0.312805
-0.378418,-0.918457,-0.120117,2.662658,10.513305,0.427246
-0.376953,-0.92041,-0.117676,2.235413,10.2005,0.648498
-0.374023,-0.918213,-0.119629,2.037048,9.391785,0.869751
-0.373291,-0.919434,-0.121338,1.724243,8.346558,1.029968
-0.371338,-0.923828,-0.119141,1.190186,7.316589,1.350403
-0.372559,-0.925049,-0.11792,0.62561,6.271362,1.441955
-0.372314,-0.925537,-0.116699,0.411987,5.424499,1.480102
-0.373047,-0.927002,-0.115723,0.183105,4.806519,1.663208
-0.372559,-0.928467,-0.114258,-0.038147,3.829956,1.792908
-0.374023,-0.927979,-0.112061,-0.259399,2.838135,1.937866
-0.377197,-0.928223,-0.110107,-0.267029,2.01416,1.976013
-0.381592,-0.926025,-0.113281,-0.267029,1.358032,1.770019
-0.382568,-0.925293,-0.118896,-0.25177,1.113892,1.785278
-0.38208,-0.921387,-0.11792,-0.183105,1.045227,1.739502
-0.381836,-0.918213,-0.119385,-0.030518,1.113892,1.449585
-0.383545,-0.917236,-0.118652,0.007629,1.052856,1.205444
-0.38208,-0.919922,-0.118164,0.022888,1.38855,1.13678
-0.382568,-0.921875,-0.119385,0.25177,1.998901,0.953674
-0.379395,-0.921143,-0.119141,0.221252,2.410889,0.854492
-0.378418,-0.920898,-0.122559,0.0,2.670288,1.022339
-0.375732,-0.921387,-0.122803,-0.061035,2.822876,1.106262
-0.375732,-0.92334,-0.124268,0.022888,2.738952,1.312256
-0.375977,-0.924561,-0.122803,-0.175476,2.372742,1.396179
-0.376221,-0.921631,-0.122314,-0.511169,1.976013,1.731872
-0.373535,-0.917969,-0.122559,-0.640869,1.914978,1.678467
-0.378662,-0.914307,-0.125244,-0.656128,1.945495,1.350403
-0.37915,-0.914307,-0.128662,-0.854492,1.998901,1.13678
-0.376709,-0.915527,-0.129639,-1.060486,1.853943,1.098633
-0.378906,-0.9104,-0.12793,-1.457214,1.281738,0.953674
-0.379395,-0.911621,-0.123779,-1.899719,0.63324,0.862122
-0.379883,-0.911621,-0.123535,-2.090454,-0.015259,0.854492
-0.383301,-0.912598,-0.115723,-2.380371,-0.907898,0.869751
-0.385498,-0.915283,-0.111816,-2.494812,-1.602173,1.052856
-0.38501,-0.916504,-0.110596,-2.624511,-1.983642,1.296997
-0.388428,-0.918213,-0.109375,-2.746582,-2.281189,1.464844
-0.390381,-0.916504,-0.109863,-2.777099,-2.456665,1.754761
-0.38916,-0.916992,-0.109375,-2.586365,-2.357483,2.075195
-0.391602,-0.91748,-0.110107,-2.380371,-2.449036,2.243042
-0.392334,-0.914307,-0.110596,-2.288818,-2.532959,2.304077
-0.390381,-0.917236,-0.108154,-2.159119,-2.5177,2.372742
-0.391113,-0.919434,-0.108887,-1.831055,-2.540588,2.464294
-0.390137,-0.92041,-0.108154,-1.502991,-2.571106,2.296448
-0.386475,-0.917236,-0.107178,-1.312256,-2.632141,1.945495
-0.384521,-0.910645,-0.108154,-1.205444,-2.677917,1.747131
-0.384277,-0.910645,-0.109619,-0.87738,-2.540588,1.625061
-0.384033,-0.911377,-0.110107,-0.534058,-2.563476,1.312256
-0.383789,-0.912842,-0.110596,-0.267029,-2.372742,0.854492
-0.385498,-0.913574,-0.114014,0.0,-2.334595,0.282288
-0.385498,-0.915283,-0.114014,0.099182,-2.723694,-0.114441
-0.387207,-0.917236,-0.117188,0.015259,-3.288269,-0.534058
-0.389648,-0.918457,-0.117188,-0.038147,-3.814697,-0.946045
-0.392822,-0.918457,-0.120361,0.022888,-4.203796,-1.266479
-0.393555,-0.916748,-0.123047,0.022888,-4.264832,-1.312256
-0.394531,-0.916504,-0.122803,0.076294,-4.165649,-1.289368
-0.396973,-0.912598,-0.124512,0.244141,-3.890991,-1.213074
-0.397705,-0.914551,-0.128662,0.404358,-3.501892,-0.976562
-0.398193,-0.912842,-0.128662,0.343323,-3.044128,-0.839233
-0.394775,-0.915771,-0.131104,0.480652,-2.578735,-0.75531
-0.39502,-0.918213,-0.131104,0.358582,-2.319336,-0.808716
-0.39624,-0.918457,-0.129395,0.190735,-2.14386,-0.907898
-0.39209,-0.91626,-0.131592,-0.045776,-2.258301,-0.999451
-0.393311,-0.914551,-0.13208,-0.152588,-2.700805,-1.182556
-0.39502,-0.915527,-0.133057,-0.259399,-3.013611,-1.197815
-0.397217,-0.916992,-0.130371,-0.320435,-3.166198,-1.098633
-0.395264,-0.91626,-0.131592,-0.442505,-3.242492,-1.281738
-0.397705,-0.918701,-0.129883,-0.549316,-3.204345,-1.411438
-0.398682,-0.916504,-0.130371,-0.541687,-3.295898,-1.457214
-0.399414,-0.918213,-0.130371,-0.480652,-3.334045,-1.480102
-0.401123,-0.918701,-0.128418,-0.457764,-3.356933,-1.541138
-0.401367,-0.916504,-0.128418,-0.526428,-3.280639,-1.686096
-0.401123,-0.914307,-0.127197,-0.442505,-3.028869,-1.838684
-0.404053,-0.912598,-0.128906,-0.198364,-2.693176,-1.770019
-0.406494,-0.912598,-0.129883,-0.137329,-2.403259,-1.88446
-0.406738,-0.912354,-0.131348,0.068665,-2.01416,-2.029419
-0.405518,-0.912842,-0.134766,0.1297,-1.64032,-1.960754
-0.405518,-0.911621,-0.134521,0.022888,-1.556396,-1.976013
-0.407715,-0.908691,-0.135254,-0.068665,-1.647949,-1.983642
-0.406494,-0.908691,-0.133545,-0.198364,-1.716614,-1.770019
-0.405029,-0.907959,-0.132324,-0.1297,-1.495361,-1.579285
-0.404541,-0.90918,-0.132813,-0.183105,-1.13678,-1.365662
-0.402588,-0.908203,-0.133789,-0.190735,-0.663757,-1.197815
-0.401611,-0.906738,-0.130859,-0.213623,-0.411987,-1.144409
-0.398682,-0.905762,-0.128906,-0.1297,-0.106812,-1.12915
-0.397949,-0.909668,-0.129639,0.007629,0.053406,-1.25885
-0.395508,-0.907959,-0.131836,-0.083923,-0.022888,-1.281738
-0.395996,-0.909424,-0.131348,-0.144958,-0.343323,-1.365662
-0.39624,-0.910889,-0.126953,-0.282288,-0.808716,-1.25885
-0.396729,-0.912109,-0.124756,-0.427246,-0.869751,-1.13678
-0.397217,-0.913086,-0.125244,-0.495911,-0.587463,-1.052856
-0.395264,-0.915771,-0.121094,-0.38147,-0.183105,-0.869751
-0.38916,-0.91748,-0.121826,-0.50354,0.068665,-0.572205
-0.388428,-0.917969,-0.123291,-0.587463,0.236511,-0.358582
-0.386963,-0.919922,-0.122314,-0.572205,0.320435,-0.12207
-0.381836,-0.920166,-0.121338,-0.579834,0.144958,-0.053406
-0.37915,-0.920898,-0.120361,-0.724792,-0.648498,0.053406
-0.379883,-0.921631,-0.119873,-0.793457,-1.411438,0.053406
-0.375977,-0.921143,-0.124023,-0.930786,-1.89209,-0.274658
-0.377686,-0.919189,-0.123291,-0.946045,-2.044678,-0.602722
-0.378906,-0.916748,-0.125244,-0.968933,-1.861572,-0.862122
-0.375488,-0.916016,-0.127441,-0.976562,-1.922607,-1.213074
-0.374023,-0.918213,-0.129639,-1.12915,-2.388,-1.289368
-0.373291,-0.917236,-0.128662,-1.235962,-2.975464,-1.197815
-0.37915,-0.917969,-0.127441,-1.434326,-3.501892,-1.190186
-0.380615,-0.918213,-0.128174,-1.708984,-3.982544,-1.213074
-0.383789,-0.92041,-0.128906,-1.937866,-4.302979,-1.167297
-0.384033,-0.920654,-0.126465,-1.953125,-4.402161,-1.182556
-0.386963,-0.921143,-0.128418,-2.006531,-4.66156,-1.266479
-0.388672,-0.921631,-0.130859,-2.128601,-4.981995,-1.350403
-0.390625,-0.921875,-0.132568,-2.26593,-5.111694,-1.472473
-0.392822,-0.918457,-0.131836,-2.342224,-5.142211,-1.472473
-0.392822,-0.914795,-0.131104,-2.464294,-5.149841,-1.419067
-0.391357,-0.911133,-0.128662,-2.502441,-5.279541,-1.365662
-0.394531,-0.910156,-0.128418,-2.502441,-5.378723,-1.449585
-0.397705,-0.908447,-0.126709,-2.403259,-5.393981,-1.457214
-0.397217,-0.904785,-0.131348,-2.365112,-5.073547,-1.487732
-0.397461,-0.902588,-0.12915,-2.311707,-4.821777,-1.426697
-0.398682,-0.900879,-0.129639,-1.991272,-4.516602,-1.319885
-0.397949,-0.902832,-0.130371,-2.044678,-4.142761,-1.296997
-0.400635,-0.907715,-0.129883,-1.991272,-3.860473,-1.289368
-0.401611,-0.908447,-0.126953,-1.800537,-3.669739,-1.319885
-0.4021,-0.907471,-0.12793,-1.701355,-3.662109,-1.426697
-0.403564,-0.912354,-0.12793,-1.747131,-3.585815,-1.449585
-0.4021,-0.916016,-0.131104,-1.579285,-3.341675,-1.556396
-0.403564,-0.912598,-0.131836,-1.472473,-3.051758,-1.426697
-0.400635,-0.911133,-0.130859,-1.365662,-2.754211,-1.235962
-0.399414,-0.910889,-0.12915,-1.304626,-2.632141,-1.083374
-0.394775,-0.910645,-0.130127,-1.113892,-2.63977,-0.808716
-0.394287,-0.911133,-0.12915,-0.915527,-2.502441,-0.610352
-0.393311,-0.911377,-0.129395,-0.762939,-2.326965,-0.511169
-0.390381,-0.913818,-0.130615,-0.541687,-2.082825,-0.411987
-0.387451,-0.913574,-0.133545,-0.488281,-1.823425,-0.480652
-0.38623,-0.909668,-0.133545,-0.396728,-1.808166,-0.602722
-0.385986,-0.908447,-0.133057,-0.404358,-1.846313,-0.709534
-0.386475,-0.913086,-0.134033,-0.312805,-2.128601,-0.823975
-0.387939,-0.912842,-0.133301,-0.389099,-2.487183,-0.915527
-0.388428,-0.910645,-0.134033,-0.442505,-2.5177,-1.060486
-0.388916,-0.910156,-0.132568,-0.282288,-2.540588,-1.13678
-0.391113,-0.912109,-0.133057,-0.289917,-2.609253,-1.266479
-0.393311,-0.914551,-0.134277,-0.198364,-2.555847,-1.296997
-0.393555,-0.916992,-0.133301,-0.236511,-2.563476,-1.319885
-0.395264,-0.914795,-0.132813,-0.274658,-2.471924,-1.312256
-0.396484,-0.912598,-0.130859,-0.335693,-2.403259,-1.25885
-0.399414,-0.9104,-0.133057,-0.297546,-2.365112,-1.213074
-0.399658,-0.913574,-0.130127,-0.221252,-2.326965,-1.068115
-0.39917,-0.915527,-0.130615,-0.228882,-2.120972,-0.953674
-0.397705,-0.913574,-0.133301,-0.213623,-1.815796,-0.862122
-0.399414,-0.910889,-0.130615,-0.038147,-1.38855,-0.892639
-0.397949,-0.907227,-0.133301,-0.030518,-1.113892,-0.900268
-0.39502,-0.908203,-0.13208,-0.045776,-1.060486,-0.816345
-0.39624,-0.90625,-0.129639,0.007629,-1.083374,-0.724792
-0.395752,-0.908691,-0.130127,0.106812,-0.999451,-0.63324
-0.392334,-0.90918,-0.130615,0.038147,-0.740051,-0.694275
-0.392334,-0.908936,-0.127686,0.1297,-0.495911,-0.770569
-0.391357,-0.910889,-0.126709,0.37384,-0.411987,-0.785828
-0.390869,-0.913086,-0.126953,0.450134,-0.366211,-0.938415
-0.393066,-0.915283,-0.127441,0.564575,-0.305176,-0.961304
-0.39209,-0.917725,-0.126953,0.617981,-0.022888,-0.854492
-0.392578,-0.917236,-0.130615,0.62561,-0.038147,-0.961304
-0.394531,-0.92041,-0.127441,0.427246,-0.335693,-0.854492
-0.390869,-0.919434,-0.126953,0.167847,-0.564575,-0.617981
-0.389404,-0.921143,-0.12793,0.083923,-0.793457,-0.389099
-0.388428,-0.923096,-0.126465,-0.007629,-0.976562,-0.221252
-0.385498,-0.922852,-0.126953,-0.007629,-0.961304,-0.099182
-0.383057,-0.918701,-0.12915,-0.076294,-0.869751,0.137329
-0.383057,-0.915771,-0.130127,-0.091553,-0.75531,0.38147
-0.379395,-0.918213,-0.129639,-0.045776,-0.747681,0.450134
-0.375,-0.918213,-0.128906,-0.305176,-1.213074,0.427246
-0.374756,-0.916016,-0.12915,-0.457764,-1.663208,0.289917
-0.376465,-0.913818,-0.127441,-0.556946,-1.991272,-0.1297
-0.379639,-0.913086,-0.128174,-0.480652,-2.250671,-0.595093
-0.381836,-0.916016,-0.130127,-0.457764,-2.27356,-1.00708
-0.385254,-0.91333,-0.128418,-0.457764,-2.449036,-1.228333
-0.388184,-0.916748,-0.130615,-0.488281,-2.487183,-1.495361
-0.391846,-0.916504,-0.128418,-0.564575,-2.632141,-1.541138
-0.395264,-0.917969,-0.127197,-0.595093,-2.632141,-1.487732
-0.39624,-0.916992,-0.128418,-0.602722,-2.494812,-1.289368
-0.398926,-0.917236,-0.128174,-0.579834,-2.182007,-1.113892
-0.400635,-0.918213,-0.129883,-0.648498,-1.937866,-0.984192
-0.399658,-0.916504,-0.129395,-0.694275,-1.838684,-0.839233
-0.39917,-0.913574,-0.12793,-0.724792,-1.792908,-0.610352
-0.397949,-0.913574,-0.127197,-0.732422,-1.861572,-0.457764
-0.398926,-0.910645,-0.129639,-0.663757,-1.708984,-0.404358
-0.397217,-0.908936,-0.133789,-0.671387,-1.541138,-0.343323
-0.393799,-0.906006,-0.131592,-0.762939,-1.266479,-0.213623
-0.395752,-0.906006,-0.129639,-0.564575,-1.014709,-0.160217
-0.395508,-0.908203,-0.127441,-0.427246,-0.831604,-0.25177
-0.391846,-0.908691,-0.128906,-0.358582,-0.617981,-0.366211
-0.391113,-0.908936,-0.130859,-0.411987,-0.480652,-0.358582
-0.391357,-0.909912,-0.131592,-0.404358,-0.747681,-0.297546
-0.391357,-0.911865,-0.129395,-0.259399,-0.907898,-0.259399
-0.393066,-0.916992,-0.130615,-0.404358,-1.014709,-0.282288
-0.393066,-0.916992,-0.131104,-0.480652,-1.098633,-0.25177
-0.394775,-0.920898,-0.128418,-0.465393,-1.281738,-0.091553
-0.395264,-0.923584,-0.126221,-0.610352,-1.464844,-0.061035
-0.395508,-0.924072,-0.12915,-0.701904,-1.441955,0.083923
-0.395508,-0.920166,-0.131348,-0.732422,-1.281738,0.137329
-0.393311,-0.920166,-0.130859,-0.816345,-1.281738,0.198364
-0.390869,-0.918457,-0.129639,-0.793457,-1.396179,0.198364
-0.387695,-0.914551,-0.128174,-0.839233,-1.548767,0.320435
-0.387451,-0.910156,-0.127686,-0.717163,-1.495361,0.358582
-0.38623,-0.910889,-0.126465,-0.549316,-1.396179,0.389099
-0.385742,-0.909912,-0.129883,-0.305176,-0.961304,0.259399
-0.385254,-0.912842,-0.129395,-0.320435,-0.518799,0.083923
-0.385986,-0.911865,-0.12915,-0.144958,-0.259399,-0.205994
-0.387451,-0.914063,-0.131104,-0.038147,-0.053406,-0.518799
-0.387207,-0.91626,-0.130127,-0.144958,-0.190735,-0.724792
-0.389404,-0.917725,-0.131348,-0.183105,-0.648498,-0.785828
-0.391602,-0.915283,-0.132813,-0.289917,-1.052856,-0.747681
-0.397461,-0.915771,-0.131592,-0.473022,-1.167297,-0.63324
-0.397461,-0.916992,-0.129639,-0.404358,-1.190186,-0.450134
-0.397705,-0.91626,-0.12915,-0.389099,-1.083374,-0.228882
-0.399658,-0.914063,-0.133057,-0.50354,-0.701904,-0.053406
-0.404297,-0.908447,-0.135986,-0.335693,1.00708,0.259399
-0.391846,-0.910889,-0.133057,0.366211,2.632141,0.793457
-0.377197,-0.915283,-0.129395,0.434875,1.76239,0.724792
-0.380371,-0.918701,-0.12793,-0.358582,-0.732422,0.030518
-0.38916,-0.916016,-0.125732,-0.953674,-2.89917,-0.106812
-0.394531,-0.913818,-0.126953,-1.327515,-3.425598,0.25177
-0.395752,-0.914307,-0.124512,-1.693725,-2.845764,0.167847
-0.394775,-0.915771,-0.125977,-1.861572,-2.243042,-0.221252
-0.396973,-0.917725,-0.126709,-1.792908,-1.815796,-0.205994
-0.395508,-0.919189,-0.128418,-1.686096,-1.670837,0.221252
-0.392822,-0.920166,-0.127686,-1.89209,-2.288818,0.450134
-0.391357,-0.917969,-0.128418,-2.037048,-3.364563,0.488281
-0.397217,-0.914063,-0.127441,-2.120972,-3.944397,0.427246
-0.399414,-0.910156,-0.128174,-1.899719,-3.486633,0.419617
-0.396729,-0.907959,-0.12915,-1.63269,-2.685547,0.38147
-0.39209,-0.906738,-0.130371,-1.464844,-2.26593,0.267029
-0.393799,-0.907715,-0.131348,-1.426697,-2.243042,-0.007629
-0.397217,-0.90918,-0.130371,-1.266479,-2.082825,-0.183105
-0.399658,-0.915771,-0.133301,-0.892639,-1.38092,-0.480652
-0.397461,-0.919922,-0.137451,-0.724792,-0.801086,-0.656128
-0.395508,-0.919922,-0.141602,-0.740051,-0.663757,-0.778198
-0.395752,-0.919189,-0.141846,-0.740051,-0.976562,-0.656128
-0.397949,-0.916748,-0.138184,-0.801086,-0.915527,-0.610352
-0.39624,-0.917969,-0.141113,-0.534058,-0.389099,-0.465393
-0.391357,-0.919189,-0.14209,-0.236511,0.106812,-0.175476
-0.387207,-0.916992,-0.142822,-0.061035,0.488281,0.015259
-0.385254,-0.912354,-0.142334,0.022888,0.816345,0.053406
-0.384766,-0.908936,-0.140381,0.091553,0.961304,0.061035
-0.383301,-0.906738,-0.138916,0.152588,0.88501,0.083923
-0.381836,-0.905762,-0.137695,0.061035,0.610352,0.167847
-0.382813,-0.902344,-0.134277,-0.221252,0.099182,0.007629
-0.385498,-0.901611,-0.135742,-0.297546,-0.244141,-0.350952
-0.391357,-0.903076,-0.134277,-0.427246,-0.1297,-0.808716
-0.395752,-0.905762,-0.133545,-0.587463,0.068665,-1.113892
-0.398193,-0.907471,-0.13208,-0.595093,-0.015259,-1.312256
-0.399414,-0.908691,-0.129639,-0.686645,-0.328064,-1.312256
-0.403809,-0.912109,-0.12793,-0.740051,-0.709534,-1.251221
-0.408447,-0.914063,-0.126221,-0.869751,-1.091003,-0.900268
-0.409668,-0.916016,-0.125,-0.953674,-1.251221,-0.511169
-0.413086,-0.915771,-0.124023,-0.946045,-1.319885,-0.236511
-0.412842,-0.914795,-0.124512,-0.831604,-1.159668,0.106812
-0.410645,-0.911133,-0.126221,-0.75531,-1.075745,0.434875
-0.410156,-0.908447,-0.127197,-0.679016,-1.00708,0.724792
-0.407227,-0.907471,-0.130127,-0.518799,-1.052856,0.869751
-0.407715,-0.905029,-0.133545,-0.488281,-0.869751,1.045227
-0.40332,-0.904297,-0.132813,-0.37384,-0.465393,1.121521
-0.39917,-0.902588,-0.132568,-0.236511,-0.099182,1.052856
-0.39917,-0.90332,-0.136475,0.015259,0.221252,0.953674
-0.397217,-0.906006,-0.137695,0.183105,0.427246,0.823975
-0.395508,-0.905273,-0.141357,0.213623,0.480652,0.656128
-0.395752,-0.904785,-0.144287,0.25177,0.595093,0.50354
-0.392822,-0.908203,-0.143555,0.37384,0.587463,0.434875
-0.391113,-0.908936,-0.142334,0.442505,0.610352,0.37384
-0.393555,-0.911133,-0.143799,0.419617,0.816345,0.274658
-0.393799,-0.912354,-0.142822,0.465393,0.961304,0.106812
-0.391602,-0.913818,-0.142334,0.358582,0.839233,-0.022888
-0.394287,-0.91333,-0.144043,0.106812,0.556946,-0.1297
-0.394775,-0.915039,-0.142334,0.068665,0.526428,-0.221252
-0.396484,-0.913086,-0.140625,-0.061035,0.694275,-0.411987
-0.397461,-0.913086,-0.140625,0.0,0.801086,-0.442505
-0.395996,-0.914307,-0.138184,-0.083923,0.686645,-0.411987
-0.396973,-0.912598,-0.134277,-0.137329,0.396728,-0.411987
-0.398193,-0.911621,-0.134033,-0.038147,0.289917,-0.427246
-0.398926,-0.909424,-0.132568,0.007629,0.244141,-0.305176
-0.397705,-0.912354,-0.13208,0.061035,0.274658,-0.343323
-0.397217,-0.912842,-0.131348,0.152588,0.396728,-0.396728
-0.399414,-0.911377,-0.13208,0.190735,0.37384,-0.320435
-0.395996,-0.90918,-0.132568,0.228882,0.114441,-0.289917
-0.396973,-0.9104,-0.132324,0.228882,-0.228882,-0.366211
-0.398926,-0.910645,-0.133545,0.12207,-0.427246,-0.450134
-0.400146,-0.908691,-0.133789,0.343323,-0.411987,-0.411987
-0.399658,-0.908936,-0.135742,0.434875,-0.144958,-0.389099
-0.400635,-0.908691,-0.131836,0.579834,-0.007629,-0.442505
-0.398438,-0.911377,-0.133057,0.671387,0.167847,-0.495911
-0.395508,-0.911865,-0.137207,0.816345,0.434875,-0.572205
-0.39624,-0.911377,-0.136963,0.801086,0.434875,-0.701904
-0.396973,-0.915283,-0.13916,0.724792,0.312805,-0.808716
-0.397705,-0.912598,-0.139404,0.686645,0.030518,-0.991821
-0.399658,-0.912109,-0.140381,0.62561,-0.198364,-0.961304
-0.400391,-0.912354,-0.138916,0.663757,-0.335693,-1.00708
-0.400879,-0.914551,-0.140869,0.694275,-0.289917,-0.984192
-0.401367,-0.91333,-0.143799,0.747681,0.061035,-0.862122
-0.400635,-0.912109,-0.142578,0.816345,0.38147,-0.679016
-0.39917,-0.916748,-0.145752,0.724792,0.534058,-0.679016
-0.398682,-0.916748,-0.14502,0.488281,0.457764,-0.762939
-0.396973,-0.913818,-0.143066,0.37384,0.083923,-0.686645
-0.397705,-0.914551,-0.145996,0.259399,-0.213623,-0.549316
-0.393066,-0.911865,-0.14502,0.167847,-0.534058,-0.450134
-0.392578,-0.910889,-0.146484,0.061035,-0.595093,-0.404358
-0.395752,-0.910645,-0.142334,0.1297,-0.640869,-0.289917
-0.394531,-0.911377,-0.137451,0.061035,-0.556946,-0.236511
-0.393311,-0.910889,-0.139648,0.12207,-0.427246,-0.267029
-0.393311,-0.912598,-0.139404,0.0,-0.1297,-0.495911
-0.395508,-0.914063,-0.13916,-0.167847,-0.244141,-0.75531
-0.397217,-0.913818,-0.135498,-0.457764,-0.75531,-0.88501
-0.396729,-0.90918,-0.13208,-0.75531,-1.304626,-1.091003
-0.401367,-0.910156,-0.131592,-0.778198,-1.731872,-1.152039
-0.400635,-0.915771,-0.131836,-0.846863,-1.770019,-1.091003
-0.401611,-0.91626,-0.132324,-0.640869,-1.663208,-0.923157
-0.400879,-0.909668,-0.134277,-0.556946,-1.403808,-0.62561
-0.401367,-0.905273,-0.132813,-0.450134,-0.953674,-0.236511
-0.398193,-0.904297,-0.13208,-0.289917,-0.694275,0.045776
-0.394043,-0.90625,-0.131104,-0.411987,-0.747681,0.350952
-0.39502,-0.90332,-0.12915,-0.640869,-1.022339,0.404358
-0.393555,-0.899414,-0.129639,-0.556946,-1.213074,0.267029
-0.394287,-0.901367,-0.12915,-0.579834,-1.190186,-0.091553
-0.392578,-0.905273,-0.131592,-0.610352,-1.319885,-0.442505
-0.39624,-0.910645,-0.130859,-0.50354,-1.724243,-0.648498
-0.398926,-0.911133,-0.130615,-0.686645,-2.090454,-0.770569
-0.402588,-0.911865,-0.13208,-0.579834,-2.189636,-0.831604
-0.406738,-0.91333,-0.133057,-0.358582,-2.02179,-0.793457
-0.408203,-0.912842,-0.132568,-0.267029,-1.686096,-0.579834
-0.408447,-0.912354,-0.134521,-0.099182,-1.319885,-0.343323
-0.405029,-0.913818,-0.136719,0.091553,-0.984192,-0.160217
-0.407227,-0.9104,-0.137939,0.022888,-0.846863,0.007629
-0.405029,-0.908936,-0.139404,-0.038147,-0.770569,0.213623
-0.401855,-0.907715,-0.140381,-0.015259,-0.62561,0.366211
-0.400146,-0.905029,-0.139648,0.068665,-0.37384,0.442505
-0.395752,-0.902344,-0.13916,0.068665,-0.022888,0.511169
-0.394287,-0.903809,-0.138916,-0.022888,0.244141,0.480652
-0.395264,-0.907471,-0.136719,0.106812,0.228882,0.37384
-0.394775,-0.912354,-0.134277,0.083923,0.183105,0.198364
-0.394287,-0.909668,-0.131592,0.053406,-0.152588,-0.152588
-0.394043,-0.907471,-0.129883,0.0,-0.595093,-0.396728
-0.395996,-0.90625,-0.130127,0.137329,-0.968933,-0.62561
-0.398926,-0.907715,-0.129883,0.465393,-0.839233,-0.770569
-0.402588,-0.907959,-0.130859,0.839233,-0.434875,-0.732422
-0.402832,-0.90918,-0.130615,1.121521,0.1297,-0.953674
-0.403564,-0.911133,-0.13208,1.38092,0.63324,-1.12915
-0.406006,-0.909912,-0.133057,1.411438,0.732422,-1.342773
-0.408691,-0.910156,-0.135742,1.464844,0.724792,-1.533508
-0.408936,-0.912842,-0.136963,1.426697,0.801086,-1.609802
-0.409668,-0.910645,-0.137939,1.434326,1.052856,-1.617432
-0.409912,-0.912109,-0.141113,1.579285,1.419067,-1.571655
-0.411621,-0.910156,-0.144043,1.564026,1.853943,-1.396179
-0.409424,-0.908936,-0.141602,1.602173,2.166748,-1.098633
-0.40625,-0.912598,-0.143066,1.480102,2.601623,-0.923157
-0.403076,-0.913818,-0.143555,1.419067,2.876281,-0.686645
-0.39917,-0.911377,-0.140137,1.167297,3.013611,-0.411987
-0.396973,-0.911865,-0.13916,0.976562,2.990722,-0.312805
-0.392578,-0.912842,-0.138916,0.793457,2.555847,-0.114441
-0.391846,-0.915771,-0.135986,0.434875,2.029419,0.030518
-0.389648,-0.916504,-0.136963,0.244141,1.594543,0.144958
-0.389893,-0.917725,-0.132568,0.167847,1.411438,0.106812
-0.388672,-0.920898,-0.132568,0.083923,1.350403,0.213623
-0.388428,-0.920654,-0.132324,0.114441,1.274109,0.320435
-0.388672,-0.92041,-0.130859,0.053406,1.25885,0.297546
-0.383545,-0.918945,-0.127197,-0.061035,1.022339,0.335693
-0.382568,-0.915527,-0.128662,-0.244141,0.63324,0.312805
-0.381348,-0.916504,-0.128662,-0.25177,0.167847,0.205994
-0.380859,-0.914551,-0.126709,-0.259399,0.0,0.205994
-0.381592,-0.913818,-0.126465,-0.267029,-0.183105,0.061035
-0.380127,-0.911865,-0.12793,-0.061035,-0.526428,-0.083923
-0.380371,-0.912109,-0.128662,0.068665,-0.709534,-0.305176
-0.38501,-0.911621,-0.128662,0.12207,-0.938415,-0.511169
-0.387695,-0.911865,-0.128418,0.25177,-1.068115,-0.747681
-0.389893,-0.915283,-0.129395,0.511169,-0.87738,-1.00708
-0.391602,-0.91626,-0.130127,0.62561,-0.770569,-1.159668
-0.395264,-0.913818,-0.131348,0.62561,-0.75531,-1.25885
-0.397217,-0.912109,-0.133057,0.556946,-0.900268,-1.281738
-0.399658,-0.9104,-0.134277,0.541687,-1.068115,-1.106262
-0.400391,-0.908691,-0.134521,0.587463,-1.121521,-0.915527
-0.401123,-0.907715,-0.135986,0.656128,-0.892639,-0.785828
-0.401123,-0.907227,-0.136719,0.62561,-0.602722,-0.617981
-0.398193,-0.907715,-0.138672,0.701904,-0.366211,-0.648498
-0.401611,-0.906494,-0.136719,0.816345,-0.213623,-0.617981
-0.402832,-0.907227,-0.13916,0.823975,-0.076294,-0.686645
-0.4021,-0.911865,-0.141846,0.87738,0.328064,-0.846863
-0.404297,-0.913818,-0.143311,0.793457,0.640869,-1.060486
-0.404053,-0.914551,-0.14624,0.541687,0.640869,-1.052856
-0.404541,-0.915283,-0.144043,0.320435,0.495911,-0.938415
-0.403564,-0.913086,-0.137939,0.061035,0.305176,-0.907898
-0.403809,-0.917969,-0.136963,-0.022888,0.37384,-0.778198
-0.399658,-0.919434,-0.139404,-0.030518,0.556946,-0.473022
-0.395996,-0.916016,-0.138916,-0.228882,0.793457,-0.076294
-0.393799,-0.91333,-0.138184,-0.221252,0.88501,0.267029
-0.387939,-0.914795,-0.136719,-0.25177,0.846863,0.480652
-0.384277,-0.913574,-0.131348,-0.37384,0.366211,0.579834
-0.382324,-0.914307,-0.129883,-0.640869,-0.274658,0.663757
-0.383789,-0.9104,-0.129395,-0.63324,-0.869751,0.312805
-0.384766,-0.912109,-0.128418,-0.640869,-0.999451,0.030518
-0.386475,-0.911621,-0.129639,-0.389099,-0.823975,-0.167847
-0.386719,-0.911621,-0.128662,-0.366211,-0.808716,-0.442505
-0.386963,-0.910156,-0.131836,-0.175476,-0.854492,-0.640869
-0.389404,-0.912109,-0.130859,0.015259,-1.014709,-0.656128
-0.391846,-0.914307,-0.130615,0.0,-1.190186,-0.663757
-0.392334,-0.914307,-0.131348,0.015259,-1.113892,-0.663757
-0.395996,-0.91626,-0.133057,-0.106812,-0.892639,-0.495911
-0.397705,-0.918457,-0.13623,-0.25177,-0.701904,-0.457764
-0.395508,-0.914307,-0.137451,-0.190735,-0.801086,-0.457764
-0.396729,-0.917725,-0.136475,-0.343323,-1.312256,-0.389099
-0.397949,-0.921387,-0.134277,-0.778198,-2.044678,-0.358582
-0.399902,-0.921143,-0.132324,-0.854492,-2.670288,-0.404358
-0.399902,-0.915039,-0.133789,-0.938415,-2.983093,-0.38147
-0.399414,-0.908936,-0.133057,-0.938415,-2.830505,-0.221252
-0.400391,-0.907959,-0.131104,-0.709534,-2.548218,0.083923
-0.399658,-0.908936,-0.131104,-0.473022,-2.082825,0.091553
-0.398926,-0.904297,-0.134521,-0.343323,-1.403808,0.137329
-0.396729,-0.9021,-0.132813,-0.228882,-0.831604,0.205994
-0.395996,-0.900879,-0.135498,-0.213623,-0.63324,0.137329
-0.397217,-0.899414,-0.133789,-0.091553,-0.740051,0.030518
-0.397461,-0.903564,-0.135498,-0.091553,-0.617981,-0.022888
-0.397705,-0.906494,-0.137207,-0.038147,-0.488281,-0.160217
-0.402344,-0.911865,-0.136719,-0.038147,-0.541687,-0.389099
-0.40332,-0.914795,-0.135742,-0.083923,-0.694275,-0.595093
-0.406006,-0.914063,-0.134521,-0.282288,-0.511169,-0.640869
-0.405762,-0.916016,-0.135986,-0.213623,-0.289917,-0.663757
-0.405029,-0.914063,-0.138184,-0.152588,-0.152588,-0.473022
-0.407227,-0.912598,-0.138184,-0.1297,0.061035,-0.328064
-0.405762,-0.913574,-0.139893,-0.175476,0.213623,-0.183105
-0.404785,-0.913086,-0.138184,-0.221252,0.541687,0.137329
-0.400391,-0.910645,-0.135254,-0.152588,0.709534,0.411987
-0.397461,-0.909912,-0.134766,-0.198364,0.778198,0.473022
-0.39624,-0.90918,-0.135498,-0.312805,0.869751,0.259399
-0.397217,-0.908203,-0.137451,-0.190735,1.060486,0.213623
-0.392822,-0.907959,-0.134521,-0.1297,1.167297,0.137329
-0.390869,-0.910889,-0.135498,-0.045776,1.113892,0.015259
-0.393799,-0.909668,-0.13501,-0.007629,1.00708,-0.213623
-0.394287,-0.910645,-0.136719,0.076294,0.808716,-0.488281
-0.395996,-0.912842,-0.134277,0.144958,0.549316,-0.62561
-0.396729,-0.912842,-0.134033,0.099182,0.213623,-0.572205
-0.400635,-0.913086,-0.13501,0.137329,0.1297,-0.541687
-0.400635,-0.912842,-0.134033,0.152588,0.228882,-0.602722
-0.400879,-0.913574,-0.135986,0.061035,0.389099,-0.38147
-0.401123,-0.913574,-0.135254,-0.053406,0.511169,-0.259399
-0.398926,-0.911865,-0.133545,-0.12207,0.511169,-0.175476
-0.398682,-0.912842,-0.13501,-0.198364,0.37384,-0.030518
-0.397705,-0.912842,-0.137695,-0.228882,0.267029,-0.167847
-0.39502,-0.9104,-0.135986,-0.213623,0.183105,-0.205994
-0.396484,-0.9104,-0.134766,-0.198364,0.015259,-0.244141
-0.395264,-0.912109,-0.13623,-0.190735,-0.099182,-0.358582
-0.39502,-0.911621,-0.135986,-0.152588,-0.106812,-0.480652
-0.395264,-0.909912,-0.136475,0.015259,0.106812,-0.511169
-0.396729,-0.9104,-0.138916,0.068665,0.221252,-0.740051
-0.397461,-0.911133,-0.138184,-0.015259,0.236511,-0.793457
-0.39624,-0.913086,-0.137207,0.015259,0.175476,-0.793457
-0.399658,-0.913574,-0.137207,0.007629,0.1297,-0.747681
-0.400146,-0.911621,-0.141113,-0.083923,0.068665,-0.686645
-0.39917,-0.910156,-0.142334,-0.137329,-0.038147,-0.549316
-0.397949,-0.909424,-0.139404,-0.091553,0.030518,-0.442505
-0.396973,-0.9104,-0.139893,-0.045776,0.030518,-0.297546
-0.394531,-0.908936,-0.13916,0.030518,0.068665,-0.236511
-0.393799,-0.909424,-0.13916,-0.030518,-0.144958,-0.305176
-0.39502,-0.9104,-0.136475,0.007629,-0.411987,-0.442505
-0.398438,-0.910156,-0.138916,0.1297,-0.450134,-0.640869
-0.399414,-0.911133,-0.138916,0.259399,-0.297546,-0.808716
-0.399658,-0.911377,-0.139404,0.312805,-0.236511,-0.854492
-0.401123,-0.910645,-0.138672,0.274658,-0.114441,-0.946045
-0.401611,-0.906982,-0.135986,0.167847,-0.068665,-0.953674
-0.401855,-0.909668,-0.135986,0.267029,0.038147,-0.946045
-0.401855,-0.912109,-0.136963,0.396728,0.205994,-0.75531
-0.398682,-0.908691,-0.137207,0.427246,0.442505,-0.572205
-0.396729,-0.907227,-0.13916,0.518799,0.785828,-0.442505
-0.394043,-0.905762,-0.13916,0.640869,1.159668,-0.25177
-0.391846,-0.906982,-0.138428,0.686645,1.029968,-0.297546
-0.391846,-0.907471,-0.13623,0.610352,0.50354,-0.25177
-0.392334,-0.905273,-0.137695,0.579834,0.137329,-0.160217
-0.397461,-0.907227,-0.138428,0.511169,0.076294,-0.488281
-0.398438,-0.909424,-0.13916,0.63324,0.106812,-0.793457
-0.399414,-0.90918,-0.137695,0.63324,0.137329,-0.953674
-0.401855,-0.909912,-0.13916,0.640869,0.091553,-1.113892
-0.401611,-0.910156,-0.138428,0.549316,0.061035,-1.106262
-0.405029,-0.911133,-0.139893,0.511169,0.076294,-0.785828
-0.403076,-0.911133,-0.137207,0.541687,0.228882,-0.617981
-0.404785,-0.912109,-0.137939,0.640869,0.419617,-0.328064
-0.403809,-0.911865,-0.13623,0.595093,0.801086,-0.053406
-0.401367,-0.91333,-0.13623,0.587463,0.793457,0.12207
-0.401123,-0.911133,-0.138428,0.495911,0.808716,0.099182
-0.398438,-0.912109,-0.141357,0.488281,0.62561,0.12207
-0.397949,-0.913086,-0.14209,0.37384,0.50354,0.038147
-0.394531,-0.910156,-0.139404,0.335693,0.579834,0.045776
-0.395264,-0.907227,-0.138672,0.221252,0.595093,0.007629
-0.394287,-0.910156,-0.137207,0.274658,0.427246,0.038147
-0.395996,-0.912842,-0.136475,0.267029,0.1297,-0.038147
-0.395508,-0.912109,-0.136719,0.328064,0.366211,0.045776
-0.393311,-0.909668,-0.137695,0.320435,0.602722,-0.007629
-0.394775,-0.908936,-0.138672,0.297546,0.610352,-0.083923
-0.394043,-0.909912,-0.13501,0.320435,0.297546,-0.053406
-0.393311,-0.910645,-0.136475,0.305176,0.045776,0.0
-0.392578,-0.911377,-0.134521,0.259399,-0.144958,-0.175476
-0.39624,-0.912354,-0.13501,0.160217,-0.419617,-0.282288
-0.395752,-0.912109,-0.13501,0.106812,-0.671387,-0.297546
-0.397217,-0.912354,-0.13501,0.160217,-0.717163,-0.350952
-0.400879,-0.910889,-0.136963,0.160217,-0.50354,-0.473022
-0.400879,-0.911621,-0.136963,0.175476,-0.289917,-0.465393
-0.400879,-0.912354,-0.135498,0.175476,-0.228882,-0.358582
-0.400635,-0.913086,-0.136719,0.106812,-0.411987,-0.25177
-0.400391,-0.91333,-0.135498,0.030518,-0.62561,-0.205994
-0.399902,-0.912354,-0.135254,-0.106812,-0.732422,-0.068665
-0.399658,-0.910889,-0.138184,-0.137329,-0.694275,0.030518
-0.400391,-0.912842,-0.137695,-0.106812,-0.686645,0.007629
-0.399414,-0.91333,-0.138428,-0.236511,-0.640869,0.038147
-0.399902,-0.910156,-0.140381,-0.289917,-0.640869,-0.053406
-0.396484,-0.910889,-0.136719,-0.190735,-0.686645,-0.144958
-0.39624,-0.911865,-0.137451,-0.259399,-0.846863,-0.228882
-0.39502,-0.909912,-0.137695,-0.312805,-0.953674,-0.175476
-0.39502,-0.911377,-0.135742,-0.289917,-1.235962,-0.267029
-0.396973,-0.911133,-0.138428,-0.25177,-1.327515,-0.442505
-0.398926,-0.910645,-0.139648,-0.221252,-1.350403,-0.396728
-0.400146,-0.910156,-0.137695,-0.198364,-1.213074,-0.411987
-0.401123,-0.91333,-0.138428,-0.083923,-1.052856,-0.343323
-0.400879,-0.911621,-0.136719,-0.083923,-0.892639,-0.389099
-0.39917,-0.909668,-0.139893,-0.091553,-0.862122,-0.37384
-0.398926,-0.909668,-0.137451,-0.114441,-0.793457,-0.366211
-0.39917,-0.911865,-0.138184,-0.076294,-0.732422,-0.419617
-0.399902,-0.908447,-0.138184,-0.152588,-0.63324,-0.404358
-0.399902,-0.909668,-0.137939,-0.137329,-0.549316,-0.38147
-0.399902,-0.912354,-0.135742,-0.091553,-0.549316,-0.473022
-0.399902,-0.909912,-0.135742,-0.091553,-0.617981,-0.450134
-0.400879,-0.909424,-0.134521,-0.022888,-0.701904,-0.526428
-0.399902,-0.9104,-0.13623,-0.083923,-0.823975,-0.587463
-0.400635,-0.911865,-0.133789,0.022888,-0.854492,-0.511169
-0.4021,-0.912354,-0.13501,0.1297,-0.686645,-0.549316
-0.402344,-0.910889,-0.134033,0.221252,-0.320435,-0.541687
-0.402588,-0.907227,-0.13501,0.442505,0.1297,-0.473022
-0.401123,-0.907227,-0.134521,0.442505,0.518799,-0.37384
-0.399902,-0.906738,-0.135986,0.457764,0.617981,-0.328064
-0.400146,-0.904541,-0.137695,0.389099,0.526428,-0.12207
-0.396973,-0.906982,-0.13916,0.411987,0.480652,-0.053406
-0.398438,-0.906982,-0.139648,0.259399,0.411987,-0.030518
-0.396484,-0.9104,-0.136475,0.213623,0.198364,-0.022888
-0.395264,-0.910645,-0.135986,0.221252,-0.022888,-0.099182
-0.397461,-0.909424,-0.132324,0.213623,-0.1297,-0.175476
-0.397949,-0.909912,-0.133057,0.396728,-0.152588,-0.175476
-0.400635,-0.909912,-0.135742,0.648498,0.114441,-0.328064
-0.403564,-0.911621,-0.13916,0.938415,0.526428,-0.450134
-0.400635,-0.914307,-0.137939,0.946045,0.907898,-0.62561
-0.39917,-0.909668,-0.13623,0.846863,0.87738,-0.701904
-0.400146,-0.909912,-0.137207,0.801086,0.62561,-0.724792
-0.397461,-0.907959,-0.134033,0.770569,0.511169,-0.762939
-0.397461,-0.902832,-0.13501,0.724792,0.534058,-0.793457
-0.395264,-0.898193,-0.137695,0.770569,0.663757,-0.442505
-0.394043,-0.900879,-0.138672,1.052856,0.923157,-0.045776
-0.392822,-0.907471,-0.138672,1.228333,1.144409,0.152588
-0.393311,-0.910156,-0.134521,1.13678,0.984192,0.205994
-0.38916,-0.911865,-0.131592,1.167297,0.564575,0.106812
-0.390869,-0.915527,-0.133545,1.213074,0.015259,-0.12207
-0.393555,-0.914551,-0.135254,1.197815,-0.450134,-0.411987
-0.397461,-0.912842,-0.135254,1.121521,-0.976562,-0.801086
-0.399658,-0.911377,-0.135742,1.205444,-1.144409,-1.060486
-0.399902,-0.908936,-0.135498,1.350403,-0.900268,-0.961304
-0.401367,-0.907959,-0.136963,1.441955,-0.442505,-0.862122
-0.402588,-0.910889,-0.133789,1.571655,-0.053406,-0.732422
-0.403809,-0.911865,-0.135498,1.647949,0.473022,-0.488281
-0.404053,-0.911865,-0.137207,1.88446,1.060486,-0.457764
-0.4021,-0.915527,-0.137939,1.976013,1.411438,-0.549316
-0.401367,-0.919189,-0.13916,1.983642,1.716614,-0.541687
-0.403076,-0.91748,-0.144287,1.998901,1.808166,-0.717163
-0.405518,-0.916016,-0.144043,1.89209,1.792908,-0.900268
-0.404785,-0.91333,-0.145996,1.701355,1.853943,-0.938415
-0.403076,-0.910889,-0.147461,1.625061,2.059937,-0.869751
-0.4021,-0.9104,-0.143799,1.472473,2.098083,-0.602722
-0.403076,-0.907471,-0.140137,1.319885,1.914978,-0.411987
-0.404785,-0.909424,-0.140381,1.243591,1.861572,-0.297546
-0.406006,-0.907959,-0.138672,1.274109,2.128601,-0.015259
-0.403564,-0.907959,-0.140625,1.350403,2.609253,0.030518
-0.401367,-0.911133,-0.141357,1.335144,2.998352,0.1297
-0.4021,-0.910645,-0.137695,1.396179,3.097534,0.152588
-0.399902,-0.907227,-0.13501,1.281738,3.013611,0.083923
-0.397705,-0.905762,-0.131348,1.106262,2.792358,0.144958
-0.397461,-0.90625,-0.132324,1.052856,2.403259,0.198364
-0.39917,-0.912109,-0.130615,1.113892,2.27356,0.190735
-0.401367,-0.914307,-0.129395,1.174927,2.601623,0.160217
-0.399658,-0.916016,-0.12915,1.205444,3.120422,0.236511
-0.395752,-0.919434,-0.127441,1.403808,3.417969,0.274658
-0.395264,-0.919434,-0.129395,1.541138,3.158569,0.221252
-0.39502,-0.919189,-0.132568,1.64032,2.677917,0.114441
-0.396973,-0.916748,-0.133057,1.64032,2.433777,0.099182
-0.394775,-0.916748,-0.134766,1.655578,2.334595,0.061035
-0.394287,-0.913818,-0.133545,1.594543,2.380371,-0.015259
-0.394043,-0.909912,-0.133789,1.518249,2.449036,-0.160217
-0.391357,-0.907227,-0.134277,1.327515,2.39563,-0.183105
-0.393555,-0.903809,-0.133545,1.319885,2.288818,-0.175476
-0.393311,-0.904785,-0.132813,1.274109,2.227783,-0.190735
-0.395264,-0.906006,-0.134766,1.205444,2.235413,-0.152588
-0.39502,-0.908936,-0.132324,1.403808,2.578735,-0.144958
-0.394775,-0.910889,-0.133301,1.571655,2.700805,-0.389099
-0.397461,-0.915039,-0.13208,1.586914,2.830505,-0.526428
-0.398438,-0.915527,-0.133545,1.319885,2.532959,-0.62561
-0.400879,-0.915771,-0.132324,1.190186,2.212524,-0.854492
-0.399658,-0.915283,-0.129639,1.029968,2.13623,-0.88501
-0.4021,-0.916504,-0.132813,0.900268,2.128601,-0.75531
-0.401855,-0.912842,-0.132324,0.732422,2.006531,-0.663757
-0.403076,-0.912842,-0.129395,0.610352,1.831055,-0.427246
-0.400391,-0.913086,-0.12793,0.411987,1.617432,-0.190735
-0.397949,-0.915039,-0.128906,0.50354,1.586914,0.045776
-0.395508,-0.911621,-0.128906,0.465393,1.548767,0.175476
-0.394287,-0.914551,-0.128418,0.404358,1.38092,0.114441
-0.394287,-0.914307,-0.127686,0.442505,1.098633,-0.022888
-0.394287,-0.914063,-0.126953,0.389099,0.709534,-0.228882
-0.393311,-0.914063,-0.127441,0.267029,0.396728,-0.457764
-0.392822,-0.913818,-0.129639,0.213623,0.320435,-0.50354
-0.393066,-0.90918,-0.130615,0.25177,0.37384,-0.556946
-0.393311,-0.906494,-0.131104,0.343323,0.518799,-0.480652
-0.390869,-0.908691,-0.127686,0.404358,0.717163,-0.335693
-0.391846,-0.908447,-0.126465,0.289917,0.709534,-0.236511
-0.387695,-0.909424,-0.12793,0.236511,0.473022,-0.160217
-0.384277,-0.911621,-0.127197,0.236511,0.038147,-0.175476
-0.38623,-0.907959,-0.125244,0.350952,-0.442505,-0.350952
-0.388916,-0.909424,-0.127197,0.389099,-0.816345,-0.648498
-0.389404,-0.911621,-0.127686,0.488281,-1.075745,-0.984192
-0.392578,-0.912598,-0.128174,0.694275,-1.296997,-1.327515
-0.396484,-0.913818,-0.128906,0.816345,-1.441955,-1.579285
-0.397461,-0.91626,-0.130127,0.87738,-1.480102,-1.686096
-0.397705,-0.912354,-0.130127,0.88501,-1.319885,-1.731872
-0.400391,-0.907715,-0.129639,0.953674,-1.121521,-1.754761
-0.401611,-0.910156,-0.131348,1.190186,-0.686645,-1.625061
-0.402344,-0.915527,-0.131348,1.426697,-0.114441,-1.419067
-0.401611,-0.914307,-0.131592,1.419067,0.289917,-1.251221
-0.397461,-0.912842,-0.133545,1.327515,0.63324,-1.052856
-0.393555,-0.910889,-0.135742,1.304626,0.526428,-0.923157
-0.392334,-0.90918,-0.13623,1.144409,0.198364,-0.854492
-0.391602,-0.908691,-0.134033,1.068115,-0.190735,-0.747681
-0.390381,-0.906006,-0.134766,1.00708,-0.404358,-0.747681
-0.389648,-0.908203,-0.134277,0.839233,-0.312805,-0.999451
-0.390381,-0.909912,-0.135498,0.709534,-0.320435,-1.266479
-0.392334,-0.910645,-0.134277,0.709534,-0.541687,-1.449585
-0.394775,-0.912598,-0.131348,0.610352,-0.87738,-1.441955
-0.395264,-0.91333,-0.130127,0.465393,-1.304626,-1.434326
-0.396973,-0.912354,-0.130615,0.396728,-1.548767,-1.220703
-0.398682,-0.915039,-0.129883,0.282288,-1.754761,-0.968933
-0.399658,-0.917236,-0.128906,0.312805,-1.838684,-0.747681
-0.397461,-0.917725,-0.125977,0.213623,-1.853943,-0.62561
-0.396729,-0.918213,-0.125,0.190735,-1.693725,-0.450134
-0.393311,-0.913574,-0.125977,0.236511,-1.800537,-0.427246
-0.39209,-0.914307,-0.126953,0.274658,-2.029419,-0.450134
-0.39209,-0.911377,-0.126953,0.312805,-2.189636,-0.617981
-0.390137,-0.911377,-0.129639,0.434875,-1.89209,-0.762939
-0.388672,-0.908936,-0.129395,0.579834,-1.655578,-0.915527
-0.389893,-0.910156,-0.127441,0.694275,-1.708984,-1.113892
-0.39209,-0.913086,-0.124756,0.869751,-1.869202,-1.182556
-0.396484,-0.915039,-0.126953,0.991821,-1.88446,-1.335144
-0.396729,-0.912354,-0.130371,1.022339,-1.808166,-1.586914
-0.398682,-0.909668,-0.130859,1.083374,-1.663208,-1.594543
-0.399658,-0.911865,-0.130371,1.281738,-1.556396,-1.365662
-0.401123,-0.913086,-0.130859,1.38092,-1.296997,-1.319885
-0.399902,-0.912109,-0.131348,1.419067,-0.984192,-1.243591
-0.399658,-0.912842,-0.129639,1.525879,-0.976562,-1.060486
-0.401611,-0.912842,-0.132568,1.296997,-1.335144,-1.045227
-0.399414,-0.915527,-0.131348,1.121521,-1.441955,-1.091003
-0.4021,-0.911377,-0.130371,1.220703,-1.068115,-1.106262
-0.397705,-0.910156,-0.130615,1.167297,-0.701904,-1.052856
-0.396729,-0.911621,-0.130371,1.174927,-0.442505,-1.029968
-0.395752,-0.910645,-0.130859,1.228333,-0.320435,-0.984192
-0.395996,-0.911621,-0.129639,1.174927,-0.160217,-0.923157
-0.397461,-0.912354,-0.130615,1.174927,0.045776,-0.87738
-0.395996,-0.915771,-0.12793,1.25885,0.152588,-0.900268
-0.394531,-0.916504,-0.128418,1.167297,0.221252,-1.052856
-0.393066,-0.915039,-0.128662,1.251221,0.228882,-0.984192
-0.389893,-0.914307,-0.127686,1.152039,0.030518,-0.862122
-0.390869,-0.916016,-0.125977,1.068115,-0.106812,-0.846863
-0.38916,-0.915771,-0.124512,1.029968,-0.12207,-0.717163
-0.388428,-0.916504,-0.12207,0.961304,-0.076294,-0.732422
-0.388672,-0.917236,-0.124268,1.037598,-0.106812,-0.686645
-0.386963,-0.917969,-0.123535,1.091003,-0.305176,-0.648498
-0.38501,-0.918945,-0.125488,0.938415,-0.473022,-0.656128
-0.38623,-0.917236,-0.126953,0.961304,-0.75531,-0.62561
-0.384033,-0.918213,-0.125732,0.923157,-0.839233,-0.778198
-0.384033,-0.918457,-0.125,0.923157,-0.854492,-0.854492
-0.385986,-0.917969,-0.125488,0.930786,-1.060486,-0.953674
-0.386963,-0.917725,-0.125732,0.907898,-1.350403,-1.052856
-0.389893,-0.916992,-0.123047,0.823975,-1.602173,-1.13678
-0.391602,-0.918701,-0.124756,0.75531,-1.770019,-1.235962
-0.392334,-0.920654,-0.124756,0.701904,-1.747131,-1.167297
-0.393555,-0.919922,-0.122559,0.595093,-1.731872,-1.083374
-0.393555,-0.92041,-0.123047,0.511169,-1.670837,-1.045227
-0.393066,-0.921143,-0.122803,0.404358,-1.861572,-0.991821
-0.394043,-0.919922,-0.121826,0.495911,-1.991272,-0.991821
-0.393311,-0.919434,-0.125,0.419617,-1.983642,-0.938415
-0.393066,-0.916992,-0.126465,0.366211,-1.724243,-0.915527
-0.390869,-0.915771,-0.125732,0.450134,-1.541138,-0.862122
-0.38916,-0.914795,-0.125244,0.473022,-1.441955,-0.839233
-0.390137,-0.913086,-0.125732,0.50354,-1.38855,-0.892639
-0.390625,-0.914063,-0.125732,0.419617,-1.304626,-0.946045
-0.389893,-0.914307,-0.126953,0.434875,-1.083374,-0.968933
-0.38916,-0.915039,-0.122314,0.457764,-1.060486,-1.045227
-0.390137,-0.916504,-0.12085,0.335693,-1.113892,-1.167297
-0.393311,-0.912598,-0.122803,0.419617,-0.991821,-1.190186
-0.393066,-0.916016,-0.124023,0.587463,-0.846863,-1.296997
-0.393799,-0.918457,-0.12207,0.679016,-0.694275,-1.113892
-0.39502,-0.921387,-0.124023,0.686645,-0.434875,-1.045227
-0.396729,-0.920654,-0.122314,0.587463,-0.259399,-1.068115
-0.394775,-0.917725,-0.122314,0.556946,-0.167847,-1.113892
-0.392822,-0.919189,-0.120361,0.518799,-0.267029,-1.022339
-0.388672,-0.918701,-0.121826,0.427246,-0.465393,-0.915527
-0.38916,-0.918701,-0.121826,0.228882,-0.465393,-0.793457
-0.389893,-0.916992,-0.122803,0.205994,-0.152588,-0.587463
-0.38501,-0.912598,-0.121094,0.450134,0.015259,-0.221252
-0.383301,-0.912109,-0.12207,0.457764,-0.144958,-0.030518
-0.381348,-0.912842,-0.120605,0.358582,-0.63324,0.038147
-0.382324,-0.913574,-0.118408,0.244141,-0.968933,0.030518
-0.384033,-0.912842,-0.119385,0.236511,-1.00708,-0.320435
-0.385742,-0.915283,-0.117188,0.312805,-1.00708,-0.617981
-0.388428,-0.916748,-0.118408,0.228882,-1.182556,-0.839233
-0.391357,-0.920898,-0.118652,0.022888,-1.571655,-0.946045
-0.392578,-0.921631,-0.121094,-0.228882,-2.204895,-1.014709
-0.396973,-0.918213,-0.118652,-0.602722,-2.662658,-0.747681
-0.397949,-0.919434,-0.117188,-0.839233,-2.792358,-0.320435
-0.400879,-0.919922,-0.116699,-0.740051,-2.494812,-0.137329
-0.399414,-0.917725,-0.114258,-0.640869,-1.823425,0.183105
-0.396729,-0.915527,-0.11377,-0.595093,-1.13678,0.358582
-0.392334,-0.914307,-0.115234,-0.38147,-0.770569,0.419617
-0.38916,-0.915039,-0.114014,-0.205994,-0.709534,0.267029
-0.388184,-0.911377,-0.112793,-0.12207,-0.724792,0.091553
-0.388428,-0.914307,-0.115723,0.068665,-0.717163,-0.099182
-0.387939,-0.913574,-0.115723,-0.030518,-0.656128,-0.350952
-0.384521,-0.913574,-0.111572,-0.068665,-0.572205,-0.610352
-0.387451,-0.918945,-0.113525,0.152588,-0.701904,-0.663757
-0.387451,-0.917725,-0.115967,0.205994,-0.717163,-0.663757
-0.386475,-0.919434,-0.115967,0.282288,-0.62561,-0.610352
-0.385986,-0.917725,-0.114258,0.183105,-0.823975,-0.450134
-0.386963,-0.916504,-0.11499,0.228882,-0.991821,-0.320435
-0.386963,-0.914795,-0.113525,0.175476,-0.87738,-0.228882
-0.385742,-0.916748,-0.114258,0.282288,-0.816345,-0.289917
-0.383545,-0.916992,-0.114502,0.297546,-1.014709,-0.236511
-0.385498,-0.918213,-0.112061,0.244141,-1.312256,-0.434875
-0.386963,-0.915771,-0.112549,0.228882,-1.655578,-0.679016
-0.388916,-0.918213,-0.113037,0.244141,-1.76239,-0.961304
-0.389648,-0.918945,-0.115234,0.312805,-1.777649,-1.235962
-0.391602,-0.918701,-0.118408,0.343323,-1.800537,-1.38092
-0.388916,-0.919678,-0.117188,0.282288,-1.792908,-1.205444
-0.38501,-0.924316,-0.122314,0.328064,-1.647949,-0.75531
-0.378662,-0.927979,-0.124023,0.297546,-1.716614,-0.144958
-0.383301,-0.926758,-0.121094,0.144958,-2.197266,0.144958
-0.388184,-0.926514,-0.124756,-0.007629,-2.212524,0.587463
-0.383545,-0.923828,-0.128906,0.061035,-1.464844,1.281738
-0.373047,-0.922119,-0.12207,0.167847,-0.770569,1.564026
-0.372314,-0.925049,-0.11792,0.183105,-0.62561,1.564026
-0.375977,-0.926514,-0.119385,0.152588,-0.717163,1.083374
-0.375488,-0.925781,-0.124268,0.167847,-0.915527,0.541687
-0.369873,-0.925293,-0.125977,0.068665,-1.922607,0.350952
-0.366699,-0.926025,-0.122803,-0.434875,-4.066467,0.183105
-0.370361,-0.922852,-0.118164,-1.022339,-6.530761,-0.228882
-0.375977,-0.918213,-0.117676,-1.319885,-7.728576,-0.442505
-0.37915,-0.919434,-0.117188,-1.068115,-7.873535,-0.076294
-0.379639,-0.917969,-0.12207,-0.938415,-7.339477,0.205994
-0.37915,-0.914795,-0.12793,-0.892639,-6.385803,0.572205
-0.375244,-0.916992,-0.129639,-0.785828,-5.371093,0.694275
-0.363525,-0.924805,-0.135986,-0.907898,-4.882813,0.900268
-0.345947,-0.930664,-0.143555,-1.472473,-6.141662,1.594543
-0.334717,-0.927246,-0.148193,-2.746582,-10.208129,2.044678
-0.331299,-0.925049,-0.145508,-4.631042,-16.471863,1.89209
-0.339844,-0.920166,-0.143311,-6.744384,-23.04077,1.327515
-0.350098,-0.918213,-0.140381,-8.338928,-27.648924,0.953674
-0.346924,-0.91333,-0.136719,-9.773254,-29.785154,0.770569
-0.358154,-0.904053,-0.145996,-10.368346,-30.189512,0.221252
-0.377686,-0.906006,-0.139648,-9.689331,-28.808592,-0.488281
-0.387207,-0.907959,-0.143066,-10.017395,-25.398252,-1.106262
-0.358398,-0.898926,-0.165283,-11.07788,-22.727964,-1.350403
-0.323242,-0.892334,-0.174316,-12.771605,-25.527952,-2.326965
-0.313477,-0.889648,-0.165527,-16.036987,-34.561157,-4.074097
-0.331055,-0.877197,-0.152832,-19.65332,-44.754025,-5.523681
-0.352051,-0.86499,-0.141846,-21.629332,-51.635738,-6.515502
-0.36792,-0.857422,-0.133545,-22.048948,-54.611202,-8.06427
-0.374512,-0.852539,-0.143311,-21.804808,-54.687496,-9.460449
-0.368896,-0.856445,-0.15918,-21.39282,-52.818295,-10.330199
-0.361328,-0.849854,-0.172607,-21.614073,-50.361629,-11.20758
-0.354004,-0.839844,-0.178711,-22.560118,-48.72131,-11.901855
-0.36377,-0.826416,-0.172852,-23.979185,-48.835751,-12.428283
-0.369629,-0.806396,-0.158936,-25.497435,-49.896236,-11.848449
-0.355957,-0.774658,-0.154785,-26.420591,-50.621029,-10.124206
-0.335938,-0.743652,-0.15918,-26.786802,-52.101131,-8.918762
-0.333008,-0.723389,-0.162109,-26.847837,-54.450985,-7.316589
-0.345215,-0.702881,-0.161133,-26.977537,-55.564877,-4.005432
-0.359863,-0.67627,-0.155273,-26.68762,-52.757259,-0.007629
-0.374023,-0.656982,-0.15625,-25.68054,-45.997616,3.097534
-0.362549,-0.644043,-0.179199,-24.192808,-37.467957,5.66101
-0.330566,-0.640869,-0.199951,-24.192808,-30.639647,8.712769
-0.306641,-0.640137,-0.197021,-26.451109,-28.541563,11.596679
-0.295166,-0.633545,-0.183594,-29.930113,-29.937742,13.160705
-0.300781,-0.607178,-0.160645,-32.501221,-31.143187,13.694762
-0.316406,-0.578857,-0.140625,-33.485413,-30.288694,13.900756
-0.321289,-0.559082,-0.139404,-33.302307,-27.175901,14.85443
-0.310059,-0.550537,-0.175293,-32.829285,-22.758482,16.273499
-0.271973,-0.54834,-0.204834,-34.103394,-19.134521,17.234802
-0.258789,-0.552979,-0.205566,-38.200378,-18.608093,17.38739
-0.269287,-0.558594,-0.194092,-42.686459,-19.699097,16.624451
-0.279541,-0.55249,-0.173584,-46.440121,-19.500732,15.090941
-0.286377,-0.531006,-0.154541,-49.47662,-18.066406,13.305663
-0.290527,-0.50293,-0.139404,-51.422115,-16.113281,12.443542
-0.293945,-0.472412,-0.12085,-52.726742,-13.771056,12.481688
-0.303223,-0.445068,-0.104248,-52.864071,-10.169982,13.328551
-0.304688,-0.424072,-0.104736,-51.643368,-3.40271,14.831542
-0.275879,-0.411377,-0.120117,-49.873348,6.118774,17.219543
-0.237549,-0.416748,-0.135498,-49.011227,15.075683,20.179747
-0.198242,-0.437012,-0.138916,-49.674984,21.179197,22.377012
-0.186035,-0.458252,-0.116455,-51.650997,23.04077,22.232054
-0.202148,-0.474365,-0.095459,-53.512569,22.041319,20.202635
-0.204102,-0.480225,-0.092529,-53.779598,20.950315,17.738342
-0.199707,-0.490234,-0.104736,-53.459164,19.111633,14.923095
-0.198486,-0.50293,-0.118408,-53.771969,15.434264,11.299132
-0.212891,-0.522217,-0.120605,-54.504391,10.879516,6.629943
-0.235107,-0.553711,-0.113037,-54.473873,7.621765,1.861572
-0.248291,-0.584229,-0.101318,-53.37524,7.110595,-2.632141
-0.247314,-0.609863,-0.092285,-52.009579,8.079529,-6.881713
-0.246338,-0.629639,-0.087646,-50.765987,8.712769,-11.550902
-0.248291,-0.645508,-0.083252,-49.262997,7.705688,-16.067505
-0.256836,-0.652588,-0.070313,-46.966549,5.821228,-20.530699
-0.27124,-0.645996,-0.062256,-43.922421,4.104614,-25.352476
-0.282227,-0.647461,-0.071289,-39.726257,2.532959,-30.2124
-0.29248,-0.654297,-0.087646,-35.087585,0.091553,-34.919739
-0.303223,-0.675049,-0.124023,-30.494688,-5.081176,-39.543152
-0.318848,-0.727051,-0.147461,-26.512144,-12.756347,-43.891903
-0.357666,-0.792725,-0.155029,-23.246763,-21.331785,-47.828671
-0.394775,-0.856445,-0.159424,-19.798279,-29.434202,-51.61285
-0.404297,-0.910156,-0.188232,-16.532898,-35.743713,-55.595394
-0.422363,-0.947021,-0.242676,-13.755797,-42.594906,-59.883114
-0.493408,-0.984863,-0.29248,-11.482238,-51.99432,-63.224789
-0.60791,-1.031738,-0.345459,-8.827209,-61.622616,-64.613342
-0.72583,-1.090088,-0.402832,-4.806519,-68.450928,-64.666748
-0.818359,-1.161621,-0.45166,-0.556946,-72.303772,-64.254761
-0.864014,-1.23584,-0.52417,1.792908,-73.379517,-62.973019
-0.846924,-1.290283,-0.582764,1.426697,-72.799683,-60.928341
-0.790283,-1.331299,-0.612061,0.190735,-72.608948,-59.623714
-0.800781,-1.401855,-0.65625,2.235413,-71.105957,-59.29565
-0.948242,-1.53125,-0.751709,7.30133,-66.53595,-58.006283
-1.114258,-1.698486,-0.865723,11.863708,-52.520748,-52.8717
-1.236084,-1.859619,-0.990967,14.495849,-26.367186,-43.571468
-1.289063,-1.97583,-1.102295,16.151428,6.79779,-33.424377
-1.232666,-2.043457,-1.188477,16.517639,39.840698,-23.376463
-1.127686,-2.075928,-1.232422,14.183043,64.582825,-13.259887
-1.018066,-2.131836,-1.244629,10.498046,76.850891,-2.571106
-0.922363,-2.209961,-1.23877,7.247924,80.535881,8.239746
-0.901123,-2.269287,-1.235107,1.914978,78.674316,17.616272
-0.942871,-2.287354,-1.25708,-7.514953,73.265076,25.001524
-0.992432,-2.273438,-1.269775,-19.615173,64.720154,32.478333
-0.985596,-2.228027,-1.265381,-33.309937,49.209591,40.939327
-0.904785,-2.147461,-1.230957,-48.690792,24.375914,49.003597
-0.835693,-2.04248,-1.195313,-65.52887,-7.522583,55.7785
-0.820068,-1.929199,-1.179443,-80.566399,-38.192749,62.492367
-0.85498,-1.810547,-1.177734,-91.644279,-59.738155,70.594788
-0.939697,-1.713867,-1.210205,-98.747246,-68.206787,81.169121
-1.005371,-1.65625,-1.246094,-102.546684,-62.751766,95.245354
-1.025635,-1.603271,-1.250732,-106.307976,-45.715328,110.176079
-1.016846,-1.522949,-1.214111,-112.205498,-23.681639,121.383659
-0.984863,-1.451904,-1.134766,-117.652885,-1.861572,129.852295
-0.946533,-1.405273,-1.059326,-120.971672,16.403198,137.47406
-0.921143,-1.376953,-0.980225,-123.054497,28.533934,143.257141
-0.924561,-1.366455,-0.927246,-124.839775,34.080505,147.125244
-0.915527,-1.348633,-0.896729,-126.823418,30.6015,150.527954
-0.90625,-1.304443,-0.866943,-129.989624,15.930175,154.258728
-0.931152,-1.238037,-0.855225,-132.598877,-3.936767,158.77533
-0.993896,-1.180664,-0.856689,-133.811951,-17.868042,163.825974
-1.060059,-1.143799,-0.87793,-134.078979,-17.799377,169.54039
-1.133301,-1.131836,-0.873047,-134.109497,-2.861023,175.376877
-1.208496,-1.140625,-0.832275,-135.070801,21.812437,181.549057
-1.229248,-1.151611,-0.776367,-136.642456,48.240658,188.514694
-1.198975,-1.151611,-0.717285,-137.176514,66.53595,194.427475
-1.175781,-1.13623,-0.647705,-138.313293,68.344116,197.677597
-1.186523,-1.075684,-0.593262,-139.862061,53.047176,200.775131
-1.184326,-0.995605,-0.574219,-137.435913,28.495787,207.160934
-1.221436,-0.935791,-0.545898,-131.378174,5.41687,215.354904
-1.351563,-0.876221,-0.570801,-125.068657,-1.052856,223.670944
-1.455322,-0.811279,-0.674561,-114.707939,19.935608,235.588058
-1.406006,-0.772217,-0.676025,-105.522148,65.101624,248.123154
-1.22583,-0.679443,-0.553467,-103.256218,118.370049,249.992355
-1.011963,-0.550781,-0.405273,-96.710197,160.263062,249.923691
-0.804443,-0.466309,-0.232422,-84.434502,176.193222,249.93895
-0.626709,-0.388916,-0.069092,-76.957703,160.964951,249.992355
-0.49292,-0.283691,0.072754,-72.479248,121.032707,249.664291
-0.408936,-0.188232,0.197998,-64.414978,71.456909,248.573288
-0.375977,-0.122803,0.288086,-53.146358,27.656553,246.345505
-0.387451,-0.08667,0.296387,-40.596004,-1.296997,242.721542
-0.37793,-0.102783,0.230469,-26.397703,-13.664245,240.158066
-0.318604,-0.14917,0.249268,-15.258788,-14.656066,238.72374
-0.274658,-0.154297,0.313477,-8.125305,-11.558532,232.330307
-0.242188,-0.133301,0.349365,0.946045,-8.125305,223.281845
-0.198975,-0.121338,0.373779,11.505126,-8.468628,217.506393
-0.144287,-0.126221,0.418457,20.538328,-18.2724,217.605576
-0.109619,-0.146484,0.467041,26.43585,-37.513733,222.518906
-0.098145,-0.139648,0.458496,30.006407,-56.961056,229.698166
-0.081543,-0.112305,0.415527,35.453796,-67.237854,238.502487
-0.072266,-0.102539,0.363037,42.655941,-65.216064,246.688828
-0.065918,-0.117432,0.336914,50.949093,-53.657528,249.992355
-0.081299,-0.21167,0.237061,59.799191,-35.598755,249.961838
-0.060791,-0.343506,0.108154,65.299988,-14.198302,245.971664
-0.015869,-0.429199,0.001709,65.452576,1.525879,238.288864
0.044678,-0.468506,-0.023438,61.958309,2.944946,231.124863
0.091797,-0.47876,0.013184,53.939816,-10.31494,224.777206
0.125244,-0.453613,0.058594,41.801449,-30.761717,216.423019
0.170166,-0.428467,0.029053,30.708311,-49.682613,204.1931
0.181152,-0.436035,-0.0979,21.064756,-61.988827,188.087448
0.148682,-0.468018,-0.334717,8.19397,-62.347408,168.495163
0.110596,-0.464111,-0.531982,-5.439758,-48.545834,146.842957
0.04834,-0.64917,-0.579834,-28.083799,-21.118162,125.747673
-0.144287,-0.567139,-0.613281,-48.355099,11.993407,92.208855
0.268066,-0.66333,-0.792969,-30.494688,26.43585,87.402336
0.845947,-0.749756,-0.861816,-61.56921,-5.638122,51.155087
0.497314,-0.612793,-0.948486,-124.214165,-59.333797,-7.209777
0.113037,-0.566895,-0.96875,-146.774292,-66.459656,-20.042419
0.061523,-0.463135,-0.946289,-147.163391,-34.049988,-12.779235
0.004395,-0.353027,-0.847656,-140.403748,1.190186,-8.850098
-0.042969,-0.249756,-0.682617,-131.256104,33.004761,-6.278991
-0.082031,-0.149414,-0.491699,-124.069206,62.606808,0.450134
-0.095215,-0.048584,-0.362305,-119.056694,90.812675,7.240295
-0.059814,0.072266,-0.313721,-112.838737,114.807121,11.299132
-0.077148,0.16626,-0.303955,-101.829521,126.869194,15.769958
-0.098145,0.224121,-0.315186,-91.567986,126.449577,20.683287
-0.067627,0.324463,-0.367432,-83.763115,112.998955,22.544859
-0.043701,0.428467,-0.426758,-76.286316,91.445915,24.978636
0.036865,0.596436,-0.469727,-65.1474,71.075439,28.999327
-0.005127,0.837891,-0.539795,-49.682613,53.955074,24.55139
-0.190186,1.04834,-0.662842,-35.102844,42.076107,3.112793
-0.377441,1.144043,-0.788818,-25.283812,40.214535,-22.430418
-0.493896,1.177734,-0.88501,-16.921997,47.035213,-36.003113
-0.541504,1.259766,-0.951172,-6.744384,50.811764,-43.609615
-0.57666,1.373047,-1.006348,2.410889,38.543701,-60.791012
-0.640381,1.489258,-1.039307,6.019592,15.174865,-86.822502
-0.767334,1.604736,-1.037598,7.514953,4.79126,-107.017509
-0.904297,1.69043,-1.031982,15.151977,19.737244,-121.086113
-0.979492,1.633057,-1.025391,28.808592,49.247738,-137.916565
-0.929932,1.446777,-1.018555,41.793819,77.537537,-152.999878
-0.777344,1.283691,-0.999756,52.108761,93.90258,-159.004211
-0.598145,1.157715,-0.952637,62.530514,90.583794,-160.53772
-0.43457,0.994385,-0.865234,74.85199,65.254211,-160.644516
-0.334473,0.802734,-0.733887,87.036125,23.757933,-159.217834
-0.295166,0.654297,-0.603271,97.18322,-23.376463,-158.477783
-0.2854,0.532715,-0.536133,104.438774,-66.558838,-160.728439
-0.299805,0.416504,-0.596436,107.345573,-97.869865,-165.908798
-0.348389,0.351074,-0.680176,107.192986,-110.923759,-170.707687
-0.408447,0.348633,-0.707275,108.840935,-104.026787,-172.05809
-0.435303,0.349365,-0.694336,115.509026,-81.138603,-171.31041
-0.414795,0.320801,-0.651611,124.046318,-51.704403,-170.814499
-0.345459,0.274658,-0.59082,129.570007,-27.122496,-169.433578
-0.281494,0.23999,-0.511963,131.17218,-13.107299,-167.350754
-0.269531,0.214844,-0.439697,132.110596,-5.905151,-167.472824
-0.260986,0.182861,-0.404297,135.940552,1.472473,-169.387802
-0.236572,0.145996,-0.397949,142.417908,9.368896,-169.776901
-0.239502,0.087891,-0.419922,146.873474,10.32257,-167.587265
-0.288574,0.005127,-0.456543,143.989563,1.457214,-163.902267
-0.347656,-0.036865,-0.470703,135.71167,-12.397765,-158.744812
-0.397217,-0.041504,-0.453613,127.960197,-23.818968,-153.106689
-0.405273,-0.037842,-0.428467,122.451775,-28.404234,-149.459839
-0.398438,-0.049805,-0.382813,117.309563,-26.542662,-148.620605
-0.382813,-0.07666,-0.328125,111.961357,-20.378111,-149.650574
-0.354492,-0.093018,-0.287598,109.40551,-11.428832,-149.681091
-0.341553,-0.098877,-0.283203,110.427849,-3.318786,-148.574829
-0.361572,-0.105225,-0.344238,115.173332,0.404358,-146.705627
-0.422852,-0.150391,-0.44458,122.238152,-3.349304,-141.716003
-0.427002,-0.202393,-0.482178,123.977654,-18.135071,-134.613037
-0.435059,-0.217041,-0.491699,118.392937,-42.320248,-133.644104
-0.506104,-0.229492,-0.507568,113.281242,-66.719055,-141.197205
-0.562256,-0.245361,-0.499268,110.267632,-81.237785,-151.382446
-0.54541,-0.258789,-0.459961,106.513969,-82.359306,-157.402039
-0.514404,-0.262695,-0.46167,102.72216,-69.725037,-162.178024
-0.53125,-0.27002,-0.474365,101.905815,-49.896236,-168.998703
-0.585449,-0.317871,-0.503174,103.576653,-32.699585,-173.583969
-0.667969,-0.399902,-0.529053,103.790276,-23.551939,-172.172531
-0.72876,-0.454834,-0.539307,102.21862,-20.76721,-165.199265
-0.720459,-0.45459,-0.537354,101.325981,-20.027161,-153.831482
-0.668945,-0.414551,-0.526611,101.234428,-21.39282,-142.51709
-0.610352,-0.397217,-0.503418,100.692741,-26.199339,-135.787964
-0.538574,-0.414063,-0.476563,98.861687,-31.959532,-133.529663
-0.494141,-0.435303,-0.461182,96.969597,-34.240723,-132.904053
-0.485107,-0.437012,-0.458008,96.595757,-31.265257,-131.68335
-0.500488,-0.434326,-0.470947,97.869865,-25.260923,-128.692627
-0.536377,-0.466553,-0.498047,98.762505,-21.89636,-124.748222
-0.577881,-0.534668,-0.522217,96.862785,-25.80261,-120.613091
-0.59668,-0.599121,-0.517334,91.117851,-37.765503,-114.479057
-0.596191,-0.63501,-0.492676,82.748405,-53.657528,-105.11779
-0.598877,-0.634521,-0.481445,74.623108,-67.329407,-95.756523
-0.596191,-0.615967,-0.479492,69.320679,-75.698853,-88.150017
-0.58667,-0.602295,-0.474121,66.177368,-79.948425,-80.047607
-0.572266,-0.595947,-0.482178,62.843319,-79.689026,-70.861816
-0.557861,-0.602539,-0.49707,58.860775,-73.196411,-63.026424
-0.524414,-0.632568,-0.519287,54.985043,-59.158321,-58.479305
-0.520264,-0.67749,-0.530029,52.215572,-40.458675,-57.02972
-0.558838,-0.735596,-0.503418,50.712582,-24.284361,-56.02264
-0.560547,-0.771484,-0.470703,47.409054,-13.47351,-52.970882
-0.548584,-0.76123,-0.435791,41.610714,-9.109497,-49.797054
-0.531006,-0.730225,-0.414551,36.529541,-11.093139,-47.935482
-0.500488,-0.704102,-0.422119,33.554077,-15.785216,-46.012875
-0.483643,-0.689941,-0.439453,31.524656,-19.340515,-43.785091
-0.488525,-0.701904,-0.452881,29.815672,-18.989563,-42.190548
-0.500244,-0.744385,-0.464844,29.609678,-12.809752,-41.641232
-0.483398,-0.790771,-0.476074,29.373167,-2.861023,-41.870113
-0.446777,-0.832031,-0.474609,28.07617,6.134033,-42.694088
-0.411133,-0.866943,-0.453369,25.80261,9.849548,-44.372555
-0.375977,-0.888672,-0.416992,23.178099,7.217407,-46.203609
-0.368652,-0.889893,-0.379883,20.317076,-1.312256,-47.58453
-0.383789,-0.867432,-0.357666,18.188477,-13.511657,-47.554012
-0.4021,-0.855469,-0.36377,17.906189,-25.505064,-45.013424
-0.425049,-0.870605,-0.388916,19.569397,-34.011841,-41.053768
-0.458984,-0.922119,-0.435059,22.270201,-37.322998,-38.597107
-0.487305,-0.998047,-0.485352,24.452208,-35.568237,-38.513184
-0.514648,-1.080078,-0.504639,25.039671,-29.815672,-39.772034
-0.540771,-1.155273,-0.503906,24.765013,-21.293638,-41.610714
-0.552734,-1.220215,-0.509521,25.0473,-13.442992,-43.838497
-0.5625,-1.290039,-0.530273,24.902342,-11.123656,-44.876095
-0.5625,-1.35083,-0.542725,21.850584,-15.945434,-43.80798
-0.562256,-1.38501,-0.563721,16.25824,-25.215147,-41.069027
-0.561768,-1.398682,-0.618164,10.597228,-35.308838,-36.964417
-0.553467,-1.401367,-0.683105,6.072998,-42.587276,-32.089233
-0.563477,-1.398926,-0.729736,2.13623,-45.417782,-26.847837
-0.582031,-1.408691,-0.766846,-1.152039,-43.586727,-21.659849
-0.598633,-1.441895,-0.78418,-3.204345,-37.071228,-17.417908
-0.618652,-1.493164,-0.797363,-4.608154,-28.121946,-14.801024
-0.663818,-1.563721,-0.822754,-6.187438,-20.828245,-13.519286
-0.721436,-1.661133,-0.859375,-8.827209,-17.440796,-12.016295
-0.759277,-1.767334,-0.902344,-12.33673,-18.196106,-9.056091
-0.775146,-1.862061,-0.944336,-16.868591,-22.628782,-5.729675
-0.800293,-1.967529,-0.982422,-21.659849,-28.95355,-4.135132
-0.834229,-2.099365,-1.003174,-24.337767,-34.202576,-3.746032
-0.859619,-2.220947,-0.993652,-26.161192,-36.773682,-4.081726
-0.874512,-2.291016,-0.991211,-29.533384,-37.498474,-5.91278
-0.887207,-2.293457,-1.001953,-33.973694,-38.009644,-6.91986
-0.884033,-2.248047,-1.016602,-38.047791,-40.374752,-3.730774
-0.863525,-2.166748,-1.022217,-41.320797,-46.989437,2.792358
-0.859863,-2.07251,-1.026123,-43.991085,-56.549068,9.742737
-0.858887,-1.955566,-1.031738,-45.646664,-62.362667,16.929626
-0.849854,-1.807129,-1.027832,-46.241756,-59.959408,25.207518
-0.825439,-1.656738,-1.018555,-46.913143,-49.446102,33.615112
-0.794434,-1.531982,-1.003662,-48.263546,-32.020569,40.771481
-0.781006,-1.44165,-0.93335,-50.323483,-11.009215,46.623226
-0.762695,-1.369629,-0.847656,-53.108212,10.44464,51.589962
-0.739258,-1.307373,-0.780518,-56.488033,28.968809,55.717464
-0.705078,-1.249756,-0.715088,-60.241695,39.421082,60.18829
-0.651855,-1.194336,-0.662109,-63.987728,38.322449,65.467834
-0.62793,-1.149414,-0.635742,-67.878723,27.534483,70.19043
-0.622803,-1.127197,-0.626709,-71.266174,13.549804,74.058533
-0.629395,-1.115479,-0.634521,-74.317932,2.555847,77.651978
-0.653564,-1.101807,-0.635498,-77.568054,-2.662658,80.093384
-0.730225,-1.097656,-0.642334,-79.971313,-1.869202,80.92498
-0.801025,-1.097656,-0.66626,-81.855766,3.967285,81.352226
-0.833252,-1.080078,-0.663574,-84.266655,11.932372,82.695
-0.844727,-1.035156,-0.652832,-87.432854,18.013,85.403435
-0.817383,-0.989746,-0.666016,-89.218132,20.484922,88.470451
-0.782227,-0.973389,-0.692139,-88.85955,16.532898,91.224663
-0.780029,-0.985107,-0.712158,-88.48571,5.210876,93.490593
-0.831055,-1.011719,-0.72998,-88.691704,-8.766174,97.045891
-0.907471,-1.04126,-0.741943,-88.058464,-19.104004,102.859489
-0.980469,-1.055908,-0.74585,-86.105339,-21.560667,109.573357
-1.06665,-1.061768,-0.736084,-83.564751,-16.448975,115.570061
-1.130127,-1.073486,-0.700439,-80.055237,-6.454467,123.39019
-1.161377,-1.081787,-0.645752,-76.644897,5.935668,132.583618
-1.128174,-1.049072,-0.61377,-72.540283,16.88385,141.563416
-1.045898,-1.003662,-0.591553,-66.017151,20.538328,151.71051
-0.976807,-0.957764,-0.532959,-63.194271,15.197753,161.369308
-0.908936,-0.878906,-0.470215,-64.376831,7.041931,168.174728
-0.842285,-0.794189,-0.404297,-61.882015,0.976562,173.248276
-0.78833,-0.718994,-0.309082,-56.388851,-2.281189,176.757797
-0.742188,-0.632813,-0.2229,-51.414486,-3.555298,178.100571
-0.684082,-0.542236,-0.15918,-45.593258,-4.112244,178.459152
-0.605713,-0.471924,-0.108643,-38.146973,-5.584716,179.534897
-0.522217,-0.398438,-0.055908,-32.63092,-7.537841,179.557785
-0.44043,-0.299072,-0.019043,-28.083799,-7.263183,178.100571
-0.361572,-0.197266,0.024658,-21.957396,-3.860473,176.536545
-0.283203,-0.09668,0.090332,-15.11383,3.257751,175.415024
-0.218506,-0.02002,0.141602,-7.537841,12.390136,174.606308
-0.179688,0.026367,0.191895,-0.175476,18.081665,175.094589
-0.131348,0.05542,0.240479,6.469726,15.556334,179.359421
-0.091064,0.073242,0.262939,12.21466,4.318237,187.408432
-0.070313,0.081543,0.255127,16.708374,-11.322021,196.922287
-0.054932,0.074463,0.238281,21.110533,-26.603697,207.015976
-0.041748,0.05127,0.244873,25.329588,-37.895203,216.354355
-0.036865,0.038818,0.256836,29.823301,-42.716976,222.991928
-0.046631,0.025635,0.250244,35.400391,-40.40527,226.135239
-0.068359,0.003418,0.246826,42.236324,-32.63092,226.852402
-0.09375,-0.034912,0.242188,48.942562,-21.514891,226.325974
-0.103271,-0.078369,0.217285,52.87933,-9.315491,224.678024
-0.108398,-0.116943,0.182129,54.107662,1.63269,222.312912
-0.106689,-0.163818,0.136475,54.069515,10.597228,219.390854
-0.092529,-0.206787,0.096436,50.750729,18.013,215.850815
-0.068115,-0.217041,0.078125,43.479916,23.422239,211.50206
-0.02124,-0.198486,0.089111,34.851074,23.429869,206.314072
0.040283,-0.183105,0.104004,26.092527,14.411925,199.790939
0.062988,-0.184326,0.092529,17.356873,-4.066467,191.650375
0.060791,-0.202393,0.05542,9.658813,-27.290342,181.88475
0.023438,-0.241455,-0.050781,1.815796,-48.858639,172.080978
-0.056885,-0.25708,-0.175049,-8.850098,-63.674923,163.269028
-0.148926,-0.231201,-0.276855,-20.39337,-67.398071,157.173157
-0.216064,-0.205811,-0.343018,-28.686522,-60.615536,154.411316
-0.22583,-0.206299,-0.401611,-33.706665,-49.064632,154.212952
-0.216064,-0.222656,-0.453369,-37.826538,-41.557308,154.23584
-0.212158,-0.246582,-0.4646,-42.808529,-42.747494,154.151917
-0.236572,-0.248779,-0.454102,-47.637936,-46.19598,157.417297
-0.292236,-0.205322,-0.506836,-49.049374,-39.237976,163.734421
-0.37793,-0.10791,-0.621094,-45.486446,-18.295288,169.448837
-0.438232,0.013672,-0.751953,-40.641781,11.756896,173.171982
-0.473633,0.168213,-0.887695,-37.68158,43.663021,173.301682
-0.540527,0.373047,-1.024414,-35.194397,65.52887,160.819992
-0.645264,0.568359,-1.129883,-33.760071,69.160461,130.523682
-0.672607,0.726074,-1.136475,-35.041809,56.503292,90.538017
-0.683838,0.858887,-1.17334,-35.140991,37.330627,56.137081
-0.804932,0.980957,-1.193115,-31.394957,11.932372,23.925779
-0.978027,1.097168,-1.221191,-23.773191,-18.157959,-13.618468
-1.162598,1.141113,-1.252686,-11.871337,-42.510983,-47.477718
-1.343994,1.096191,-1.279053,0.183105,-46.82159,-63.911434
-1.401123,1.066162,-1.267822,13.290404,-23.04077,-61.378475
-1.310303,1.064697,-1.201172,30.273436,16.441345,-57.121273
-1.143311,1.003906,-1.109131,46.19598,45.326229,-64.01825
-1.001953,0.885986,-1.014404,53.550716,47.988888,-74.821472
-0.971191,0.758545,-0.973145,52.833553,30.654905,-79.811096
-0.97168,0.631104,-0.985352,48.889156,12.939452,-81.527702
-0.905029,0.532715,-0.950928,42.91534,8.789063,-88.645927
-0.791016,0.46582,-0.868164,35.629272,16.76178,-101.806633
-0.626953,0.399902,-0.744141,29.243467,30.563353,-114.326469
-0.448975,0.307861,-0.57959,23.460386,39.672852,-123.702995
-0.282471,0.180176,-0.412354,16.899109,35.697937,-131.996155
-0.16626,0.055176,-0.309082,8.666992,19.424438,-140.4953
-0.132568,-0.025635,-0.26123,-2.906799,-2.410889,-149.780273
-0.140625,-0.035889,-0.211914,-15.678405,-20.805357,-156.88324
-0.13208,-0.007324,-0.173584,-23.750303,-30.403135,-160.415649
-0.118164,0.024414,-0.155518,-27.06909,-32.577515,-163.887009
-0.113525,0.038574,-0.136719,-28.976439,-30.143736,-167.793259
-0.11499,0.034912,-0.118652,-30.403135,-24.650572,-170.150742
-0.120361,0.0354,-0.098389,-31.181334,-17.997742,-171.42485
-0.145264,0.043701,-0.093262,-30.128477,-11.863708,-172.05809
-0.162109,0.03418,-0.102783,-28.083799,-7.186889,-169.578537
-0.180664,0.018066,-0.125,-27.481077,-0.762939,-164.710983
-0.220459,0.019531,-0.146973,-26.344297,8.94165,-160.72081
-0.273926,0.025879,-0.163086,-22.590635,21.545408,-157.981873
-0.318115,0.035156,-0.164063,-17.433167,34.057617,-154.579163
-0.344727,0.070557,-0.167236,-11.619567,41.297909,-150.619507
-0.347656,0.130371,-0.189453,-4.592896,38.749695,-147.621155
-0.338135,0.226318,-0.184814,3.746032,26.05438,-145.423889
-0.333496,0.320801,-0.178223,14.007567,7.400512,-144.203186
-0.330566,0.372559,-0.175293,25.825499,-10.383605,-148.101807
-0.387207,0.361084,-0.166504,39.237976,-23.429869,-163.314804
-0.535889,0.252197,-0.141113,52.070614,-33.004761,-191.421494
-0.798584,0.071533,-0.125488,59.646603,-38.55896,-223.495468
-1.273193,-0.136719,-0.183838,63.796993,-33.302307,-248.611435
-1.7229,-0.36792,-0.337891,71.403503,-9.864807,-249.992355
-1.82251,-0.627441,-0.520996,83.892815,27.70233,-249.67955
-1.650635,-0.816406,-0.633789,94.604485,50.575253,-249.923691
-1.42627,-0.900635,-0.673828,102.752678,34.469604,-249.992355
-1.255859,-0.953857,-0.663574,106.147758,-12.4588,-249.992355
-1.157959,-0.949951,-0.642578,100.852959,-60.676571,-241.302475
-1.105469,-0.888672,-0.628906,97.145073,-88.851921,-221.473679
-1.074463,-0.840088,-0.607422,102.592461,-92.430107,-212.554916
-1.036621,-0.805176,-0.571045,111.221306,-77.842712,-209.73204
-1.033203,-0.777588,-0.536377,118.392937,-52.856441,-203.361496
-1.029541,-0.775391,-0.498291,123.695366,-26.245115,-194.023117
-0.98999,-0.797607,-0.470947,127.372734,-4.470825,-185.447678
-0.942627,-0.793701,-0.465576,127.80761,9.803772,-180.549606
-0.895752,-0.764893,-0.453857,125.495903,17.189026,-177.070602
-0.827148,-0.752441,-0.426758,121.635429,20.324705,-171.05864
-0.730225,-0.744141,-0.406006,115.20385,21.423338,-162.86467
-0.641602,-0.738037,-0.396973,107.330315,20.042419,-156.448364
-0.60791,-0.743164,-0.380615,98.808281,16.38031,-151.420593
-0.587158,-0.755371,-0.378906,91.445915,12.809752,-143.028259
-0.553955,-0.758301,-0.381836,85.502617,9.300232,-131.607056
-0.541016,-0.755127,-0.377441,79.605103,3.822326,-122.978203
-0.561523,-0.750244,-0.379639,73.776245,-3.730774,-118.370049
-0.592285,-0.752197,-0.397705,70.220947,-10.833739,-113.6856
-0.610596,-0.771729,-0.424316,67.184448,-15.060424,-108.818047
-0.628174,-0.798828,-0.44751,61.134335,-15.960692,-107.51342
-0.620361,-0.825439,-0.464844,52.955624,-14.190673,-108.711235
-0.602295,-0.807129,-0.47168,43.67065,-8.68988,-109.03167
-0.587646,-0.732666,-0.471191,34.78241,1.045227,-106.910698
-0.556152,-0.657959,-0.449707,28.556822,14.266967,-101.745598
-0.519043,-0.608887,-0.405029,24.993895,28.625486,-95.001213
-0.489746,-0.586914,-0.370361,24.024961,42.907711,-87.944023
-0.458984,-0.597656,-0.334229,25.711058,55.580135,-80.741875
-0.413574,-0.635986,-0.314941,28.778074,64.331055,-73.745728
-0.34668,-0.684326,-0.299072,32.424927,65.597534,-68.992615
-0.299561,-0.717773,-0.266357,35.766602,55.679317,-68.359375
-0.276367,-0.735352,-0.2229,37.841797,34.881592,-70.632935
-0.27832,-0.758789,-0.192383,38.825989,8.392334,-72.967529
-0.318115,-0.802002,-0.179443,40.718075,-17.829895,-74.996948
-0.373291,-0.877441,-0.19751,43.632504,-38.665771,-77.957153
-0.452393,-0.983887,-0.252197,46.157833,-50.827023,-81.222527
-0.529785,-1.103271,-0.314209,47.233578,-54.420467,-83.282463
-0.571045,-1.206787,-0.383301,47.042843,-50.926205,-83.801262
-0.55835,-1.272705,-0.435303,45.249935,-45.677181,-82.077019
-0.504639,-1.285645,-0.458984,40.161129,-45.120235,-76.507568
-0.447754,-1.238037,-0.467529,30.952452,-49.934383,-67.016602
-0.381836,-1.128662,-0.434814,20.51544,-55.976864,-54.069515
-0.333496,-1.013672,-0.373779,13.931273,-58.380123,-37.895203
-0.305908,-0.928223,-0.328125,12.626647,-53.649899,-19.599915
-0.299072,-0.879883,-0.310059,14.533996,-41.969296,-0.068665
-0.319092,-0.878662,-0.316895,16.876221,-26.908873,18.989563
-0.349121,-0.921631,-0.3479,18.463135,-11.131286,35.163879
-0.361328,-0.970947,-0.375977,17.784119,4.180908,47.164913
-0.364502,-0.999268,-0.385254,14.068603,18.432617,54.916378
-0.354004,-1.005371,-0.374023,9.590149,30.914305,59.013363
-0.337158,-1.009277,-0.347412,6.492614,39.283752,60.134884
-0.307617,-1.022217,-0.31958,4.180908,41.16058,59.631344
-0.276611,-1.031494,-0.305176,0.75531,36.53717,58.959957
-0.260498,-1.026611,-0.299072,-2.952575,29.304502,58.227535
-0.260986,-1.019043,-0.299316,-4.882813,23.857115,57.312008
-0.260254,-1.000977,-0.303223,-5.752563,21.720884,56.182858
-0.262695,-0.978027,-0.296387,-7.17163,20.843504,55.091854
-0.273926,-0.948975,-0.281494,-8.789063,19.210815,54.443356
-0.286133,-0.91333,-0.279541,-9.872437,17.555237,53.741451
-0.294434,-0.869629,-0.296387,-10.688781,17.166138,53.077694
-0.293213,-0.834717,-0.328125,-11.344909,18.417358,52.940365
-0.290283,-0.822266,-0.345215,-12.344359,20.88928,52.467342
-0.286865,-0.820801,-0.345703,-13.778686,23.811338,50.819393
-0.273193,-0.805908,-0.333252,-15.419005,26.863096,47.760006
-0.274414,-0.784668,-0.310303,-16.708374,28.411863,43.312069
-0.292236,-0.767822,-0.289063,-17.14325,28.030394,38.925171
-0.314941,-0.746094,-0.273682,-16.967773,26.56555,35.369873
-0.330078,-0.717285,-0.272461,-16.418457,25.016783,32.241821
-0.34082,-0.688965,-0.2854,-15.73944,24.009703,29.762266
-0.342529,-0.67334,-0.285889,-15.823363,23.590086,28.648375
-0.347168,-0.669678,-0.285156,-16.38031,23.620604,28.762815
-0.350098,-0.67334,-0.279541,-16.50238,24.078367,28.778074
-0.348633,-0.676758,-0.272461,-16.288757,24.444578,27.976988
-0.356934,-0.688477,-0.259033,-15.899657,23.811338,26.588438
-0.384766,-0.708252,-0.253418,-15.937804,22.14813,24.604795
-0.401855,-0.724609,-0.260986,-15.48767,20.355223,22.933958
-0.406494,-0.735107,-0.272705,-14.900207,18.104553,21.835325
-0.415771,-0.738525,-0.286865,-15.205382,14.579772,20.957945
-0.411133,-0.747559,-0.311768,-16.448975,11.154174,20.599363
-0.412109,-0.760254,-0.324951,-19.317627,8.911133,21.095274
-0.431396,-0.759766,-0.319092,-23.597715,8.026123,21.163939
-0.45752,-0.752441,-0.308594,-27.084349,8.880615,20.713804
-0.478271,-0.761719,-0.302979,-28.770445,11.032104,20.332335
-0.491455,-0.784912,-0.302002,-30.075071,13.160705,19.897461
-0.510254,-0.804688,-0.312012,-31.028746,13.09204,18.325806
-0.531982,-0.825195,-0.328125,-30.731199,10.559081,15.647887
-0.561035,-0.85376,-0.351807,-29.853819,6.774902,12.96997
-0.589355,-0.895264,-0.38916,-28.96118,2.876281,10.70404
-0.61792,-0.945801,-0.42749,-28.785704,-0.75531,8.666992
-0.647217,-1.000977,-0.470215,-29.953001,-4.03595,6.881713
-0.666992,-1.032227,-0.493652,-32.020569,-6.080627,6.019592
-0.69165,-1.042725,-0.512207,-33.805847,-7.118225,6.530761
-0.700439,-1.04541,-0.533936,-34.873962,-7.972717,8.659363
-0.69873,-1.045654,-0.544434,-36.018372,-9.819031,11.627196
-0.705811,-1.054932,-0.565186,-36.811829,-12.794494,14.060973
-0.729004,-1.068359,-0.597168,-36.04126,-14.831542,16.235352
-0.747803,-1.092285,-0.657227,-34.461975,-14.076232,18.920898
-0.771484,-1.120605,-0.733887,-33.615112,-10.833739,22.216795
-0.805908,-1.17041,-0.80542,-33.866882,-6.767272,25.978086
-0.83374,-1.247559,-0.874023,-35.087585,-2.365112,30.540464
-0.855957,-1.338623,-0.919189,-37.940979,2.380371,35.629272
-0.891602,-1.422363,-0.928223,-42.076107,8.171082,39.642334
-0.946777,-1.495605,-0.94165,-45.677181,16.136169,41.671749
-0.993408,-1.581055,-0.944824,-46.730038,25.970457,42.762753
-1.021973,-1.669434,-0.929443,-47.027584,35.263062,42.892452
-1.033203,-1.751709,-0.911377,-48.324581,41.275021,40.946957
-1.012695,-1.814209,-0.86499,-50.872799,41.015621,38.314819
-0.949463,-1.840088,-0.811279,-53.680416,31.10504,36.254883
-0.893311,-1.805176,-0.774658,-56.709286,9.971619,33.927917
-0.866943,-1.710938,-0.760986,-59.089657,-19.165039,31.700132
-0.863037,-1.595703,-0.770996,-59.196468,-48.202511,31.692503
-0.881104,-1.51709,-0.77832,-56.236263,-68.260193,34.431458
-0.924805,-1.482666,-0.778564,-52.37579,-72.921753,36.849976
-0.98877,-1.473389,-0.751953,-47.424313,-61.44714,36.949158
-1.002686,-1.452393,-0.701172,-42.152401,-39.260864,36.270142
-0.960449,-1.387207,-0.645508,-39.360046,-16.990662,35.926819
-0.878906,-1.300781,-0.587158,-38.879395,-3.39508,35.942078
-0.811279,-1.216553,-0.543457,-38.047791,-0.747681,36.224365
-0.748047,-1.141602,-0.564209,-35.095215,-5.805969,36.712646
-0.706543,-1.089111,-0.59668,-29.731749,-14.60266,37.384033
-0.716797,-1.069336,-0.637939,-24.848936,-24.681089,37.788391
-0.736816,-1.0625,-0.686035,-22.918699,-31.913755,38.040161
-0.752686,-1.045654,-0.716553,-23.338316,-34.515381,39.0625
-0.773438,-1.022949,-0.741699,-25.329588,-33.470154,40.168758
-0.801514,-0.99292,-0.76001,-28.984068,-30.242918,40.695187
-0.835449,-0.950928,-0.776611,-33.180237,-25.672911,41.40472
-0.884766,-0.910889,-0.79248,-36.476135,-17.807007,42.449947
-0.923584,-0.880127,-0.814941,-38.398743,-5.989074,44.502254
-0.953857,-0.872803,-0.82666,-39.672852,7.011413,48.049923
-0.956543,-0.885498,-0.840088,-40.512081,17.654419,51.902767
-0.952637,-0.911621,-0.832275,-40.611263,21.034239,55.244442
-0.998535,-0.939209,-0.799072,-41.65649,15.3656,57.891842
-1.085938,-0.988281,-0.788574,-41.778561,5.622863,61.515804
-1.17749,-1.085938,-0.803223,-39.726257,-2.14386,68.054199
-1.27417,-1.207031,-0.825928,-38.864136,-6.103515,75.767517
-1.348633,-1.288574,-0.820801,-41.824337,-6.111145,83.69445
-1.372559,-1.266846,-0.779297,-47.485348,-0.297546,93.27697
-1.359131,-1.147217,-0.726563,-52.200314,11.741637,105.857841
-1.310303,-1.001709,-0.625732,-56.442257,27.969358,117.729179
-1.212402,-0.883789,-0.513428,-58.891293,46.813961,126.274101
-1.09082,-0.809814,-0.395996,-57.014462,63.125607,131.546021
-0.977539,-0.758057,-0.286377,-52.803036,68.885803,132.972717
-0.886475,-0.711426,-0.20459,-50.140377,57.78503,131.034851
-0.797852,-0.656738,-0.131104,-50.315853,28.83148,129.241943
-0.709961,-0.561768,-0.067871,-51.87225,-10.19287,129.486084
-0.693604,-0.44043,-0.047852,-52.406307,-45.585629,129.02832
-0.695557,-0.320557,-0.070557,-49.766537,-65.864563,129.112244
-0.674072,-0.195557,-0.105225,-45.356747,-66.642761,130.508423
-0.59668,-0.059326,-0.113281,-39.596558,-51.74255,132.919312
-0.483643,0.07251,-0.088867,-32.218933,-29.067991,136.329651
-0.377686,0.172363,-0.053711,-23.559568,-5.645751,140.190125
-0.264648,0.2229,-0.033203,-14.86206,13.061522,144.462585
-0.163574,0.245605,-0.012695,-9.063721,24.55139,149.246216
-0.089355,0.265869,0.009277,-5.867004,29.33502,154.914856
-0.044678,0.273438,0.020752,-2.525329,28.427122,161.270126
-0.001465,0.25415,0.040527,-0.396728,22.674559,168.472275
0.055664,0.225586,0.064453,0.045776,12.268065,177.780136
0.102295,0.202393,0.099609,0.816345,-3.089905,188.766464
0.111816,0.187256,0.126221,2.26593,-19.752502,198.417648
0.108154,0.158203,0.107178,4.936218,-31.890867,206.863388
0.107178,0.125244,0.063721,6.980896,-36.079407,214.790329
0.111572,0.091553,0.005127,7.629394,-33.073425,221.130356
0.121582,0.062256,-0.057373,8.026123,-24.04022,224.708542
0.147949,0.020508,-0.10083,9.292603,-12.817382,226.928696
0.185791,-0.014404,-0.108398,8.987427,-3.601074,227.287277
0.23291,-0.026611,-0.091797,7.202148,-0.137329,225.158676
0.266113,-0.029297,-0.05835,6.286621,-3.379822,221.664413
0.27124,-0.050537,-0.022949,5.004883,-11.169433,218.17778
0.239502,-0.065674,-0.015381,1.968384,-18.920898,213.882431
0.157959,-0.068848,-0.04248,-1.144409,-22.018431,208.404526
0.092285,-0.081055,-0.083496,-5.012512,-14.72473,203.079208
0.06958,-0.071533,-0.132813,-9.58252,4.493713,196.975693
0.094971,-0.081299,-0.179443,-10.292052,27.664183,188.613876
0.106934,-0.124756,-0.196533,-11.932372,47.470089,176.429733
0.133057,-0.193848,-0.219971,-20.057678,61.866756,162.094101
0.19458,-0.275146,-0.267578,-31.753538,73.188782,147.041321
0.083008,-0.216309,-0.285645,-31.333921,71.632385,132.377625
0.144775,-0.27832,-0.390625,-36.178589,56.900021,127.777092
0.051758,-0.221191,-0.495605,-59.089657,41.877743,109.458916
-0.297119,-0.174805,-0.53833,-68.260193,36.758423,99.060051
-0.496338,-0.12207,-0.57959,-68.237305,50.247189,100.250237
-0.587891,0.11499,-0.684326,-66.841125,70.365906,98.045341
-0.715332,0.397461,-0.747314,-58.349606,80.451958,85.678093
-0.888916,0.623047,-0.81958,-53.390499,79.704285,55.480953
-1.059814,0.725342,-0.917969,-52.177425,74.745178,17.089844
-1.169434,0.721924,-0.984863,-49.369808,67.237854,-11.32965
-1.188721,0.766602,-1.036621,-46.874996,52.154537,-27.465818
-1.21582,0.89502,-1.075684,-45.181271,30.494688,-40.763851
-1.282471,1.016357,-1.134521,-39.535522,17.425537,-53.688046
-1.292725,1.056396,-1.185303,-27.648924,20.851133,-61.553951
-1.257568,1.01416,-1.226563,-15.129088,31.379698,-64.51416
-1.175537,0.933838,-1.219971,-6.347656,38.299561,-66.596985
-1.037109,0.844971,-1.164551,-1.602173,37.330627,-67.573547
-0.882568,0.779541,-1.070068,1.38855,26.763914,-67.680359
-0.754639,0.75,-0.953857,3.112793,8.201599,-70.785522
-0.661133,0.738037,-0.839844,4.623413,-13.420104,-79.544067
-0.606689,0.712158,-0.716064,7.690429,-32.653809,-91.018669
-0.560059,0.66626,-0.597656,12.748717,-47.241207,-102.760307
-0.522461,0.589844,-0.504639,17.50946,-60.081478,-114.402763
-0.5,0.489014,-0.44165,19.073486,-73.898315,-125.328056
-0.485107,0.400879,-0.412842,17.936707,-86.204521,-133.972168
-0.483643,0.33374,-0.422119,16.944885,-91.773979,-141.075134
-0.497314,0.291992,-0.4375,16.098022,-87.7304,-147.506714
-0.483887,0.286377,-0.434326,15.602111,-75.218201,-151.306152
-0.441895,0.294678,-0.414551,17.478943,-58.647152,-152.183533
-0.398682,0.291016,-0.386475,20.431517,-43.182369,-153.404236
-0.398438,0.274414,-0.370361,22.209166,-31.631468,-156.524658
-0.515381,0.234131,-0.361816,22.056578,-24.314878,-160.942062
-0.650391,0.178711,-0.324951,20.507811,-17.364502,-161.399826
-0.677246,0.147461,-0.313721,20.500181,-4.974365,-155.593872
-0.672119,0.13623,-0.314453,23.048399,11.779784,-151.359558
-0.646484,0.12793,-0.325195,25.886534,26.237486,-152.946472
-0.609619,0.123779,-0.36084,29.762266,30.143736,-154.457092
-0.621338,0.081055,-0.35376,35.140991,15.579223,-151.20697
-0.71167,-0.003174,-0.337646,36.277771,-14.129638,-142.883301
-0.900391,-0.05249,-0.342041,31.715391,-45.608517,-132.56073
-1.099365,-0.0625,-0.348145,26.763914,-65.032959,-121.788017
-1.232178,-0.04834,-0.364014,24.871824,-64.529419,-108.879082
-1.336426,-0.016602,-0.395508,24.932859,-47.409054,-97.412102
-1.384766,0.014893,-0.425293,26.824949,-21.606443,-90.011589
-1.364014,0.026855,-0.436279,29.846189,2.288818,-83.534233
-1.316895,0.025146,-0.438232,31.211851,15.151977,-78.025818
-1.252441,0.033203,-0.43457,30.380247,15.708922,-75.798035
-1.203125,0.042969,-0.42749,29.228209,6.340026,-76.438904
-1.181885,0.043945,-0.41333,28.724669,-9.719849,-78.514099
-1.174072,0.031738,-0.404785,28.724669,-27.389524,-80.238342
-1.19043,0.016357,-0.398438,29.747007,-42.846676,-80.512993
-1.231934,0.007568,-0.397461,31.799314,-55.305477,-80.627434
-1.265869,-0.006348,-0.39209,34.591675,-63.652035,-80.749504
-1.275879,-0.024902,-0.380859,37.80365,-66.474915,-79.223633
-1.254639,-0.033691,-0.375488,40.64941,-64.987183,-78.422546
-1.234863,-0.022705,-0.381592,43.228146,-61.180111,-80.032349
-1.223145,-0.022705,-0.404541,45.852657,-57.15942,-81.871025
-1.192383,-0.04126,-0.415527,47.828671,-52.207943,-81.260674
-1.167725,-0.04248,-0.407715,47.912594,-45.745846,-81.115715
-1.187988,-0.042969,-0.387207,47.790524,-36.659241,-83.297722
-1.168457,-0.03833,-0.365967,50.270077,-22.621153,-83.229057
-1.112061,-0.01416,-0.330566,55.740353,-7.942199,-79.650879
-1.021973,0.033936,-0.286865,62.591549,2.6474,-76.339722
-0.945801,0.089111,-0.270264,71.807861,7.492065,-73.921204
-0.892578,0.099854,-0.262451,84.823601,4.737854,-69.946289
-0.839844,0.061279,-0.262939,97.030632,-3.913879,-62.347408
-0.829102,0.014404,-0.302979,104.11071,-11.672973,-55.412289
-0.891113,-0.0354,-0.358643,108.581535,-10.688781,-51.406857
-0.996582,-0.106445,-0.423096,112.625114,3.700256,-46.516415
-1.075439,-0.193604,-0.47168,114.486687,29.922483,-37.773132
-1.102539,-0.257568,-0.479248,113.029472,60.974117,-27.740477
-1.107178,-0.291748,-0.465088,108.535759,89.485161,-20.973204
-1.07666,-0.314209,-0.439697,101.478569,111.358635,-17.082214
-1.019043,-0.33667,-0.409424,94.047539,124.389641,-12.649535
-0.946533,-0.378418,-0.393555,87.425224,127.685539,-8.81958
-0.861816,-0.412354,-0.375732,80.589287,123.146049,-8.110046
-0.786621,-0.432373,-0.371094,73.455811,114.471428,-10.31494
-0.754395,-0.453369,-0.391113,67.802429,103.935234,-14.167785
-0.744873,-0.48584,-0.398682,63.766476,90.911858,-18.890381
-0.73291,-0.528564,-0.394043,60.111996,75.164795,-23.742674
-0.7229,-0.572754,-0.406982,55.641171,57.594296,-28.945921
-0.714111,-0.610596,-0.423828,49.766537,39.871216,-35.850525
-0.700439,-0.634277,-0.441162,42.739864,22.315977,-43.510433
-0.678955,-0.644775,-0.455566,35.720825,4.722595,-50.743099
-0.659424,-0.644043,-0.466797,29.098509,-11.604308,-57.075497
-0.638916,-0.644043,-0.482178,22.972105,-24.902342,-62.637325
-0.614258,-0.636963,-0.491455,17.028809,-34.095764,-66.894531
-0.581543,-0.616699,-0.475098,11.695861,-39.634705,-69.656372
-0.530762,-0.588867,-0.476563,6.591796,-40.222164,-71.311951
-0.498291,-0.546875,-0.471436,2.037048,-34.858704,-71.174622
-0.482422,-0.50293,-0.448242,-0.289917,-25.901793,-68.885803
-0.481689,-0.484375,-0.428223,0.62561,-14.968871,-64.834595
-0.493652,-0.485596,-0.393555,4.013062,-5.41687,-60.798641
-0.487305,-0.509277,-0.343506,9.69696,-0.572205,-59.013363
-0.467529,-0.538818,-0.288574,16.983032,-1.556396,-61.347958
-0.453125,-0.567627,-0.256592,24.749754,-7.659912,-67.169189
-0.460449,-0.590576,-0.254883,31.875608,-17.196655,-74.249268
-0.487061,-0.599365,-0.270996,37.384033,-27.458189,-80.207825
-0.543457,-0.586914,-0.296631,41.488644,-36.392212,-83.32061
-0.601563,-0.563721,-0.318115,45.387264,-42.984005,-83.732597
-0.63623,-0.544922,-0.336426,49.957272,-47.386166,-81.344597
-0.657715,-0.555176,-0.346191,54.870602,-50.689693,-78.208923
-0.667725,-0.592041,-0.339355,58.708187,-52.192684,-76.705933
-0.632324,-0.628418,-0.342773,60.615536,-48.46191,-76.11084
-0.593506,-0.643311,-0.362305,60.798641,-36.506653,-74.775696
-0.573486,-0.64209,-0.381836,61.660763,-19.66095,-71.670532
-0.515625,-0.630127,-0.395264,63.880917,-3.494262,-65.673828
-0.473145,-0.625977,-0.413818,63.552853,8.18634,-58.212276
-0.472656,-0.617676,-0.430664,59.257504,14.831542,-50.796505
-0.481934,-0.598145,-0.440674,54.351803,19.226074,-43.243404
-0.485352,-0.586914,-0.445801,51.353451,24.383543,-35.644531
-0.471924,-0.587158,-0.449219,48.728939,30.517576,-30.46417
-0.43457,-0.57666,-0.434814,46.127316,34.240723,-29.136656
-0.381836,-0.562256,-0.39502,44.273373,31.898497,-29.945372
-0.341797,-0.561279,-0.362549,41.702267,23.529051,-30.72357
-0.308838,-0.546631,-0.354736,36.735535,12.001037,-31.059263
-0.291992,-0.526367,-0.371338,31.417845,-0.801086,-30.899046
-0.305176,-0.51709,-0.40332,26.901243,-11.276244,-30.487059
-0.33667,-0.513428,-0.441895,22.987364,-15.602111,-28.686522
-0.360107,-0.524902,-0.480469,20.111082,-13.229369,-24.703978
-0.37207,-0.546143,-0.493652,18.39447,-7.164001,-20.706175
-0.367676,-0.564697,-0.499512,17.608643,-1.014709,-19.264221
-0.331055,-0.574951,-0.49707,17.120361,1.350403,-20.309446
-0.269287,-0.559326,-0.461914,16.159058,-3.913879,-22.949217
-0.195557,-0.523926,-0.417969,14.373778,-18.52417,-28.259275
-0.149658,-0.487061,-0.375732,11.589049,-41.107174,-36.941528
-0.169678,-0.461914,-0.375,7.827758,-64.689636,-46.82922
-0.219971,-0.447266,-0.439453,5.104064,-79.284668,-53.863522
-0.276123,-0.426514,-0.500977,3.15094,-78.712463,-59.082027
-0.330566,-0.412109,-0.527832,1.76239,-64.651489,-65.200806
-0.373535,-0.435791,-0.540527,3.15094,-43.113705,-71.907043
-0.387939,-0.50415,-0.526123,5.805969,-20.172117,-78.094482
-0.37793,-0.594238,-0.484619,6.721496,-1.998901,-85.083
-0.354004,-0.686768,-0.416992,6.065368,8.384705,-94.421379
-0.334717,-0.764404,-0.36084,4.333496,13.557433,-105.361931
-0.357178,-0.825195,-0.343506,3.059387,15.563964,-116.416924
-0.38623,-0.902588,-0.34082,2.540588,12.115478,-125.045769
-0.397461,-0.988281,-0.337891,0.389099,1.525879,-129.219055
-0.43042,-1.066406,-0.321777,-4.341125,-15.037536,-130.317688
-0.471436,-1.118896,-0.313232,-10.307311,-33.042908,-130.561829
-0.498291,-1.150391,-0.319824,-16.265869,-47.798153,-129.623413
-0.516602,-1.167725,-0.306885,-21.759031,-56.983944,-126.495354
-0.542725,-1.171387,-0.287842,-26.245115,-60.8139,-121.215813
-0.556641,-1.174805,-0.264648,-30.403135,-59.791561,-114.150993
-0.507813,-1.165283,-0.20459,-34.78241,-54.466244,-105.957024
-0.429199,-1.134277,-0.164307,-38.589478,-45.0592,-98.167412
-0.399902,-1.116455,-0.148193,-41.763302,-35.552979,-92.01812
-0.429199,-1.112793,-0.142578,-44.441219,-28.564451,-84.19799
-0.461182,-1.124756,-0.128662,-46.089169,-24.29199,-71.456909
-0.473389,-1.130371,-0.101563,-46.874996,-23.200987,-56.419369
-0.459473,-1.126953,-0.07959,-47.33276,-26.901243,-44.342037
-0.423096,-1.121826,-0.074951,-47.424313,-35.957336,-35.041809
-0.38623,-1.107666,-0.071777,-47.065731,-49.247738,-25.321959
-0.372314,-1.094971,-0.074951,-45.936581,-63.934322,-14.511107
-0.3396,-1.101563,-0.075684,-44.532772,-75.927734,-3.837585
-0.339844,-1.115723,-0.094971,-43.258663,-81.817619,4.844666
-0.408447,-1.131592,-0.127197,-41.687008,-81.93969,11.337279
-0.466797,-1.128174,-0.158936,-39.031982,-76.210022,18.539429
-0.478027,-1.095215,-0.180664,-35.690308,-66.551208,26.954649
-0.473145,-1.045898,-0.197998,-32.295227,-56.495663,33.935547
-0.452393,-1.006592,-0.223145,-28.259275,-49.018856,39.0625
-0.423096,-1.010254,-0.241943,-23.010252,-45.455929,44.891354
-0.411621,-1.057861,-0.249023,-17.814636,-45.700069,52.474972
-0.400635,-1.115234,-0.253418,-14.35089,-45.837399,58.937069
-0.395752,-1.172119,-0.291016,-11.497497,-41.130062,61.973568
-0.444336,-1.233154,-0.337891,-9.277344,-32.402039,62.530514
-0.50708,-1.285156,-0.375488,-8.666992,-21.362303,63.385006
-0.559814,-1.32251,-0.416504,-9.025574,-8.506775,65.811157
-0.586182,-1.359131,-0.449463,-9.284973,4.463196,68.481445
-0.602783,-1.409668,-0.458252,-9.147644,15.724181,69.046021
-0.608154,-1.48584,-0.476074,-6.515502,24.223326,66.741943
-0.60083,-1.592041,-0.537598,-0.595093,28.633116,62.026974
-0.558594,-1.723145,-0.618164,4.692078,28.434752,55.816647
-0.510742,-1.856689,-0.718262,6.965637,21.514891,48.767086
-0.542969,-1.974121,-0.809082,5.386352,9.117126,41.549679
-0.652832,-2.063477,-0.863525,-0.968933,-1.899719,34.77478
-0.777832,-2.115967,-0.86084,-7.530212,-5.805969,29.792784
-0.837158,-2.148438,-0.810303,-9.544373,-1.213074,26.100157
-0.837646,-2.187744,-0.757568,-5.393981,6.439209,23.147581
-0.830566,-2.23877,-0.730957,2.655029,14.671325,18.669128
-0.787598,-2.237061,-0.770508,7.499694,18.669128,10.650634
-0.708984,-2.126221,-0.858887,4.730225,10.368346,1.937866
-0.652588,-1.970215,-0.954346,-0.88501,-11.291503,-2.784729
-0.677734,-1.84668,-1.000732,-6.530761,-34.53064,-2.685547
-0.77002,-1.750244,-0.984131,-14.030456,-44.692989,-0.350952
-0.841064,-1.640381,-0.918945,-21.812437,-34.77478,2.586365
-0.833008,-1.531982,-0.846191,-26.496885,-11.70349,6.774902
-0.792725,-1.433105,-0.783203,-29.396055,11.985778,11.32965
-0.761719,-1.361328,-0.731689,-32.394409,29.060362,16.899109
-0.73584,-1.315918,-0.709961,-37.101746,36.956787,24.497984
-0.684082,-1.279053,-0.706543,-43.449398,33.615112,34.049988
-0.618408,-1.241699,-0.71875,-50.712582,19.020081,43.724056
-0.612061,-1.199951,-0.716553,-59.242245,-4.394531,50.666805
-0.627441,-1.15332,-0.702881,-68.733215,-29.914854,55.290218
-0.709961,-1.103516,-0.720947,-76.713562,-50.521847,60.775753
-0.808594,-1.090088,-0.757568,-80.368034,-60.852047,67.810059
-0.899658,-1.135498,-0.793945,-81.367485,-57.067867,74.790955
-0.985596,-1.183594,-0.824951,-82.672112,-40.550228,79.75769
-1.025146,-1.171631,-0.820313,-86.189262,-14.839171,82.900993
-1.053223,-1.108643,-0.812012,-89.790337,13.229369,86.21978
-1.066162,-1.068359,-0.845703,-91.308586,37.033081,91.484062
-1.092285,-1.088623,-0.867432,-92.658989,53.749081,98.632805
-1.178467,-1.151123,-0.881592,-95.878593,64.170837,105.178825
-1.276611,-1.217773,-0.91333,-99.891655,73.562622,111.061089
-1.339111,-1.258301,-0.919189,-105.62896,86.34948,119.216911
-1.343262,-1.248779,-0.869629,-112.30468,100.814812,130.172729
-1.262207,-1.184814,-0.755615,-117.416374,111.579887,140.151978
-1.181641,-1.083984,-0.611084,-120.887749,113.212578,144.973755
-1.121826,-0.979004,-0.48584,-124.374382,104.804985,147.033691
-1.053955,-0.880127,-0.404785,-125.389091,89.50042,151.802063
-0.963623,-0.811523,-0.345947,-122.497551,70.022583,159.088135
-0.937256,-0.755615,-0.32666,-121.74987,53.031918,164.62706
-0.891846,-0.678467,-0.340576,-125.297539,46.424862,168.670639
-0.781494,-0.558594,-0.327148,-130.134583,52.436825,170.570358
-0.64624,-0.436035,-0.245605,-132.713318,61.241146,170.310959
-0.522461,-0.334717,-0.11792,-134.353638,64.613342,168.823227
-0.420654,-0.243652,0.03125,-136.21521,59.906002,167.076096
-0.321777,-0.17334,0.169189,-136.59668,45.745846,165.687546
-0.23877,-0.102051,0.280273,-135.734558,24.208067,165.0009
-0.180176,-0.033936,0.35083,-132.614136,0.030518,165.397629
-0.150391,0.016113,0.368408,-125.816338,-21.789549,167.449936
-0.161621,0.043945,0.353516,-115.669243,-34.828186,172.027573
-0.167236,0.049072,0.33374,-104.324333,-35.163879,179.664597
-0.154053,0.049561,0.315186,-94.612114,-23.727415,186.996445
-0.114258,0.04541,0.297607,-85.548393,-5.699157,192.581161
-0.061523,0.019287,0.314697,-76.263428,12.489318,197.936996
-0.016846,-0.012207,0.342041,-69.328308,27.214048,203.552231
0.043213,-0.040771,0.372803,-64.758301,35.667419,208.747849
0.104248,-0.056152,0.40332,-60.592648,37.597656,211.62413
0.137207,-0.053711,0.443604,-56.190487,33.828735,211.296066
0.150879,-0.050049,0.450684,-52.474972,26.672361,207.565292
0.158447,-0.035645,0.438477,-48.225399,16.326904,202.743515
0.161621,-0.045898,0.416504,-41.923519,0.549316,198.8983
0.154785,-0.079834,0.382568,-35.888672,-18.554688,194.892868
0.133789,-0.107178,0.331055,-32.073975,-36.811829,189.384445
0.107178,-0.115723,0.264404,-30.731199,-51.704403,182.037338
0.084717,-0.105469,0.199707,-30.075071,-62.568661,174.942001
0.053711,-0.097168,0.165039,-29.46472,-68.580627,168.685898
0.026611,-0.094727,0.154297,-29.380796,-69.747925,162.384018
-0.005615,-0.113525,0.11499,-29.83856,-67.230225,154.792786
-0.016846,-0.146484,0.037354,-31.211851,-63.156124,146.79718
0.016113,-0.160889,-0.029785,-33.363342,-58.609005,140.472412
0.071533,-0.140137,-0.100342,-35.903931,-55.7785,134.689331
0.113037,-0.109375,-0.162354,-38.978577,-56.610104,127.67028
0.103027,-0.101074,-0.205322,-42.854305,-60.066219,121.864311
0.036133,-0.105713,-0.245605,-47.935482,-60.56213,119.117729
-0.028076,-0.086914,-0.30835,-52.024837,-52.917477,118.278496
-0.107178,-0.065918,-0.401855,-52.009579,-39.1922,119.087212
-0.189453,-0.058105,-0.532959,-51.681515,-21.881102,120.971672
-0.1604,0.039307,-0.658691,-50.315853,-3.349304,124.351494
-0.108398,0.249268,-0.750244,-42.92297,7.835388,125.305168
-0.181885,0.520752,-0.920166,-29.914854,5.401611,112.762444
-0.351074,0.749023,-1.109375,-17.692566,-9.429932,83.969109
-0.553955,0.885742,-1.23291,-14.846801,-24.467466,50.315853
-0.762451,1.017822,-1.308105,-15.457152,-27.6947,22.14813
-0.915039,1.122559,-1.378174,-9.399414,-18.424988,-3.089905
-0.989746,1.162598,-1.44165,-1.312256,-5.28717,-32.478333
-0.993652,1.189941,-1.505615,4.432678,0.37384,-59.242245
-0.977051,1.162598,-1.57959,12.390136,-1.739502,-66.497803
-0.960693,1.08252,-1.644043,18.318176,-3.173828,-58.197018
-0.927979,1.092529,-1.632568,23.53668,-7.476806,-50.201412
-0.911621,1.079102,-1.551025,30.59387,-14.72473,-43.93005
-0.962891,1.035156,-1.381592,27.999876,-22.300718,-41.191097
-0.994873,0.99707,-1.186768,22.880552,-22.644041,-34.950256
-0.983643,0.919434,-1.015869,25.733946,-15.419005,-26.779173
-0.936523,0.818359,-0.856201,27.748106,-11.07788,-27.160643
-0.869385,0.735107,-0.776123,24.391172,-12.542724,-31.326292
-0.833496,0.683594,-0.753174,19.020081,-12.016295,-33.187866
-0.781982,0.635742,-0.702881,16.571045,-3.456115,-31.814573
-0.705566,0.544434,-0.621826,16.525269,11.856078,-27.404783
-0.620361,0.457764,-0.55957,14.61029,27.641294,-24.452208
-0.520508,0.398193,-0.501709,12.222289,38.024902,-23.29254
-0.422852,0.342529,-0.439209,9.536743,39.421082,-21.881102
-0.345215,0.302734,-0.404785,5.043029,31.120298,-20.683287
-0.309814,0.270752,-0.402344,0.312805,16.731262,-19.714355
-0.313477,0.24707,-0.413818,-3.608703,2.326965,-18.218994
-0.329102,0.231689,-0.436279,-6.507873,-7.820129,-16.159058
-0.32666,0.206543,-0.448975,-8.987427,-13.122558,-14.839171
-0.289551,0.181396,-0.45166,-11.817931,-14.961242,-14.541625
-0.30127,0.16748,-0.445557,-14.701842,-15.624999,-15.876769
-0.333252,0.170654,-0.428711,-16.88385,-13.97705,-17.64679
-0.34082,0.20459,-0.400391,-17.440796,-10.0708,-18.569946
-0.340576,0.282715,-0.367676,-16.555786,-8.453369,-22.743223
-0.357666,0.386719,-0.365479,-14.640807,-12.817382,-36.178589
-0.416016,0.462158,-0.388184,-12.115478,-23.262022,-58.906551
-0.509277,0.45874,-0.397949,-9.620667,-36.407471,-84.44976
-0.623047,0.413086,-0.391602,-8.132935,-47.500607,-106.704704
-0.719482,0.381836,-0.388672,-7.034301,-54.618832,-125.343315
-0.792969,0.376465,-0.380371,-4.341125,-61.683651,-142.601013
-0.841797,0.372559,-0.366943,-1.037598,-69.778442,-156.929016
-0.864502,0.380127,-0.378418,2.01416,-72.45636,-165.466293
-0.900635,0.420898,-0.408447,6.439209,-63.796993,-171.600327
-0.970215,0.441162,-0.455078,13.59558,-44.464108,-180.091843
-0.995117,0.44043,-0.516602,23.330687,-19.882202,-185.485825
-0.929199,0.447021,-0.587402,35.301208,-0.686645,-183.517441
-0.834717,0.444092,-0.638184,46.005245,3.097534,-178.504929
-0.823486,0.418457,-0.666748,50.468441,-9.178162,-174.652084
-0.877441,0.401367,-0.673828,49.911495,-25.154112,-170.80687
-0.931885,0.4104,-0.655273,50.956722,-31.753538,-164.543137
-0.961182,0.40918,-0.623779,55.435177,-26.863096,-156.768799
-0.984863,0.394775,-0.574463,59.616085,-13.687133,-150.268555
-1.000244,0.364258,-0.541016,63.301083,6.385803,-144.104004
-1.025635,0.328125,-0.543213,67.245483,27.153013,-136.962891
-0.994141,0.310059,-0.550781,70.373535,40.351864,-127.578728
-0.920898,0.297607,-0.541504,72.113037,40.603634,-116.729729
-0.894043,0.274902,-0.526123,71.281433,28.594969,-107.589714
-0.906738,0.262939,-0.509521,67.7948,11.909484,-101.547234
-0.909424,0.258057,-0.508545,64.750671,-1.480102,-96.893303
-0.930176,0.242676,-0.514893,63.606258,-9.292603,-93.765251
-0.989746,0.206787,-0.530518,61.386105,-8.308411,-92.346184
-1.098145,0.161865,-0.550293,58.097836,6.04248,-91.140739
-1.130859,0.118896,-0.561768,56.640621,31.044004,-87.364189
-1.076416,0.086426,-0.572998,57.388302,56.365963,-81.985466
-1.011719,0.055908,-0.583008,56.144711,70.167542,-79.948425
-0.942383,0.018311,-0.58374,52.131649,70.869446,-79.307556
-0.875,-0.014404,-0.582275,47.508236,62.19482,-77.430725
-0.812256,-0.031982,-0.583008,44.097897,46.997066,-77.529907
-0.751709,-0.047363,-0.577393,41.442867,26.56555,-79.956055
-0.732666,-0.066895,-0.571777,38.43689,4.02832,-81.665031
-0.739014,-0.09375,-0.562744,34.690857,-13.015746,-81.848137
-0.747559,-0.101074,-0.569336,32.38678,-20.1416,-81.314079
-0.783447,-0.082275,-0.593994,34.805298,-22.789,-81.161491
-0.822998,-0.087646,-0.614746,40.542599,-30.326841,-81.260674
-0.890625,-0.131836,-0.624756,45.448299,-47.973629,-79.818726
-0.998779,-0.198975,-0.618896,46.226498,-73.867798,-75.98114
-1.119385,-0.273926,-0.597656,42.503353,-99.32708,-70.251465
-1.330322,-0.338379,-0.603516,35.934448,-112.411491,-64.224243
-1.524902,-0.375977,-0.641602,29.632566,-101.21917,-57.189938
-1.562012,-0.362793,-0.690186,28.556822,-65.338135,-44.898983
-1.443604,-0.330322,-0.722168,32.943726,-23.048399,-27.6947
-1.250977,-0.306396,-0.717773,36.628723,6.965637,-10.887145
-1.072266,-0.272705,-0.686768,35.682678,19.264221,3.410339
-0.916504,-0.226074,-0.643799,33.14209,19.134521,14.923095
-0.806396,-0.178955,-0.585693,33.546448,13.275146,23.826597
-0.749756,-0.14502,-0.536865,37.42218,5.859375,30.044554
-0.712158,-0.118896,-0.496338,43.41888,-0.511169,33.454895
-0.681641,-0.107666,-0.466553,49.964901,-6.141662,34.934998
-0.652588,-0.116699,-0.462891,55.099483,-12.138366,34.744263
-0.632568,-0.141357,-0.479248,57.78503,-17.662048,33.363342
-0.631592,-0.173096,-0.495605,58.349606,-20.584105,30.769346
-0.626709,-0.202148,-0.498047,57.891842,-18.890381,27.099607
-0.603271,-0.230957,-0.491943,57.014462,-13.534545,22.323606
-0.564697,-0.25708,-0.481201,55.419918,-7.972717,16.914368
-0.527588,-0.281006,-0.457764,52.650448,-6.355285,11.482238
-0.492188,-0.300049,-0.438721,49.140926,-9.460449,6.607055
-0.460693,-0.301025,-0.418457,45.265194,-15.220641,1.800537
-0.438477,-0.289795,-0.405762,42.274471,-21.65222,-2.990722
-0.417236,-0.2854,-0.405762,40.733334,-26.573179,-7.835388
-0.407227,-0.290527,-0.408936,39.978027,-29.350279,-12.33673
-0.406738,-0.297852,-0.406982,39.176941,-29.914854,-16.563416
-0.405273,-0.302979,-0.395264,38.30719,-28.350828,-20.347593
-0.404541,-0.30542,-0.38501,38.360596,-24.932859,-23.254393
-0.406738,-0.30835,-0.363281,38.909912,-21.27075,-25.909422
-0.406006,-0.30249,-0.343262,38.803101,-19.073486,-28.518675
-0.401855,-0.29541,-0.335449,37.712097,-18.661499,-30.708311
-0.396484,-0.296143,-0.341797,35.667419,-18.669128,-32.13501
-0.395996,-0.303955,-0.348389,33.103943,-17.753601,-33.27179
-0.397461,-0.318604,-0.352783,29.975889,-15.86151,-34.576416
-0.403564,-0.335938,-0.347656,25.856016,-13.298034,-36.262512
-0.414795,-0.349609,-0.322021,21.072386,-10.253905,-38.078308
-0.430908,-0.362793,-0.2771,16.609192,-6.41632,-39.18457
-0.447021,-0.373291,-0.239014,13.442992,-2.159119,-39.772034
