ax,ay,az,gx,gy,gz
-0.073486,-1.184082,0.177002,-44.212337,88.790886,90.667717
-0.069336,-1.216553,0.121094,-36.048889,29.281614,51.910397
0.098877,-1.245361,0.044434,-14.022826,-10.208129,20.202635
0.236084,-1.182617,0.106934,14.053344,-21.057127,1.296997
0.262695,-1.066895,0.152832,30.525206,-14.793395,-8.750916
0.248535,-0.962646,0.1521,32.463074,-1.266479,-13.076781
0.21582,-0.911133,0.126953,26.344297,11.932372,-14.923095
0.194092,-0.902588,0.079102,18.852234,20.744322,-18.608093
0.192627,-0.918701,0.036621,15.220641,24.92523,-26.153563
0.206055,-0.939453,0.02124,16.471863,25.05493,-34.90448
0.229492,-0.953613,0.010742,20.927427,23.681639,-43.457027
0.261719,-0.962646,0.008545,26.496885,22.453306,-51.139828
0.289551,-0.961914,0.014893,31.929014,23.300169,-56.503292
0.30957,-0.954834,0.023438,35.919189,27.8244,-57.922359
0.311768,-0.945068,0.023193,39.115906,34.454346,-55.221554
0.286621,-0.918945,0.017578,42.015072,40.931698,-49.72839
0.260254,-0.905273,0.012939,43.861385,44.723507,-44.395443
0.243896,-0.888428,0.012451,45.654293,44.296261,-39.657593
0.231934,-0.881348,0.006836,46.19598,41.244503,-34.088135
0.228027,-0.88208,0.004395,46.371456,37.17804,-28.060911
0.233398,-0.889893,0.005615,46.661373,32.691956,-22.506712
0.239746,-0.889648,0.005371,46.661373,28.869627,-17.150879
0.243896,-0.891357,-0.000732,45.997616,25.886534,-12.46643
0.249756,-0.895752,-0.001953,44.357296,23.605345,-8.743286
0.259277,-0.905029,0.000244,42.457577,22.422789,-5.310058
0.268066,-0.912354,0.002686,40.771481,22.705076,-2.120972
0.273438,-0.91333,0.003662,38.787842,24.032591,0.617981
0.267334,-0.920654,0.003418,35.430908,25.3067,2.792358
0.252441,-0.9375,0.002197,31.35681,25.329588,4.623413
0.236328,-0.956787,-0.005371,28.030394,23.399351,6.103515
0.220459,-0.968506,-0.019043,26.519773,19.66095,6.217956
0.213135,-0.96582,-0.029541,26.458738,14.976501,4.676819
0.20752,-0.951904,-0.0354,26.618956,10.215758,1.960754
0.202148,-0.932129,-0.039307,26.100157,5.714416,-1.426697
0.201416,-0.911377,-0.039307,24.536131,1.243591,-4.91333
0.203369,-0.895508,-0.033447,22.171019,-2.593994,-7.713317
0.206543,-0.887451,-0.027832,19.165039,-5.546569,-10.360717
0.209473,-0.878906,-0.021729,15.777587,-7.507324,-13.168334
0.20874,-0.873291,-0.012695,12.252807,-8.499146,-16.029358
0.214355,-0.871094,-0.005859,8.522034,-8.750916,-18.981934
0.222412,-0.872803,0.000732,4.486084,-8.079529,-21.354673
0.232666,-0.881104,0.006348,0.259399,-6.54602,-22.705076
0.237305,-0.89209,0.009521,-4.051208,-3.723144,-23.254393
0.242188,-0.905273,0.008301,-7.949829,0.053406,-23.254393
0.246582,-0.910645,0.007568,-10.734557,4.264832,-22.964476
0.246582,-0.908936,0.005859,-12.916564,9.19342,-22.369383
0.246338,-0.908203,0.006104,-15.342711,14.35089,-21.034239
0.244873,-0.912109,0.007813,-18.02063,19.706726,-18.989563
0.247803,-0.909912,0.009521,-20.26367,25.321959,-16.586304
0.24707,-0.908936,0.01709,-22.224424,31.021116,-13.824462
0.244629,-0.90918,0.029053,-24.642942,36.659241,-10.986327
0.241211,-0.915527,0.037598,-27.091978,41.549679,-7.713317
0.239014,-0.925781,0.044922,-29.243467,45.661922,-4.386902
0.23584,-0.929199,0.04834,-30.609129,48.698421,-1.487732
0.228516,-0.926758,0.054199,-31.204222,50.903316,0.862122
0.227051,-0.920898,0.059326,-31.723021,52.932735,2.853393
0.22168,-0.915527,0.065674,-32.226563,54.527279,4.722595
0.214844,-0.911377,0.072266,-32.89032,55.610653,6.622314
0.202148,-0.910156,0.089844,-33.805847,55.381771,8.346558
0.181641,-0.920654,0.104736,-35.461426,52.200314,9.712219
0.167236,-0.939941,0.103516,-35.888672,44.792171,10.482787
0.164795,-0.94458,0.116211,-34.52301,36.689758,10.147094
0.166504,-0.937988,0.134766,-32.341003,28.968809,8.422852
0.166504,-0.926025,0.149902,-31.34918,22.369383,6.332397
0.167725,-0.916748,0.168701,-32.142639,16.357422,4.508972
0.162842,-0.91333,0.186279,-33.950806,10.0708,3.578186
0.158203,-0.918213,0.195068,-36.178589,4.745483,3.257751
0.161133,-0.931885,0.196289,-38.009644,0.907898,2.204895
0.166748,-0.960205,0.187988,-38.925171,-1.823425,1.152039
0.168701,-0.996094,0.169434,-37.338257,-4.127502,1.663208
0.166992,-1.026123,0.143311,-32.165527,-6.820678,2.937317
0.168457,-1.040283,0.113037,-23.902891,-10.391234,3.90625
0.176758,-1.032715,0.0896,-14.152526,-14.686584,4.66156
0.191162,-1.013428,0.074219,-5.226135,-18.913269,5.241394
0.210449,-0.98999,0.061768,1.968384,-22.254942,5.874633
0.232666,-0.96875,0.05835,7.67517,-23.826597,6.271362
0.250488,-0.954346,0.056152,11.825561,-22.720335,7.064819
0.266357,-0.948242,0.05835,14.808654,-18.547058,8.201599
0.279785,-0.944092,0.053223,17.417908,-11.352538,9.368896
0.284424,-0.942627,0.047363,19.91272,-1.991272,10.536193
0.286377,-0.936523,0.047119,22.247313,9.735107,11.680602
0.266113,-0.928223,0.050293,23.124693,20.507811,13.580321
0.245361,-0.920898,0.046875,22.758482,27.465818,14.701842
0.237793,-0.91333,0.048828,22.109983,33.126831,14.526366
0.233643,-0.904541,0.050049,21.507261,36.857605,13.999938
0.223145,-0.902344,0.056641,20.111082,39.18457,14.122008
0.210449,-0.905762,0.05542,18.074036,39.009094,15.190124
0.201904,-0.907471,0.052246,16.525269,36.888123,15.73944
0.193359,-0.911865,0.053955,15.182494,32.783508,15.876769
0.188477,-0.914307,0.05542,14.160155,27.648924,15.296935
0.186035,-0.917236,0.053223,12.985229,21.77429,14.205932
0.182617,-0.918701,0.051025,11.863708,15.670775,13.061522
0.180664,-0.92041,0.043945,10.391234,9.353638,12.138366
0.18042,-0.923584,0.039551,8.842468,3.326416,10.940551
0.18335,-0.923584,0.034668,7.545471,-2.113342,9.384155
0.188477,-0.928711,0.030762,6.568908,-6.896972,7.835388
0.196045,-0.92749,0.031494,5.966186,-10.711669,6.271362
0.201904,-0.925049,0.030762,5.203247,-13.374328,4.814148
0.211426,-0.921631,0.029297,4.341125,-14.991759,3.425598
0.220215,-0.918457,0.028564,3.387451,-15.525817,2.403259
0.229248,-0.917969,0.031494,2.548218,-15.007018,1.838684
0.235352,-0.914063,0.033691,1.564026,-13.374328,1.502991
0.238037,-0.908936,0.034668,0.656128,-11.222838,1.083374
0.241455,-0.907959,0.034668,-0.457764,-8.674622,0.923157
0.242432,-0.904785,0.035645,-1.586914,-5.561828,0.930786
0.240234,-0.904785,0.0354,-2.754211,-2.250671,1.091003
0.239502,-0.905273,0.036133,-3.875732,0.991821,1.342773
0.236084,-0.906982,0.037109,-5.233764,4.241943,1.419067
0.233643,-0.910645,0.04248,-6.462097,7.019042,1.586914
0.230469,-0.91333,0.045898,-7.225036,9.246826,1.724243
0.229736,-0.911865,0.050781,-7.995605,10.932921,1.777649
0.227783,-0.913818,0.052002,-8.94928,12.443542,1.846313
0.223633,-0.91748,0.054199,-9.82666,13.572692,1.869202
0.218506,-0.920166,0.055176,-10.635375,14.038085,2.037048
0.218262,-0.923584,0.052246,-11.32965,14.175414,2.227783
0.216309,-0.929199,0.052246,-11.482238,13.870238,2.006531
0.214111,-0.92749,0.058594,-11.344909,13.145446,1.449585
0.212646,-0.926514,0.0625,-11.421203,12.283324,1.045227
0.210693,-0.931152,0.068848,-11.512755,10.925292,0.480652
0.210449,-0.934326,0.076172,-11.596679,9.216309,0.114441
0.20752,-0.940674,0.077393,-11.856078,7.225036,-0.541687
0.210449,-0.949219,0.074951,-11.726378,5.15747,-1.548767
0.211426,-0.956787,0.078613,-11.45172,3.65448,-2.388
0.210693,-0.959473,0.087402,-10.681151,2.372742,-3.486633
0.212402,-0.95752,0.090088,-9.597778,1.235962,-4.78363
0.210693,-0.950928,0.096924,-8.81958,0.724792,-6.149292
0.212891,-0.943115,0.101074,-8.674622,1.052856,-7.621765
0.213623,-0.944336,0.105225,-9.010315,2.487183,-8.430481
0.214844,-0.947021,0.107666,-8.827209,4.974365,-8.804321
0.214355,-0.948486,0.10498,-8.399963,8.224487,-9.094238
0.211914,-0.95166,0.105469,-7.759094,11.619567,-9.170532
0.204346,-0.954834,0.104736,-7.148742,14.991759,-8.926392
0.19751,-0.95874,0.099854,-6.317138,18.035889,-8.354187
0.195068,-0.9646,0.099609,-4.890442,20.523069,-7.667541
0.189209,-0.9646,0.096436,-2.929687,22.438047,-6.851196
0.183594,-0.963379,0.091064,-0.579834,23.506163,-5.569458
0.179199,-0.95874,0.086426,1.525879,23.834227,-4.203796
0.175049,-0.953369,0.084473,3.211975,23.239134,-2.807617
0.173584,-0.949951,0.081787,4.837036,21.476744,-1.38092
0.17627,-0.946289,0.081055,6.408691,19.256592,-0.083923
0.178467,-0.941895,0.076904,7.415771,17.814636,0.610352
0.173828,-0.937988,0.07251,7.667541,16.029358,1.38855
0.172363,-0.934082,0.066162,7.537841,13.656615,2.13623
0.172607,-0.93335,0.062988,7.453918,11.611938,2.311707
0.173096,-0.933838,0.058594,7.5531,8.491516,1.953125
0.179688,-0.92627,0.055176,7.522583,6.179809,1.472473
0.187256,-0.927734,0.054932,7.392883,4.302979,0.961304
0.191406,-0.92627,0.05249,6.439209,3.082275,0.816345
0.192627,-0.927979,0.049316,5.485534,1.594543,0.88501
0.197754,-0.930664,0.044922,4.905701,0.946045,0.602722
0.200439,-0.931152,0.039795,4.394531,0.396728,0.274658
0.200684,-0.932617,0.041748,4.119873,0.152588,-0.305176
0.205811,-0.928223,0.041016,3.822326,-0.183105,-0.579834
0.211914,-0.924805,0.04126,3.257751,0.709534,-1.350403
0.213623,-0.922852,0.041016,2.365112,1.724243,-1.670837
0.212646,-0.92041,0.041016,1.693725,3.044128,-1.51062
0.212402,-0.921143,0.038086,0.88501,4.425049,-1.464844
0.206543,-0.923584,0.039551,0.076294,5.775451,-1.556396
0.202881,-0.926758,0.038818,-0.228882,6.256103,-1.487732
0.199219,-0.923828,0.038818,-0.495911,6.393432,-1.678467
0.19873,-0.919434,0.040039,-0.907898,6.202697,-2.250671
0.196289,-0.915283,0.044922,-1.686096,5.973815,-2.502441
0.195313,-0.917969,0.049316,-2.716064,5.470275,-2.296448
0.194336,-0.925049,0.050537,-3.494262,4.714966,-2.13623
0.196045,-0.931885,0.046875,-4.081726,3.982544,-2.120972
0.197754,-0.935059,0.052002,-4.547119,3.440857,-2.082825
0.200195,-0.939697,0.055176,-4.814148,2.861023,-1.838684
0.201172,-0.937744,0.059082,-5.020141,2.471924,-1.579285
0.199463,-0.935547,0.066406,-5.302429,2.052307,-1.579285
0.202637,-0.936279,0.073486,-5.706787,1.693725,-1.571655
0.203613,-0.936035,0.077637,-6.17218,1.480102,-1.396179
0.197754,-0.931885,0.074463,-6.347656,1.434326,-1.342773
0.194336,-0.926758,0.070068,-6.225585,1.487732,-1.518249
0.19458,-0.92749,0.070313,-6.401062,1.174927,-1.64032
0.194824,-0.933838,0.074951,-6.515502,0.770569,-1.480102
0.198486,-0.938965,0.078857,-6.111145,0.465393,-1.228333
0.199219,-0.942139,0.08252,-5.546569,0.518799,-1.205444
0.198975,-0.941895,0.083984,-4.859924,0.923157,-1.274109
0.201172,-0.937012,0.080811,-4.127502,1.075745,-1.113892
0.202148,-0.933838,0.081543,-3.608703,1.106262,-0.762939
0.203125,-0.932373,0.075439,-3.326416,1.144409,-0.419617
0.204346,-0.931152,0.070068,-2.998352,1.441955,-0.434875
0.208008,-0.931396,0.069824,-2.540588,2.349854,-0.442505
0.213135,-0.934326,0.070557,-2.243042,3.883362,-0.061035
0.2146,-0.932373,0.071289,-2.02179,5.592346,0.450134
0.212891,-0.934082,0.07251,-1.976013,7.133483,0.740051
0.213623,-0.936768,0.070068,-1.914978,8.216858,0.823975
0.211182,-0.940918,0.07251,-1.838684,9.025574,1.113892
0.210205,-0.944336,0.06958,-1.571655,9.346008,1.251221
0.208984,-0.940918,0.068604,-1.174927,9.07135,1.159668
0.206055,-0.938965,0.065674,-0.923157,8.262634,0.938415
0.203369,-0.939209,0.061279,-0.87738,7.194519,0.686645
0.20752,-0.94165,0.056396,-0.846863,6.118774,0.595093
0.205811,-0.942383,0.061523,-0.541687,5.15747,0.473022
0.209717,-0.939697,0.059814,-0.053406,4.386902,0.007629
0.213135,-0.933105,0.061523,0.312805,4.03595,-0.480652
0.213623,-0.92627,0.059326,0.099182,4.104614,-1.022339
0.216064,-0.92627,0.055908,-0.526428,4.920959,-1.38092
0.216797,-0.927002,0.055664,-0.930786,6.034851,-1.426697
0.215576,-0.928467,0.05249,-1.281738,7.141113,-1.571655
0.21167,-0.929199,0.049072,-1.663208,7.919311,-1.808166
0.209473,-0.932129,0.050293,-1.64032,8.514404,-1.945495
0.208008,-0.933838,0.052734,-1.571655,9.040833,-2.098083
0.208008,-0.931641,0.053467,-1.609802,9.620667,-2.197266
0.20459,-0.929688,0.057373,-1.792908,10.269164,-2.189636
0.201416,-0.927246,0.05957,-2.296448,10.44464,-2.067566
0.199951,-0.92627,0.057861,-2.845764,10.307311,-1.937866
0.19873,-0.926758,0.05835,-3.181457,10.108947,-1.861572
0.196289,-0.930908,0.057861,-3.341675,9.735107,-1.571655
0.196045,-0.929443,0.055176,-3.349304,9.254456,-1.335144
0.193604,-0.929688,0.054688,-3.303528,8.804321,-1.220703
0.192383,-0.932861,0.057617,-3.295898,8.18634,-1.052856
0.191895,-0.934814,0.056641,-3.356933,7.362365,-0.976562
0.193115,-0.938477,0.059814,-3.189087,6.645202,-0.976562
0.19458,-0.939697,0.060791,-2.792358,5.813598,-1.045227
0.196777,-0.937012,0.059326,-2.433777,5.012512,-1.029968
0.195801,-0.935303,0.05835,-2.220154,4.272461,-0.984192
0.195557,-0.933105,0.061768,-2.075195,3.746032,-0.976562
0.196533,-0.93042,0.063477,-2.098083,3.39508,-0.923157
0.198975,-0.931641,0.061523,-2.174377,3.135681,-0.823975
0.196533,-0.936279,0.060303,-2.189636,3.02124,-0.793457
0.196777,-0.9375,0.057129,-2.113342,2.89917,-0.907898
0.193115,-0.936523,0.053223,-1.922607,2.334595,-1.113892
0.191406,-0.937256,0.05127,-1.701355,1.472473,-1.144409
0.195068,-0.942139,0.056152,-1.518249,0.686645,-1.029968
0.197754,-0.943115,0.060303,-1.083374,0.091553,-0.991821
0.19751,-0.936523,0.061279,-0.961304,-0.022888,-0.923157
0.201172,-0.930908,0.064209,-1.365662,0.305176,-0.831604
0.203125,-0.932129,0.067627,-1.930237,0.579834,-0.442505
0.202393,-0.935303,0.064209,-2.128601,0.976562,-0.068665
0.200928,-0.936523,0.05957,-1.976013,1.434326,0.305176
0.198486,-0.936768,0.058838,-1.785278,1.525879,0.465393
0.197754,-0.937256,0.057373,-1.594543,1.533508,0.694275
0.198975,-0.937012,0.057617,-1.327515,1.152039,0.808716
0.200684,-0.936035,0.060547,-1.075745,0.808716,0.732422
0.204102,-0.937988,0.061279,-0.900268,0.946045,0.770569
0.205078,-0.939697,0.059814,-1.144409,1.220703,0.976562
0.204834,-0.941162,0.060059,-1.167297,1.457214,1.068115
0.206543,-0.939209,0.062744,-0.892639,1.754761,1.029968
0.205811,-0.938721,0.061279,-0.785828,1.976013,1.243591
0.203369,-0.937988,0.063232,-0.732422,2.037048,1.213074
0.202881,-0.934814,0.058838,-0.709534,1.991272,1.13678
0.204834,-0.937256,0.057129,-0.610352,2.13623,1.228333
0.203125,-0.939453,0.056396,-0.648498,2.082825,1.441955
0.203125,-0.942871,0.059326,-0.404358,1.724243,1.472473
0.204834,-0.941895,0.05835,0.022888,1.472473,1.327515
0.205811,-0.937256,0.061279,0.221252,1.38092,1.274109
0.205811,-0.935303,0.06665,0.183105,1.502991,1.167297
0.204834,-0.936768,0.066162,0.183105,1.686096,1.190186
0.203369,-0.934326,0.063232,0.152588,1.869202,1.220703
0.201416,-0.933594,0.060791,-0.022888,1.998901,1.159668
0.199463,-0.93457,0.05957,0.022888,1.853943,0.999451
0.197266,-0.932861,0.057373,0.244141,1.541138,0.770569
0.199707,-0.932373,0.057129,0.450134,1.205444,0.579834
0.197998,-0.933594,0.056641,0.617981,1.052856,0.579834
0.19873,-0.93335,0.060791,0.595093,1.045227,0.648498
0.198486,-0.931396,0.059326,0.419617,1.213074,0.617981
0.19751,-0.930908,0.059814,0.114441,1.495361,0.640869
0.197021,-0.930664,0.058594,-0.190735,1.625061,0.740051
0.199219,-0.931885,0.056396,-0.289917,1.815796,0.953674
0.197998,-0.933105,0.056641,-0.297546,1.998901,1.113892
0.194824,-0.933105,0.052734,-0.518799,2.090454,1.197815
0.193848,-0.931641,0.053955,-0.602722,1.853943,1.38855
0.192627,-0.931152,0.052979,-0.534058,1.602173,1.449585
0.193604,-0.932129,0.052246,-0.457764,1.457214,1.38092
0.195557,-0.934326,0.051758,-0.465393,1.342773,1.396179
0.198242,-0.931152,0.056152,-0.587463,1.411438,1.51062
0.196533,-0.930664,0.054932,-0.793457,1.579285,1.663208
0.195557,-0.931396,0.056641,-1.213074,1.754761,1.838684
0.194336,-0.934814,0.056396,-1.808166,2.044678,2.090454
0.192383,-0.941406,0.053223,-2.243042,2.288818,2.258301
0.188965,-0.942871,0.051758,-2.227783,2.319336,2.326965
0.186035,-0.941162,0.050293,-1.907349,1.739502,2.151489
0.186035,-0.936768,0.049561,-1.655578,0.816345,2.090454
0.188477,-0.935059,0.053955,-1.63269,-0.1297,2.189636
0.192627,-0.931885,0.058105,-1.678467,-0.75531,2.197266
0.194824,-0.93042,0.061035,-1.89209,-0.892639,2.288818
0.193848,-0.931152,0.061523,-2.174377,-0.762939,2.296448
0.194824,-0.935547,0.060547,-2.27356,-0.511169,2.433777
0.192139,-0.939453,0.059326,-2.059937,-0.556946,2.296448
0.190918,-0.939209,0.056152,-1.663208,-0.831604,2.174377
0.192139,-0.936035,0.057861,-1.235962,-1.312256,1.914978
0.190918,-0.933838,0.060059,-0.923157,-1.701355,1.594543
0.192627,-0.93335,0.060547,-0.648498,-1.914978,1.449585
0.197021,-0.933105,0.065674,-0.556946,-1.953125,1.472473
0.198242,-0.933838,0.06665,-0.671387,-1.838684,1.594543
0.194336,-0.933838,0.063232,-0.793457,-1.350403,1.693725
0.19165,-0.93457,0.061035,-0.747681,-1.144409,1.586914
0.195068,-0.936035,0.061523,-0.648498,-1.022339,1.243591
0.196289,-0.936523,0.060791,-0.511169,-1.083374,0.907898
0.19165,-0.940674,0.057373,-0.350952,-1.396179,0.679016
0.1875,-0.943604,0.05249,0.152588,-1.846313,0.831604
0.185547,-0.943604,0.048828,0.717163,-2.624511,0.709534
0.182861,-0.939941,0.049805,1.251221,-3.532409,0.473022
0.182373,-0.936523,0.052246,1.548767,-4.493713,0.076294
0.188721,-0.931885,0.055664,1.441955,-5.203247,-0.244141
0.192627,-0.931152,0.055908,0.938415,-5.432128,-0.274658
0.194336,-0.930908,0.059082,0.267029,-5.0354,0.045776
0.196045,-0.932617,0.056396,-0.389099,-4.15802,0.404358
0.193359,-0.93457,0.054443,-0.984192,-3.27301,0.724792
0.192139,-0.9375,0.053223,-1.251221,-2.410889,0.88501
0.191895,-0.94165,0.05127,-1.220703,-1.899719,0.953674
0.192383,-0.943848,0.052246,-1.106262,-1.411438,1.12915
0.193359,-0.947998,0.050293,-0.854492,-1.060486,1.350403
0.189941,-0.945068,0.053711,-0.404358,-0.839233,1.113892
0.19043,-0.941406,0.057129,0.114441,-0.823975,0.907898
0.190674,-0.936035,0.061035,0.534058,-0.900268,0.801086
0.190186,-0.932129,0.062988,0.640869,-0.671387,0.640869
0.191895,-0.932373,0.064453,0.549316,-0.144958,0.518799
0.190674,-0.934326,0.062744,0.434875,0.656128,0.389099
0.187256,-0.936523,0.056885,0.411987,1.182556,0.305176
0.185059,-0.938965,0.052246,0.717163,1.304626,0.007629
0.182129,-0.940186,0.054688,1.152039,1.106262,-0.305176
0.182129,-0.936768,0.054199,1.38855,0.87738,-0.495911
0.182129,-0.937988,0.048584,1.304626,0.465393,-0.488281
0.181641,-0.939209,0.049072,1.403808,0.274658,-0.411987
0.178955,-0.937256,0.05127,1.625061,0.091553,-0.518799
0.178223,-0.935059,0.05249,1.64032,-0.022888,-0.671387
0.176025,-0.931885,0.053223,1.281738,-0.076294,-0.62561
0.176514,-0.937256,0.052246,0.694275,-0.617981,-0.595093
0.174316,-0.939697,0.044678,0.640869,-1.579285,-0.610352
0.169922,-0.936035,0.041504,0.999451,-2.609253,-0.541687
0.16748,-0.937012,0.039307,0.946045,-3.997802,-0.450134
0.169678,-0.940186,0.041748,1.00708,-5.844116,-0.549316
0.171387,-0.944336,0.042969,0.816345,-7.591247,-0.724792
0.177246,-0.944092,0.042236,1.045227,-8.583069,-0.999451
0.180176,-0.9375,0.044678,1.480102,-8.995056,-1.167297
0.18042,-0.930908,0.047119,1.319885,-9.07135,-1.075745
0.181152,-0.929932,0.044922,0.518799,-9.078979,-0.846863
0.184814,-0.931152,0.043701,-0.25177,-8.964539,-0.564575
0.186035,-0.937256,0.046387,-0.709534,-8.918762,-0.198364
0.185059,-0.94043,0.044434,-0.869751,-8.766174,-0.015259
0.187256,-0.938965,0.046631,-0.808716,-8.506775,0.160217
0.188232,-0.939453,0.049561,-0.732422,-8.239746,0.289917
0.191162,-0.939697,0.050781,-0.87738,-7.919311,0.389099
0.191895,-0.938965,0.054199,-0.968933,-7.598876,0.663757
0.193604,-0.939453,0.054199,-0.976562,-7.057189,0.762939
0.194092,-0.938965,0.059814,-0.801086,-6.301879,0.785828
0.194336,-0.940186,0.057861,-0.808716,-5.599975,0.831604
0.193115,-0.939697,0.057861,-0.740051,-4.890442,0.778198
0.190918,-0.935547,0.052246,-0.526428,-4.554749,0.511169
0.193604,-0.938232,0.056641,-0.579834,-4.28009,0.335693
0.195313,-0.942139,0.057129,-0.564575,-3.761291,0.312805
0.195801,-0.944092,0.057129,-0.396728,-2.960205,0.198364
0.193848,-0.940918,0.059814,-0.12207,-1.930237,-0.045776
0.192627,-0.939209,0.061768,-0.083923,-0.686645,0.068665
0.19043,-0.938477,0.060059,-0.221252,0.572205,0.289917
0.189453,-0.940918,0.057373,-0.350952,1.754761,0.404358
0.185303,-0.942383,0.056152,-0.175476,2.708435,0.480652
0.182129,-0.942871,0.059814,-0.12207,3.227234,0.50354
0.178711,-0.945068,0.057617,0.053406,3.532409,0.541687
0.175537,-0.943604,0.058105,0.419617,3.540039,0.411987
0.174316,-0.942139,0.057129,0.686645,3.204345,0.259399
0.172607,-0.942627,0.056641,0.656128,2.63977,0.167847
0.172363,-0.948975,0.054688,0.62561,1.846313,0.144958
0.173096,-0.947754,0.056152,0.953674,1.106262,0.259399
0.174072,-0.945313,0.053955,1.205444,0.419617,0.411987
0.173828,-0.941895,0.05127,1.541138,-0.175476,0.366211
0.169678,-0.938965,0.052002,1.823425,-0.976562,0.389099
0.171143,-0.935791,0.05127,1.953125,-1.754761,0.541687
0.170898,-0.933594,0.047119,1.670837,-2.487183,0.465393
0.171143,-0.934326,0.045898,1.426697,-2.967834,0.434875
0.171631,-0.936768,0.043701,1.304626,-3.372192,0.411987
0.172119,-0.94043,0.039551,1.281738,-3.768921,0.396728
0.174316,-0.938965,0.041504,1.235962,-3.959656,0.396728
0.175537,-0.938477,0.046143,1.106262,-4.02832,0.465393
0.174072,-0.939209,0.048828,0.88501,-4.203796,0.518799
0.178711,-0.938721,0.051514,0.419617,-4.112244,0.671387
0.179199,-0.940186,0.050781,0.076294,-4.119873,0.900268
0.17749,-0.941895,0.047852,-0.205994,-4.241943,1.037598
0.175781,-0.937744,0.046143,-0.328064,-4.547119,1.00708
0.177734,-0.938477,0.045166,-0.259399,-5.233764,1.022339
0.178711,-0.938965,0.049805,-0.389099,-5.943298,1.113892
0.181885,-0.943604,0.052734,-0.427246,-6.469726,1.159668
0.187256,-0.943359,0.049805,-0.022888,-6.538391,1.014709
0.190186,-0.9375,0.052002,0.267029,-6.149292,0.793457
0.188477,-0.933594,0.053467,0.198364,-5.348205,0.709534
0.189209,-0.933594,0.053955,-0.221252,-4.516602,0.816345
0.190918,-0.935547,0.053955,-0.083923,-3.715515,0.694275
0.193359,-0.936523,0.05249,-0.038147,-2.983093,0.579834
0.190918,-0.939209,0.054932,0.1297,-2.182007,0.564575
0.188721,-0.938721,0.054443,0.350952,-1.457214,0.534058
0.1875,-0.935791,0.05542,0.312805,-0.831604,0.358582
0.188965,-0.938232,0.055664,0.091553,-0.480652,0.282288
0.186768,-0.942627,0.056152,-0.175476,-0.061035,0.335693
0.187012,-0.943359,0.054688,0.0,0.389099,0.305176
0.185303,-0.944824,0.05249,0.12207,0.846863,0.25177
0.184082,-0.945801,0.053711,-0.068665,0.976562,0.167847
0.182129,-0.946289,0.051758,0.12207,1.190186,0.061035
0.184814,-0.946045,0.049316,0.518799,1.487732,-0.183105
0.185303,-0.939453,0.045166,0.823975,1.770019,-0.37384
0.182373,-0.938477,0.045166,0.740051,2.220154,-0.534058
0.181641,-0.939209,0.046631,0.518799,2.593994,-0.610352
0.182129,-0.938721,0.048828,0.221252,3.181457,-0.740051
0.18335,-0.939209,0.048096,0.106812,3.715515,-0.846863
0.179688,-0.937256,0.048096,0.061035,4.203796,-0.770569
0.172852,-0.937012,0.047607,-0.144958,4.333496,-0.63324
0.170166,-0.938477,0.041992,-0.473022,4.119873,-0.511169
0.167725,-0.938232,0.042969,-0.511169,3.456115,-0.679016
0.166504,-0.940186,0.044189,-0.297546,2.624511,-0.892639
0.165771,-0.939209,0.041504,-0.335693,1.899719,-0.930786
0.168701,-0.94043,0.04248,-0.213623,1.289368,-0.823975
0.169434,-0.941406,0.04248,-0.015259,0.816345,-0.709534
0.170166,-0.940674,0.039307,0.045776,0.495911,-0.617981
0.172607,-0.939941,0.041992,0.0,0.366211,-0.411987
0.168701,-0.942139,0.04248,-0.236511,0.091553,-0.160217
0.168945,-0.945068,0.039551,-0.175476,-0.305176,0.045776
0.17041,-0.943359,0.037842,0.328064,-0.846863,0.007629
0.168945,-0.937256,0.04126,0.62561,-1.350403,-0.236511
0.168213,-0.932617,0.044189,0.305176,-1.785278,-0.312805
0.171875,-0.93457,0.046631,0.183105,-2.281189,-0.198364
0.169189,-0.935059,0.04248,-0.038147,-2.929687,-0.274658
0.171387,-0.937256,0.042969,-0.457764,-3.463745,-0.450134
0.172119,-0.942139,0.04541,-0.930786,-3.936767,-0.595093
0.175781,-0.943604,0.047607,-0.900268,-4.226685,-0.75531
0.178711,-0.948975,0.05127,-0.709534,-4.325867,-0.747681
0.181152,-0.950928,0.050537,-0.656128,-4.089355,-0.595093
0.180908,-0.949707,0.04834,-0.37384,-3.723144,-0.411987
0.179443,-0.94873,0.047119,0.183105,-3.410339,-0.389099
0.176514,-0.942627,0.042236,0.801086,-3.456115,-0.541687
0.173828,-0.937256,0.040039,0.968933,-3.738403,-0.724792
0.177246,-0.938721,0.043457,0.991821,-4.081726,-0.854492
0.18335,-0.937012,0.045654,0.991821,-4.142761,-0.915527
0.188477,-0.937256,0.049072,0.968933,-3.707886,-1.022339
0.188965,-0.938232,0.049805,0.793457,-2.799988,-1.014709
0.187012,-0.939453,0.049561,0.335693,-1.747131,-0.770569
0.187012,-0.938721,0.045898,-0.022888,-0.778198,-0.587463
0.185547,-0.937012,0.045654,-0.045776,0.099182,-0.526428
0.178955,-0.939941,0.047607,-0.038147,0.63324,-0.38147
0.177002,-0.939453,0.046631,-0.137329,0.541687,-0.297546
0.175537,-0.94458,0.051025,-0.061035,0.007629,-0.495911
0.176758,-0.945313,0.051025,0.297546,-0.686645,-0.732422
0.181152,-0.94458,0.056152,0.724792,-1.014709,-1.014709
0.183838,-0.943115,0.05542,1.00708,-0.991821,-1.411438
0.185303,-0.941895,0.055176,1.014709,-0.396728,-1.518249
0.184082,-0.943604,0.053467,1.037598,0.419617,-1.571655
0.181641,-0.942871,0.048584,1.098633,1.304626,-1.571655
0.178467,-0.941895,0.043945,1.289368,1.815796,-1.670837
0.176025,-0.942383,0.041748,1.51062,1.914978,-1.76239
0.175049,-0.939697,0.040527,1.770019,1.754761,-1.754761
0.173584,-0.938232,0.037109,1.518249,1.556396,-1.785278
0.174805,-0.939697,0.041016,1.411438,1.403808,-1.533508
0.174561,-0.939453,0.043701,1.159668,1.38092,-1.296997
0.175049,-0.935547,0.043457,0.854492,1.472473,-1.12915
0.175049,-0.936279,0.044922,0.358582,1.663208,-0.907898
0.17334,-0.934082,0.044678,-0.160217,1.571655,-0.747681
0.171631,-0.93335,0.039795,-0.541687,1.121521,-0.801086
0.171631,-0.938477,0.037109,-0.801086,0.617981,-0.732422
0.171875,-0.946289,0.035889,-0.88501,-0.030518,-0.617981
0.172363,-0.95166,0.039307,-0.686645,-0.648498,-0.63324
0.176514,-0.95459,0.041992,-0.244141,-1.304626,-0.846863
0.181641,-0.952637,0.043945,0.495911,-1.525879,-1.037598
0.181885,-0.949219,0.047119,1.068115,-1.335144,-1.274109
0.180664,-0.943359,0.047119,1.274109,-0.915527,-1.182556
0.179932,-0.938965,0.05127,0.88501,-0.518799,-1.205444
0.178467,-0.940674,0.049072,0.205994,-0.167847,-1.296997
0.18042,-0.945313,0.04834,0.167847,-0.083923,-1.243591
0.180908,-0.94751,0.046875,0.404358,0.175476,-1.274109
0.179932,-0.945557,0.044922,0.953674,0.50354,-1.350403
0.174561,-0.94043,0.045654,1.51062,0.717163,-1.335144
0.171387,-0.9375,0.046143,1.678467,0.579834,-1.289368
0.172363,-0.939453,0.042725,1.625061,0.221252,-1.190186
0.176025,-0.942871,0.041748,1.647949,-0.114441,-1.029968
0.175781,-0.941162,0.046875,1.953125,-0.320435,-1.12915
0.177002,-0.938721,0.052246,2.082825,-0.228882,-1.182556
0.177246,-0.93335,0.053223,1.63269,0.091553,-1.083374
0.178467,-0.935547,0.04834,1.014709,0.396728,-0.762939
0.176025,-0.938965,0.045898,0.50354,0.450134,-0.526428
0.173584,-0.937744,0.04248,0.465393,0.152588,-0.511169
0.173096,-0.936279,0.041504,0.701904,-0.457764,-0.556946
0.176514,-0.938965,0.04541,0.579834,-1.304626,-0.465393
0.177246,-0.943848,0.047119,0.602722,-1.968384,-0.343323
0.181885,-0.942627,0.051514,0.968933,-2.26593,-0.442505
0.182617,-0.938232,0.055176,1.289368,-2.098083,-0.556946
0.18335,-0.93335,0.050781,1.068115,-1.731872,-0.648498
0.182373,-0.932129,0.051758,0.50354,-1.51062,-0.740051
0.183838,-0.934814,0.053711,0.183105,-1.770019,-0.717163
0.185547,-0.943359,0.053467,-0.312805,-2.120972,-1.014709
0.186523,-0.949463,0.05127,-0.427246,-2.304077,-1.365662
0.189453,-0.950195,0.052734,0.282288,-2.479553,-1.541138
0.190918,-0.945313,0.056641,1.052856,-2.418518,-1.609802
0.189697,-0.940186,0.055176,1.312256,-2.182007,-1.594543
0.190674,-0.937988,0.058838,1.152039,-1.838684,-1.518249
0.1875,-0.9375,0.05835,0.991821,-1.502991,-1.411438
0.187744,-0.939209,0.059814,0.999451,-1.144409,-1.556396
0.189209,-0.94043,0.062256,0.938415,-0.717163,-1.831055
0.191406,-0.939941,0.058105,0.808716,-0.061035,-1.953125
0.188965,-0.941406,0.055908,0.892639,0.785828,-1.914978
0.187988,-0.942871,0.054443,1.235962,1.838684,-1.716614
0.186279,-0.942871,0.056641,1.548767,2.616882,-1.434326
0.184326,-0.939941,0.056641,1.838684,3.288269,-1.13678
0.179443,-0.936768,0.058594,1.800537,3.784179,-0.999451
0.18042,-0.934814,0.05835,1.518249,4.089355,-0.999451
0.17749,-0.93457,0.054443,1.152039,4.119873,-0.938415
0.17627,-0.93457,0.055908,0.816345,4.150391,-0.785828
0.176025,-0.9375,0.050537,0.38147,4.020691,-0.610352
0.176758,-0.942627,0.047852,0.061035,3.684997,-0.38147
0.177246,-0.945068,0.049561,-0.076294,3.27301,-0.198364
0.177979,-0.945801,0.048096,0.076294,2.853393,-0.114441
0.179199,-0.942871,0.05127,0.511169,2.441406,0.053406
0.177002,-0.9375,0.051514,0.671387,2.151489,-0.030518
0.174561,-0.930908,0.048584,0.312805,1.686096,-0.083923
0.17334,-0.927979,0.049805,-0.106812,1.029968,-0.114441
0.175781,-0.929443,0.051514,-0.534058,0.213623,-0.411987
0.176758,-0.932373,0.05127,-1.12915,-0.709534,-0.602722
0.18042,-0.937744,0.051758,-1.434326,-1.426697,-0.579834
0.180664,-0.94043,0.04834,-1.335144,-2.082825,-0.488281
0.18335,-0.942383,0.050537,-1.029968,-2.494812,-0.442505
0.184814,-0.94043,0.050537,-0.587463,-2.662658,-0.274658
0.182861,-0.939209,0.049072,-0.38147,-2.838135,-0.099182
0.183838,-0.940186,0.049561,-0.419617,-2.990722,-0.022888
0.183838,-0.938721,0.050781,-0.549316,-3.105163,-0.144958
0.184326,-0.936768,0.052246,-0.541687,-3.27301,-0.267029
0.185791,-0.93335,0.054932,-0.747681,-3.334045,-0.564575
0.187988,-0.935547,0.052002,-1.00708,-3.112793,-0.640869
0.189453,-0.939697,0.054443,-1.38855,-2.693176,-0.595093
0.188965,-0.940186,0.054443,-1.609802,-2.098083,-0.549316
0.189941,-0.941406,0.049561,-1.342773,-1.419067,-0.495911
0.187988,-0.936035,0.048096,-1.152039,-0.549316,-0.511169
0.187744,-0.935059,0.047363,-1.327515,0.198364,-0.328064
0.189209,-0.935303,0.051025,-1.411438,0.999451,-0.045776
0.188477,-0.9375,0.053711,-1.693725,2.052307,-0.038147
0.188477,-0.937988,0.053467,-1.785278,3.326416,0.022888
0.189941,-0.935547,0.055176,-1.815796,4.653931,0.366211
0.187012,-0.934082,0.049805,-1.831055,5.859375,0.663757
0.182373,-0.936035,0.046631,-1.998901,6.370544,1.213074
0.180176,-0.941162,0.046631,-2.067566,6.202697,1.571655
0.174072,-0.945068,0.044922,-1.617432,5.294799,1.594543
0.174561,-0.946289,0.046875,-0.999451,3.768921,1.152039
0.175537,-0.943115,0.048828,-0.366211,2.456665,0.595093
0.177002,-0.941406,0.044678,0.0,1.274109,0.198364
0.178223,-0.938721,0.045654,0.091553,0.328064,-0.022888
0.177246,-0.9375,0.040771,0.068665,-0.434875,0.007629
0.176025,-0.938965,0.038818,-0.053406,-1.13678,-0.083923
0.176758,-0.943359,0.038086,-0.228882,-1.754761,-0.320435
0.176514,-0.946289,0.036621,-0.144958,-2.464294,-0.656128
0.175781,-0.94458,0.034668,0.175476,-3.059387,-0.907898
0.173096,-0.941162,0.036621,-0.022888,-3.40271,-1.091003
0.170898,-0.938965,0.037598,-0.213623,-3.974914,-0.999451
0.17041,-0.936523,0.040039,-0.160217,-4.852295,-0.961304
0.167725,-0.932373,0.035889,-0.274658,-5.622863,-0.946045
0.166748,-0.93042,0.034668,-0.785828,-6.324768,-0.610352
0.169922,-0.933105,0.037109,-1.13678,-7.17163,-0.25177
0.171875,-0.940186,0.039307,-1.419067,-7.843017,0.106812
0.175781,-0.942627,0.040283,-1.365662,-8.262634,0.328064
0.177734,-0.944336,0.038818,-1.083374,-8.430481,0.495911
0.179688,-0.943115,0.039551,-0.907898,-8.308411,0.549316
0.181641,-0.938232,0.041748,-0.862122,-8.003235,0.564575
0.183594,-0.938965,0.043213,-0.930786,-7.575988,0.747681
0.184326,-0.9375,0.045898,-1.068115,-7.019042,0.946045
0.181641,-0.937012,0.04248,-1.037598,-6.385803,1.045227
0.182861,-0.937256,0.038574,-1.037598,-5.874633,1.022339
0.182617,-0.934326,0.039063,-1.060486,-5.599975,0.968933
0.181152,-0.93457,0.036621,-1.037598,-5.41687,1.029968
0.183594,-0.936035,0.037598,-1.304626,-4.920959,1.266479
0.187988,-0.943359,0.037842,-1.678467,-4.325867,1.396179
0.188965,-0.94873,0.037842,-1.739502,-3.738403,1.434326
0.188721,-0.950928,0.038818,-1.51062,-3.082275,1.571655
0.187012,-0.949707,0.038818,-1.365662,-2.479553,1.716614
0.185547,-0.946533,0.03833,-1.190186,-2.075195,1.861572
0.185791,-0.942383,0.035889,-1.022339,-1.701355,1.838684
0.182373,-0.935059,0.0354,-0.709534,-1.266479,1.831055
0.179688,-0.932617,0.036621,-0.564575,-1.029968,1.686096
0.182861,-0.93457,0.034668,-0.778198,-0.892639,1.716614
0.182617,-0.935059,0.031006,-0.717163,-0.762939,1.678467
0.181152,-0.9375,0.028809,-0.305176,-0.62561,1.495361
0.180664,-0.933105,0.03125,0.167847,-0.526428,1.205444
0.182861,-0.933594,0.029785,0.259399,-0.320435,1.327515
0.179443,-0.939453,0.031982,-0.221252,-0.350952,1.625061
0.180908,-0.941406,0.029541,-0.366211,-0.579834,1.64032
0.183105,-0.942383,0.027344,-0.1297,-0.701904,1.76239
0.18042,-0.941406,0.027832,-0.114441,-0.831604,1.998901
0.176025,-0.945068,0.027832,-0.335693,-1.289368,2.174377
0.175781,-0.949463,0.021484,-0.267029,-2.159119,2.311707
0.172852,-0.946533,0.022217,0.244141,-3.585815,2.098083
0.168457,-0.946045,0.02417,0.602722,-5.401611,1.571655
0.17041,-0.945557,0.023682,0.732422,-7.308959,1.075745
0.172363,-0.94165,0.026855,0.976562,-9.429932,0.648498
0.174805,-0.943848,0.029297,1.052856,-11.505126,0.236511
0.178711,-0.948486,0.029297,0.953674,-13.198852,-0.038147
0.181396,-0.94751,0.03125,1.045227,-14.73236,-0.274658
0.184814,-0.943115,0.033447,1.144409,-15.678405,-0.617981
0.189209,-0.94165,0.037354,1.167297,-15.998839,-1.045227
0.19043,-0.936768,0.047852,1.014709,-15.853881,-1.449585
0.189697,-0.931396,0.045898,1.029968,-15.350341,-1.823425
0.187988,-0.927002,0.042725,1.052856,-14.328002,-2.090454
0.186523,-0.924805,0.039307,0.991821,-13.46588,-2.052307
0.185059,-0.928223,0.045166,0.869751,-13.252257,-1.609802
0.188721,-0.942627,0.048828,0.305176,-13.259887,-1.197815
0.195313,-0.957275,0.049561,0.358582,-13.008117,-0.808716
0.19458,-0.968018,0.052734,1.144409,-12.641906,-0.457764
0.19165,-0.969971,0.055176,2.334595,-12.596129,-0.289917
0.188232,-0.965576,0.053711,3.39508,-12.771605,-0.213623
0.185303,-0.967041,0.05542,3.684997,-13.397216,-0.160217
0.181152,-0.972168,0.052002,4.219055,-14.86206,-0.328064
0.179932,-0.971436,0.048096,5.500793,-16.464233,-0.793457
0.179688,-0.960449,0.05127,7.453918,-18.371582,-1.289368
0.188721,-0.944092,0.052979,9.002686,-20.217894,-2.029419
0.197266,-0.927979,0.052246,9.780884,-20.530699,-3.181457
0.199463,-0.910645,0.053467,9.368896,-18.722534,-3.65448
0.199951,-0.902344,0.053711,7.881164,-16.273499,-3.852844
0.196289,-0.903564,0.058838,5.973815,-13.916015,-4.043579
0.193604,-0.913574,0.051758,4.447937,-12.832641,-4.508972
0.193115,-0.918213,0.041504,4.234314,-11.825561,-4.997253
0.196045,-0.912354,0.036621,4.989624,-10.543822,-4.440308
0.199219,-0.90625,0.031006,5.653381,-8.56781,-3.410339
0.201416,-0.904785,0.023193,5.462646,-5.531311,-2.151489
0.203125,-0.908447,0.017334,4.798889,-2.227783,-0.320435
0.201416,-0.916748,0.015137,4.264832,0.679016,1.808166
0.191895,-0.922852,0.018311,4.043579,2.670288,3.707886
0.186279,-0.927246,0.019775,3.707886,3.097534,4.417419
0.183105,-0.923096,0.018311,3.379822,2.441406,4.829407
0.178467,-0.922363,0.019287,2.319336,1.533508,5.142211
0.17749,-0.935059,0.023926,0.518799,-0.137329,5.973815
0.172119,-0.957764,0.025391,-1.869202,-3.257751,6.584167
0.162842,-0.985352,0.031006,-2.624511,-8.087158,6.179809
0.156494,-0.994141,0.038818,-1.754761,-14.083861,3.616333
0.160889,-0.990723,0.044189,0.305176,-18.669128,-0.930786
0.183838,-0.974365,0.055908,3.372192,-19.65332,-5.279541
0.20166,-0.95166,0.065918,5.599975,-16.136169,-8.06427
0.203369,-0.937744,0.074219,6.355285,-8.110046,-8.018494
0.196533,-0.930176,0.083008,6.149292,3.799438,-6.286621
0.171387,-0.942383,0.095703,5.027771,17.13562,-3.692627
0.145264,-0.968994,0.105225,3.700256,31.379698,0.167847
0.099854,-0.999512,0.111572,4.425049,43.609615,5.271911
0.045166,-1.027344,0.104004,7.17163,50.674435,10.437011
-0.004639,-1.036133,0.091797,12.619018,51.528927,14.923095
-0.043945,-1.021729,0.10083,18.608093,44.05212,17.662048
-0.055664,-0.985596,0.117432,23.597715,32.417297,16.845703
-0.050781,-0.953857,0.132324,24.147032,19.65332,12.96997
-0.043213,-0.951904,0.132324,21.095274,5.401611,8.69751
-0.027588,-0.969971,0.121338,17.799377,-7.942199,6.576538
-0.008057,-0.985352,0.109863,15.335082,-21.064756,5.805969
-0.001465,-0.998535,0.09668,15.045165,-35.263062,5.424499
0.007813,-0.993164,0.095215,16.448975,-50.094601,3.890991
0.004395,-0.974121,0.104736,18.211365,-65.811157,1.89209
-0.012695,-0.949219,0.110596,18.890381,-83.160393,-0.663757
-0.000977,-0.933838,0.098389,18.02063,-100.700371,-4.356384
0.050537,-0.914307,0.082031,16.876221,-115.852348,-7.774353
0.112793,-0.895508,0.072998,15.419005,-125.061028,-9.468079
0.165527,-0.87085,0.071289,13.816833,-126.594536,-9.422302
0.19043,-0.85083,0.074707,11.58142,-121.643059,-8.277893
0.188477,-0.842041,0.094482,8.049011,-113.449089,-6.660461
0.171875,-0.847656,0.114014,3.128052,-105.842583,-5.981445
0.16333,-0.86792,0.120117,-2.288818,-100.151054,-6.965637
0.172363,-0.890625,0.116943,-6.576538,-95.626823,-8.239746
0.188477,-0.904541,0.113525,-8.049011,-90.522758,-8.750916
0.197021,-0.906738,0.121826,-7.247924,-82.580559,-8.155823
0.193115,-0.901855,0.140137,-6.690979,-71.594238,-6.584167
0.186035,-0.911133,0.166016,-8.43811,-59.532162,-4.508972
0.179199,-0.944336,0.172363,-13.153075,-48.782345,-2.456665
0.182373,-0.989014,0.136475,-16.418457,-38.604736,-1.060486
0.20166,-1.022949,0.093506,-15.464782,-27.45056,0.915527
0.210693,-1.023926,0.072754,-11.909484,-15.731811,3.036499
0.211182,-1.009033,0.066162,-8.06427,-4.920959,4.295349
0.207031,-0.999023,0.052979,-5.279541,3.890991,8.872986
0.187988,-0.973633,0.051514,-5.531311,11.512755,16.50238
0.174805,-0.954346,0.059082,-8.560181,19.607544,20.576475
0.151855,-0.92041,0.056396,-9.773254,27.931211,20.477293
0.107666,-0.884521,0.058105,-10.604857,34.332275,17.486572
0.041504,-0.860596,0.07666,-12.222289,35.720825,16.235352
0.021484,-0.847656,0.075684,-16.403198,32.737732,14.86206
0.037354,-0.852783,0.060547,-22.033689,27.412413,12.039184
0.03125,-0.878174,0.03125,-26.832579,23.048399,10.604857
0.007568,-0.929199,0.021729,-27.839659,16.921997,10.765075
-0.003906,-0.972656,0.017334,-24.894712,10.169982,10.82611
-0.001953,-1.000488,0.036621,-20.500181,6.500244,11.886596
-0.004883,-1.010986,0.071777,-17.76123,4.234314,14.373778
-0.035889,-1.026367,0.073242,-18.089294,2.845764,17.127991
-0.093262,-1.040527,0.052002,-20.530699,-3.555298,17.875671
-0.110107,-1.046387,-0.000732,-21.827696,-20.729063,14.770507
-0.062988,-1.050781,-0.051025,-22.02606,-44.021603,10.459899
0.016113,-1.051514,-0.084229,-21.987913,-67.718506,6.690979
0.083252,-1.047852,-0.097412,-21.77429,-87.089531,1.472473
0.128174,-1.036133,-0.098877,-22.468565,-101.066582,-6.866455
0.159668,-1.024658,-0.127441,-21.728514,-113.449089,-16.273499
0.177246,-0.984863,-0.163574,-16.708374,-125.007622,-21.301268
0.203125,-0.94165,-0.175781,-13.458251,-133.262634,-26.794432
0.227295,-0.906738,-0.168213,-14.968871,-138.381958,-33.27179
0.263428,-0.901367,-0.176758,-20.126341,-138.977051,-39.802551
0.308838,-0.906738,-0.18457,-22.560118,-130.958557,-46.890255
0.340332,-0.911133,-0.191895,-22.422789,-117.286674,-51.11694
0.36499,-0.9104,-0.188477,-21.232603,-98.251335,-52.253719
0.367188,-0.898438,-0.193604,-19.515991,-78.063965,-51.696774
0.363525,-0.877441,-0.203125,-16.113281,-60.104366,-50.72784
0.353271,-0.847656,-0.195068,-11.749267,-44.509884,-47.538754
0.346191,-0.819092,-0.181885,-9.147644,-30.120848,-42.724606
0.3479,-0.801025,-0.173828,-7.209777,-17.356873,-37.322998
0.342041,-0.782715,-0.163574,-4.875183,-5.386352,-31.127928
0.334229,-0.766846,-0.151123,-2.39563,6.332397,-23.338316
0.322998,-0.760986,-0.13916,-0.320435,17.456055,-15.373229
0.314941,-0.766846,-0.130615,0.968933,27.633665,-8.224487
0.30127,-0.784912,-0.125,1.541138,36.132813,-1.968384
0.283447,-0.814453,-0.118652,3.15094,41.65649,3.837585
0.284668,-0.84668,-0.11499,7.110595,44.189449,9.994507
0.295898,-0.862061,-0.106445,12.474059,45.036312,16.418457
0.303467,-0.873779,-0.100586,18.318176,46.32568,23.048399
0.306885,-0.880615,-0.088623,24.002073,48.629757,29.365538
0.308105,-0.87915,-0.086182,28.70941,50.796505,34.965515
0.305176,-0.887695,-0.085693,31.990049,52.436825,40.344234
0.297607,-0.905029,-0.091309,34.65271,53.527828,45.043941
0.29248,-0.921143,-0.098145,37.765503,53.749081,48.805233
0.287109,-0.929443,-0.109619,42.121883,53.054806,51.017757
0.272217,-0.922363,-0.116943,47.195431,51.078793,50.811764
0.252197,-0.907471,-0.121826,52.192684,46.623226,48.950191
0.240967,-0.88916,-0.123535,55.969234,39.016724,47.019955
0.236572,-0.891602,-0.129883,57.121273,28.686522,45.722958
0.234375,-0.915527,-0.138184,55.793758,16.769409,44.509884
0.240479,-0.970215,-0.156006,53.482052,4.730225,42.907711
0.243164,-1.043701,-0.177002,52.169796,-7.225036,40.245052
0.242432,-1.117676,-0.198486,53.12347,-19.02771,36.247253
0.24707,-1.182129,-0.218506,56.564327,-30.868528,30.876158
0.244385,-1.205566,-0.227051,61.790462,-43.098446,23.376463
0.240234,-1.190186,-0.226074,67.192078,-56.465145,13.59558
0.229736,-1.133545,-0.222412,71.098328,-72.143555,3.013611
0.226807,-1.060059,-0.212891,72.303772,-89.805595,-6.523132
0.22583,-0.986816,-0.197998,70.045471,-108.879082,-14.770507
0.231201,-0.925293,-0.186035,64.89563,-127.243034,-22.674559
0.242432,-0.881592,-0.172119,58.143612,-142.974854,-30.197142
0.250732,-0.840088,-0.149658,49.629208,-154.434204,-36.437988
0.263672,-0.802979,-0.125244,38.497925,-161.025986,-41.702267
0.269043,-0.781738,-0.111572,24.528502,-164.367661,-45.753475
0.269287,-0.804688,-0.063232,0.419617,-165.435776,-41.854855
0.278076,-0.8479,-0.005615,-28.244017,-162.933334,-35.385132
0.300293,-0.862061,0.024658,-49.72839,-165.748581,-35.400391
0.273193,-0.854248,0.074951,-74.111938,-164.49736,-31.219481
0.197998,-0.860596,0.081055,-96.076958,-165.412888,-34.255981
0.123779,-0.903076,0.080078,-113.304131,-173.965439,-40.351864
0.082764,-0.952148,0.061035,-132.720947,-185.981735,-39.1922
0.080078,-0.959229,-0.103516,-145.172119,-203.742966,-44.235226
0.128174,-0.935059,-0.303223,-151.351929,-213.760361,-48.545834
0.22998,-0.944824,-0.437012,-155.395508,-208.435043,-47.981258
0.273438,-0.927002,-0.555176,-147.109985,-191.20787,-46.249386
0.32373,-0.862305,-0.584961,-133.384705,-163.627609,-47.927853
0.601074,-0.817383,-0.521973,-126.579277,-125.480644,-55.046078
0.842529,-0.903564,-0.519043,-128.395081,-67.321777,-49.621578
0.853027,-0.994873,-0.49292,-117.271416,13.641356,-29.701231
0.959961,-1.183838,-0.252441,-88.98925,106.933586,0.137329
0.982178,-1.310059,-0.023193,-43.30444,218.43718,42.785641
0.617188,-1.085205,0.049072,3.39508,249.992355,83.755486
-0.013428,-0.946777,0.180664,8.255005,249.839767,116.912834
-0.631104,-1.030029,0.345459,-7.125854,249.107346,135.673523
-0.982666,-1.146729,0.421875,-16.220093,248.321518,120.124809
-0.841553,-1.229004,0.346436,-21.041868,186.775192,75.538635
-0.387939,-1.215332,0.197266,-16.494751,88.027946,36.964417
-0.002686,-1.118408,0.108154,-9.45282,40.222164,21.865843
0.144287,-1.015869,0.046875,-7.125854,26.336668,22.14813
0.131104,-0.950684,-0.063232,-6.355285,19.416809,20.851133
0.130859,-0.915283,-0.145996,-4.928589,13.916015,14.617919
0.176758,-0.873535,-0.192139,-3.715515,10.787963,8.506775
0.186279,-0.833252,-0.224854,-4.707336,9.33075,5.653381
0.175537,-0.808838,-0.250732,-7.286071,10.383605,4.119873
0.174072,-0.787354,-0.271729,-9.468079,12.08496,1.708984
0.166992,-0.772705,-0.285889,-12.229918,13.122558,0.770569
0.164551,-0.776367,-0.290527,-15.762328,14.144897,0.823975
0.170654,-0.800537,-0.287598,-19.66095,14.892577,1.205444
0.173584,-0.834717,-0.299072,-22.956846,16.50238,3.227234
0.182861,-0.87207,-0.314697,-24.604795,19.798279,5.821228
0.178223,-0.897949,-0.314209,-24.765013,24.070738,8.44574
0.158936,-0.923584,-0.319336,-24.67346,29.502867,11.535644
0.130615,-0.947266,-0.313965,-22.6593,33.279419,14.22119
0.10376,-0.963867,-0.28833,-18.234253,32.348633,15.335082
0.095947,-0.967529,-0.255859,-12.397765,26.931761,13.816833
0.089844,-0.955078,-0.231689,-5.233764,17.425537,8.94928
0.091309,-0.937256,-0.199219,1.220703,4.821777,2.983093
0.115479,-0.915527,-0.172363,6.462097,-9.750366,-1.914978
0.151367,-0.887451,-0.156006,10.269164,-22.743223,-5.706787
0.183105,-0.859375,-0.157715,12.130736,-32.226563,-8.06427
0.226074,-0.844482,-0.175049,11.482238,-35.675049,-7.446289
0.259766,-0.84082,-0.188477,9.963989,-32.432556,-4.28772
0.260498,-0.842773,-0.214844,9.010315,-25.283812,0.358582
0.246338,-0.851318,-0.232178,8.308411,-17.158508,4.753113
0.217529,-0.850342,-0.255127,8.56781,-9.986877,7.469177
0.190674,-0.840576,-0.288574,8.56781,-5.142211,9.109497
0.168213,-0.836914,-0.310059,6.370544,-3.051758,10.116576
0.161133,-0.850342,-0.312256,2.861023,-2.586365,10.520934
0.170166,-0.866455,-0.308838,0.289917,-3.318786,9.735107
0.186279,-0.868164,-0.306641,-1.426697,-4.081726,7.995605
0.201172,-0.859619,-0.297363,-3.265381,-4.241943,5.676269
0.206055,-0.854248,-0.281982,-6.04248,-4.150391,3.578186
0.211426,-0.862061,-0.26001,-9.124756,-5.340576,1.411438
0.228027,-0.883545,-0.23291,-11.665343,-7.858276,-1.495361
0.247314,-0.912109,-0.199707,-12.519835,-10.726928,-4.936218
0.268066,-0.938721,-0.17334,-11.390685,-11.940001,-8.049011
0.292725,-0.955322,-0.152832,-7.6828,-10.726928,-10.604857
0.306641,-0.961914,-0.137207,-3.486633,-7.026672,-10.787963
0.296875,-0.954346,-0.135498,0.518799,-1.174927,-9.376526
0.265381,-0.922363,-0.148682,4.364014,5.149841,-8.712769
0.231934,-0.884521,-0.160156,4.882813,9.979248,-8.163452
0.204102,-0.876709,-0.167969,2.090454,12.191772,-6.401062
0.175537,-0.894775,-0.177246,-0.518799,12.496947,-3.448486
0.14917,-0.922119,-0.191895,-1.785278,12.023925,0.389099
0.133301,-0.949951,-0.193848,-1.373291,11.322021,3.608703
0.107178,-0.9646,-0.192139,2.76947,9.490967,5.599975
0.086426,-0.950439,-0.207275,6.889343,5.279541,6.713867
0.072754,-0.921387,-0.224854,7.873535,-0.87738,4.501343
0.074219,-0.897949,-0.23999,7.080078,-7.614135,1.457214
0.100098,-0.885742,-0.247559,5.310058,-14.068603,-0.434875
0.113037,-0.884766,-0.245361,3.509521,-19.78302,-2.120972
0.118408,-0.885986,-0.246338,1.853943,-24.406431,-3.456115
0.138672,-0.887451,-0.256348,0.526428,-28.938292,-5.546569
0.148193,-0.882813,-0.265869,-0.343323,-33.447266,-8.262634
0.157471,-0.884766,-0.27124,-1.289368,-37.437439,-9.918213
0.172607,-0.893555,-0.26416,-2.670288,-40.771481,-10.69641
0.191895,-0.901855,-0.256104,-3.250122,-42.846676,-11.756896
0.225098,-0.918213,-0.244141,-4.112244,-42.686459,-11.772155
0.250732,-0.928955,-0.242432,-3.555298,-40.512081,-10.986327
0.258057,-0.922852,-0.23999,-1.304626,-36.445618,-10.154723
0.265137,-0.906738,-0.236084,1.075745,-31.944273,-9.429932
0.281006,-0.884521,-0.235352,2.357483,-26.916502,-8.56781
0.297119,-0.870117,-0.234619,2.258301,-21.614073,-7.8125
0.309082,-0.868652,-0.239258,1.861572,-15.014647,-5.836486
0.308838,-0.870361,-0.240723,1.342773,-6.698608,-3.059387
0.292969,-0.867676,-0.244141,1.304626,0.068665,-1.411438
0.270508,-0.859863,-0.25415,1.686096,4.188538,-0.717163
0.26709,-0.85376,-0.254395,1.251221,6.530761,-1.426697
0.268799,-0.853027,-0.252197,-0.221252,8.346558,-1.838684
0.269531,-0.859863,-0.258057,-2.380371,10.002136,-1.091003
0.280029,-0.873535,-0.251465,-3.112793,12.741088,-0.801086
0.270996,-0.890381,-0.246094,-0.442505,17.463684,-0.968933
0.241699,-0.879395,-0.243652,1.823425,22.102354,-0.190735
0.213135,-0.880859,-0.244385,1.274109,23.658751,-0.686645
0.186035,-0.882813,-0.249756,0.297546,22.758482,-2.403259
0.185059,-0.894775,-0.255127,-1.014709,20.294188,-4.455566
0.194092,-0.932129,-0.269043,-0.88501,16.868591,-4.394531
0.215332,-0.949707,-0.269775,1.159668,15.151977,-3.334045
0.190918,-0.951172,-0.263672,3.486633,15.663146,-4.592896
0.164307,-0.939209,-0.263916,5.470275,15.380858,-6.629943
0.16333,-0.923096,-0.26001,5.859375,12.779235,-8.262634
0.186035,-0.91748,-0.266113,4.074097,10.894774,-6.561279
0.196289,-0.915771,-0.270508,1.976013,11.932372,-3.456115
0.187012,-0.913086,-0.272949,-0.366211,14.533996,-2.601623
0.185791,-0.920654,-0.267334,-1.487732,18.371582,-2.601623
0.184814,-0.912842,-0.256348,-0.541687,22.201536,-1.091003
0.174561,-0.890869,-0.236084,-0.640869,24.826048,1.266479
0.160645,-0.883789,-0.22583,-2.464294,26.222227,3.517151
0.139404,-0.896973,-0.217041,-4.585266,25.413511,5.432128
0.11377,-0.909668,-0.213135,-5.249023,21.438597,6.614685
0.101318,-0.91626,-0.206787,-4.554749,14.457702,6.050109
0.109375,-0.918945,-0.198975,-3.158569,5.889892,3.746032
0.138916,-0.917236,-0.195313,-1.708984,-2.067566,0.640869
0.166504,-0.909424,-0.194824,0.0,-7.827758,-1.914978
0.18457,-0.898682,-0.196777,1.220703,-11.184691,-3.303528
0.201416,-0.886719,-0.206055,1.823425,-13.008117,-3.540039
0.219482,-0.874756,-0.21582,1.930237,-13.664245,-3.280639
0.229248,-0.869385,-0.225342,1.464844,-12.916564,-2.830505
0.229736,-0.874756,-0.221924,0.62561,-11.367797,-1.693725
0.231445,-0.888428,-0.221924,-0.1297,-9.628296,-0.274658
0.232422,-0.895508,-0.225098,0.183105,-8.636475,-0.106812
0.237305,-0.903076,-0.231934,0.724792,-8.201599,-0.175476
0.240723,-0.907227,-0.237549,1.319885,-7.637023,0.320435
0.241943,-0.901123,-0.243408,1.876831,-6.507873,0.137329
0.240967,-0.899658,-0.246826,2.01416,-4.714966,-0.312805
0.240234,-0.9021,-0.252686,1.907349,-2.731323,-0.686645
0.243164,-0.904785,-0.256836,0.984192,-1.014709,-0.396728
0.25,-0.915771,-0.25708,-0.694275,0.564575,0.62561
0.254639,-0.926025,-0.264404,-1.12915,2.838135,1.831055
0.256836,-0.933594,-0.275879,-0.37384,6.828308,4.272461
0.251465,-0.927979,-0.274414,0.724792,12.199401,7.255554
0.234375,-0.911133,-0.263916,0.87738,17.738342,8.872986
0.213623,-0.901611,-0.253906,0.518799,21.934507,8.682251
0.202393,-0.89209,-0.237793,0.244141,23.742674,8.094788
0.190918,-0.879639,-0.211182,0.007629,23.452757,7.751464
0.176025,-0.87793,-0.184082,-1.052856,20.935057,7.339477
0.164795,-0.887451,-0.168701,-1.930237,16.464233,6.408691
0.157227,-0.904541,-0.1604,-2.555847,11.375426,5.096435
0.156738,-0.916748,-0.166016,-2.449036,6.027221,4.142761
0.16626,-0.922607,-0.177734,-1.495361,0.602722,3.265381
0.17749,-0.916992,-0.187744,0.030518,-3.89862,1.747131
0.188477,-0.904053,-0.195801,1.365662,-7.125854,0.541687
0.201172,-0.89624,-0.198486,1.930237,-9.017944,-0.419617
0.213623,-0.894531,-0.201904,1.586914,-9.864807,-0.679016
0.22583,-0.897949,-0.207031,1.091003,-9.58252,-0.526428
0.236328,-0.899902,-0.21582,1.159668,-7.92694,-0.488281
0.235107,-0.895752,-0.225586,1.754761,-5.66864,-0.312805
0.231201,-0.894531,-0.240234,1.487732,-3.662109,0.62561
0.237061,-0.907471,-0.26001,-0.076294,-1.655578,2.937317
0.238037,-0.916748,-0.269531,-0.640869,1.144409,4.432678
0.230713,-0.918701,-0.262939,0.320435,4.318237,4.875183
0.226318,-0.910156,-0.250977,1.625061,7.240295,4.15802
0.216797,-0.893066,-0.235596,2.182007,9.674072,2.853393
0.208008,-0.882813,-0.217285,1.831055,11.58142,2.243042
0.199951,-0.882324,-0.20166,0.50354,12.626647,2.304077
0.183838,-0.887695,-0.191406,-0.640869,12.435912,2.029419
0.164551,-0.893311,-0.187256,-1.190186,10.848998,1.274109
0.157959,-0.894775,-0.187012,-1.419067,7.827758,0.068665
0.163086,-0.904053,-0.190186,-1.831055,4.28009,-0.976562
0.173584,-0.917725,-0.193604,-1.770019,0.823975,-1.327515
0.182129,-0.931885,-0.194824,-1.464844,-1.724243,-0.663757
0.186279,-0.93457,-0.204834,0.0,-3.02124,-0.061035
0.184082,-0.918457,-0.211426,1.701355,-3.456115,-0.152588
0.182861,-0.909668,-0.212158,2.01416,-3.601074,-0.12207
0.189209,-0.90625,-0.214844,1.747131,-3.875732,-0.221252
0.191406,-0.900635,-0.217773,1.670837,-4.150391,-0.442505
0.199707,-0.897461,-0.22168,1.541138,-4.226685,-0.961304
0.20459,-0.89624,-0.229004,1.113892,-4.081726,-1.220703
0.197754,-0.90918,-0.223877,-0.213623,-3.875732,-0.732422
0.179932,-0.92334,-0.2229,-0.343323,-4.562378,-0.411987
0.177002,-0.924805,-0.225586,1.022339,-5.874633,-1.159668
0.184326,-0.913818,-0.226563,2.380371,-7.102966,-2.311707
0.189209,-0.895508,-0.227051,2.571106,-7.957458,-2.662658
0.196289,-0.894531,-0.219727,1.754761,-8.476257,-2.6474
0.200684,-0.90332,-0.212646,0.88501,-8.773804,-2.426147
0.203613,-0.905273,-0.210205,0.816345,-8.903503,-2.311707
0.208496,-0.899658,-0.218506,1.220703,-8.773804,-2.349854
0.211914,-0.893555,-0.227295,1.220703,-8.209229,-2.075195
0.212158,-0.895996,-0.223389,0.411987,-6.988525,-1.243591
0.212646,-0.905518,-0.223389,-0.267029,-5.691528,-0.183105
0.218506,-0.9104,-0.225586,-0.114441,-4.562378,0.244141
0.221924,-0.907227,-0.228027,0.434875,-3.257751,0.335693
0.216553,-0.902344,-0.22583,0.762939,-2.01416,0.396728
0.213135,-0.897949,-0.221436,1.121521,-1.106262,0.038147
0.217773,-0.894531,-0.215088,0.953674,-0.350952,-0.518799
0.218018,-0.893311,-0.216797,0.320435,0.526428,-0.320435
0.219482,-0.898926,-0.220947,-0.541687,1.88446,0.518799
0.218506,-0.906006,-0.222412,-0.831604,3.608703,1.312256
0.212402,-0.908691,-0.223877,-0.526428,5.447387,2.029419
0.208252,-0.907227,-0.218994,-0.343323,7.04956,2.227783
0.200439,-0.906982,-0.214844,-0.282288,7.965087,2.204895
0.191406,-0.906006,-0.213379,-0.312805,7.568359,2.197266
0.192139,-0.902344,-0.213379,-0.320435,6.523132,1.663208
0.197754,-0.903076,-0.212158,-0.473022,5.897521,1.098633
0.195068,-0.907471,-0.211914,-1.014709,6.004333,1.602173
0.184814,-0.909912,-0.2146,-1.075745,6.370544,1.853943
0.182617,-0.908691,-0.218018,-0.595093,6.004333,1.686096
0.182129,-0.907471,-0.217773,-0.152588,4.943848,1.815796
0.179688,-0.906982,-0.213379,-0.038147,3.585815,1.976013
0.183838,-0.908691,-0.213135,-0.183105,2.304077,1.968384
0.190186,-0.90918,-0.213623,0.190735,1.502991,1.708984
0.187744,-0.907471,-0.217285,0.419617,0.747681,1.617432
0.182373,-0.908447,-0.223877,0.12207,-0.694275,1.663208
0.19043,-0.91626,-0.229248,-0.152588,-2.090454,1.243591
0.198975,-0.917725,-0.223389,0.106812,-2.723694,1.029968
0.203369,-0.915283,-0.217285,0.907898,-2.708435,1.152039
0.205322,-0.90918,-0.215576,1.564026,-2.250671,0.793457
0.208496,-0.901611,-0.213623,1.502991,-1.693725,0.572205
0.204834,-0.903564,-0.210205,0.854492,-1.411438,0.938415
0.199951,-0.903076,-0.212646,0.183105,-1.251221,1.251221
0.199219,-0.906982,-0.213135,-0.267029,-1.457214,1.068115
0.200928,-0.910645,-0.2146,-0.358582,-2.151489,0.740051
0.206055,-0.915283,-0.212891,-0.259399,-2.6474,0.228882
0.208008,-0.914795,-0.21875,0.12207,-2.609253,-0.099182
0.216553,-0.911621,-0.224121,0.740051,-1.403808,-0.175476
0.221191,-0.907715,-0.224121,1.213074,0.663757,-0.076294
0.212646,-0.902832,-0.219482,1.64032,2.632141,0.457764
0.201904,-0.895752,-0.217773,1.678467,4.013062,1.113892
0.197266,-0.894531,-0.215088,1.228333,4.714966,1.13678
0.193604,-0.893799,-0.219238,0.984192,4.966736,0.770569
0.196777,-0.89209,-0.217285,0.610352,4.959106,0.869751
0.199463,-0.892578,-0.221191,-0.205994,5.104064,1.304626
0.20166,-0.898438,-0.220947,-1.121521,5.760192,1.716614
0.197021,-0.907959,-0.217529,-1.770019,6.42395,2.403259
0.188721,-0.918457,-0.215576,-1.625061,6.713867,3.318786
0.181641,-0.917236,-0.218018,-0.747681,6.729125,3.27301
0.177246,-0.912842,-0.218506,-0.053406,6.309509,2.792358
0.175293,-0.908691,-0.211182,0.442505,5.508422,2.418518
0.17627,-0.90332,-0.214844,0.358582,4.211426,1.823425
0.185791,-0.901611,-0.220703,-0.236511,2.929687,1.075745
0.190918,-0.904541,-0.218018,-0.801086,2.067566,0.549316
0.195313,-0.907227,-0.219971,-0.900268,1.907349,0.679016
0.19873,-0.909668,-0.224609,-0.88501,2.555847,0.976562
0.200195,-0.913574,-0.224609,-1.083374,3.837585,1.594543
0.199219,-0.91333,-0.2229,-1.00708,5.332946,2.006531
0.19165,-0.912109,-0.219727,-0.724792,6.629943,2.243042
0.185303,-0.915527,-0.217285,-0.671387,7.003784,2.792358
0.182617,-0.917236,-0.214844,-0.167847,6.568908,2.929687
0.179443,-0.90918,-0.210449,0.259399,5.897521,2.578735
0.177979,-0.904785,-0.21167,-0.076294,5.073547,2.540588
0.181152,-0.908203,-0.214355,-0.839233,3.982544,2.418518
0.189453,-0.909912,-0.218018,-0.854492,3.532409,2.182007
0.194092,-0.908203,-0.218506,-0.694275,3.929138,2.189636
0.193359,-0.907959,-0.217529,-0.595093,4.714966,2.723694
0.195801,-0.910645,-0.216553,-0.640869,5.401611,3.15094
0.196777,-0.91333,-0.217773,-0.75531,6.065368,3.074646
0.192383,-0.912842,-0.219971,-0.671387,6.645202,3.295898
0.191162,-0.91333,-0.22876,-0.50354,7.202148,3.433227
0.192627,-0.912842,-0.228271,-0.328064,7.621765,3.112793
0.192383,-0.905762,-0.224121,-0.160217,8.255005,2.777099
0.188721,-0.903564,-0.215576,-0.213623,8.834839,2.6474
0.184082,-0.901611,-0.214111,-0.595093,9.162903,2.624511
0.182617,-0.902344,-0.212646,-1.13678,9.544373,2.441406
0.181641,-0.902588,-0.214355,-1.686096,10.185241,2.166748
0.170654,-0.905273,-0.215332,-2.029419,10.681151,2.426147
0.163818,-0.910156,-0.2146,-2.204895,10.597228,2.700805
0.162842,-0.916016,-0.214111,-2.082825,9.590149,2.716064
0.161133,-0.92041,-0.208496,-1.815796,8.110046,2.548218
0.157959,-0.925537,-0.206055,-1.434326,6.385803,2.14386
0.158447,-0.923584,-0.20874,-0.900268,4.577637,1.358032
0.165527,-0.915527,-0.209961,-0.366211,3.27301,0.50354
0.170898,-0.908691,-0.210205,-0.228882,2.593994,0.0
0.170898,-0.904785,-0.211182,-0.587463,2.334595,-0.038147
0.175049,-0.906494,-0.209229,-1.121521,2.39563,0.160217
0.179932,-0.912842,-0.211182,-1.89209,2.670288,0.541687
0.181641,-0.924072,-0.213379,-2.388,2.89154,1.281738
0.181885,-0.928467,-0.21582,-1.869202,3.265381,1.266479
0.179688,-0.92627,-0.217529,-0.907898,3.166198,0.984192
0.177246,-0.920898,-0.209229,0.053406,3.089905,0.617981
0.172119,-0.912598,-0.21167,0.617981,2.853393,0.320435
0.172363,-0.906738,-0.208252,0.427246,2.388,0.198364
0.17749,-0.906982,-0.20752,-0.053406,2.174377,0.450134
0.178711,-0.909424,-0.20459,-0.556946,2.304077,0.923157
0.179932,-0.915283,-0.206787,-0.823975,2.525329,1.464844
0.18335,-0.919189,-0.213379,-0.671387,2.754211,1.770019
0.1875,-0.918457,-0.215576,-0.267029,2.838135,1.411438
0.189697,-0.913086,-0.213379,0.213623,2.975464,0.869751
0.188965,-0.915039,-0.214355,0.076294,3.189087,0.88501
0.187012,-0.920654,-0.216553,-0.473022,3.387451,1.602173
0.190674,-0.922363,-0.220947,-0.259399,4.005432,1.76239
0.193359,-0.91748,-0.220215,0.198364,5.271911,1.525879
0.186279,-0.910889,-0.213379,0.572205,6.568908,1.434326
0.172363,-0.908203,-0.209717,0.434875,7.026672,1.480102
0.17334,-0.914307,-0.208252,-0.267029,6.721496,1.144409
0.181641,-0.91748,-0.208008,-0.63324,6.378173,0.450134
0.18042,-0.920654,-0.212891,-0.556946,6.355285,0.068665
0.175049,-0.926758,-0.208984,-0.465393,6.179809,0.450134
0.167969,-0.929688,-0.203125,0.015259,5.378723,0.862122
0.169678,-0.923828,-0.204834,1.190186,4.631042,0.679016
0.172363,-0.913818,-0.203613,1.869202,4.104614,0.404358
0.166992,-0.913574,-0.202637,1.525879,3.52478,0.63324
0.160889,-0.915039,-0.202637,0.976562,2.563476,0.610352
0.164795,-0.916016,-0.205566,1.060486,1.251221,-0.045776
0.169189,-0.91626,-0.208984,1.274109,0.1297,-0.541687
0.180908,-0.916016,-0.205811,1.13678,-0.38147,-0.732422
0.185303,-0.917236,-0.208008,0.87738,-0.473022,-0.640869
0.186523,-0.922119,-0.208984,0.747681,-0.335693,-0.259399
0.1875,-0.92334,-0.210205,0.663757,-0.160217,0.12207
0.190186,-0.921875,-0.206787,1.159668,0.480652,0.099182
0.186523,-0.918701,-0.207275,1.708984,1.472473,0.221252
0.185059,-0.913574,-0.20874,1.960754,2.426147,0.221252
0.182617,-0.907959,-0.208496,2.059937,3.280639,0.076294
0.181641,-0.906738,-0.20752,1.777649,3.791809,-0.038147
0.181152,-0.90918,-0.206299,1.098633,3.974914,0.183105
0.17334,-0.909668,-0.203369,1.060486,3.700256,-0.144958
0.161133,-0.907471,-0.202881,1.220703,2.6474,-0.526428
0.159912,-0.906738,-0.199707,1.045227,0.587463,-0.930786
0.166016,-0.907227,-0.19873,0.75531,-1.63269,-1.838684
0.172363,-0.909912,-0.197266,0.350952,-2.990722,-2.326965
0.176025,-0.914551,-0.20166,0.205994,-3.372192,-2.418518
0.18042,-0.914063,-0.208984,0.37384,-3.089905,-2.471924
0.184326,-0.913086,-0.211426,0.556946,-2.532959,-2.189636
0.182617,-0.915771,-0.207764,0.679016,-2.098083,-1.815796
0.185547,-0.91626,-0.204346,0.930786,-1.815796,-1.609802
0.188477,-0.91333,-0.201416,1.274109,-1.541138,-1.701355
0.181885,-0.909424,-0.199219,1.13678,-1.495361,-1.770019
0.185547,-0.9104,-0.204102,0.740051,-1.754761,-2.006531
0.190674,-0.910889,-0.203857,0.50354,-1.670837,-2.27356
0.184814,-0.912109,-0.208984,0.610352,-1.426697,-1.876831
0.181885,-0.912598,-0.209961,0.740051,-1.373291,-1.602173
0.181152,-0.912598,-0.210449,0.75531,-1.693725,-1.602173
0.181885,-0.909912,-0.204834,0.732422,-2.113342,-1.701355
0.186035,-0.909912,-0.198242,0.488281,-1.983642,-1.876831
0.188232,-0.9104,-0.199463,0.434875,-1.533508,-2.182007
0.189209,-0.9104,-0.202881,0.289917,-0.839233,-2.326965
0.186035,-0.911133,-0.203613,0.450134,-0.267029,-2.311707
0.179443,-0.907715,-0.201416,0.671387,-0.114441,-2.311707
0.178955,-0.906006,-0.201416,0.564575,-0.396728,-2.502441
0.178955,-0.90625,-0.200928,0.282288,-0.862122,-2.685547
0.179443,-0.908203,-0.202393,-0.015259,-1.449585,-2.914428
0.181885,-0.911377,-0.201416,-0.137329,-2.14386,-3.311157
0.185791,-0.913086,-0.20166,-0.198364,-2.876281,-3.791809
0.1875,-0.912842,-0.200684,-0.083923,-3.486633,-4.501343
0.191895,-0.90918,-0.203369,0.053406,-3.631592,-5.226135
0.19751,-0.905762,-0.20459,0.045776,-3.486633,-5.836486
0.199219,-0.904541,-0.203857,-0.114441,-3.097534,-6.263732
0.19873,-0.90332,-0.202148,-0.167847,-2.403259,-6.942749
0.197021,-0.90332,-0.198242,-0.038147,-1.792908,-7.705688
0.195313,-0.896484,-0.195068,0.106812,-1.182556,-8.529663
0.190674,-0.894287,-0.19751,0.236511,-0.892639,-9.819031
0.190674,-0.897217,-0.195068,0.152588,-1.113892,-11.039733
0.198486,-0.907227,-0.194336,-0.411987,-1.449585,-11.985778
0.203125,-0.914063,-0.199463,0.419617,-1.609802,-13.069152
0.205078,-0.915771,-0.202637,2.174377,-1.373291,-14.381408
0.207031,-0.912354,-0.211914,4.28009,-0.87738,-15.762328
0.216309,-0.907959,-0.217529,6.446838,0.244141,-16.838074
0.228271,-0.898193,-0.216064,8.804321,2.189636,-17.333984
0.234863,-0.887451,-0.219482,10.368346,4.28009,-17.021179
0.244629,-0.887939,-0.209961,11.756896,6.347656,-16.815186
0.246826,-0.896484,-0.174316,13.404845,8.041382,-18.630981
0.240479,-0.910889,-0.157471,14.381408,7.415771,-21.90399
0.243408,-0.94165,-0.157959,15.556334,4.478455,-24.559019
0.248291,-0.965332,-0.15918,19.15741,1.724243,-25.703428
0.251953,-0.970947,-0.168701,24.818419,0.671387,-25.154112
0.239258,-0.963867,-0.166504,34.0271,-0.160217,-23.384092
0.209229,-0.945068,-0.155029,42.350765,-2.311707,-21.041868
0.19873,-0.921387,-0.16333,46.485897,-5.516052,-21.537779
0.221191,-0.889893,-0.156494,50.109859,-9.399414,-20.011902
0.248535,-0.864258,-0.139648,49.97253,-12.359618,-17.189026
0.268799,-0.847168,-0.137695,46.752926,-13.816833,-16.288757
0.302246,-0.845459,-0.147949,42.91534,-13.648986,-15.693664
0.345459,-0.849365,-0.147461,38.528442,-12.313842,-15.441894
0.379395,-0.860596,-0.144775,34.599304,-11.169433,-16.326904
0.399658,-0.879639,-0.143311,32.585144,-10.292052,-18.501282
0.405518,-0.877686,-0.14209,35.316467,-10.261535,-20.950315
0.399414,-0.850098,-0.138428,39.329529,-11.520385,-22.644041
0.398438,-0.796631,-0.121826,41.90826,-12.649535,-24.192808
0.403564,-0.740479,-0.080078,41.076656,-14.823913,-26.367186
0.404053,-0.692871,-0.019043,36.300659,-18.363953,-30.754087
0.411133,-0.670654,0.008545,27.580259,-23.086546,-35.758972
0.439209,-0.664795,-0.008545,17.555237,-26.763914,-39.405823
0.469727,-0.660889,-0.035645,9.803772,-27.580259,-43.632504
0.477539,-0.648193,-0.076416,5.66864,-27.313231,-49.751278
0.505127,-0.61499,-0.124023,7.087707,-24.230955,-58.227535
0.530273,-0.565186,-0.173828,8.995056,-13.648986,-61.470028
0.535156,-0.529541,-0.19043,9.872437,-0.808716,-60.844418
0.580078,-0.505127,-0.1604,8.31604,19.187927,-57.228085
0.60376,-0.517578,-0.130127,2.319336,47.119137,-51.795956
0.561523,-0.558838,-0.110107,-4.669189,76.049805,-46.07391
0.47998,-0.603516,-0.098145,-10.765075,101.486198,-38.383484
0.390869,-0.632813,-0.075195,-14.312743,117.774956,-33.294678
0.325928,-0.656738,-0.066895,-17.021179,120.62072,-31.990049
0.348633,-0.672852,-0.115967,-20.347593,116.661064,-30.6015
0.431396,-0.679199,-0.173584,-21.14868,116.905205,-27.763365
0.473877,-0.665039,-0.205566,-20.256041,124.15313,-24.459837
0.452393,-0.656738,-0.214355,-21.713255,133.651733,-21.766661
0.408203,-0.671631,-0.20874,-25.749205,139.48822,-18.821716
0.389893,-0.697998,-0.193848,-27.481077,140.457153,-16.181946
0.398193,-0.696533,-0.158691,-25.657652,141.159058,-17.25769
0.364014,-0.6875,-0.130371,-21.766661,137.405396,-19.973755
0.358887,-0.652588,-0.102783,-16.868591,127.16674,-17.189026
0.384277,-0.60376,-0.076416,-15.472411,122.13134,-16.456604
0.36084,-0.59375,-0.069824,-19.577026,118.057243,-17.875671
0.312012,-0.604736,-0.067383,-27.153013,112.831108,-17.837524
0.299072,-0.645752,-0.047363,-37.567139,105.37719,-19.897461
0.277832,-0.718018,-0.037109,-47.828671,95.947258,-19.996643
0.262207,-0.781738,-0.03125,-49.934383,84.259026,-21.781919
0.251221,-0.789795,-0.026611,-42.259212,70.129395,-27.427671
0.233887,-0.736816,-0.030273,-30.639647,56.182858,-35.087585
0.224609,-0.651367,-0.031982,-23.712156,41.78619,-42.900082
0.201416,-0.585449,-0.047119,-26.573179,24.574278,-47.33276
0.186523,-0.580811,-0.066162,-38.330078,1.785278,-49.934383
0.143066,-0.611328,-0.111328,-54.023739,-25.520323,-49.46899
0.122559,-0.677734,-0.147461,-66.131592,-60.363766,-54.069515
0.208496,-0.763916,-0.129639,-71.456909,-87.455742,-59.326168
0.282959,-0.853271,-0.088623,-70.968628,-107.89489,-59.410091
0.356934,-0.939209,-0.057373,-66.497803,-112.396233,-50.170895
0.376953,-0.942871,-0.080078,-54.107662,-103.553764,-38.589478
0.374512,-0.898682,-0.103516,-39.024353,-87.09716,-42.427059
0.390137,-0.851318,-0.105225,-31.524656,-63.880917,-53.169247
0.431396,-0.864746,-0.117432,-35.820007,-43.04504,-48.851009
0.378662,-0.857422,-0.114502,-40.367123,-27.9541,-25.215147
0.327393,-0.897705,-0.111328,-41.290279,-26.115416,-24.185179
0.328857,-0.970947,-0.106201,-36.636353,-31.471251,-34.660339
0.407959,-1.045654,-0.073486,-25.512693,-40.267941,-34.049988
0.443848,-1.049805,-0.060791,-7.446289,-46.752926,-24.536131
0.534424,-1.00708,-0.074219,10.520934,-42.732235,-19.546509
0.698242,-0.947754,-0.045654,19.294739,-19.775391,-6.942749
0.728027,-0.894531,-0.026611,18.562317,11.978148,-1.487732
0.711914,-0.901611,-0.023926,7.789611,40.641781,1.052856
0.692871,-0.956543,0.012939,-4.402161,57.380672,4.524231
0.705566,-1.047852,0.051758,-10.490417,56.564327,-0.999451
0.766846,-1.123779,0.037109,-14.190673,43.121334,-10.95581
0.874512,-1.160889,0.021729,-14.671325,29.029844,-24.894712
0.923584,-1.159912,0.036621,-11.482238,21.453856,-30.113218
0.897705,-1.112793,0.062256,-4.501343,18.547058,-37.826538
0.870361,-1.065674,0.097412,2.433777,10.581969,-60.279842
0.904785,-1.017334,0.082275,5.836486,-9.58252,-92.658989
1.012695,-0.977539,-0.052734,3.807068,-42.648312,-126.892082
1.176025,-0.968994,-0.164551,4.547119,-76.179504,-158.920288
1.401367,-1.050293,-0.110596,15.014647,-100.58593,-190.628036
1.603271,-1.056885,0.020752,29.350279,-102.424614,-186.477646
1.690674,-0.936768,0.039307,29.632566,-78.712463,-165.679916
1.65625,-0.861816,-0.036865,13.175963,-47.752377,-162.422165
1.606445,-0.876221,-0.106445,-0.75531,-19.958496,-173.721298
1.513428,-0.921631,-0.135254,-6.790161,-3.65448,-184.722885
1.371338,-0.960693,-0.202148,-8.148193,-7.270813,-194.99205
1.352783,-0.957275,-0.293945,-4.066467,-24.063108,-207.359299
1.485107,-0.880615,-0.385498,4.379272,-38.009644,-213.699326
1.745117,-0.75293,-0.401855,11.169433,-33.317566,-208.908066
1.992188,-0.644775,-0.364746,8.117676,-6.599426,-202.362045
2.05835,-0.618408,-0.304443,-6.690979,35.896301,-203.231796
1.999512,-0.653076,-0.262939,-22.544859,74.966431,-210.952744
1.901367,-0.653564,-0.278809,-29.991148,92.39196,-214.614853
1.844727,-0.577393,-0.380859,-32.88269,90.12603,-212.615952
1.820557,-0.496826,-0.518555,-33.828735,79.055786,-213.813766
1.918213,-0.449219,-0.529785,-31.562803,77.003479,-223.205551
1.95459,-0.447266,-0.416504,-32.562256,81.718437,-235.580429
1.849609,-0.427002,-0.289551,-31.562803,83.709709,-241.340622
1.860352,-0.313232,-0.230957,-28.511045,83.007805,-243.667587
1.818115,-0.23584,-0.231201,-38.43689,82.023613,-243.873581
1.590576,-0.257568,-0.242676,-49.293514,86.494438,-242.462143
1.502441,-0.224365,-0.180664,-47.233578,98.999016,-243.873581
1.526123,-0.13501,-0.124268,-41.168209,110.275261,-248.077377
1.487793,-0.072998,-0.061523,-38.085938,121.658318,-245.658859
1.365234,-0.054443,-0.008057,-35.545349,135.749817,-240.219101
1.327881,-0.009521,-0.041016,-28.648375,152.252197,-236.206039
1.423828,0.05542,-0.116943,-24.154661,167.991623,-232.254013
1.332031,0.093262,-0.03833,-26.908873,183.685287,-226.524338
0.967285,0.077393,0.084473,-30.540464,199.188217,-221.405014
0.66626,0.145264,0.100098,-30.830381,202.140793,-217.277512
0.661377,0.265869,0.08374,-34.339905,188.224777,-211.921677
0.752197,0.325928,0.036865,-45.600887,163.352951,-204.483017
0.837646,0.301025,0.046631,-56.335445,144.27948,-193.908676
0.895752,0.226807,0.169189,-59.066769,142.00592,-178.543076
0.801514,0.187256,0.246338,-54.237362,152.877808,-163.650497
0.618408,0.177246,0.280518,-47.134396,161.918625,-155.49469
0.503174,0.181885,0.289307,-39.56604,162.918076,-145.40863
0.463135,0.228271,0.27832,-32.180786,163.24614,-134.605408
0.427002,0.248779,0.246094,-30.166624,169.212326,-124.008171
0.342529,0.238037,0.210205,-31.166075,178.543076,-114.753716
0.229004,0.213379,0.209229,-33.485413,183.288559,-107.719414
0.149414,0.176025,0.217773,-35.03418,175.025925,-102.111809
0.11499,0.152588,0.219971,-33.653259,155.471802,-94.78759
0.102539,0.144775,0.203857,-29.846189,136.688232,-84.861748
0.090576,0.156006,0.196777,-25.80261,126.220695,-73.776245
0.055176,0.163574,0.186768,-23.216246,120.086662,-62.538143
-0.007324,0.155273,0.16748,-21.408079,112.976067,-50.292965
-0.042236,0.139404,0.148926,-21.171568,106.780998,-38.497925
-0.030029,0.11084,0.144531,-22.621153,103.897087,-28.594969
-0.036377,0.062012,0.130371,-22.560118,102.844231,-20.13397
-0.060547,0.030273,0.111084,-20.248411,101.020805,-12.039184
-0.059082,0.02832,0.096191,-17.852783,97.80883,-5.79071
-0.050781,0.025391,0.081299,-17.341614,91.300957,-3.120422
-0.069092,0.023193,0.058594,-16.746521,83.480827,-0.953674
-0.092773,0.028076,0.055664,-15.663146,76.118469,2.174377
-0.09668,0.036377,0.059326,-14.961242,68.03894,3.77655
-0.058838,0.048584,0.076904,-13.954162,62.232967,4.981995
0.084961,0.084717,0.121582,-14.411925,66.673279,6.645202
0.264893,0.12207,0.088867,-20.866392,81.68792,9.552002
0.373291,0.144043,0.009766,-32.028198,101.325981,14.160155
0.330566,0.153076,-0.028564,-37.910461,117.897026,16.00647
0.188965,0.171387,0.001221,-33.889771,127.349846,8.94928
0.082031,0.195801,0.025879,-28.320311,124.320976,-8.81958
0.038818,0.202148,0.053223,-25.444029,107.162468,-27.809141
0.024414,0.192871,0.067139,-21.797178,80.291748,-41.679379
0.004395,0.202148,0.058594,-14.816283,51.605221,-52.536007
0.025146,0.246826,0.07666,-6.91986,27.511595,-61.477657
0.121826,0.296387,0.130859,-1.342773,14.35089,-65.284729
0.242188,0.335449,0.174316,1.708984,18.234253,-59.860226
0.34375,0.358643,0.171631,2.89917,36.125183,-46.905514
0.312012,0.37793,0.153564,3.211975,52.818295,-34.385681
0.147949,0.415527,0.189941,7.93457,60.447689,-32.325745
-0.00293,0.494385,0.287109,17.677307,54.176327,-39.779663
-0.097412,0.593018,0.470215,26.618956,35.095215,-46.440121
-0.105469,0.677979,0.664063,29.731749,11.192321,-48.194881
-0.049805,0.74707,0.78125,28.976439,-12.931823,-47.20306
0.035889,0.814941,0.841064,29.525755,-33.943176,-45.3186
0.076172,0.932129,0.802979,38.490295,-44.471737,-37.689209
0.060791,1.063477,0.787842,48.385616,-51.002499,-32.546997
-0.026367,1.172363,0.854248,43.685909,-58.616634,-24.772642
-0.099121,1.182861,0.937744,26.741026,-69.366455,-21.614073
-0.123535,1.238037,1.16626,-2.700805,-85.189812,-16.540527
0.077148,1.026123,1.051025,-36.560059,-95.680229,-20.042419
0.289063,1.067139,1.185791,37.765503,-85.723869,-27.488707
0.414795,1.099365,1.210449,42.984005,-73.974609,11.428832
0.468506,1.034912,1.147461,6.759643,-52.581783,28.640745
0.447998,0.935791,1.084717,-9.384155,-21.781919,13.748168
0.297852,0.830566,1.099365,-10.70404,-0.442505,4.951477
0.172607,0.738525,1.0979,-11.70349,-0.083923,8.19397
0.091309,0.684814,1.058105,-7.827758,-14.389037,8.094788
0.032227,0.666504,1.018555,-1.167297,-36.529541,0.946045
0.094482,0.702637,1.013916,6.484985,-55.831905,-7.797241
0.262695,0.74585,1.009277,10.330199,-64.300537,-6.698608
0.400146,0.729004,0.954834,5.966186,-54.534908,10.665893
0.476563,0.667236,0.888428,-4.104614,-24.92523,32.264709
0.512207,0.599365,0.820801,-12.321471,13.267516,46.737667
0.473633,0.538086,0.740234,-13.755797,43.739315,55.076595
0.319336,0.510254,0.665527,-9.788513,53.421017,58.021542
0.147217,0.510742,0.633789,-4.455566,36.567688,52.955624
0.0271,0.497559,0.638672,-2.120972,-3.334045,45.166012
-0.021729,0.439453,0.651611,-2.693176,-53.695675,40.359493
0.020752,0.361084,0.645996,-0.854492,-95.66497,37.948608
0.108154,0.334229,0.615967,3.349304,-117.210381,37.864685
0.194092,0.32959,0.588135,4.676819,-111.785881,43.17474
0.237793,0.314453,0.534912,3.570556,-78.414917,55.809017
0.240234,0.302734,0.491943,-1.647949,-26.374815,71.929932
0.175781,0.289551,0.477051,-12.46643,29.71649,89.637749
0.06543,0.256348,0.45459,-25.749205,73.242188,106.651299
-0.003418,0.219971,0.42749,-39.833069,91.644279,120.193474
-0.011963,0.153564,0.38208,-54.145809,82.679741,129.562378
0.001465,0.080566,0.317139,-62.484737,54.725643,139.259338
0.01709,0.050049,0.268555,-60.874935,26.969908,149.810791
0.004395,0.057617,0.231445,-53.451534,4.234314,157.058716
-0.022461,0.080078,0.212158,-47.180172,-17.39502,164.283737
-0.021729,0.092285,0.210449,-42.732235,-33.256531,173.957809
0.008057,0.109619,0.196533,-38.703918,-38.757324,187.492355
0.040771,0.129395,0.180664,-38.635254,-34.187317,202.453598
0.068115,0.135986,0.18335,-42.633053,-24.497984,218.894943
0.093262,0.124756,0.197021,-50.643917,-12.535094,237.770065
0.12085,0.091797,0.238525,-63.598629,-2.365112,249.992355
0.194824,0.03418,0.297852,-79.50592,-0.549316,249.992355
0.27002,-0.052246,0.315674,-94.840996,-11.688231,249.763474
0.2854,-0.145996,0.291992,-107.192986,-31.112669,249.992355
0.266846,-0.234863,0.278809,-116.851799,-54.489132,249.992355
0.265625,-0.323975,0.235596,-122.947685,-82.244865,249.992355
0.253906,-0.421875,0.087158,-122.047417,-110.91613,249.992355
0.225586,-0.510986,-0.090088,-112.55645,-131.278992,249.992355
0.255615,-0.600342,-0.092041,-95.146172,-140.609741,249.992355
0.311523,-0.733643,0.05835,-66.963196,-147.186279,249.992355
0.340576,-0.904297,0.279785,-33.218384,-166.786179,249.992355
0.365479,-1.095703,0.60498,-9.048462,-200.347885,249.992355
0.505615,-1.326904,0.849854,1.373291,-231.430038,249.992355
0.831543,-1.508545,0.841553,7.606506,-249.023422,249.992355
1.065186,-1.594482,0.668945,16.548157,-249.992355,249.992355
1.057373,-1.500977,0.510498,34.049988,-249.237045,249.992355
0.910889,-1.331299,0.389648,53.939816,-243.919357,249.992355
0.736816,-1.303955,0.243652,64.346313,-242.919907,249.992355
0.618652,-1.432861,0.015137,67.398071,-248.825058,249.992355
0.645264,-1.644531,-0.108154,80.558769,-249.992355,249.992355
0.775391,-1.739014,-0.066162,116.127007,-249.954208,249.992355
1.064941,-1.620117,0.041504,151.802063,-249.961838,249.992355
1.415771,-1.51001,0.08374,165.061935,-249.992355,249.992355
1.527832,-1.449219,0.017822,172.203049,-249.992355,249.992355
1.484375,-1.368896,-0.048584,188.262924,-249.992355,249.992355
1.398193,-1.267334,-0.06958,206.565842,-249.992355,246.650681
1.358154,-1.149658,-0.037109,218.330368,-249.992355,220.100388
1.424316,-1.035645,0.015625,220.352158,-249.992355,184.181198
1.574951,-0.952148,0.037354,213.050827,-249.992355,155.715942
1.718994,-0.871826,0.072754,198.14299,-249.992355,132.957458
1.742188,-0.873047,0.143799,178.825363,-248.146042,101.730339
1.59668,-0.900879,0.145752,162.620529,-205.596909,78.994751
1.555176,-0.893311,0.010254,140.274048,-133.56781,60.348507
1.647217,-0.874023,-0.165283,115.653984,-75.561523,32.409668
1.706787,-0.821289,-0.281006,104.919426,-24.375914,10.391234
1.580566,-0.726563,-0.34668,108.02459,15.48767,3.677368
1.308594,-0.59375,-0.325928,112.945549,33.218384,2.754211
1.105469,-0.50293,-0.226318,110.626213,26.229856,-5.073547
1.051514,-0.480957,-0.06543,106.407158,-0.930786,-20.271299
1.029297,-0.481445,0.068604,107.856743,-36.987305,-35.324097
1.033691,-0.47168,0.062012,109.649651,-64.468384,-47.477718
1.071045,-0.481689,-0.063965,106.742851,-78.491211,-59.875484
1.081055,-0.505371,-0.181152,103.47747,-83.419792,-68.199158
1.04834,-0.496582,-0.235596,102.066032,-83.007805,-70.602417
1.056885,-0.445068,-0.185059,101.036064,-79.582214,-73.356628
1.110107,-0.375,-0.083008,94.833366,-74.790955,-78.842163
1.150635,-0.307373,0.009033,77.537537,-66.734314,-82.778923
1.161377,-0.276611,0.087402,50.437923,-52.970882,-82.695
1.152832,-0.284424,0.130127,21.720884,-36.178589,-82.000725
1.118408,-0.307129,0.08374,-1.182556,-22.094725,-82.93914
1.075684,-0.324219,-0.013672,-16.021729,-11.337279,-83.061211
1.035156,-0.332031,-0.080078,-25.024412,-3.028869,-81.161491
1.022705,-0.35498,-0.095215,-32.783508,0.640869,-77.857971
1.027344,-0.405518,-0.0979,-41.358944,-2.632141,-73.051453
1.034912,-0.481445,-0.102539,-53.176876,-12.351989,-65.917969
1.030762,-0.588867,-0.130859,-68.92395,-26.31378,-57.312008
1.040527,-0.712402,-0.161133,-83.717339,-39.039612,-47.302242
1.105957,-0.792236,-0.11499,-93.284599,-39.260864,-38.452148
1.24292,-0.788086,-0.029541,-100.532524,-17.448425,-37.391663
1.364014,-0.773193,0.035889,-113.18969,22.232054,-44.075008
1.432373,-0.779541,0.062256,-131.67572,71.655273,-49.987789
1.459229,-0.824463,0.067627,-152.679443,120.948784,-50.041195
1.443604,-0.886963,0.026367,-173.843369,162.055954,-45.303341
1.433594,-0.961426,-0.065918,-193.6035,188.285812,-41.633602
1.47998,-1.055908,-0.166504,-206.764206,193.328842,-43.647762
1.463135,-1.145264,-0.210205,-212.409958,174.339279,-52.177425
1.288818,-1.225342,-0.287598,-213.745102,141.899109,-64.39209
1.168701,-1.322021,-0.378906,-207.778915,108.558647,-90.530388
1.284424,-1.376465,-0.323486,-188.613876,74.211121,-133.392334
1.533691,-1.261963,-0.185791,-165.420517,40.145874,-176.956161
1.757568,-1.092773,-0.05957,-160.873398,15.884398,-203.430161
1.845703,-1.051025,0.032715,-178.672775,2.998352,-208.763107
1.884033,-1.109131,0.10376,-204.284653,-4.867554,-207.229599
1.80835,-1.173828,0.08667,-229.446396,-20.545958,-209.571823
1.651855,-1.197021,-0.05127,-245.712265,-47.172543,-216.201767
1.604736,-1.189697,-0.200439,-246.833786,-72.120667,-226.959213
1.761963,-1.151855,-0.236084,-233.528122,-81.382744,-241.706833
1.942627,-1.083496,-0.173096,-217.597946,-71.876526,-249.992355
2.018799,-1.025879,-0.033691,-211.173996,-52.238461,-246.986374
1.921387,-0.999268,0.021484,-213.493332,-37.307739,-237.853989
1.763916,-1.013184,-0.030518,-217.514023,-26.161192,-227.706894
1.760986,-1.033447,-0.0625,-218.025192,-16.441345,-222.251877
1.733887,-1.012939,0.009277,-217.124924,-10.56671,-218.345627
1.577393,-0.928467,0.068604,-211.891159,-1.991272,-211.479172
1.460205,-0.816406,0.289063,-195.99913,9.910583,-211.013779
1.404785,-0.689697,0.590332,-178.573593,20.927427,-212.615952
1.335938,-0.569092,0.693604,-169.708237,37.643433,-206.527695
1.239502,-0.460205,0.626953,-162.85704,67.070007,-193.336472
1.109375,-0.349365,0.527344,-151.374817,108.39843,-178.657516
0.950684,-0.25415,0.39624,-134.651184,152.427673,-166.038498
0.756348,-0.179443,0.210693,-112.976067,187.011703,-155.227661
0.570557,-0.12207,0.031982,-88.836662,206.359848,-141.807556
0.467529,-0.071533,-0.04126,-68.435669,212.829575,-121.200554
0.395752,-0.036865,-0.018555,-56.724545,205.894455,-100.990288
0.280029,-0.043213,0.053711,-54.168697,183.731064,-87.455742
0.01001,-0.169189,0.285889,-55.130001,141.723633,-75.035095
-0.20459,-0.36792,0.648193,-43.136593,82.824699,-61.088558
-0.3125,-0.494873,0.734619,-7.896423,-7.942199,-70.297241
-0.39209,-0.345703,0.47876,36.712646,-110.420219,-99.731438
-0.239258,-0.046143,0.334717,55.809017,-185.569748,-118.797295
0.13501,0.075195,0.322266,41.137691,-209.4879,-116.134636
0.439941,0.107178,0.256592,15.61737,-173.599228,-105.026237
0.571777,0.146729,0.106201,-11.19995,-90.164177,-96.473686
0.48999,0.152832,0.033691,-39.047241,15.86151,-88.630669
0.309814,0.051758,0.220459,-62.812801,107.856743,-82.916252
0.113525,-0.100098,0.384766,-73.226929,155.014038,-78.643799
-0.046143,-0.209229,0.368896,-68.695068,169.616684,-75.508118
-0.123535,-0.228516,0.278809,-54.229733,166.336044,-75.531006
-0.16626,-0.172119,0.174316,-38.55896,149.040222,-76.217651
-0.169922,-0.098877,0.118164,-26.382444,127.716057,-75.706482
-0.095459,-0.045166,0.079102,-19.538879,111.503593,-75.325012
0.063232,-0.024902,0.05249,-16.960144,101.356499,-76.530457
0.194824,-0.051758,0.092529,-18.264771,95.581047,-75.721741
0.203857,-0.092773,0.103027,-21.888731,97.114555,-72.570801
0.166016,-0.125244,0.056396,-23.277281,109.863274,-69.198608
0.131592,-0.135498,-0.022217,-19.27948,130.836487,-66.131592
0.103027,-0.114258,-0.084229,-13.679503,154.754639,-64.796448
0.086914,-0.075195,-0.104492,-12.580871,177.131638,-70.3125
0.077393,-0.065918,-0.09082,-16.082764,195.846542,-80.26886
0.081787,-0.098633,-0.046875,-19.828796,209.678635,-86.608879
0.072266,-0.138428,-0.056396,-20.278929,214.599594,-89.408867
0.023438,-0.142822,-0.13623,-16.799927,205.718979,-92.864983
-0.054199,-0.114014,-0.2146,-11.71112,180.717453,-98.503105
-0.110352,-0.081787,-0.25293,-6.149292,142.730713,-103.210442
-0.03833,-0.049072,-0.201904,0.434875,106.37664,-99.273674
0.245117,-0.015869,-0.094971,5.104064,83.244316,-85.685722
0.490723,0.016357,-0.079102,0.709534,73.043823,-68.771362
0.543945,0.036133,-0.130127,-15.029906,80.490105,-50.659176
0.493408,0.026855,-0.137207,-33.294678,101.142876,-32.073975
0.460205,0.009521,-0.083496,-39.512634,112.258904,-19.332886
0.410156,0.022705,-0.034668,-32.081604,94.596855,-16.029358
0.257813,0.075928,-0.055176,-13.038634,51.467892,-20.347593
0.06665,0.197754,-0.096191,18.783569,-0.335693,-26.55792
0.06958,0.40332,-0.021484,57.228085,-52.703854,-33.081055
0.365479,0.594482,0.135498,87.745659,-109.992973,-39.108276
0.677734,0.694092,0.351807,98.999016,-166.427597,-31.021116
0.958496,0.785889,0.569336,66.574097,-187.469467,-1.51062
1.017822,0.766113,0.591553,50.491329,-177.520737,28.137205
0.955078,0.80957,0.73291,54.298397,-148.574829,61.737057
0.970215,0.733398,0.793457,36.53717,-102.500908,63.995358
0.897705,0.566406,0.781494,19.233704,-60.348507,71.998596
0.684326,0.497314,0.723145,15.99121,-35.560608,105.361931
0.529541,0.514648,0.663574,26.458738,-39.054871,134.590149
0.487793,0.563477,0.625732,48.446651,-58.28857,160.392761
0.474609,0.588623,0.596436,71.403503,-87.837212,194.206223
0.422607,0.549316,0.538574,82.473747,-117.080681,236.389145
0.366943,0.4729,0.492432,87.829582,-135.986328,249.992355
0.357422,0.36792,0.499512,87.593071,-145.91217,249.992355
0.337646,0.196289,0.493896,79.574585,-150.314331,249.633774
0.294678,0.000244,0.440674,67.985535,-152.412415,249.992355
0.281006,-0.216553,0.433105,52.490231,-157.928467,249.992355
0.36792,-0.480225,0.452393,34.294128,-170.021042,249.992355
0.641113,-0.78125,0.379395,18.989563,-192.771896,249.992355
0.938232,-1.117432,0.143799,7.415771,-231.857285,249.992355
1.02002,-1.479492,-0.000244,0.305176,-249.992355,249.992355
0.919678,-1.815918,0.028076,15.068053,-249.992355,249.992355
0.785156,-1.857178,-0.090576,71.548462,-249.55748,249.992355
0.652832,-1.632324,-0.123047,125.793449,-249.992355,249.992355
0.619629,-1.507568,0.040527,141.197205,-249.992355,249.992355
0.533691,-1.738037,0.014893,123.779289,-249.992355,249.992355
0.416504,-2.480713,-0.098633,114.402763,-249.992355,249.992355
0.498291,-3.237549,-0.667236,193.328842,-249.992355,249.992355
0.209473,-3.269775,-0.94458,249.992355,-249.992355,249.992355
1.372314,-3.378174,-1.994141,249.992355,-249.992355,249.992355
2.580811,-3.468018,-1.723145,248.336777,-249.992355,249.992355
1.803955,-2.745117,-0.797607,249.992355,-201.049789,249.992355
1.335449,-2.443848,-0.888428,249.992355,44.31152,249.992355
1.23877,-2.448975,-1.032959,249.961838,241.287216,249.992355
1.157715,-2.135498,-1.014404,249.992355,249.992355,249.992355
1.084961,-1.752686,-0.992432,249.992355,247.756943,249.992355
1.008301,-1.4375,-0.937012,249.290451,249.488815,249.992355
0.92627,-1.106934,-0.968018,224.769577,249.992355,249.992355
0.813965,-1.043701,-0.790527,175.262436,249.969467,249.992355
0.598145,-1.075684,-0.534912,142.234802,249.984726,249.992355
0.323486,-1.05835,-0.453369,118.469231,249.992355,249.992355
0.073242,-0.996094,-0.400879,100.33416,249.992355,249.992355
-0.099854,-0.871826,-0.289063,86.433403,249.992355,245.422348
-0.190918,-0.754883,-0.158203,71.69342,239.753708,217.712387
-0.251221,-0.694092,-0.036621,54.695126,193.290695,179.267868
-0.338867,-0.639648,0.104736,32.684326,140.296936,136.375427
-0.335449,-0.653076,0.18042,-0.465393,90.835564,92.384331
-0.249756,-0.713867,0.21582,-33.882141,40.52734,52.818295
-0.161133,-0.751465,0.24585,-56.488033,-7.637023,19.577026
-0.097168,-0.753906,0.233887,-70.518494,-50.697323,-2.89917
-0.001465,-0.716553,0.178955,-78.094482,-88.783257,-19.454956
0.127686,-0.677734,0.109375,-79.429626,-122.50518,-36.972046
0.162842,-0.655762,0.049561,-75.172424,-147.674561,-47.355648
0.155762,-0.640869,-0.002686,-66.673279,-162.490829,-45.471188
0.16748,-0.634766,-0.071289,-58.845516,-169.380173,-36.354065
0.193848,-0.638184,-0.174805,-51.650997,-166.824326,-25.856016
0.258789,-0.642822,-0.241943,-38.414001,-147.689819,-16.166687
0.362549,-0.648682,-0.227783,-15.090941,-112.403862,-13.565063
0.415039,-0.594238,-0.188477,19.142151,-68.443298,-17.234802
0.325439,-0.444824,-0.187012,57.617184,-23.582457,-19.714355
0.147461,-0.266846,-0.199707,84.976189,13.618468,-19.096375
-0.009766,-0.158447,-0.191895,85.258476,35.980225,-13.740539
-0.104004,-0.214111,-0.153809,53.527828,37.574768,0.930786
-0.080811,-0.5354,-0.09668,5.310058,22.628782,22.224424
-0.023193,-0.998291,-0.072998,-20.614622,-2.182007,30.189512
-0.054199,-1.245117,-0.116455,7.019042,-26.992796,10.81848
-0.119385,-0.983887,-0.0979,71.281433,-41.221615,-21.553038
-0.134766,-0.5896,0.028564,113.723747,-47.286983,-49.827572
-0.174316,-0.402344,0.130859,111.274712,-52.467342,-62.141415
-0.212891,-0.450439,0.135742,78.491211,-63.140865,-62.45422
-0.201904,-0.661865,0.058594,40.618893,-84.266655,-64.376831
-0.211426,-0.852295,-0.03833,21.385191,-114.662163,-78.178406
-0.26001,-0.865723,-0.088135,26.519773,-147.972107,-101.96685
-0.296631,-0.781494,-0.05127,38.711548,-179.092392,-127.357475
-0.35083,-0.721436,0.044434,44.296261,-206.161484,-152.526855
-0.317627,-0.737305,0.187744,41.16058,-227.935776,-183.601364
-0.134521,-0.804443,0.249512,29.861448,-249.832138,-221.153244
0.095215,-0.804199,0.166992,14.961242,-249.992355,-249.450668
0.362305,-0.736328,0.060791,0.274658,-249.656662,-249.992355
0.66626,-0.734375,0.035156,-11.909484,-249.954208,-249.603256
0.893555,-0.845703,0.084473,-25.924681,-249.992355,-243.080124
0.943604,-1.045898,0.101563,-42.510983,-249.992355,-208.625778
0.863037,-1.164063,0.091064,-51.414486,-242.416367,-165.344223
0.700195,-1.12915,0.05957,-47.416683,-198.234543,-137.72583
0.619873,-1.016357,0.082764,-37.185669,-147.865295,-127.601616
0.705566,-0.963623,0.170898,-32.066345,-115.19622,-130.783081
0.808838,-1.056152,0.273193,-39.749146,-102.371208,-138.801575
0.82373,-1.203613,0.304443,-61.454769,-98.022453,-137.924194
0.797119,-1.28418,0.246582,-88.935844,-91.308586,-132.926941
0.775879,-1.24585,0.170898,-107.154839,-81.42852,-135.528564
0.839844,-1.164063,0.10083,-113.494865,-68.214417,-142.883301
1.077148,-1.182129,-0.01123,-116.241447,-51.704403,-151.855469
1.320801,-1.420898,-0.075928,-124.702446,-32.356262,-161.895737
1.366211,-1.724609,-0.115967,-142.272949,-3.288269,-164.512619
1.305664,-1.859131,-0.167725,-158.805847,36.125183,-164.108261
1.263184,-1.71875,-0.179688,-163.413986,73.783875,-172.386154
1.2854,-1.555176,-0.151855,-166.122421,102.874748,-185.432419
1.299805,-1.49585,-0.196777,-176.063522,122.436516,-195.159897
1.278076,-1.492676,-0.327393,-189.750656,132.30896,-203.971848
1.235107,-1.532715,-0.44458,-199.615463,133.789063,-211.837753
1.321045,-1.615234,-0.487549,-203.727707,137.359619,-218.582138
1.494141,-1.703857,-0.477295,-212.577805,152.854919,-229.125961
1.593262,-1.714844,-0.527588,-226.62352,181.159958,-241.950974
1.570068,-1.692139,-0.5896,-233.367905,204.673752,-249.992355
1.507568,-1.662354,-0.586914,-230.163559,210.517868,-249.992355
1.498779,-1.639648,-0.585938,-228.187546,203.086838,-249.839767
1.612549,-1.700439,-0.613525,-230.834946,190.719589,-249.992355
1.765869,-1.825928,-0.65625,-235.626205,174.552902,-249.992355
1.824219,-1.930176,-0.710205,-240.310654,155.838013,-249.992355
1.732178,-1.939697,-0.77124,-243.743881,138.259888,-249.992355
1.614258,-1.833008,-0.768311,-240.23436,120.475761,-249.992355
1.535156,-1.676025,-0.736084,-230.728134,99.182121,-249.992355
1.574219,-1.571045,-0.733398,-222.679123,80.619804,-249.992355
1.7771,-1.546143,-0.678955,-217.315659,73.875427,-249.992355
2.02417,-1.558594,-0.617432,-216.735825,86.891167,-249.992355
2.103516,-1.586426,-0.555908,-219.840988,118.370049,-249.992355
1.883545,-1.524902,-0.514893,-222.267136,154.830933,-249.992355
1.506104,-1.422119,-0.481689,-220.291122,175.498947,-249.992355
1.164307,-1.307129,-0.429443,-211.593613,170.67717,-249.992355
0.924561,-1.174072,-0.311279,-200.53862,148.460388,-249.992355
0.755859,-1.035156,-0.16626,-191.017136,122.558586,-249.992355
0.670898,-0.903809,-0.085449,-183.250412,101.829521,-249.992355
0.735107,-0.804443,-0.077148,-174.812302,89.431755,-249.786362
0.919922,-0.713379,-0.144775,-165.481552,83.885185,-239.700302
1.014648,-0.630859,-0.209961,-157.661438,85.220329,-216.659531
0.9021,-0.563232,-0.20459,-149.658203,94.512932,-196.235641
0.656494,-0.505127,-0.132324,-135.643005,102.004997,-181.983932
0.415283,-0.396973,-0.053223,-113.075249,100.341789,-169.593796
0.264404,-0.243164,0.054199,-88.020317,89.942924,-157.600403
0.15918,-0.062988,0.152344,-65.0177,71.69342,-147.003174
0.094971,0.115723,0.231445,-42.602535,50.514217,-141.967773
0.090088,0.260498,0.294189,-26.06201,30.654905,-138.313293
0.116943,0.338623,0.299805,-22.338865,15.708922,-129.356384
0.154541,0.333496,0.25,-32.562256,9.147644,-115.097038
0.154785,0.240967,0.210693,-50.697323,10.711669,-100.524895
0.071045,0.099121,0.204102,-66.520691,14.831542,-90.019218
-0.033936,-0.026367,0.188965,-74.050903,15.35797,-86.639397
-0.106445,-0.090576,0.165283,-69.648743,5.775451,-93.093864
-0.100342,-0.130127,0.123779,-60.150143,-9.056091,-104.248039
-0.043701,-0.158936,0.204102,-51.452633,-15.975951,-108.558647
-0.0625,-0.186768,0.309082,-43.586727,-16.975403,-108.299248
-0.094238,-0.216064,0.338135,-34.78241,-13.755797,-107.162468
-0.062988,-0.184814,0.385498,-24.848936,0.244141,-105.842583
-0.021973,-0.111572,0.432129,-22.682188,22.262571,-102.85186
-0.019531,-0.063721,0.404785,-31.906126,49.652096,-90.293877
-0.086914,-0.050049,0.332764,-40.153503,81.657402,-74.684143
-0.161621,-0.030273,0.294189,-43.327328,111.404411,-63.041683
-0.20166,-0.035889,0.241699,-46.07391,128.982544,-56.03027
-0.210205,-0.066895,0.170654,-46.485897,131.713867,-53.482052
-0.183105,-0.084229,0.125488,-41.107174,125.450127,-55.290218
-0.132568,-0.0896,0.112305,-33.26416,115.142815,-57.205196
-0.102539,-0.105469,0.102539,-26.268003,103.134148,-53.550716
-0.10498,-0.130859,0.059814,-20.614622,93.543999,-44.464108
-0.135254,-0.148682,-0.005615,-13.824462,88.371269,-36.270142
-0.184814,-0.148193,-0.060547,-4.623413,83.44268,-32.859802
-0.229248,-0.152588,-0.08667,3.501892,74.09668,-32.218933
-0.239746,-0.163574,-0.090332,9.19342,59.165951,-31.944273
-0.196777,-0.161865,-0.072754,14.518737,42.4118,-31.555174
-0.126465,-0.153564,-0.020508,19.15741,28.350828,-29.006956
-0.04834,-0.147461,0.085449,20.202635,22.422789,-20.751951
0.037109,-0.186523,0.182861,14.312743,28.724669,-6.195068
0.057617,-0.258545,0.157959,5.462646,46.813961,9.857178
0.021973,-0.322266,0.074463,1.342773,70.755005,20.042419
-0.061035,-0.346436,0.022217,6.935119,88.943474,23.361204
-0.110352,-0.302734,0.009277,22.354124,95.741264,23.124693
-0.080322,-0.209717,0.056641,41.023251,90.644829,24.185179
0.037842,-0.140137,0.165771,53.588863,78.651428,32.409668
0.168701,-0.123779,0.312988,56.259151,66.734314,49.591061
0.246826,-0.145996,0.502197,48.782345,60.18829,74.707031
0.335693,-0.193359,0.585449,34.515381,61.080929,104.48455
0.440186,-0.223877,0.474854,25.718687,69.099426,134.307861
0.478516,-0.191162,0.308838,30.677794,82.862846,161.491379
0.431885,-0.120605,0.172119,43.067928,93.627922,180.725082
0.400879,-0.063965,0.105713,56.861874,94.230644,189.872726
0.437988,-0.031738,0.163574,74.485779,81.062309,195.678696
0.490723,-0.031494,0.265869,88.386528,53.352352,208.816513
0.507568,-0.081543,0.336426,91.949455,15.159606,232.429489
0.509766,-0.181396,0.392334,92.819206,-25.283812,249.992355
0.559082,-0.279053,0.488037,101.478569,-59.028622,249.992355
0.647705,-0.327881,0.557617,114.852898,-85.792534,249.641403
0.771484,-0.359619,0.515381,121.902458,-106.918327,249.992355
0.950439,-0.410645,0.390869,120.231621,-123.718254,249.992355
1.222168,-0.463867,0.258789,115.692131,-137.069702,249.992355
1.626221,-0.525146,0.130859,109.53521,-149.650574,249.992355
1.875244,-0.64209,-0.000488,107.482903,-164.985641,249.992355
1.88916,-0.753174,-0.074219,124.618523,-164.115891,249.992355
1.770508,-0.719727,-0.077637,155.761719,-146.705627,249.992355
1.548096,-0.659424,0.001709,179.527267,-138.122559,249.992355
1.275391,-0.626709,0.070068,189.468369,-149.459839,249.992355
1.068359,-0.651855,0.085449,185.966476,-173.850998,249.992355
0.956055,-0.763428,0.044434,174.491867,-204.429611,249.992355
1.357178,-1.005127,-0.051025,163.673386,-229.934677,249.992355
2.410156,-1.568115,-0.179443,161.651596,-249.351486,249.992355
3.002197,-2.369385,-0.297119,188.156113,-249.992355,249.992355
2.428223,-2.425781,-0.57959,228.164658,-249.717697,249.992355
1.467285,-1.807617,-0.820068,248.435959,-249.946579,249.992355
1.12915,-1.456543,-0.96582,249.992355,-249.992355,249.992355
1.246094,-1.304688,-1.081055,249.366745,-249.992355,249.992355
1.623535,-1.108154,-1.113525,249.778732,-249.992355,230.377182
2.068359,-1.178955,-0.95874,248.138412,-249.992355,188.957199
2.434326,-1.372559,-0.548584,249.984726,-249.992355,169.738754
2.642334,-1.386475,-0.110352,249.954208,-239.059433,182.792648
2.368408,-1.176025,0.023926,226.631149,-103.805534,226.806625
1.794922,-1.072021,-0.108154,168.128952,66.352844,249.992355
1.45166,-1.035156,-0.220947,120.407097,167.579636,249.992355
1.282715,-0.97168,-0.266357,79.818726,228.195175,249.43541
1.111572,-0.934326,-0.327393,33.477783,249.992355,249.992355
0.978516,-0.985596,-0.404541,-15.586852,249.992355,249.992355
0.91333,-1.060791,-0.430908,-54.794308,249.504074,249.984726
0.802002,-1.090088,-0.369141,-85.235588,249.992355,249.992355
0.599609,-1.062256,-0.265625,-108.627312,249.992355,249.992355
0.432373,-1.011963,-0.199463,-124.877922,249.984726,249.992355
0.369629,-0.976318,-0.149902,-137.046814,249.618515,249.992355
0.33252,-0.989258,-0.139893,-148.551941,228.942856,249.992355
0.317383,-1.019043,-0.180664,-157.531738,186.180099,248.504623
0.273438,-1.114258,-0.210938,-160.621643,151.062012,233.520493
0.19458,-1.219238,-0.225098,-160.049438,116.371147,207.679733
0.142578,-1.274658,-0.244385,-150.413513,83.465569,182.151779
0.189697,-1.277832,-0.250732,-128.044128,57.670589,159.599304
0.260254,-1.225342,-0.212402,-98.32,41.015621,137.550354
0.31958,-1.149902,-0.121582,-69.923401,33.14209,114.364616
0.342285,-1.057129,0.005127,-51.063534,29.914854,89.736931
0.325928,-0.983643,0.100586,-44.067379,29.266356,65.414429
0.286133,-0.947021,0.094727,-44.036861,30.883787,46.150204
0.213623,-0.92627,0.012207,-43.762203,34.446716,29.983519
0.128906,-0.906738,-0.072754,-38.490295,41.358944,12.527465
0.149414,-0.885986,-0.095459,-26.123045,51.826473,-5.065917
0.245361,-0.873047,-0.068359,-11.71112,61.004635,-21.286009
0.310791,-0.90625,-0.021484,-3.02124,65.933228,-36.560059
0.311279,-1.023193,0.041992,-2.799988,65.139771,-51.376339
0.275635,-1.194336,0.068848,-4.714966,55.39703,-68.161011
0.252686,-1.339844,0.001953,1.228333,36.346436,-90.194695
0.239014,-1.427002,-0.0979,21.034239,12.008666,-115.82946
0.23999,-1.393066,-0.154053,52.566525,-11.543273,-140.716553
0.336914,-1.270996,-0.141357,81.05468,-29.418943,-160.667404
0.567871,-1.240723,-0.084229,92.475883,-41.725155,-179.222092
0.730225,-1.344727,-0.115723,84.884636,-46.745296,-194.61058
0.715332,-1.586914,-0.251465,67.359924,-36.239624,-202.278122
0.631104,-1.859375,-0.338135,58.456417,-14.007567,-215.751633
0.529297,-1.849609,-0.352295,65.612793,8.491516,-241.798386
0.568848,-1.595459,-0.311523,72.303772,30.120848,-249.992355
0.824463,-1.433105,-0.268066,59.776302,49.240108,-249.992355
1.146484,-1.585449,-0.415527,25.413511,77.354431,-249.778732
1.404785,-2.012939,-0.646484,-19.973755,127.151482,-249.992355
1.447754,-2.369385,-0.796875,-58.92944,204.917892,-249.992355
1.124268,-2.371338,-0.908447,-76.187134,249.992355,-249.992355
1.02124,-2.155518,-0.789307,-74.790955,249.992355,-249.992355
1.06543,-2.049805,-0.754395,-89.607231,248.970016,-249.992355
1.151611,-2.163086,-0.848145,-102.333061,249.992355,-249.992355
1.30249,-2.376709,-0.852051,-102.554314,249.992355,-249.992355
1.44873,-2.456055,-0.766602,-94.398491,249.977097,-249.992355
1.635742,-2.348633,-0.691895,-94.444267,247.299179,-249.992355
1.550293,-2.19751,-0.675781,-100.708,237.541183,-249.992355
1.289307,-2.07251,-0.664063,-98.587029,224.182114,-249.992355
1.095459,-1.938477,-0.599854,-83.95385,203.338608,-249.992355
1.108643,-1.779785,-0.464844,-64.567566,177.162155,-249.992355
1.206055,-1.629639,-0.339355,-52.810665,149.276733,-249.992355
1.163574,-1.510498,-0.293701,-49.926754,128.463745,-249.992355
1.006104,-1.373291,-0.296631,-48.423763,121.444695,-249.992355
0.740234,-1.205078,-0.317139,-42.320248,117.515556,-249.992355
0.428223,-1.044434,-0.31665,-29.144285,107.124321,-249.992355
0.18457,-0.858154,-0.261475,-11.421203,90.408318,-249.992355
0.03833,-0.637695,-0.129395,4.844666,68.832397,-249.992355
-0.008789,-0.411865,0.038818,14.671325,45.372005,-249.992355
0.015381,-0.201172,0.181641,13.786315,22.415159,-249.992355
0.077881,-0.025879,0.237793,-0.37384,5.66864,-249.992355
0.174805,0.073975,0.256592,-24.29962,2.731323,-249.992355
0.255615,0.094971,0.247314,-52.856441,14.770507,-246.147141
0.27417,0.066162,0.196045,-80.566399,39.390564,-218.971237
0.242188,-0.013672,0.14624,-104.789726,74.417114,-190.58989
0.169189,-0.123047,0.127441,-119.598381,107.376091,-175.575241
0.062988,-0.215088,0.133057,-123.176567,128.082275,-166.725143
-0.05127,-0.276367,0.170654,-121.360771,135.803223,-157.859802
-0.10791,-0.295898,0.19751,-122.718803,131.622314,-151.260376
-0.112549,-0.291748,0.165283,-124.694817,118.301384,-152.191162
-0.063965,-0.269775,0.092773,-121.070854,105.712883,-157.852173
0.037354,-0.235107,0.004395,-115.692131,106.88781,-160.606384
0.148438,-0.198242,-0.004883,-113.464348,125.434868,-159.744263
0.199219,-0.197266,0.017578,-113.494865,149.223328,-159.088135
0.175537,-0.248291,0.077881,-103.889458,166.648849,-161.201462
0.181641,-0.309326,0.250244,-85.014336,171.966537,-170.2957
0.161865,-0.363281,0.308838,-71.876526,162.384018,-172.302231
0.048828,-0.398682,0.26709,-64.27002,152.206421,-160.675034
-0.132813,-0.382813,0.162842,-43.54858,139.74762,-159.507751
-0.242432,-0.278564,0.166748,-11.657714,110.16082,-173.377975
-0.133789,-0.102783,0.166504,6.973266,78.308105,-185.005173
0.022949,-0.026367,0.125,3.326416,65.666199,-182.106003
0.009766,-0.060059,0.034912,-2.365112,75.531006,-164.12352
-0.057373,-0.095703,-0.006592,0.282288,97.610466,-144.309998
-0.085205,-0.114258,0.050781,3.456115,112.701408,-131.05011
-0.100098,-0.129883,0.114746,2.593994,111.54174,-122.817986
-0.130127,-0.152832,0.111084,-1.777649,96.794121,-116.691582
-0.144287,-0.170898,0.040527,-4.890442,78.712463,-109.90905
-0.130615,-0.168457,-0.03833,-2.571106,63.827511,-100.784294
-0.113281,-0.148438,-0.093506,3.64685,55.839535,-88.706963
-0.129883,-0.11792,-0.13501,9.689331,55.541988,-77.568054
-0.161133,-0.091309,-0.153564,13.351439,63.247677,-69.984436
-0.130859,-0.080811,-0.149658,15.205382,76.156616,-66.78772
-0.112061,-0.085205,-0.110596,13.47351,81.855766,-65.2771
-0.164795,-0.09082,-0.031494,7.347106,75.325012,-56.472775
-0.208496,-0.072266,0.03833,0.762939,65.177917,-41.503902
-0.203369,-0.017334,0.073975,-3.105163,52.261349,-31.707762
-0.252441,0.03418,0.04834,-10.673522,28.236387,-24.79553
-0.317627,0.040039,-0.027588,-25.009153,-4.692078,-9.567261
-0.308594,-0.007324,-0.04834,-33.851624,-39.871216,9.643555
-0.1604,-0.099609,-0.03125,-27.923582,-70.129395,25.093077
0.094727,-0.206787,0.023682,-10.009766,-84.274284,42.6712
0.368652,-0.289551,0.137695,10.025024,-78.727722,68.443298
0.415527,-0.302734,0.145264,23.223875,-71.495056,97.785942
0.258301,-0.278076,0.148682,31.654356,-63.430782,122.825615
0.170898,-0.215088,0.275879,41.938778,-50.468441,140.365601
0.131104,-0.125732,0.335938,50.170895,-43.281551,152.511597
0.083252,-0.054199,0.280518,50.712582,-45.532223,166.984543
0.086426,-0.041016,0.26123,47.981258,-57.128902,190.444931
0.212158,-0.104492,0.303711,47.966,-74.028015,224.044785
0.451416,-0.244873,0.415771,54.817196,-91.26281,249.992355
0.667725,-0.396484,0.497559,70.770264,-114.69268,249.992355
0.799561,-0.46167,0.519043,92.971794,-132.896423,249.504074
0.915283,-0.490967,0.593994,98.899834,-142.14325,249.992355
0.982178,-0.612305,0.554688,86.891167,-162.345871,249.992355
1.182617,-0.831055,0.348633,77.690125,-202.880844,249.992355
1.514404,-1.083496,0.093262,85.807793,-248.04686,249.992355
1.649902,-1.317139,-0.132324,119.384758,-249.992355,249.992355
1.649658,-1.42749,-0.210938,181.25914,-249.359116,249.992355
1.616211,-1.388916,-0.200439,245.14769,-249.870285,249.992355
1.632813,-1.306396,-0.186523,249.992355,-249.992355,249.992355
1.77002,-1.308838,-0.148682,249.221786,-249.992355,249.992355
2.2854,-1.442383,-0.084961,249.771103,-249.992355,249.992355
2.796875,-1.650391,-0.047363,249.992355,-248.962387,249.992355
2.849121,-1.674805,-0.154541,249.641403,-204.360947,249.992355
2.329834,-1.530762,-0.351074,231.254562,-118.743889,249.992355
1.520752,-1.405029,-0.551514,201.576218,-72.784424,249.992355
0.988525,-1.442383,-0.694336,185.554489,-66.612244,249.992355
0.814209,-1.586182,-0.753174,170.257553,-87.059013,249.992355
0.826904,-1.779785,-0.824951,157.119751,-141.822815,249.992355
1.266846,-1.904785,-0.81958,171.325668,-203.872665,249.992355
1.890869,-2.027588,-0.703613,177.764877,-246.734604,249.992355
2.037354,-2.226807,-0.668945,173.19487,-249.992355,249.992355
1.878174,-2.262451,-0.656006,179.481491,-247.810349,249.992355
1.782227,-2.11377,-0.518555,173.736557,-209.678635,249.992355
1.65625,-2.010986,-0.385498,141.960144,-145.256042,249.992355
1.588135,-2.115479,-0.349609,98.44207,-103.828423,249.992355
1.518555,-2.147217,-0.38501,68.084717,-83.19854,249.992355
1.531738,-2.025146,-0.381592,60.226437,-63.789364,249.992355
1.591553,-1.859375,-0.375,62.065121,-43.441769,249.992355
1.55957,-1.723145,-0.362061,61.607357,-24.765013,249.992355
1.416504,-1.633789,-0.342285,56.495663,-7.087707,249.992355
1.173828,-1.559082,-0.388428,48.828121,9.849548,249.992355
0.919678,-1.462158,-0.437744,47.119137,23.094175,249.992355
0.726074,-1.344482,-0.406006,57.952877,35.041809,249.992355
0.498535,-1.22168,-0.313965,75.531006,47.195431,240.7379
0.322754,-1.047363,-0.19458,94.566338,65.132141,196.296677
0.311035,-0.822266,-0.025391,102.569572,90.599052,150.863647
0.255371,-0.672119,0.207764,88.10424,111.618034,112.876884
0.097656,-0.643799,0.352783,55.259701,118.22509,75.828552
-0.003174,-0.763672,0.359863,14.160155,104.553215,36.254883
-0.060547,-0.940918,0.31543,-18.798828,66.688538,-4.364014
-0.00415,-1.063965,0.276367,-32.50885,18.77594,-40.878292
0.181396,-1.121338,0.234375,-31.09741,-25.260923,-69.023132
0.386963,-1.084961,0.19043,-23.269651,-53.184505,-85.46447
0.412598,-0.989502,0.123779,-12.557982,-60.226437,-87.783806
0.23999,-0.854248,0.081299,3.067016,-48.637386,-74.287415
0.135254,-0.736328,0.147705,14.869689,-28.915403,-57.525631
0.167236,-0.720947,0.246582,10.437011,-20.484922,-51.681515
0.263428,-0.849854,0.234375,-8.31604,-23.475645,-54.695126
0.263184,-1.029053,0.103027,-25.863646,-26.199339,-56.27441
0.101318,-1.136719,-0.004639,-23.315428,-16.723633,-51.99432
-0.026611,-1.119385,0.025391,1.045227,5.729675,-47.508236
0.026855,-1.01001,0.127686,23.818968,26.977537,-51.48315
0.184326,-0.904053,0.165283,29.533384,42.083736,-63.690182
0.333496,-0.86377,0.130371,23.574827,58.517452,-73.272705
0.383301,-0.903076,0.10791,14.198302,79.742432,-72.669983
0.170166,-0.98877,0.107666,6.782531,99.44915,-64.620972
-0.121582,-1.040039,0.066895,6.210327,116.065971,-57.777401
-0.173584,-1.040283,0.060547,11.131286,121.330254,-64.460754
-0.075439,-1.018799,0.051514,15.1062,106.407158,-83.877556
0.041016,-0.992432,-0.015137,16.059875,82.145683,-105.194084
0.135498,-1.019287,-0.051758,15.022277,60.501095,-117.164604
0.20752,-1.114014,-0.061768,14.175414,40.306087,-122.276299
0.259766,-1.192627,-0.116455,14.396667,20.698545,-128.601074
0.291748,-1.249756,-0.174316,17.219543,2.365112,-137.954712
0.306152,-1.267334,-0.19458,23.506163,-15.716552,-144.699097
0.382324,-1.282959,-0.18335,27.313231,-32.905579,-147.483826
0.591064,-1.346436,-0.14209,24.032591,-46.600338,-148.506165
0.761475,-1.467773,-0.125977,12.557982,-56.709286,-146.842957
0.718262,-1.626465,-0.176025,0.198364,-57.182308,-146.003723
0.618408,-1.72583,-0.231445,-5.447387,-47.058102,-153.656006
0.584473,-1.69165,-0.246582,-9.048462,-37.506104,-169.364914
0.581787,-1.595947,-0.248779,-19.607544,-31.10504,-189.979538
0.572021,-1.584473,-0.29834,-35.926819,-27.19116,-209.86937
0.554199,-1.656006,-0.358643,-50.155636,-26.092527,-227.355942
0.548584,-1.694336,-0.396973,-60.600277,-28.617857,-242.080673
0.554443,-1.683105,-0.412109,-73.547363,-34.126282,-249.992355
0.564697,-1.713379,-0.412109,-91.484062,-42.526241,-249.992355
0.543457,-1.772949,-0.44165,-108.871452,-54.275509,-249.847397
0.525391,-1.809814,-0.482666,-121.299736,-66.162109,-249.992355
0.562744,-1.807861,-0.505127,-131.561279,-72.570801,-249.992355
0.634033,-1.796387,-0.490479,-142.074585,-67.337036,-249.992355
0.746338,-1.829102,-0.450928,-151.725769,-45.867916,-249.710068
0.869629,-1.888672,-0.362549,-159.0271,-11.978148,-242.965683
0.893066,-1.868896,-0.282959,-169.960007,27.458189,-230.415329
0.82959,-1.83252,-0.293945,-189.964279,65.635681,-221.45079
0.811035,-1.86792,-0.383301,-208.503708,97.228996,-219.9478
0.935547,-1.997559,-0.49292,-218.05571,120.079033,-226.295456
0.958496,-2.158691,-0.558838,-220.031723,132.652283,-234.291061
0.810791,-2.232178,-0.496094,-211.036667,142.982483,-244.018539
0.850342,-2.175537,-0.34375,-205.062851,158.706665,-249.992355
1.039307,-2.069824,-0.260254,-210.655197,171.203598,-249.992355
1.109863,-2.006104,-0.239746,-212.1353,176.650986,-249.855026
1.001221,-1.960449,-0.249512,-204.994186,170.387253,-249.992355
0.818115,-1.883545,-0.262451,-192.520126,149.398804,-249.992355
0.666992,-1.745117,-0.300049,-178.222641,119.003288,-249.992355
0.585693,-1.594971,-0.324951,-162.10936,88.470451,-249.992355
0.57373,-1.45752,-0.311279,-144.416809,61.973568,-249.992355
0.648682,-1.344482,-0.288574,-130.195618,37.68158,-249.992355
0.763916,-1.29126,-0.314453,-121.582024,14.366149,-248.268112
0.79541,-1.35376,-0.14209,-113.067619,-1.174927,-231.079086
0.740234,-1.291992,0.156738,-98.533623,0.717163,-213.043198
0.730469,-1.006104,0.348633,-97.534172,19.821167,-212.356552
0.786865,-0.771729,0.437744,-115.70739,48.782345,-221.649155
0.752197,-0.701172,0.445801,-132.003784,82.542412,-223.434433
0.325195,-1.229248,0.4375,-115.07415,114.425652,-213.63829
-0.077881,-1.644287,0.685791,1.945495,116.180412,-220.733627
-0.303467,-1.039551,0.743896,150.505066,-4.905701,-249.992355
-0.085938,0.032715,0.653076,191.833481,-186.706528,-249.992355
0.375977,0.550049,0.881348,110.809319,-249.992355,-237.289413
0.60083,0.461914,0.870605,-7.202148,-233.123764,-200.515732
0.629883,0.141113,0.421143,-101.310722,-146.972656,-192.314133
0.645996,-0.126465,0.171143,-142.066956,-54.878231,-211.63176
0.554443,-0.189941,0.122803,-131.698608,17.745972,-222.740158
0.224609,-0.040039,-0.023682,-110.725395,64.048767,-210.449203
-0.090332,0.097656,-0.106689,-103.652946,81.855766,-193.969711
-0.228516,0.138428,-0.014648,-113.380424,81.169121,-183.403
-0.226318,0.149658,0.064209,-141.815186,88.973991,-168.731674
-0.12915,0.123779,-0.007813,-176.231369,115.989677,-161.59819
-0.002197,-0.000732,-0.007813,-196.029648,146.842957,-167.320236
0.078613,-0.122314,0.015869,-199.508652,185.600266,-159.812927
0.056885,-0.160645,-0.033936,-189.82695,229.01915,-138.893127
-0.062256,-0.124268,-0.148193,-174.82756,249.992355,-122.00927
-0.186523,-0.077393,-0.210938,-161.880478,249.992355,-112.396233
-0.289063,-0.047607,-0.217041,-153.533936,249.534592,-103.98101
-0.368164,-0.034912,-0.226807,-147.05658,248.855576,-91.537468
-0.407227,-0.036377,-0.207031,-140.228271,229.072556,-79.322815
-0.408203,-0.0625,-0.169922,-130.92804,197.456345,-71.395874
-0.400391,-0.088379,-0.110352,-118.22509,175.941452,-65.185547
-0.416016,-0.08667,-0.054443,-105.941765,162.86467,-61.95068
-0.456299,-0.067871,-0.014893,-98.731987,152.946472,-63.674923
-0.480957,-0.054199,0.002441,-95.199577,144.363403,-68.138123
-0.469727,-0.04248,0.005371,-90.705864,136.222839,-71.044922
-0.429199,-0.019287,0.01709,-83.457939,130.41687,-70.205688
-0.406738,0.024902,0.028564,-75.210571,125.91552,-65.52124
-0.415527,0.077148,0.022705,-66.474915,120.185844,-57.258602
-0.411865,0.121338,0.0271,-58.586117,113.769524,-44.647213
-0.397705,0.150146,0.048096,-51.773067,105.918877,-28.57971
-0.427246,0.165527,0.080322,-44.174191,94.078056,-10.009766
-0.431396,0.162109,0.061279,-38.841248,77.377319,6.355285
-0.322021,0.148926,-0.012695,-30.448912,54.000851,19.180298
-0.185059,0.159424,-0.085205,-15.350341,24.253843,30.46417
-0.094971,0.192627,-0.094238,4.081726,-2.388,43.220516
-0.07251,0.236572,-0.043701,22.750853,-20.843504,59.92889
-0.07251,0.286865,0.035889,39.56604,-34.172058,77.278137
-0.102051,0.336182,0.111572,53.413387,-45.829769,92.605583
-0.263184,0.402344,0.210449,63.400265,-58.784481,113.365166
-0.325195,0.470947,0.319092,69.343567,-74.378967,136.520386
-0.206543,0.522949,0.358398,71.372986,-96.405022,152.633667
-0.109863,0.467285,0.257324,71.762085,-122.51281,166.580185
0.005615,0.356934,0.184814,85.357658,-147.537231,182.51799
0.121094,0.242188,0.21582,94.818108,-175.521835,212.799057
0.15332,0.106445,0.381836,94.696037,-212.097153,246.78038
0.286621,-0.135498,0.586914,92.842094,-239.746078,249.992355
0.546143,-0.419189,0.547119,98.861687,-249.992355,249.595627
0.827393,-0.661621,0.279785,112.823479,-249.992355,249.862656
0.961914,-0.875,-0.005859,127.441399,-249.778732,249.992355
0.94751,-1.106934,-0.123779,151.504517,-246.612534,249.992355
0.885742,-1.236328,-0.135498,209.510788,-215.896591,249.992355
0.841309,-1.140869,-0.153076,249.992355,-185.974106,249.992355
0.814697,-0.879395,-0.102295,249.992355,-186.195358,249.992355
1.199463,-0.648193,-0.076172,249.099716,-214.225754,249.992355
2.343262,-0.539307,-0.314209,249.992355,-247.077927,249.992355
3.0979,-0.804443,-0.575439,246.948227,-249.992355,249.992355
2.82373,-1.428955,-0.354736,235.763535,-249.595627,249.992355
2.100098,-1.760986,-0.171631,249.67955,-248.725876,249.992355
1.421387,-1.401123,-0.219971,249.992355,-203.292831,249.992355
1.12915,-1.042236,-0.177979,249.748215,-126.884453,249.992355
1.11499,-0.928467,-0.040527,249.961838,-88.844292,249.992355
1.112549,-0.957031,0.051758,248.847946,-66.078186,249.992355
0.962402,-1.169189,0.053223,211.517319,-49.09515,249.992355
0.790771,-1.503906,-0.017334,147.163391,-40.695187,249.992355
0.716309,-1.777832,-0.116699,105.842583,-32.646179,249.992355
0.692139,-1.912842,-0.211426,76.202393,-25.520323,249.992355
0.677246,-2.036377,-0.335693,46.623226,-23.66638,249.992355
0.720947,-2.20166,-0.50708,35.606384,-20.080564,249.992355
0.730225,-2.27417,-0.557129,44.197079,-0.663757,249.992355
0.700684,-2.388428,-0.625244,34.599304,26.855467,249.992355
0.741943,-2.668213,-0.794434,18.39447,64.193726,249.992355
0.817871,-2.849854,-0.864014,32.058716,92.590324,249.992355
0.93042,-2.647461,-0.745605,66.452026,109.756462,249.992355
0.911377,-2.256836,-0.521484,86.387627,114.227287,249.992355
0.806885,-2.001221,-0.375732,79.093933,106.414787,249.992355
0.6604,-1.894531,-0.322021,58.814999,85.769646,249.992355
0.471191,-1.831055,-0.359619,44.212337,45.928951,249.992355
0.359863,-1.780273,-0.498779,40.863033,-11.718749,249.992355
0.32666,-1.777832,-0.594727,57.739254,-73.21167,248.16893
0.30127,-1.726318,-0.526123,94.703667,-122.154228,214.363083
0.308838,-1.553955,-0.406982,130.935669,-155.715942,160.125732
0.282959,-1.30127,-0.302734,145.16449,-178.077682,112.838737
0.274414,-1.039795,-0.210938,130.859375,-191.146835,70.648193
0.320068,-0.878174,-0.12085,96.733086,-196.228012,31.784056
0.378906,-0.80835,-0.019531,56.686398,-193.801865,-5.615234
0.400879,-0.842773,0.078369,18.089294,-185.41716,-35.110474
0.4375,-0.938477,0.125732,-16.586304,-171.241745,-51.628109
0.493896,-0.99292,0.075439,-45.616146,-151.702881,-56.884762
0.536621,-0.985352,-0.022705,-66.139221,-126.853935,-57.083126
0.574219,-0.974365,-0.087891,-78.24707,-99.411003,-56.304928
0.562744,-0.991699,-0.087158,-83.168022,-74.966431,-52.528378
0.50708,-1.035645,-0.029541,-84.83886,-56.632992,-45.951839
0.468506,-1.067871,0.005127,-87.776176,-38.635254,-39.283752
0.447998,-1.062012,-0.036621,-90.3778,-16.799927,-36.575317
0.424316,-1.030762,-0.105957,-87.516777,8.117676,-39.588928
0.377197,-0.998047,-0.088867,-74.386597,33.241272,-45.265194
0.314697,-0.959229,0.05249,-52.055355,52.696224,-52.902218
0.222412,-0.907227,0.152588,-31.463621,57.327267,-63.751217
0.151611,-0.854248,0.140137,-21.087645,45.158382,-81.161491
0.204102,-0.794922,0.070068,-20.606993,18.013,-106.559746
0.343506,-0.775146,-0.027588,-23.994444,-17.76123,-131.034851
0.449463,-0.784668,-0.132813,-24.124144,-56.854244,-146.110535
0.522949,-0.817627,-0.214355,-16.426086,-93.467705,-147.544861
0.615234,-0.876465,-0.256104,-0.518799,-124.206535,-140.724182
0.644775,-0.949951,-0.230957,17.158508,-143.753052,-139.686584
0.602539,-0.991699,-0.200684,26.473997,-147.315979,-155.578613
0.721436,-0.996826,-0.164551,14.572143,-134.902954,-191.0858
0.977295,-0.983398,-0.193848,-22.178648,-119.415276,-236.618027
1.217285,-1.014404,-0.283936,-64.224243,-93.437187,-249.992355
1.357178,-1.075195,-0.3479,-92.414848,-51.391598,-249.992355
1.375244,-1.145996,-0.395264,-112.136833,-5.28717,-249.633774
1.301025,-1.246094,-0.461182,-132.591248,30.838011,-249.992355
1.227051,-1.359863,-0.493164,-154.129028,54.832455,-249.992355
1.265381,-1.442871,-0.48584,-174.57579,77.278137,-247.680649
1.366943,-1.486328,-0.503906,-194.831833,113.754265,-243.843063
1.479248,-1.523438,-0.572021,-211.685165,173.332199,-244.972214
1.547119,-1.606201,-0.694824,-220.916733,238.296494,-249.80925
1.45874,-1.692383,-0.785889,-223.716721,249.992355,-249.992355
1.310303,-1.728516,-0.826904,-221.603378,249.587997,-249.923691
1.267578,-1.754883,-0.825928,-215.164169,249.626144,-249.984726
1.238037,-1.746826,-0.704346,-203.857407,249.992355,-249.992355
1.081055,-1.69458,-0.672852,-201.110825,249.084457,-249.992355
0.936035,-1.700195,-0.694824,-198.852524,207.984909,-249.992355
1.150635,-1.621338,-0.556885,-199.40947,148.033142,-249.992355
1.455322,-1.523682,-0.540283,-222.312912,137.062073,-249.992355
1.651611,-1.459229,-0.563721,-244.39238,168.601974,-249.992355
1.708008,-1.408447,-0.577148,-246.238693,217.117294,-249.992355
1.593506,-1.387695,-0.577393,-235.885605,249.992355,-249.992355
1.328857,-1.432129,-0.573242,-226.058945,249.992355,-249.992355
1.123047,-1.448242,-0.546631,-216.392502,245.796188,-249.992355
1.084229,-1.328369,-0.505371,-205.863937,226.203903,-249.992355
1.150635,-1.144043,-0.451904,-195.190414,211.982712,-249.992355
1.21582,-0.998535,-0.365479,-184.753403,208.847031,-249.992355
1.205078,-0.932129,-0.289795,-176.750168,196.929916,-249.992355
1.176514,-0.93042,-0.235107,-169.609055,170.242294,-249.992355
1.277588,-0.924072,-0.173096,-159.461975,143.852234,-249.992355
1.243652,-0.892578,-0.104492,-146.430969,124.4049,-249.992355
1.053711,-0.808838,-0.093262,-127.632133,120.36132,-249.992355
0.901367,-0.655518,-0.068848,-104.667656,131.462097,-249.992355
0.840332,-0.486572,-0.030518,-82.809441,147.819519,-245.864853
0.888184,-0.3396,0.006348,-65.193176,159.423828,-231.719955
0.826904,-0.269287,0.064697,-55.671688,153.633118,-218.917831
0.657715,-0.273438,0.080566,-48.042294,139.671326,-203.247055
0.531982,-0.271484,0.039307,-35.194397,124.122612,-182.678207
0.434814,-0.294922,0.062012,-19.248962,95.382683,-164.489731
0.216797,-0.329834,0.131348,16.586304,43.785091,-154.159546
0.194336,-0.166748,0.229248,71.640015,-15.052794,-154.953003
0.315186,0.036133,0.338379,97.625725,-74.676514,-156.509399
0.363525,0.120117,0.355713,89.912407,-117.515556,-143.531799
0.413086,0.13208,0.258789,82.389824,-127.540581,-125.40435
0.561279,0.11792,0.226318,83.480827,-101.699821,-110.343925
0.635254,0.09082,0.318848,83.44268,-45.509335,-98.678581
0.505859,0.044189,0.341797,79.551697,15.052794,-94.40612
0.286621,-0.002686,0.306396,76.408386,62.499996,-89.645378
0.070557,-0.033203,0.299805,77.697754,80.291748,-82.93914
-0.088623,-0.047363,0.249756,82.19146,67.726135,-76.393127
-0.135498,-0.04248,0.21875,85.990898,41.343685,-68.29834
-0.072021,-0.008301,0.254883,87.471001,10.337829,-63.4613
0.098633,0.043945,0.226563,77.87323,-17.814636,-61.31744
0.22876,0.067383,0.181396,57.189938,-20.256041,-57.060238
0.25293,0.038086,0.185059,39.649963,7.8125,-54.283138
0.176758,0.02124,0.195068,33.882141,43.106075,-53.993221
0.051514,0.054199,0.197266,33.065796,72.013855,-55.969234
-0.041016,0.098389,0.189209,27.091978,90.766899,-60.974117
-0.074707,0.104736,0.17627,14.328002,101.913445,-65.139771
-0.087158,0.061035,0.157959,0.938415,108.413689,-66.055298
-0.108887,0.021973,0.154297,-6.782531,112.152092,-65.559387
-0.128662,0.011475,0.157715,-9.620667,115.020744,-65.513611
-0.145996,0.018799,0.151367,-11.100768,115.669243,-65.666199
-0.170898,0.020264,0.15918,-15.853881,111.915581,-63.873287
-0.20166,0.003418,0.164063,-23.864744,101.486198,-59.524532
-0.214355,-0.026123,0.150146,-29.769896,86.174004,-55.854794
-0.206787,-0.051758,0.128418,-32.264709,70.411682,-53.367611
-0.189209,-0.055176,0.117432,-32.188416,58.151241,-51.071163
-0.176514,-0.05249,0.10083,-32.264709,50.117489,-47.851559
-0.171143,-0.054443,0.092285,-32.89032,46.562191,-41.931149
-0.188965,-0.052734,0.089355,-32.539368,45.684811,-33.927917
-0.212158,-0.047363,0.096924,-30.761717,44.708248,-26.05438
-0.227539,-0.038086,0.108398,-28.335569,43.922421,-17.723083
-0.25,-0.01709,0.121094,-25.382994,44.662472,-8.666992
-0.281738,0.023926,0.130859,-20.408628,48.507687,1.159668
-0.302246,0.102783,0.148193,-13.72528,56.411739,11.215209
-0.316162,0.169189,0.152588,-13.420104,63.888546,19.15741
-0.30127,0.196777,0.129639,-14.091491,71.128845,28.137205
-0.286865,0.228271,0.159424,-4.440308,78.155518,45.227047
-0.304443,0.27417,0.191406,7.827758,79.093933,68.695068
-0.282471,0.320068,0.197266,8.804321,80.726616,100.700371
-0.215088,0.32666,0.179688,-7.43103,82.542412,135.864258
-0.202637,0.26709,0.130371,-31.517027,81.085197,161.941513
-0.191162,0.193848,0.065918,-50.254818,79.994202,176.757797
-0.194092,0.137939,-0.003906,-55.740353,71.762085,185.607895
-0.232666,0.087158,-0.000488,-47.58453,53.077694,203.285202
-0.276367,0.031738,0.055908,-41.229244,21.583555,236.335739
-0.374023,-0.0625,0.076416,-47.088619,-14.122008,249.992355
-0.376221,-0.270264,0.157715,-55.664059,-46.173092,249.992355
-0.199463,-0.598145,0.269287,-57.243343,-83.69445,249.649033
-0.040771,-0.860596,0.24292,-56.312557,-140.335083,249.992355
-0.009277,-1.105957,0.10376,-66.642761,-220.397934,249.992355
0.045654,-1.420166,-0.151123,-75.279236,-249.992355,249.992355
0.188232,-1.72998,-0.470215,-57.91473,-249.992355,249.992355
0.509521,-2.119141,-0.554688,-6.156921,-249.229416,249.992355
0.907227,-2.436035,-0.405518,75.950623,-249.992355,249.992355
1.174561,-2.483398,-0.218262,153.450012,-249.992355,249.992355
1.33667,-2.600342,-0.156006,188.308701,-249.984726,249.992355
1.272949,-2.994141,-0.263916,203.460678,-249.992355,249.992355
1.264404,-3.270508,-0.383301,229.309067,-249.992355,249.992355
1.496826,-3.410889,-0.37793,249.992355,-249.992355,249.992355
1.758301,-3.534912,-0.362305,249.992355,-249.992355,249.992355
