ax,ay,az,gx,gy,gz
0.183105,-0.985107,-0.065674,0.839233,-0.572205,-1.487732
0.181396,-0.982422,-0.069824,0.160217,-0.175476,-1.708984
0.177734,-0.97876,-0.071533,-0.289917,0.091553,-1.739502
0.176758,-0.979004,-0.073242,-0.305176,0.579834,-1.617432
0.17627,-0.983154,-0.072754,-0.160217,1.274109,-1.487732
0.176514,-0.988525,-0.073242,-0.396728,1.861572,-1.091003
0.178223,-0.987061,-0.07373,-1.182556,2.189636,-0.900268
0.176025,-0.983398,-0.072266,-1.876831,2.479553,-1.037598
0.174561,-0.983154,-0.073242,-2.319336,2.807617,-1.190186
0.175293,-0.981689,-0.071777,-2.754211,3.440857,-1.350403
0.17627,-0.980713,-0.069336,-2.975464,3.929138,-1.419067
0.177246,-0.978516,-0.065674,-3.356933,4.104614,-1.586914
0.181885,-0.975586,-0.0625,-4.196167,3.753662,-1.571655
0.182617,-0.973389,-0.057617,-4.684448,3.471374,-1.365662
0.183594,-0.97168,-0.057373,-5.058288,3.479004,-0.976562
0.182617,-0.968262,-0.054443,-4.936218,3.77655,-0.671387
0.181152,-0.971924,-0.05127,-4.501343,4.295349,-0.75531
0.179688,-0.971924,-0.051514,-4.203796,4.997253,-0.923157
0.18042,-0.968262,-0.052979,-3.807068,5.775451,-1.319885
0.182373,-0.968262,-0.052979,-3.234863,6.629943,-1.678467
0.185791,-0.963135,-0.054199,-2.609253,7.446289,-1.922607
0.183105,-0.960693,-0.05127,-1.998901,8.201599,-2.113342
0.184814,-0.963135,-0.04834,-1.327515,8.804321,-2.380371
0.186523,-0.965088,-0.047363,-0.701904,9.094238,-2.464294
0.189941,-0.968994,-0.04834,-0.549316,9.078979,-2.502441
0.192139,-0.971924,-0.050537,-0.62561,8.56781,-2.342224
0.189209,-0.972412,-0.047852,-0.640869,7.987976,-2.029419
0.188721,-0.973389,-0.050293,-0.511169,7.5531,-1.64032
0.189453,-0.979248,-0.05127,-0.267029,7.438659,-1.213074
0.190186,-0.979248,-0.053955,-0.030518,7.270813,-0.88501
0.191406,-0.977051,-0.061523,0.022888,7.148742,-0.587463
0.192871,-0.973389,-0.065674,0.015259,6.912231,-0.572205
0.189453,-0.967529,-0.064209,-0.022888,6.431579,-0.572205
0.186523,-0.963379,-0.062744,0.595093,5.783081,-0.724792
0.186279,-0.968506,-0.060547,1.647949,5.561828,-0.63324
0.186279,-0.978271,-0.061035,2.220154,5.66101,-0.564575
0.187256,-0.987061,-0.063721,1.876831,5.798339,-0.572205
0.1875,-0.990723,-0.063232,1.083374,5.996704,-0.534058
0.187744,-0.987305,-0.065674,0.358582,5.981445,-0.488281
0.183594,-0.981934,-0.068115,-0.434875,5.943298,-0.343323
0.182617,-0.976563,-0.066406,-0.63324,5.950927,-0.244141
0.185059,-0.974854,-0.06665,-0.198364,6.004333,-0.366211
0.184326,-0.977783,-0.064697,-0.099182,6.225585,-0.1297
0.184326,-0.981445,-0.061279,-0.137329,6.492614,0.106812
0.183594,-0.979248,-0.060791,-0.556946,6.767272,0.389099
0.184082,-0.976563,-0.061523,-0.930786,7.156372,0.785828
0.186523,-0.976318,-0.063965,-0.869751,7.56073,0.862122
0.188721,-0.97583,-0.065186,-0.610352,7.781982,0.862122
0.19165,-0.976807,-0.063721,-0.274658,7.743835,1.014709
0.196777,-0.978027,-0.0625,0.022888,7.598876,1.213074
0.19873,-0.982178,-0.062988,0.244141,7.308959,1.464844
0.197266,-0.984619,-0.063965,0.091553,6.973266,1.823425
0.196533,-0.984131,-0.061523,-0.007629,6.858825,1.88446
0.194092,-0.984131,-0.065918,-0.099182,6.935119,1.846313
0.190186,-0.981934,-0.066162,-0.106812,7.125854,1.579285
0.189941,-0.980713,-0.068115,-0.083923,7.286071,1.220703
0.190918,-0.975586,-0.068604,-0.427246,7.43103,0.831604
0.19458,-0.973633,-0.070068,-0.617981,7.293701,0.495911
0.196045,-0.968994,-0.068604,-0.617981,6.881713,0.534058
0.19751,-0.969482,-0.068359,-0.526428,6.507873,0.686645
0.200684,-0.97168,-0.067383,-0.38147,6.118774,1.13678
0.202393,-0.972412,-0.06543,-0.389099,5.584716,1.594543
0.201904,-0.974854,-0.064453,-0.389099,4.776001,2.075195
0.202637,-0.974365,-0.063477,-0.541687,4.074097,2.39563
0.204834,-0.9729,-0.066895,-0.679016,3.227234,2.418518
0.205322,-0.970215,-0.066895,-0.350952,1.991272,2.464294
0.207031,-0.971436,-0.063965,0.259399,0.793457,2.6474
0.204834,-0.973877,-0.064697,0.75531,-0.175476,2.815246
0.207275,-0.976074,-0.06543,0.75531,-1.205444,2.914428
0.206787,-0.974365,-0.063721,0.770569,-2.410889,2.922058
0.201904,-0.974609,-0.06543,0.892639,-3.417969,2.838135
0.199707,-0.974854,-0.06543,1.113892,-4.264832,2.838135
0.192871,-0.977295,-0.06543,1.106262,-4.676819,2.685547
0.192871,-0.979004,-0.065674,0.961304,-4.79126,2.319336
0.191895,-0.980469,-0.065186,0.572205,-4.699707,2.02179
0.190918,-0.980957,-0.067383,-0.061035,-4.524231,1.747131
0.187988,-0.977539,-0.063477,-0.62561,-4.379272,1.617432
0.185547,-0.97583,-0.063965,-0.732422,-4.188538,1.602173
0.184082,-0.976074,-0.063721,-0.640869,-3.784179,1.64032
0.182617,-0.978027,-0.065674,-0.587463,-3.27301,1.564026
0.182617,-0.971436,-0.066895,-0.717163,-2.960205,1.365662
0.182861,-0.967285,-0.067627,-0.915527,-2.716064,1.197815
0.179443,-0.959961,-0.068359,-0.88501,-2.426147,1.029968
0.178711,-0.957275,-0.064697,-0.442505,-1.968384,0.923157
0.179443,-0.959717,-0.060059,0.259399,-1.480102,0.915527
0.177979,-0.968994,-0.057861,0.869751,-0.831604,1.098633
0.178711,-0.977051,-0.056152,0.961304,-0.228882,0.968933
0.18042,-0.979492,-0.057617,0.701904,0.213623,0.869751
0.182617,-0.97998,-0.059082,0.556946,0.152588,0.762939
0.185059,-0.976807,-0.062988,0.526428,-0.328064,0.915527
0.185547,-0.972656,-0.060791,0.732422,-0.88501,1.121521
0.18457,-0.967773,-0.060791,1.350403,-1.464844,1.220703
0.185059,-0.966797,-0.063477,1.922607,-1.686096,1.350403
0.185059,-0.967773,-0.061279,2.39563,-1.51062,1.296997
0.18457,-0.970459,-0.063965,2.555847,-1.289368,1.312256
0.186035,-0.974609,-0.06543,2.433777,-1.174927,1.281738
0.187744,-0.975586,-0.06665,2.334595,-1.159668,1.091003
0.190674,-0.977051,-0.065674,1.983642,-1.266479,0.938415
0.187256,-0.978027,-0.066406,1.655578,-1.419067,0.564575
0.185791,-0.975342,-0.066406,1.396179,-1.556396,0.175476
0.189941,-0.97583,-0.066162,1.159668,-1.930237,-0.312805
0.188232,-0.97583,-0.066895,0.869751,-2.380371,-0.747681
0.186279,-0.970459,-0.069824,0.495911,-2.868652,-1.045227
0.184326,-0.970215,-0.066895,0.274658,-3.211975,-1.319885
0.183105,-0.969971,-0.064697,0.442505,-3.318786,-1.51062
0.181885,-0.970215,-0.063477,0.62561,-3.288269,-1.480102
0.181152,-0.971436,-0.062012,0.602722,-3.158569,-1.472473
0.182129,-0.973389,-0.059814,0.640869,-3.318786,-1.396179
0.181152,-0.972656,-0.05957,0.534058,-3.547668,-1.335144
0.182129,-0.970703,-0.060303,0.518799,-3.807068,-1.235962
0.179443,-0.967529,-0.058838,0.762939,-4.020691,-1.159668
0.179688,-0.966309,-0.058105,1.304626,-3.967285,-0.968933
0.181396,-0.969482,-0.055176,1.800537,-4.013062,-0.816345
0.181641,-0.972656,-0.055176,2.243042,-4.066467,-0.610352
0.18335,-0.973877,-0.053955,2.403259,-4.264832,-0.457764
0.183594,-0.975098,-0.054199,2.426147,-4.478455,-0.450134
0.181641,-0.974854,-0.056152,2.418518,-4.905701,-0.419617
0.181152,-0.974609,-0.056152,2.624511,-5.050659,-0.488281
0.179932,-0.977295,-0.059326,2.807617,-5.081176,-0.480652
0.177246,-0.978516,-0.057373,3.067016,-5.004883,-0.602722
0.175049,-0.97998,-0.057861,3.036499,-4.776001,-0.778198
0.174072,-0.979492,-0.058105,2.784729,-4.325867,-0.869751
0.175293,-0.979736,-0.057373,2.716064,-3.639221,-1.045227
0.175293,-0.981934,-0.060303,2.6474,-3.005981,-1.152039
0.175049,-0.979736,-0.058838,2.380371,-2.738952,-1.144409
0.173828,-0.97998,-0.057617,2.006531,-2.593994,-1.045227
0.174805,-0.977539,-0.059326,1.754761,-2.388,-0.953674
0.175537,-0.976807,-0.060303,1.594543,-2.27356,-0.770569
0.175781,-0.977783,-0.057861,1.548767,-2.128601,-0.610352
0.178467,-0.97876,-0.059082,1.655578,-1.960754,-0.419617
0.177002,-0.978516,-0.058838,1.663208,-2.029419,-0.305176
0.17627,-0.976074,-0.05957,1.663208,-2.113342,-0.183105
0.176758,-0.972412,-0.057861,1.602173,-2.159119,-0.137329
0.172607,-0.966797,-0.052002,1.777649,-2.220154,-0.259399
0.174316,-0.971436,-0.049072,2.128601,-2.052307,-0.335693
0.176514,-0.976807,-0.046387,2.540588,-2.01416,-0.282288
0.177734,-0.982178,-0.04834,2.6474,-1.960754,-0.282288
0.178955,-0.983398,-0.050049,2.334595,-2.304077,-0.25177
0.179443,-0.980225,-0.051514,2.182007,-2.731323,-0.198364
0.17749,-0.975342,-0.050293,2.456665,-2.960205,0.038147
0.175537,-0.971924,-0.045166,2.89154,-3.044128,0.198364
0.174805,-0.972412,-0.045654,3.173828,-2.761841,0.434875
0.177979,-0.974609,-0.047363,3.295898,-2.349854,0.488281
0.177734,-0.978271,-0.052734,3.433227,-1.953125,0.389099
0.177734,-0.977051,-0.05542,3.448486,-1.792908,0.297546
0.177002,-0.97876,-0.058838,3.318786,-1.502991,0.25177
0.177002,-0.980713,-0.05835,3.234863,-1.13678,0.198364
0.175537,-0.979248,-0.056152,2.960205,-0.778198,0.198364
0.174072,-0.977051,-0.05249,2.471924,-0.167847,0.007629
0.17749,-0.977295,-0.054199,2.349854,0.1297,-0.305176
0.179688,-0.979492,-0.05835,2.304077,0.099182,-0.579834
0.181885,-0.980469,-0.059326,1.747131,-0.007629,-0.686645
0.18042,-0.974121,-0.057129,1.38855,-0.457764,-0.869751
0.180908,-0.971924,-0.05957,1.419067,-0.88501,-0.862122
0.179443,-0.974609,-0.056396,1.594543,-0.831604,-0.762939
0.178955,-0.976563,-0.053467,1.594543,-0.892639,-0.778198
0.180176,-0.979736,-0.049561,1.411438,-1.014709,-0.610352
0.179932,-0.97876,-0.049805,1.205444,-0.930786,-0.518799
0.177979,-0.978516,-0.050781,0.930786,-0.801086,-0.442505
0.178223,-0.976074,-0.048584,1.068115,-0.602722,-0.50354
0.179443,-0.975586,-0.048096,1.38855,-0.679016,-0.572205
0.182373,-0.976807,-0.049316,1.777649,-0.961304,-0.747681
0.184814,-0.978271,-0.047363,1.976013,-1.281738,-0.663757
0.18335,-0.979004,-0.047119,2.052307,-1.358032,-0.457764
0.182129,-0.976807,-0.047607,1.998901,-1.441955,-0.350952
0.183105,-0.973389,-0.048584,1.876831,-1.594543,-0.335693
0.181641,-0.970459,-0.050537,1.922607,-1.831055,-0.556946
0.178955,-0.96875,-0.05249,2.166748,-1.945495,-0.709534
0.180664,-0.971191,-0.052246,2.258301,-1.800537,-1.022339
0.180176,-0.975098,-0.051758,2.357483,-1.548767,-1.358032
0.18042,-0.977783,-0.052246,1.998901,-1.38092,-1.472473
0.181396,-0.977295,-0.052246,1.602173,-1.495361,-1.556396
0.178467,-0.976318,-0.051514,1.289368,-1.579285,-1.647949
0.177246,-0.977051,-0.05127,1.121521,-1.579285,-1.770019
0.178955,-0.974854,-0.053467,1.289368,-1.617432,-1.89209
0.179443,-0.977295,-0.053955,1.457214,-2.166748,-1.876831
0.18042,-0.977539,-0.051758,1.678467,-2.983093,-1.663208
0.180908,-0.979492,-0.047119,1.930237,-3.601074,-1.167297
0.181641,-0.984375,-0.043457,1.89209,-3.952026,-0.770569
0.179932,-0.984375,-0.041992,1.579285,-4.142761,-0.473022
0.179199,-0.981934,-0.043945,1.037598,-4.211426,-0.396728
0.177979,-0.977295,-0.045654,0.724792,-4.188538,-0.534058
0.17627,-0.969727,-0.041504,0.778198,-4.135132,-0.75531
0.175781,-0.968994,-0.037842,1.243591,-4.089355,-0.923157
0.176514,-0.973145,-0.036133,1.785278,-4.013062,-1.045227
0.176758,-0.98291,-0.03833,1.991272,-3.677368,-1.12915
0.179443,-0.986572,-0.039551,1.907349,-3.349304,-1.121521
0.18042,-0.988281,-0.037598,1.464844,-3.219604,-1.190186
0.176514,-0.983398,-0.037842,1.274109,-3.349304,-1.083374
0.173584,-0.978271,-0.038574,1.502991,-3.40271,-0.831604
0.175781,-0.978271,-0.039795,1.686096,-3.303528,-0.640869
0.178467,-0.978516,-0.040283,1.808166,-3.334045,-0.595093
0.176514,-0.977051,-0.039551,1.953125,-3.540039,-0.37384
0.172852,-0.978271,-0.040527,1.777649,-3.570556,-0.12207
0.174072,-0.980957,-0.041992,1.617432,-3.227234,0.099182
0.174316,-0.98291,-0.04248,1.403808,-2.380371,0.259399
0.175049,-0.981445,-0.041504,1.13678,-1.335144,0.213623
0.174561,-0.977295,-0.041504,0.999451,-0.427246,-0.030518
0.17334,-0.97583,-0.039795,1.113892,0.305176,-0.450134
0.176025,-0.975342,-0.040283,1.304626,0.778198,-0.740051
0.181152,-0.975098,-0.040283,1.525879,1.289368,-0.961304
0.183594,-0.973877,-0.036133,1.304626,1.495361,-0.976562
0.186279,-0.971924,-0.0354,1.167297,1.63269,-0.740051
0.1875,-0.970703,-0.036377,1.25885,1.846313,-0.511169
0.190918,-0.971436,-0.037354,1.373291,1.991272,-0.37384
0.190186,-0.970947,-0.040283,1.670837,1.747131,-0.389099
0.191406,-0.968506,-0.041748,2.090454,1.083374,-0.556946
0.194824,-0.971924,-0.04126,2.761841,0.305176,-0.701904
0.196777,-0.973389,-0.037354,3.02124,-0.579834,-0.808716
0.198242,-0.9729,-0.036377,3.036499,-1.449585,-0.679016
0.196045,-0.9729,-0.0354,3.089905,-2.250671,-0.595093
0.195313,-0.977783,-0.034912,2.960205,-2.960205,-0.770569
0.195801,-0.978027,-0.036865,2.76947,-3.913879,-0.88501
0.195068,-0.976074,-0.037109,2.716064,-4.91333,-0.862122
0.194092,-0.976563,-0.040039,2.731323,-5.676269,-0.946045
0.192627,-0.977783,-0.040771,2.700805,-6.355285,-1.075745
0.188477,-0.980225,-0.039551,2.784729,-6.935119,-1.045227
0.185059,-0.980957,-0.039795,2.677917,-7.003784,-0.953674
0.18042,-0.981201,-0.039551,2.5177,-6.744384,-0.984192
0.178711,-0.980957,-0.039795,2.250671,-6.004333,-1.106262
0.177979,-0.97876,-0.036621,1.983642,-5.134582,-1.213074
0.177246,-0.977783,-0.037354,1.693725,-4.196167,-1.243591
0.178223,-0.977295,-0.037354,1.449585,-3.547668,-1.12915
0.179443,-0.978516,-0.03833,1.167297,-3.158569,-1.121521
0.180664,-0.979492,-0.039551,0.968933,-3.036499,-1.060486
0.179688,-0.979492,-0.0354,0.808716,-3.067016,-1.00708
0.180664,-0.983887,-0.032715,0.762939,-3.166198,-0.976562
0.180664,-0.987549,-0.031494,0.663757,-3.112793,-0.717163
0.182129,-0.989014,-0.028076,0.320435,-2.960205,-0.518799
0.180664,-0.986084,-0.029785,-0.091553,-2.876281,-0.473022
0.181152,-0.979004,-0.033203,-0.282288,-3.097534,-0.495911
0.181641,-0.969482,-0.032959,-0.083923,-3.456115,-0.602722
0.179443,-0.9646,-0.032715,0.740051,-3.921509,-0.679016
0.177246,-0.970947,-0.030762,1.846313,-3.952026,-0.679016
0.17749,-0.979492,-0.030762,2.563476,-3.601074,-0.534058
0.177734,-0.984131,-0.027832,2.441406,-2.76947,-0.427246
0.175537,-0.982178,-0.027588,1.808166,-1.815796,-0.404358
0.176758,-0.979004,-0.031494,1.594543,-0.854492,-0.62561
0.174805,-0.979248,-0.034912,1.63269,0.0,-0.63324
0.176514,-0.978271,-0.036133,1.525879,0.793457,-0.640869
0.181396,-0.975098,-0.034912,1.548767,1.472473,-0.62561
0.183838,-0.972656,-0.033691,1.289368,1.815796,-0.648498
0.185547,-0.971924,-0.0354,1.174927,1.625061,-0.541687
0.185547,-0.973877,-0.03418,1.228333,1.068115,-0.389099
0.190186,-0.976563,-0.036133,1.296997,0.518799,-0.099182
0.190186,-0.981934,-0.034424,1.281738,-0.175476,0.022888
0.191162,-0.981689,-0.035156,1.098633,-0.976562,-0.083923
0.188477,-0.980469,-0.0354,1.075745,-1.785278,-0.396728
0.192627,-0.979004,-0.034912,1.304626,-2.731323,-0.358582
0.192383,-0.980225,-0.036621,1.655578,-3.662109,-0.389099
0.189453,-0.983643,-0.0354,1.663208,-4.508972,-0.50354
0.1875,-0.984619,-0.036377,1.373291,-5.363464,-0.556946
0.185303,-0.981934,-0.036865,1.190186,-5.851745,-0.450134
0.181641,-0.981689,-0.036133,0.88501,-5.805969,-0.320435
0.177734,-0.984619,-0.034424,0.724792,-5.66864,-0.236511
0.174805,-0.98291,-0.037109,0.38147,-5.363464,-0.328064
0.175537,-0.981445,-0.037109,-0.106812,-4.760742,-0.389099
0.174316,-0.98291,-0.036133,-0.335693,-4.066467,-0.320435
0.174316,-0.979004,-0.034424,-0.564575,-3.181457,-0.289917
0.172363,-0.975586,-0.035156,-0.648498,-2.227783,-0.305176
0.173096,-0.974609,-0.032471,-0.63324,-1.213074,-0.358582
0.174805,-0.977295,-0.030273,-0.305176,-0.457764,-0.442505
0.177979,-0.97876,-0.033203,-0.183105,-0.183105,-0.37384
0.178955,-0.976563,-0.030273,-0.442505,-0.282288,-0.37384
0.179688,-0.974365,-0.02832,-0.38147,-0.724792,-0.305176
0.180908,-0.969971,-0.029541,-0.152588,-1.319885,-0.190735
0.181152,-0.972656,-0.030762,0.267029,-1.754761,-0.160217
0.181885,-0.976074,-0.029785,0.717163,-1.88446,-0.167847
0.181152,-0.978271,-0.030518,0.778198,-2.212524,-0.152588
0.176758,-0.977295,-0.029297,0.602722,-2.326965,-0.366211
0.17627,-0.974854,-0.028076,0.434875,-2.388,-0.541687
0.17749,-0.973877,-0.031006,0.495911,-2.26593,-0.801086
0.176758,-0.972412,-0.028809,0.534058,-2.075195,-0.984192
0.178467,-0.974365,-0.029297,0.717163,-1.991272,-1.121521
0.176758,-0.974854,-0.030518,0.907898,-2.105713,-1.182556
0.178223,-0.97876,-0.031494,1.13678,-2.227783,-1.213074
0.178955,-0.984863,-0.028564,1.472473,-2.357483,-0.892639
0.179443,-0.992432,-0.029785,1.403808,-2.258301,-0.526428
0.177002,-0.994629,-0.030029,0.862122,-2.342224,-0.267029
0.175049,-0.987305,-0.032715,0.404358,-2.471924,-0.1297
0.172119,-0.977783,-0.035645,-0.007629,-2.685547,-0.1297
0.169434,-0.969727,-0.032471,0.152588,-2.593994,-0.289917
0.16748,-0.968506,-0.029053,0.808716,-2.059937,-0.534058
0.168457,-0.975098,-0.030273,1.426697,-1.152039,-0.396728
0.171143,-0.981934,-0.030273,1.335144,-0.190735,-0.305176
0.173584,-0.982666,-0.031494,0.770569,0.495911,-0.213623
0.175781,-0.979248,-0.0354,0.404358,1.091003,-0.045776
0.175049,-0.977539,-0.038818,0.411987,1.441955,-0.106812
0.175293,-0.976807,-0.037109,0.694275,1.800537,-0.106812
0.179932,-0.976074,-0.039307,1.014709,1.907349,-0.015259
0.18335,-0.975098,-0.037354,1.060486,1.693725,0.061035
0.186279,-0.974854,-0.033936,0.862122,1.235962,0.244141
0.188232,-0.977295,-0.036133,0.587463,0.770569,0.389099
0.193359,-0.981201,-0.038086,0.328064,0.389099,0.541687
0.191895,-0.985352,-0.038574,-0.083923,-0.137329,0.473022
0.192383,-0.986328,-0.036865,-0.37384,-0.671387,0.091553
0.192871,-0.986816,-0.03833,-0.740051,-1.38855,-0.160217
0.190674,-0.985352,-0.034668,-1.091003,-2.433777,-0.473022
0.189209,-0.982178,-0.03418,-1.495361,-3.242492,-0.846863
0.186523,-0.977783,-0.035156,-1.663208,-3.753662,-1.296997
0.184814,-0.973633,-0.031982,-1.785278,-3.974914,-1.579285
0.181885,-0.974121,-0.029297,-1.663208,-3.807068,-1.571655
0.179199,-0.975342,-0.027344,-1.533508,-3.440857,-1.800537
0.178711,-0.978027,-0.025391,-1.525879,-2.990722,-1.953125
0.17627,-0.976563,-0.029297,-1.38855,-2.784729,-1.815796
0.175293,-0.973145,-0.029297,-1.174927,-2.670288,-1.731872
0.172363,-0.970215,-0.02832,-0.717163,-2.471924,-1.670837
0.169922,-0.970215,-0.030273,-0.289917,-2.151489,-1.38855
0.169678,-0.972168,-0.028809,0.144958,-1.693725,-1.190186
0.169678,-0.972412,-0.030518,0.556946,-0.808716,-1.091003
0.17041,-0.978027,-0.028809,0.88501,0.091553,-1.037598
0.173828,-0.982178,-0.028809,0.930786,0.862122,-0.808716
0.180908,-0.984375,-0.032471,0.549316,1.045227,-0.488281
0.180908,-0.983643,-0.032227,0.099182,0.846863,-0.297546
0.179199,-0.982666,-0.033203,-0.297546,0.564575,-0.244141
0.179199,-0.980225,-0.033203,-0.404358,0.061035,-0.335693
0.180176,-0.979492,-0.03418,-0.221252,-0.312805,-0.518799
0.182129,-0.980469,-0.035645,-0.12207,-0.427246,-0.63324
0.182861,-0.980957,-0.035889,-0.152588,-0.617981,-0.747681
0.182861,-0.980225,-0.033691,-0.572205,-0.701904,-0.770569
0.18335,-0.974609,-0.033447,-0.862122,-0.785828,-0.900268
0.182861,-0.9729,-0.034668,-0.785828,-1.075745,-0.999451
0.184814,-0.970703,-0.033691,-0.534058,-1.335144,-1.045227
0.184326,-0.97168,-0.03418,-0.190735,-1.739502,-1.144409
0.180908,-0.976074,-0.03418,0.106812,-2.14386,-1.022339
0.182373,-0.980225,-0.031006,0.083923,-2.189636,-0.88501
0.181885,-0.980713,-0.030029,0.030518,-1.899719,-0.740051
0.184326,-0.981201,-0.031494,0.015259,-1.480102,-0.694275
0.185059,-0.978271,-0.036621,-0.083923,-1.25885,-0.915527
0.186768,-0.972412,-0.038574,-0.106812,-1.396179,-0.953674
0.187256,-0.971191,-0.040283,0.099182,-1.792908,-1.190186
0.186035,-0.971924,-0.037842,0.63324,-2.182007,-1.350403
0.18457,-0.976563,-0.034424,1.022339,-2.220154,-1.335144
0.185303,-0.984619,-0.032227,1.121521,-1.930237,-1.365662
0.18335,-0.989746,-0.036621,0.396728,-1.472473,-1.319885
0.183105,-0.987061,-0.041992,-0.679016,-1.121521,-1.403808
0.181885,-0.977539,-0.044189,-1.045227,-1.014709,-1.571655
0.181152,-0.970947,-0.044922,-0.816345,-0.732422,-1.480102
0.180664,-0.971924,-0.043213,-0.190735,-0.511169,-1.533508
0.184326,-0.97583,-0.042236,0.221252,-0.640869,-1.495361
0.184082,-0.979736,-0.042236,0.343323,-0.785828,-1.281738
0.183838,-0.982422,-0.040527,0.015259,-0.823975,-0.854492
0.184082,-0.985352,-0.042969,-0.396728,-0.869751,-0.488281
0.183594,-0.981689,-0.04126,-0.87738,-0.816345,-0.350952
0.185303,-0.97876,-0.044678,-1.144409,-0.663757,-0.328064
0.185059,-0.974121,-0.042725,-1.098633,-0.419617,-0.358582
0.186035,-0.971436,-0.040283,-1.060486,-0.198364,-0.411987
0.189941,-0.971191,-0.039795,-0.831604,-0.152588,-0.511169
0.193848,-0.971924,-0.039063,-0.724792,-0.144958,-0.587463
0.195801,-0.972656,-0.039307,-0.564575,-0.450134,-0.648498
0.195068,-0.972168,-0.038574,-0.389099,-0.831604,-0.595093
0.198242,-0.971924,-0.037598,-0.068665,-1.396179,-0.587463
0.198486,-0.969727,-0.036133,-0.099182,-2.120972,-0.808716
0.195801,-0.969727,-0.034424,-0.061035,-2.868652,-0.869751
0.192627,-0.968994,-0.036865,0.320435,-3.501892,-1.12915
0.19458,-0.970215,-0.035156,0.724792,-3.974914,-1.190186
0.195557,-0.973877,-0.035645,0.976562,-4.310608,-1.228333
0.192383,-0.974365,-0.036133,1.052856,-4.516602,-1.12915
0.19165,-0.974121,-0.038086,1.373291,-4.814148,-1.060486
0.191406,-0.976563,-0.040039,1.655578,-5.0354,-0.999451
0.189941,-0.979248,-0.039063,1.785278,-5.271911,-0.984192
0.186523,-0.980957,-0.038086,1.785278,-5.41687,-0.869751
0.182861,-0.979736,-0.04248,1.594543,-5.325317,-0.839233
0.179199,-0.977051,-0.042236,1.197815,-4.852295,-0.740051
0.178467,-0.975098,-0.044434,0.816345,-3.90625,-0.724792
0.175537,-0.978271,-0.043701,0.831604,-2.761841,-0.793457
0.174805,-0.981934,-0.043457,0.846863,-1.556396,-0.923157
0.175293,-0.983398,-0.043701,0.63324,-0.465393,-1.052856
0.178467,-0.983887,-0.041992,0.274658,0.25177,-1.098633
0.182861,-0.98291,-0.042236,-0.083923,0.518799,-1.060486
0.181885,-0.981934,-0.042969,-0.411987,0.495911,-0.808716
0.182129,-0.978027,-0.041992,-0.518799,0.198364,-0.595093
0.184082,-0.974121,-0.039551,-0.389099,-0.137329,-0.442505
0.184326,-0.973145,-0.037842,-0.244141,-0.450134,-0.175476
0.184082,-0.973389,-0.036377,-0.007629,-0.694275,0.190735
0.182617,-0.976563,-0.033936,0.434875,-0.572205,0.556946
0.184814,-0.97876,-0.035156,0.617981,-0.099182,0.762939
0.187988,-0.977295,-0.035889,0.656128,0.0,0.709534
0.187988,-0.974365,-0.040771,0.648498,-0.152588,0.640869
0.187256,-0.969971,-0.041992,0.915527,-0.549316,0.434875
0.1875,-0.965576,-0.037354,1.38092,-1.083374,0.411987
0.186523,-0.968506,-0.033691,2.037048,-1.449585,0.404358
0.186523,-0.97583,-0.031006,2.578735,-1.693725,0.541687
0.185791,-0.981445,-0.032471,2.563476,-1.869202,0.740051
0.186768,-0.982178,-0.037354,1.907349,-1.937866,0.87738
0.1875,-0.980957,-0.038574,1.571655,-2.334595,0.976562
0.187256,-0.974854,-0.039063,1.945495,-3.028869,1.00708
0.184814,-0.975342,-0.039795,2.563476,-3.501892,1.205444
0.185303,-0.976563,-0.039551,3.097534,-4.066467,1.449585
0.188721,-0.974121,-0.038086,2.960205,-4.753113,1.617432
0.191406,-0.973145,-0.0354,2.700805,-5.844116,1.770019
0.19165,-0.975098,-0.036133,2.731323,-7.17926,2.006531
0.187256,-0.976563,-0.039063,2.807617,-8.132935,2.120972
0.184326,-0.97583,-0.036865,2.807617,-8.728027,2.044678
0.182617,-0.973633,-0.037598,2.906799,-8.583069,1.739502
0.177246,-0.976563,-0.033447,3.112793,-8.110046,1.579285
0.178711,-0.975586,-0.035645,3.311157,-7.736206,1.25885
0.177979,-0.977783,-0.038818,3.517151,-7.598876,0.88501
0.17749,-0.97998,-0.039063,3.799438,-7.766723,0.511169
0.17334,-0.980713,-0.034912,3.944397,-7.987976,0.350952
0.171631,-0.980957,-0.033936,3.829956,-8.079529,0.465393
0.168945,-0.979248,-0.033691,3.601074,-7.965087,0.526428
0.166992,-0.972656,-0.033936,3.349304,-7.835388,0.572205
0.165527,-0.97168,-0.033447,3.211975,-7.591247,0.823975
0.162842,-0.975098,-0.034912,3.196716,-6.988525,0.999451
0.163818,-0.975586,-0.034668,3.349304,-6.103515,1.106262
0.164307,-0.981934,-0.037354,3.349304,-5.065917,1.335144
0.164063,-0.981689,-0.038574,3.486633,-4.096985,1.296997
0.165771,-0.979736,-0.031738,3.349304,-3.555298,1.243591
0.166748,-0.980957,-0.033936,3.204345,-3.234863,1.060486
0.166504,-0.982178,-0.0354,3.067016,-2.731323,0.75531
0.167725,-0.982178,-0.036377,3.089905,-2.281189,0.595093
0.169434,-0.979004,-0.034668,2.807617,-2.296448,0.434875
0.166748,-0.976074,-0.037842,2.494812,-2.365112,0.1297
0.162598,-0.977051,-0.035645,2.586365,-1.625061,-0.083923
0.162109,-0.979248,-0.0354,2.861023,-0.25177,-0.511169
0.162109,-0.979492,-0.035645,2.975464,1.060486,-0.938415
0.163818,-0.985352,-0.036377,2.853393,1.937866,-0.976562
0.167236,-0.992188,-0.032959,2.670288,1.945495,-0.808716
0.172363,-0.991943,-0.032471,2.14386,1.602173,-0.770569
0.174561,-0.993652,-0.031494,1.670837,1.304626,-0.923157
0.16748,-0.991699,-0.029297,0.984192,0.686645,-0.770569
0.163086,-0.983887,-0.028809,0.602722,0.259399,-0.572205
0.169922,-0.979248,-0.030273,0.213623,0.183105,-0.724792
0.175537,-0.977783,-0.028076,0.495911,0.076294,-0.793457
0.165771,-0.976074,-0.026123,0.75531,0.0,-0.976562
0.161133,-0.970215,-0.02832,0.823975,0.045776,-0.793457
0.162842,-0.964355,-0.033447,1.083374,0.854492,-1.014709
0.165283,-0.963623,-0.032471,1.358032,1.602173,-1.785278
0.167236,-0.96167,-0.028809,1.556396,1.754761,-2.235413
0.168945,-0.966309,-0.027344,2.02179,1.64032,-2.113342
0.169189,-0.976318,-0.024658,2.174377,1.525879,-1.76239
0.170654,-0.97998,-0.026855,1.785278,1.426697,-1.403808
0.172119,-0.980469,-0.028076,1.747131,1.579285,-1.426697
0.168945,-0.981445,-0.028076,1.922607,1.609802,-1.800537
0.170166,-0.978516,-0.031006,1.930237,0.953674,-1.64032
0.172607,-0.976563,-0.030518,2.250671,0.030518,-1.029968
0.175049,-0.974854,-0.027832,2.76947,-0.915527,-0.892639
0.17334,-0.974121,-0.024658,3.242492,-1.571655,-0.839233
0.171143,-0.976563,-0.023926,3.356933,-1.403808,-0.701904
0.17334,-0.981934,-0.025879,3.128052,-1.220703,-0.564575
0.174805,-0.980225,-0.026367,2.63977,-1.182556,-0.411987
0.175293,-0.978516,-0.025146,2.662658,-1.495361,-0.305176
0.170898,-0.977051,-0.026855,2.700805,-1.602173,0.045776
0.167969,-0.978027,-0.028809,3.013611,-0.671387,-0.205994
0.168945,-0.976807,-0.030029,2.883911,0.770569,-0.946045
0.171631,-0.969482,-0.031494,2.571106,2.204895,-1.716614
0.175049,-0.958008,-0.033203,2.227783,3.112793,-2.5177
0.174316,-0.948242,-0.041016,2.754211,3.90625,-2.990722
0.17749,-0.953369,-0.035645,4.096985,5.500793,-3.410339
0.184814,-0.963379,-0.035645,4.394531,6.759643,-3.204345
0.189941,-0.977051,-0.036621,4.882813,8.079529,-3.440857
0.19043,-0.985596,-0.032227,4.737854,8.796692,-3.814697
0.19458,-0.986084,-0.036865,4.043579,8.010864,-4.051208
0.197266,-0.987793,-0.040771,3.532409,6.774902,-4.188538
0.198242,-0.987793,-0.043945,3.517151,5.432128,-3.77655
0.201172,-0.989746,-0.044922,4.203796,5.233764,-3.730774
0.196289,-0.99585,-0.05249,4.066467,5.355834,-3.219604
0.196045,-0.996094,-0.052979,3.608703,5.264282,-3.242492
0.197021,-0.985596,-0.052002,2.601623,3.936767,-3.463745
0.200439,-0.968506,-0.056396,1.182556,1.091003,-3.211975
0.196533,-0.957275,-0.057129,1.106262,-0.976562,-2.922058
0.193604,-0.961182,-0.057373,1.976013,-0.831604,-2.548218
0.196045,-0.971436,-0.053711,2.082825,0.541687,-1.914978
0.200439,-0.976074,-0.046143,0.938415,1.548767,-1.106262
0.208008,-0.97583,-0.041748,-0.930786,0.50354,-0.473022
0.215332,-0.966064,-0.041504,-2.14386,-2.937317,0.404358
0.216553,-0.959229,-0.043457,-1.579285,-7.56073,0.991821
0.216797,-0.961426,-0.034668,0.190735,-11.901855,0.892639
0.212646,-0.9646,-0.025635,0.991821,-14.823913,1.052856
0.206543,-0.958496,-0.016602,1.335144,-16.082764,1.289368
0.200195,-0.950195,-0.01123,1.396179,-16.792297,1.495361
0.190674,-0.947754,-0.009766,2.777099,-15.800475,0.694275
0.187988,-0.950684,0.001221,3.89862,-13.488769,-0.350952
0.196533,-0.958496,0.009033,4.478455,-11.795043,-0.579834
0.206543,-0.974609,0.018066,5.462646,-11.314391,-0.62561
0.205566,-0.989502,0.023193,6.278991,-12.123107,-0.114441
0.193848,-0.999512,0.031006,7.17926,-12.199401,-0.335693
0.184814,-0.995117,0.035889,6.607055,-12.184142,-0.724792
0.182617,-0.976563,0.0354,5.752563,-12.33673,-1.464844
0.187012,-0.954346,0.037109,5.91278,-13.084411,-2.685547
0.189941,-0.931152,0.041992,6.698608,-13.366698,-3.913879
0.184326,-0.907227,0.045166,7.797241,-13.267516,-4.112244
0.183594,-0.894043,0.040039,8.81958,-13.732909,-3.288269
0.185303,-0.883789,0.03833,10.742187,-12.725829,-2.929687
0.180664,-0.88623,0.042725,12.908935,-11.070251,-2.243042
0.195557,-0.908691,0.052979,15.380858,-9.117126,-1.174927
0.214355,-0.942139,0.054199,17.585754,-6.149292,0.068665
0.208252,-0.966064,0.049805,17.288208,-3.27301,1.754761
0.199219,-0.954346,0.050537,16.349792,-1.983642,2.037048
0.21167,-0.927246,0.06543,17.974854,-2.494812,0.198364
0.233398,-0.914795,0.087158,21.339415,-5.363464,-1.167297
0.246338,-0.916992,0.100342,24.398802,-9.437561,0.427246
0.248047,-0.938232,0.099121,26.31378,-13.572692,4.394531
0.237549,-0.973389,0.0979,27.748106,-16.815186,7.690429
0.218506,-1.012939,0.104248,27.57263,-17.26532,8.705139
0.213867,-1.043945,0.103027,26.123045,-13.656615,8.117676
0.192627,-1.067139,0.105713,25.947569,-1.586914,6.16455
0.159424,-1.073242,0.106934,24.902342,16.88385,2.815246
0.169922,-1.064453,0.10376,22.293089,37.971497,-3.211975
0.220947,-1.050049,0.100098,20.500181,57.220455,-11.070251
0.256592,-1.041016,0.0896,19.241333,71.266174,-16.273499
0.271729,-1.033691,0.083008,18.486023,77.957153,-17.021179
0.283691,-1.026367,0.068115,17.158508,79.376221,-16.670227
0.286377,-1.021484,0.050537,15.007018,79.109192,-16.319275
0.283203,-1.015625,0.043701,13.053893,77.133179,-15.029906
0.283203,-1.012695,0.033691,10.658263,73.84491,-14.35089
0.293213,-1.01123,0.025146,7.583618,68.389893,-14.335631
0.317627,-1.013916,0.025879,6.034851,58.04443,-13.175963
0.327881,-1.016846,0.041992,5.546569,44.471737,-10.06317
0.311768,-1.019775,0.061523,4.005432,31.578062,-6.278991
0.299072,-1.012695,0.083984,0.404358,21.865843,-2.532959
0.295166,-0.993408,0.10498,-4.920959,16.51001,0.457764
0.298828,-0.963867,0.118408,-9.82666,13.984679,2.761841
0.313477,-0.944092,0.119629,-12.130736,11.352538,4.676819
0.325684,-0.935059,0.125732,-12.039184,7.637023,6.629943
0.32959,-0.933105,0.135986,-10.963439,2.471924,8.399963
0.319824,-0.925049,0.146729,-10.169982,-3.608703,9.735107
0.313721,-0.914551,0.168945,-9.315491,-10.261535,10.536193
0.317139,-0.904541,0.182373,-8.514404,-16.769409,10.627746
0.313965,-0.898682,0.1875,-7.415771,-23.025511,10.475158
0.30542,-0.90332,0.186768,-5.531311,-28.366087,10.406493
0.30249,-0.904297,0.19458,-3.448486,-33.287048,10.650634
0.305664,-0.904541,0.206787,-2.006531,-37.872314,10.688781
0.310303,-0.902832,0.220703,-0.862122,-40.90118,10.787963
0.30957,-0.904053,0.237061,0.389099,-43.151852,11.886596
0.300781,-0.91748,0.246582,2.929687,-43.228146,13.488769
0.286133,-0.927002,0.257324,4.447937,-41.28265,14.663695
0.279541,-0.938477,0.256592,4.364014,-39.848328,15.815734
0.272705,-0.955078,0.246826,4.547119,-38.917542,16.876221
0.266602,-0.969482,0.243652,6.561279,-38.360596,17.982483
0.262939,-0.987305,0.24585,10.536193,-38.566589,18.493652
0.259766,-1.013672,0.253906,15.457152,-41.046139,17.837524
0.245117,-1.050293,0.246338,18.203735,-45.333858,17.562866
0.23584,-1.074951,0.226074,18.341064,-50.430294,17.707825
0.241943,-1.073486,0.193359,16.235352,-55.862423,18.318176
0.248047,-1.060303,0.147461,12.916564,-64.353943,20.195005
0.230225,-1.047607,0.092773,10.19287,-78.765869,24.436949
0.189453,-1.038818,0.046387,10.116576,-98.854057,30.303953
0.135742,-1.043213,0.002686,13.305663,-120.132439,35.02655
0.064453,-1.076904,-0.048828,16.746521,-139.083862,37.452698
-0.022461,-1.115723,-0.086426,17.845154,-155.723572,38.490295
-0.083008,-1.155762,-0.101807,12.481688,-167.808517,43.067928
-0.1875,-1.175781,-0.122803,-0.442505,-167.304977,54.618832
-0.310303,-1.159912,-0.133789,-12.275695,-155.883789,67.939758
-0.33667,-1.104736,-0.151855,-20.729063,-139.389038,74.020386
-0.281494,-1.048096,-0.169189,-26.603697,-120.315544,69.099426
-0.22876,-1.014648,-0.186523,-28.846739,-106.788628,61.935421
-0.202393,-0.996094,-0.177246,-27.000425,-99.96032,57.868954
-0.176758,-0.98584,-0.15332,-24.841307,-94.924919,56.198116
-0.154785,-0.969482,-0.118896,-24.360655,-87.371819,53.367611
-0.122314,-0.944092,-0.111572,-26.023863,-74.84436,49.194332
-0.093262,-0.91333,-0.121582,-26.954649,-62.393185,44.845577
-0.067627,-0.881836,-0.123047,-25.711058,-47.317501,37.643433
-0.043213,-0.856689,-0.114258,-24.124144,-29.693602,32.470703
-0.016357,-0.848877,-0.105957,-20.004272,-16.731262,29.243467
0.032227,-0.862305,-0.084961,-13.526916,-9.70459,25.474546
0.087891,-0.890137,-0.0625,-8.789063,-10.177611,22.178648
0.111572,-0.934326,-0.04126,-7.263183,-18.096924,21.003721
0.100342,-0.96167,-0.027588,-9.979248,-32.966614,21.766661
0.070557,-0.972412,-0.016113,-14.717101,-49.453732,22.40753
0.036377,-0.970703,-0.007324,-19.744873,-64.712524,20.454405
-0.002686,-0.959229,-0.028076,-25.100706,-79.063416,16.143799
-0.052002,-0.946533,-0.047852,-27.168272,-87.753288,7.881164
-0.090088,-0.940674,-0.059326,-26.023863,-91.926567,-2.838135
-0.101318,-0.944092,-0.077637,-25.711058,-98.777763,-10.276793
-0.115967,-0.947266,-0.080078,-25.390623,-109.840385,-13.664245
-0.140137,-0.953125,-0.07373,-25.703428,-123.741142,-14.587401
-0.18335,-0.957275,-0.085938,-27.114866,-134.117126,-14.015197
-0.226807,-0.959473,-0.091553,-27.32086,-137.123108,-14.701842
-0.260254,-0.969482,-0.116455,-28.114317,-136.482239,-12.390136
-0.279541,-0.992676,-0.135986,-24.55139,-134.82666,-10.383605
-0.309326,-1.029785,-0.144531,-16.838074,-134.353638,-10.757445
-0.311768,-1.065186,-0.127686,-6.088256,-127.662651,-19.889832
-0.291504,-1.097168,-0.109131,3.562927,-109.329216,-26.840208
-0.27417,-1.131348,-0.097168,10.505675,-80.841057,-26.657103
-0.235596,-1.152832,-0.092041,13.404845,-51.23901,-22.476194
-0.17627,-1.158203,-0.083252,12.947082,-27.282713,-15.525817
-0.106201,-1.141602,-0.067383,9.559631,-14.167785,-7.324218
-0.037109,-1.10376,-0.0625,4.570007,-16.571045,-0.328064
-0.025879,-1.039551,-0.069824,-0.839233,-27.496336,5.577087
-0.092285,-0.969727,-0.071533,-4.455566,-28.343199,10.787963
-0.137451,-0.920166,-0.063721,-5.928039,-10.711669,11.718749
-0.130127,-0.880127,-0.040283,-8.796692,19.958496,7.789611
-0.100586,-0.856201,-0.023193,-12.374877,49.293514,2.624511
-0.076904,-0.85791,-0.002686,-14.015197,74.081421,-3.585815
-0.047852,-0.874512,0.012207,-15.594481,93.933098,-9.83429
-0.017578,-0.893066,0.029297,-18.814087,110.145561,-15.083312
0.004639,-0.910889,0.029053,-23.03314,124.725334,-20.744322
0.027588,-0.916016,0.024658,-25.93231,138.313293,-27.923582
0.056152,-0.913818,0.021484,-27.793882,149.971008,-35.270691
0.087646,-0.914795,0.020264,-27.832029,158.081055,-41.351315
0.115234,-0.917725,0.019531,-25.833128,161.827072,-44.013973
0.145752,-0.929932,0.023193,-21.949766,160.659775,-44.143673
0.171631,-0.955566,0.030518,-17.112732,155.448914,-43.136593
0.198242,-0.980957,0.029297,-12.542724,147.56012,-41.313168
0.226318,-1.005615,0.02417,-8.796692,138.22937,-38.513184
0.25,-1.02124,0.017822,-5.859375,126.533501,-34.812927
0.282959,-1.031982,0.008301,-2.540588,111.686699,-29.869078
0.313232,-1.047363,-0.000488,0.816345,92.39196,-23.54431
0.328369,-1.062012,-0.00415,4.386902,68.534851,-17.089844
0.327148,-1.08374,-0.007813,7.789611,41.801449,-10.650634
0.291748,-1.105957,-0.025391,11.108397,14.930724,-4.798889
0.237305,-1.095947,-0.010498,13.534545,-7.095336,0.808716
0.205566,-1.080322,-0.003174,17.89856,-19.607544,5.40924
0.162598,-1.095215,-0.031982,32.272339,-19.821167,14.968871
0.087891,-1.058838,-0.048584,44.55566,-11.169433,24.215696
0.022705,-0.969238,-0.114258,44.067379,1.815796,15.373229
-0.102051,-0.909668,-0.233398,56.480404,24.29199,-4.692078
-0.223389,-0.856934,-0.157227,87.493889,58.143612,-22.666929
-0.133301,-0.816162,-0.013428,109.161369,99.83062,-43.388363
0.064697,-0.826172,0.03418,116.401665,138.519287,-54.618832
0.095703,-0.88501,0.080566,116.035454,160.331726,-43.319698
0.002686,-0.936035,0.124756,109.848015,164.192184,-33.157349
0.00415,-0.970703,0.142822,99.990837,167.304977,-46.104427
0.097656,-1.013916,0.163818,86.196892,175.163254,-63.644405
0.175537,-1.039307,0.162598,65.803528,175.346359,-63.880917
0.21582,-1.019043,0.160156,46.859737,167.411789,-58.334347
0.266846,-1.002197,0.20459,35.339355,154.159546,-58.975216
0.310791,-1.001221,0.206299,25.703428,134.941101,-58.074947
0.326172,-1.003906,0.193848,16.288757,113.052361,-53.039547
0.34082,-1.014893,0.188477,10.658263,91.361992,-48.248287
0.340332,-1.009766,0.197266,7.858276,71.754456,-42.480465
0.316162,-0.998291,0.213623,8.621216,57.861324,-35.469055
0.292969,-0.999512,0.221191,10.978698,49.98016,-28.70941
0.293213,-1.001953,0.216553,12.008666,45.684811,-23.941038
0.311523,-0.996094,0.212158,10.963439,41.519161,-21.720884
0.352539,-0.974365,0.207764,7.629394,34.01947,-19.920349
0.369873,-0.952393,0.178711,3.501892,21.766661,-15.571593
0.36084,-0.924561,0.156006,0.175476,6.195068,-8.338928
0.345215,-0.913818,0.132813,0.358582,-11.695861,-2.059937
0.297607,-0.930176,0.108154,4.440308,-28.404234,2.670288
0.239258,-0.95459,0.095215,7.240295,-39.894104,6.477355
0.223389,-0.953857,0.099854,7.331848,-46.95892,10.101317
0.214355,-0.941162,0.112061,6.576538,-51.589962,14.60266
0.186523,-0.935791,0.118896,6.561279,-53.268429,19.65332
0.162354,-0.930908,0.134766,6.988525,-51.673885,23.307798
0.172119,-0.939941,0.149658,7.92694,-48.942562,24.734495
0.18457,-0.956299,0.162354,7.766723,-47.485348,25.581358
0.191895,-0.974121,0.171875,5.119323,-47.920223,26.489256
0.198486,-0.97998,0.176025,0.999451,-49.957272,28.068541
0.19751,-0.977783,0.18335,-2.838135,-53.733822,29.373167
0.190674,-0.977051,0.193359,-4.91333,-60.653683,28.511045
0.180176,-0.983154,0.197021,-6.683349,-67.848206,27.084349
0.168945,-0.980225,0.193848,-7.606506,-72.044373,26.901243
0.158203,-0.977539,0.195801,-7.858276,-73.394775,25.955198
0.141113,-0.979736,0.198242,-8.674622,-72.227478,23.864744
0.136475,-0.976074,0.200195,-10.56671,-70.243835,20.820616
0.130127,-0.969971,0.194092,-12.145995,-66.253662,17.555237
0.129395,-0.966797,0.191162,-12.7182,-61.073299,15.151977
0.127197,-0.965332,0.183838,-13.656615,-55.412289,13.191222
0.12085,-0.96875,0.170166,-14.335631,-49.392696,10.475158
0.116699,-0.974121,0.147705,-14.663695,-44.006344,8.674622
0.113037,-0.968506,0.135742,-15.220641,-39.558411,7.339477
0.111816,-0.958496,0.133057,-15.747069,-35.827637,4.104614
0.107178,-0.943359,0.127686,-15.953063,-33.02002,0.869751
0.103516,-0.938965,0.123047,-15.060424,-30.029295,-2.189636
0.100098,-0.954834,0.115723,-12.481688,-23.765562,-2.937317
0.085693,-0.97583,0.105957,-9.437561,-14.442443,-0.137329
0.072021,-0.98877,0.097168,-8.049011,-4.295349,0.442505
0.070313,-0.989746,0.073975,-6.706237,3.967285,-2.357483
0.094971,-0.984131,0.068359,-3.120422,10.650634,-5.882263
0.126709,-0.981689,0.074219,1.25885,16.708374,-8.232117
0.144287,-0.986816,0.090088,3.814697,21.316526,-9.58252
0.158447,-0.996582,0.106689,4.638672,24.154661,-9.994507
0.167969,-1.008545,0.114258,4.669189,26.847837,-9.552002
0.176025,-1.018555,0.115234,4.020691,29.487608,-8.880615
0.188965,-1.025879,0.11499,2.212524,31.204222,-8.621216
0.203125,-1.02832,0.111084,0.137329,31.196592,-8.956909
0.213623,-1.027588,0.108154,-1.63269,29.785154,-8.224487
0.220459,-1.025635,0.106445,-3.410339,27.145384,-7.308959
0.226318,-1.016357,0.101074,-5.477905,23.620604,-7.293701
0.227051,-1.005615,0.096191,-7.499694,19.27948,-7.568359
0.22168,-0.991699,0.093994,-9.185791,14.907836,-7.377624
0.213623,-0.973145,0.088135,-10.635375,11.604308,-6.820678
0.200928,-0.958984,0.083008,-11.45172,9.58252,-6.332397
0.192383,-0.952393,0.076172,-11.245727,8.537292,-5.935668
0.186523,-0.953369,0.069092,-9.864807,8.468628,-5.226135
0.183105,-0.949219,0.070068,-8.995056,8.68988,-4.981995
0.183838,-0.944824,0.07666,-8.216858,8.354187,-5.058288
0.180908,-0.942627,0.074463,-7.041931,8.079529,-5.1651
0.177734,-0.943604,0.078369,-5.401611,7.446289,-5.546569
0.18457,-0.943848,0.08667,-3.593445,6.561279,-5.966186
0.195801,-0.953857,0.089844,-1.464844,5.844116,-5.989074
0.20752,-0.971924,0.092041,0.488281,4.898071,-4.966736
0.209717,-0.977539,0.098633,0.88501,3.52478,-3.40271
0.21875,-0.971924,0.098145,0.404358,1.228333,-2.02179
0.222412,-0.967773,0.102295,0.404358,-1.472473,-0.488281
0.223633,-0.970459,0.104004,1.152039,-4.03595,0.938415
0.227539,-0.969971,0.109619,1.243591,-6.42395,2.120972
0.231201,-0.969482,0.113037,1.533508,-8.56781,2.601623
0.230469,-0.969971,0.109375,2.151489,-10.57434,2.876281
0.230469,-0.978516,0.104248,2.746582,-12.763976,3.295898
0.22876,-0.990234,0.103516,2.929687,-15.342711,4.127502
0.223145,-0.994385,0.099854,2.677917,-18.478394,4.653931
0.218018,-0.98877,0.10083,2.494812,-21.507261,4.821777
0.206787,-0.985107,0.100098,2.26593,-23.696898,4.753113
0.189941,-0.98291,0.098877,1.808166,-24.520872,4.516602
0.172119,-0.983154,0.098389,1.197815,-24.063108,4.058838
0.167236,-0.981689,0.096436,0.518799,-22.644041,3.532409
0.161865,-0.980469,0.098389,-0.152588,-20.851133,3.02124
0.1521,-0.987061,0.094482,-0.427246,-18.737793,3.234863
0.134277,-0.987061,0.095215,-1.586914,-15.937804,3.623962
0.131348,-0.9729,0.09668,-3.387451,-12.725829,2.990722
0.130615,-0.961426,0.095703,-4.03595,-9.010315,1.701355
0.133057,-0.964844,0.089355,-3.486633,-5.470275,0.328064
0.135498,-0.970215,0.093018,-2.746582,-2.540588,-0.671387
0.143555,-0.97168,0.100098,-2.372742,-0.442505,-1.63269
0.14917,-0.970215,0.102539,-2.14386,1.045227,-2.105713
0.151611,-0.971924,0.10083,-1.449585,2.113342,-2.113342
0.151855,-0.977783,0.10791,-0.465393,3.158569,-2.120972
0.154785,-0.977295,0.11377,-0.457764,4.928589,-2.304077
0.1604,-0.978271,0.108154,-0.411987,7.4234,-2.807617
0.166504,-0.97583,0.107422,-0.083923,9.925842,-3.288269
0.177246,-0.968262,0.105225,-0.099182,11.741637,-4.043579
0.186768,-0.964111,0.102539,0.679016,12.702941,-3.952026
0.192627,-0.966797,0.100342,1.968384,12.992858,-2.754211
0.192871,-0.972168,0.101074,2.502441,12.275695,-2.075195
0.191406,-0.979248,0.102295,2.822876,10.993957,-2.113342
0.192139,-0.987549,0.095947,3.082275,10.299682,-1.480102
0.198975,-0.992188,0.093018,2.723694,9.712219,-0.099182
0.203857,-0.983154,0.091553,1.953125,8.590698,0.259399
0.205322,-0.973145,0.083252,1.487732,7.034301,-0.473022
0.207275,-0.96875,0.078613,1.403808,5.393981,-0.846863
0.214111,-0.966553,0.074707,1.480102,3.90625,-0.572205
0.215088,-0.9646,0.07666,1.358032,2.14386,-0.328064
0.214355,-0.966309,0.080566,0.839233,0.175476,-0.312805
0.212646,-0.962646,0.088135,0.427246,-1.655578,-0.556946
0.212646,-0.964844,0.098389,0.022888,-2.983093,-0.999451
0.209717,-0.969482,0.098389,-0.335693,-3.959656,-1.38855
0.205078,-0.970947,0.102295,-0.686645,-4.386902,-1.76239
0.199707,-0.976318,0.099854,-0.816345,-4.074097,-1.922607
0.193848,-0.981445,0.095947,-0.541687,-3.242492,-1.556396
0.189209,-0.973145,0.101074,-0.785828,-2.655029,-1.441955
0.187988,-0.963379,0.103271,-0.854492,-2.540588,-1.625061
0.188965,-0.96167,0.107178,-0.038147,-2.632141,-1.686096
0.188965,-0.970215,0.110352,0.846863,-2.365112,-1.541138
0.189209,-0.980225,0.111328,0.946045,-1.976013,-1.319885
0.189697,-0.986572,0.108887,0.473022,-1.853943,-1.022339
0.189697,-0.982666,0.104492,-0.282288,-1.739502,-1.205444
0.189697,-0.975098,0.099854,-1.091003,-1.342773,-1.594543
0.185303,-0.970215,0.095947,-0.999451,-1.174927,-2.342224
0.193359,-0.971436,0.088623,-0.671387,-1.419067,-2.983093
0.195557,-0.966797,0.086914,-0.473022,-1.777649,-3.204345
0.19873,-0.964844,0.086914,0.022888,-2.494812,-3.158569
0.197266,-0.968506,0.092041,0.762939,-3.356933,-2.929687
0.196289,-0.966309,0.091797,1.213074,-4.188538,-2.166748
0.193848,-0.968994,0.091553,1.76239,-4.875183,-1.564026
0.188965,-0.973633,0.093506,2.189636,-5.249023,-0.984192
0.18335,-0.973389,0.093262,2.037048,-5.53894,-0.534058
0.177734,-0.970703,0.098633,1.770019,-5.348205,-0.366211
0.175537,-0.965576,0.098389,1.609802,-5.027771,-0.50354
0.179932,-0.964844,0.095459,1.907349,-4.562378,-0.88501
0.180664,-0.970215,0.0979,2.212524,-3.807068,-0.701904
0.183105,-0.973145,0.099121,2.029419,-3.27301,-0.328064
0.186279,-0.974609,0.0979,1.441955,-2.830505,-0.175476
0.186523,-0.975586,0.095947,0.976562,-2.311707,-0.045776
0.188721,-0.975586,0.097412,0.579834,-1.754761,0.083923
0.191895,-0.975098,0.100098,0.495911,-1.342773,-0.022888
0.19458,-0.975342,0.100586,0.572205,-1.312256,0.282288
0.199219,-0.975586,0.101074,0.846863,-1.647949,0.358582
0.200928,-0.969727,0.103271,0.823975,-2.319336,0.091553
0.201904,-0.96582,0.101807,0.831604,-3.479004,0.114441
0.199707,-0.966309,0.104004,1.556396,-4.356384,0.411987
0.197266,-0.970947,0.108643,2.426147,-5.043029,0.75531
0.19751,-0.974609,0.107666,2.494812,-5.584716,0.831604
0.196289,-0.976807,0.10791,2.304077,-5.722045,1.045227
0.192871,-0.973877,0.109619,1.701355,-5.577087,1.113892
0.192627,-0.966553,0.108643,1.205444,-5.554199,0.778198
0.193848,-0.962646,0.103027,1.243591,-5.882263,0.87738
0.19458,-0.963379,0.10498,1.960754,-6.286621,1.060486
0.195068,-0.965576,0.105713,2.708435,-6.538391,1.213074
0.19043,-0.963623,0.108398,2.761841,-6.317138,1.144409
0.188232,-0.96582,0.106934,2.838135,-5.973815,1.205444
0.184326,-0.966309,0.102295,3.27301,-5.401611,1.365662
0.185547,-0.967041,0.10376,3.181457,-4.875183,0.900268
0.189453,-0.968994,0.099854,3.479004,-4.66156,0.473022
0.188477,-0.97583,0.097168,3.890991,-4.508972,0.793457
0.188477,-0.976563,0.102539,3.845215,-4.585266,0.549316
0.189453,-0.979248,0.105225,3.547668,-4.920959,0.106812
0.18457,-0.98291,0.103027,3.509521,-5.439758,-0.198364
0.179443,-0.989014,0.102051,3.387451,-5.66864,-0.099182
0.179688,-0.989258,0.102051,2.792358,-5.355834,0.038147
0.177246,-0.987793,0.100098,1.785278,-5.096435,-0.022888
0.173584,-0.985352,0.095947,1.091003,-4.882813,-0.099182
0.165527,-0.983154,0.097168,0.938415,-4.066467,0.12207
0.164307,-0.977295,0.101807,0.488281,-2.731323,0.076294
0.164063,-0.974609,0.099609,-0.068665,-1.13678,-0.518799
0.165283,-0.975586,0.095947,0.175476,0.205994,-0.656128
0.168457,-0.975342,0.101563,0.305176,1.396179,-0.709534
0.177002,-0.967773,0.108398,0.015259,2.388,-1.144409
0.181152,-0.961182,0.107178,0.198364,2.952575,-1.434326
0.184082,-0.965576,0.109619,1.045227,3.105163,-1.060486
0.187256,-0.969482,0.112793,1.426697,3.02124,-0.75531
0.192139,-0.971191,0.109619,1.281738,2.922058,-0.656128
0.19751,-0.9729,0.108154,1.449585,2.761841,-0.541687
0.199951,-0.970947,0.107178,1.586914,2.525329,-0.335693
0.196289,-0.968994,0.109131,1.342773,1.976013,-0.511169
0.19751,-0.964355,0.106689,1.327515,1.335144,-0.770569
0.196777,-0.963135,0.108154,1.609802,1.113892,-0.732422
0.196045,-0.964111,0.108154,2.182007,1.029968,-0.709534
0.196777,-0.967773,0.109131,2.471924,0.793457,-0.808716
0.197021,-0.970459,0.109375,2.63977,0.320435,-0.839233
0.199219,-0.974609,0.107666,2.571106,-0.328064,-0.564575
0.199463,-0.976807,0.107178,2.403259,-1.12915,-0.404358
0.198242,-0.973389,0.106201,2.372742,-2.296448,-0.473022
0.195557,-0.978027,0.104004,2.677917,-3.517151,-0.282288
0.195068,-0.988525,0.103027,2.754211,-4.493713,0.190735
0.189453,-0.990967,0.103271,2.174377,-5.279541,0.579834
0.185791,-0.986572,0.098633,1.205444,-5.744934,0.473022
0.183105,-0.984375,0.091797,0.534058,-6.156921,0.343323
0.176758,-0.976563,0.094727,0.37384,-6.225585,0.686645
0.174072,-0.967773,0.098389,0.160217,-5.874633,0.709534
0.168701,-0.968018,0.102783,0.701904,-5.462646,0.823975
0.167725,-0.974365,0.107178,1.487732,-4.814148,0.961304
0.168457,-0.977539,0.111572,1.533508,-4.119873,0.930786
0.17041,-0.982422,0.110107,1.167297,-3.578186,0.747681
0.168701,-0.983887,0.111572,0.701904,-2.883911,0.793457
0.169922,-0.981934,0.114258,0.205994,-2.342224,0.709534
0.170654,-0.977295,0.112305,-0.091553,-1.63269,0.473022
0.171631,-0.977295,0.113037,0.061035,-0.953674,0.572205
0.177002,-0.973633,0.116943,0.175476,-0.038147,0.579834
0.17749,-0.969727,0.11792,0.473022,0.564575,0.228882
0.182617,-0.973389,0.116455,0.717163,1.113892,0.076294
0.18335,-0.974609,0.119629,0.648498,1.518249,0.015259
0.183838,-0.974854,0.118408,0.541687,2.281189,-0.144958
0.18457,-0.972656,0.115479,0.404358,2.853393,-0.63324
0.193604,-0.972168,0.113281,0.63324,3.349304,-1.060486
0.195068,-0.976563,0.113037,0.968933,3.39508,-1.327515
0.195801,-0.975586,0.111084,0.869751,2.5177,-1.304626
0.197266,-0.97583,0.110352,0.762939,1.373291,-1.274109
0.193848,-0.976074,0.107666,0.511169,0.099182,-1.091003
0.186768,-0.973877,0.107178,0.259399,-1.426697,-0.984192
0.182861,-0.972168,0.10791,0.343323,-2.693176,-0.740051
0.178467,-0.977295,0.104492,0.671387,-3.135681,-0.091553
0.177979,-0.982178,0.105957,0.770569,-2.876281,0.488281
0.176025,-0.986572,0.105225,0.717163,-2.311707,0.709534
0.175049,-0.990479,0.102295,0.419617,-1.663208,0.724792
0.176758,-0.988037,0.10376,0.045776,-1.190186,0.801086
0.181152,-0.981201,0.104248,-0.526428,-1.25885,0.686645
0.186035,-0.97876,0.106689,-0.411987,-1.770019,0.770569
0.18042,-0.9729,0.110352,-0.37384,-2.372742,1.045227
0.175781,-0.970459,0.110596,-0.389099,-2.853393,1.083374
0.178711,-0.969482,0.110352,-0.396728,-3.456115,1.289368
0.176758,-0.968994,0.109131,-0.396728,-3.639221,1.052856
0.171875,-0.973389,0.109131,-0.167847,-3.39508,1.480102
0.170166,-0.975586,0.108398,0.267029,-2.403259,1.937866
0.175781,-0.976807,0.109131,0.076294,-1.365662,1.426697
0.177002,-0.973877,0.110107,0.076294,-0.541687,0.732422
0.175781,-0.973877,0.110596,0.007629,0.221252,0.411987
0.175049,-0.975586,0.114746,-0.213623,0.892639,0.221252
0.177979,-0.974854,0.117676,-0.37384,1.396179,-0.213623
0.180664,-0.972412,0.11792,-0.419617,1.670837,-0.648498
0.178467,-0.970459,0.11792,-0.427246,1.953125,-0.87738
0.180664,-0.970703,0.117432,-0.305176,2.380371,-1.144409
0.18335,-0.975098,0.11792,-0.061035,3.005981,-0.999451
0.186035,-0.977783,0.119873,0.144958,3.334045,-0.923157
0.188232,-0.977539,0.117432,-0.007629,3.265381,-0.816345
0.190918,-0.972656,0.114502,-0.144958,2.853393,-0.793457
0.191162,-0.966797,0.109863,-0.106812,2.052307,-1.00708
0.19165,-0.965332,0.105225,0.183105,0.968933,-1.113892
0.189209,-0.958984,0.104004,0.343323,0.030518,-1.174927
0.184326,-0.95874,0.106689,0.709534,-0.450134,-1.022339
0.179932,-0.965088,0.109131,1.365662,-0.549316,-0.892639
0.181152,-0.970215,0.114014,1.693725,-0.282288,-0.953674
0.181885,-0.976074,0.110596,1.296997,0.244141,-0.915527
0.18335,-0.979248,0.108154,0.587463,0.671387,-0.907898
0.188721,-0.978027,0.106201,0.061035,0.656128,-0.946045
0.190674,-0.972412,0.106445,0.030518,0.320435,-0.724792
0.193359,-0.972412,0.102295,0.50354,-0.541687,-0.282288
0.192383,-0.970703,0.105469,0.762939,-1.525879,0.1297
0.190674,-0.968262,0.107666,0.862122,-2.441406,0.411987
0.186523,-0.969727,0.108398,1.014709,-2.952575,0.511169
0.183105,-0.971191,0.109131,1.205444,-3.051758,0.579834
0.185303,-0.97583,0.108643,1.289368,-2.807617,0.511169
0.186523,-0.976318,0.106201,1.12915,-2.288818,0.434875
0.185059,-0.975586,0.108887,1.060486,-2.182007,0.076294
0.185547,-0.977783,0.108154,0.991821,-2.212524,-0.343323
0.186035,-0.973389,0.109863,1.00708,-2.433777,-0.534058
0.186768,-0.976318,0.112305,1.037598,-2.609253,-0.679016
0.186035,-0.974121,0.109375,0.808716,-2.89154,-0.854492
0.186035,-0.969727,0.108887,0.511169,-3.14331,-0.938415
0.182129,-0.968018,0.10791,0.350952,-3.265381,-1.098633
0.177002,-0.967041,0.109131,0.320435,-3.089905,-1.274109
0.177002,-0.967285,0.111572,0.541687,-2.212524,-1.594543
0.177734,-0.970459,0.109863,0.900268,-1.098633,-1.63269
0.178955,-0.977783,0.108154,1.091003,-0.091553,-1.266479
0.188477,-0.976563,0.107666,1.205444,0.305176,-1.205444
0.195313,-0.978271,0.106689,1.472473,-0.320435,-1.068115
0.195557,-0.981934,0.111816,1.76239,-1.586914,-0.62561
0.192871,-0.982666,0.11084,1.434326,-2.914428,0.183105
0.185547,-0.980469,0.108398,0.617981,-3.623962,0.335693
0.183594,-0.974854,0.105957,0.099182,-4.043579,0.183105
0.181885,-0.970215,0.103516,-0.1297,-4.150391,-0.091553
0.179688,-0.968018,0.101074,0.152588,-4.28772,-0.061035
0.177979,-0.968506,0.101563,0.419617,-4.264832,-0.175476
0.173828,-0.969727,0.099609,0.579834,-4.257202,-0.671387
0.170654,-0.97168,0.103027,0.389099,-4.03595,-1.12915
0.172363,-0.970947,0.105957,0.053406,-3.303528,-1.281738
0.177002,-0.967041,0.107178,-0.091553,-2.624511,-1.426697
0.175293,-0.96875,0.108398,0.038147,-2.113342,-1.312256
0.175537,-0.969482,0.116699,0.175476,-1.89209,-1.327515
0.179199,-0.970459,0.119629,-0.030518,-1.701355,-1.457214
0.181396,-0.973877,0.119141,0.221252,-1.770019,-1.480102
0.183105,-0.977051,0.119385,0.457764,-1.838684,-1.403808
0.181396,-0.97998,0.12085,0.274658,-2.075195,-1.266479
0.182129,-0.982422,0.119873,0.267029,-2.113342,-1.022339
0.185303,-0.98291,0.119873,0.259399,-2.075195,-1.045227
0.185303,-0.979004,0.114746,0.183105,-2.01416,-1.106262
0.184082,-0.97876,0.108643,-0.015259,-2.01416,-1.304626
0.179199,-0.973145,0.108154,-0.267029,-2.082825,-1.716614
0.174072,-0.970703,0.109863,-0.320435,-1.76239,-2.120972
0.171875,-0.973389,0.111084,0.038147,-1.13678,-2.27356
0.172852,-0.979248,0.112793,0.404358,-0.289917,-2.220154
0.17334,-0.98584,0.111572,0.045776,0.602722,-2.02179
0.174561,-0.981934,0.109375,-0.595093,1.411438,-2.105713
0.175537,-0.980957,0.10498,-0.900268,2.098083,-2.052307
0.17749,-0.977783,0.099854,-1.029968,2.540588,-1.88446
0.179199,-0.970703,0.099365,-0.961304,2.670288,-1.930237
0.178711,-0.964111,0.099365,-0.480652,2.6474,-2.151489
0.178467,-0.967285,0.102539,0.12207,2.845764,-2.311707
0.184082,-0.971924,0.105713,0.213623,3.425598,-2.349854
0.190186,-0.973389,0.103271,-0.427246,3.982544,-2.632141
0.195557,-0.969971,0.105713,-1.174927,4.013062,-2.960205
0.198975,-0.968262,0.104248,-1.770019,3.723144,-3.326416
0.200684,-0.963867,0.101807,-1.846313,3.303528,-3.517151
0.201416,-0.962891,0.102539,-1.670837,2.624511,-3.585815
0.199707,-0.966064,0.104248,-1.243591,2.059937,-3.730774
0.194824,-0.969238,0.104004,-0.991821,1.983642,-3.852844
0.193848,-0.967773,0.102295,-1.029968,2.182007,-3.829956
0.197266,-0.967529,0.110107,-1.060486,1.998901,-4.058838
0.19873,-0.967285,0.112061,-1.00708,0.991821,-4.28009
0.201416,-0.971924,0.10791,-0.991821,-0.495911,-4.386902
0.197754,-0.974854,0.107666,-0.984192,-1.708984,-4.341125
0.187988,-0.976074,0.10498,-1.518249,-2.479553,-4.341125
0.186768,-0.983643,0.098145,-1.716614,-3.959656,-3.944397
0.180176,-0.990234,0.095215,-1.976013,-4.66156,-3.921509
0.170654,-0.993164,0.093994,-2.487183,-3.242492,-5.172729
0.17334,-0.993896,0.086914,-3.295898,-0.991821,-6.385803
0.185059,-0.999023,0.077881,-4.03595,-0.411987,-6.965637
0.199951,-1.007568,0.06543,-4.936218,-3.334045,-6.477355
0.205566,-1.006348,0.071777,-5.027771,-8.911133,-4.852295
0.206055,-0.997559,0.08252,-5.432128,-15.197753,-2.937317
0.202881,-0.990967,0.098145,-7.04956,-20.400999,0.511169
0.193115,-0.988037,0.106201,-8.499146,-23.521421,4.837036
0.183105,-0.982666,0.107178,-10.589599,-24.490355,8.758545
0.177979,-0.970947,0.098877,-12.107848,-24.337767,11.322021
0.182861,-0.957764,0.084717,-10.894774,-23.620604,10.95581
0.189209,-0.960449,0.07959,-8.277893,-22.171019,9.185791
0.185059,-0.961914,0.078369,-7.484436,-20.164488,8.148193
0.181885,-0.955322,0.072021,-7.67517,-17.204285,6.813049
0.17749,-0.952393,0.064209,-8.163452,-12.96997,4.768372
0.178467,-0.951904,0.066895,-9.880066,-7.438659,3.097534
0.191406,-0.9375,0.057129,-12.016295,-2.365112,1.937866
0.232178,-0.924072,0.038818,-12.4588,-1.00708,0.770569
0.264893,-0.921387,0.039795,-12.931823,-2.334595,0.564575
0.268555,-0.916992,0.04248,-15.632628,-6.576538,0.602722
0.265625,-0.907959,0.021973,-21.713255,-12.985229,-0.236511
0.264404,-0.897705,-0.026367,-29.640196,-19.493103,-2.433777
0.255859,-0.885986,-0.091309,-35.919189,-24.54376,-5.027771
0.232666,-0.864746,-0.108887,-39.054871,-26.992796,-7.965087
0.214111,-0.842529,-0.105957,-40.946957,-26.626585,-10.055541
0.19751,-0.825195,-0.102783,-43.441769,-23.208616,-10.581969
0.202148,-0.810791,-0.106689,-45.791622,-17.39502,-10.299682
0.223633,-0.800049,-0.101807,-47.729488,-10.383605,-9.681702
0.232178,-0.783203,-0.092773,-50.468441,-4.623413,-9.506226
0.227051,-0.741943,-0.084473,-53.901669,0.053406,-10.330199
0.221191,-0.688232,-0.075928,-55.870052,4.905701,-13.008117
0.202148,-0.647705,-0.070801,-54.321285,9.407043,-17.227173
0.206543,-0.637207,-0.064697,-48.599239,12.901305,-21.659849
0.254639,-0.668457,-0.066162,-40.245052,13.97705,-25.482176
0.307129,-0.726563,-0.069336,-31.532286,12.954711,-29.640196
0.33252,-0.786377,-0.072998,-26.130674,10.215758,-32.867432
0.329102,-0.815674,-0.066406,-25.917051,6.858825,-34.690857
0.318604,-0.812012,-0.047363,-27.336119,4.440308,-37.261963
0.310791,-0.78418,-0.029785,-28.541563,4.318237,-39.627075
0.323242,-0.753662,-0.017822,-27.847288,6.492614,-40.39764
0.348877,-0.750488,-0.010254,-22.102354,9.422302,-38.772583
0.368652,-0.780762,-0.007568,-13.816833,9.544373,-34.751892
0.394775,-0.827148,-0.025879,-7.446289,5.775451,-29.014585
0.428955,-0.856934,-0.057129,-4.341125,-1.480102,-23.574827
0.462158,-0.85376,-0.082031,-4.325867,-12.443542,-20.484922
0.471436,-0.811768,-0.088867,-5.432128,-25.688169,-20.057678
0.447021,-0.745605,-0.099854,-6.134033,-39.909363,-20.225523
0.419434,-0.685791,-0.116943,-5.027771,-53.1311,-19.607544
0.386719,-0.655029,-0.094238,0.106812,-63.018795,-17.555237
0.334229,-0.660645,-0.054688,8.804321,-68.572998,-15.464782
0.280029,-0.708252,-0.032959,16.952515,-67.596436,-14.663695
0.236572,-0.768066,-0.033691,20.469664,-58.738705,-15.380858
0.218506,-0.809814,-0.046387,18.470764,-43.479916,-19.546509
0.208984,-0.810303,-0.054443,11.093139,-26.329039,-26.367186
0.197754,-0.764648,-0.049561,2.13623,-11.566161,-34.01947
0.201172,-0.710938,-0.032715,-2.029419,-0.526428,-40.847775
0.226318,-0.700195,-0.011719,1.487732,7.888793,-45.700069
0.245361,-0.746338,0.014648,8.377075,14.900207,-47.981258
0.254883,-0.830811,0.033691,14.35089,21.469114,-47.737118
0.267334,-0.916016,0.043701,15.541076,25.657652,-45.455929
0.2854,-0.969482,0.040771,10.437011,23.53668,-43.05267
0.306885,-0.98584,0.012207,1.586914,14.816283,-42.533871
0.324463,-0.974609,-0.018555,-6.324768,3.433227,-43.769833
0.318359,-0.953613,-0.016113,-8.94165,-7.4234,-44.837948
0.262451,-0.937988,0.029297,-8.81958,-15.983581,-47.523495
0.22998,-0.919434,0.044922,-11.299132,-19.897461,-51.536556
0.247314,-0.924316,0.021729,-10.650634,-17.601013,-55.801388
0.268555,-0.976318,0.009521,-11.611938,-5.981445,-61.859127
0.273926,-1.030029,-0.024658,-18.455505,12.817382,-65.048218
0.296387,-1.045166,-0.07373,-24.536131,30.799864,-65.155029
0.356689,-1.034424,-0.089355,-25.917051,41.572567,-65.834045
0.411621,-1.007324,-0.067139,-24.085997,45.196529,-67.085266
0.43335,-0.976807,-0.052734,-21.65222,41.503902,-66.764832
0.428467,-0.955566,-0.069092,-19.416809,35.522461,-68.03894
0.419434,-0.963867,-0.085205,-17.791748,36.659241,-73.760986
0.446533,-1.007324,-0.108643,-16.334534,48.019405,-80.93261
0.518066,-1.075928,-0.138184,-14.595031,66.856384,-86.395256
0.616943,-1.141357,-0.154053,-12.611388,87.8601,-88.706963
0.734131,-1.166504,-0.131836,-10.414123,100.700371,-85.685722
0.845459,-1.157959,-0.133301,-7.736206,93.002312,-77.629089
0.902588,-1.122803,-0.150391,-6.027221,62.637325,-71.548462
0.905029,-1.083496,-0.181885,-6.729125,25.238035,-75.057983
0.864502,-1.051758,-0.209961,-9.07135,2.044678,-86.128227
0.857422,-1.048584,-0.166016,-12.443542,0.457764,-101.135246
0.922607,-1.073242,-0.117188,-19.012451,17.25769,-116.989128
1.040527,-1.116699,-0.127686,-30.72357,43.289181,-131.17218
1.202637,-1.135254,-0.171631,-47.195431,72.151184,-143.852234
1.377441,-1.078613,-0.248535,-60.401913,97.785942,-151.130676
1.51709,-0.983398,-0.299805,-60.539242,109.252922,-148.895264
1.561035,-0.91748,-0.2771,-48.156734,101.181023,-142.227173
1.574951,-0.910645,-0.20874,-35.293579,79.612732,-141.441345
1.55835,-0.921387,-0.117188,-30.84564,62.522884,-150.756836
1.507568,-0.935547,0.009277,-34.545898,55.847164,-164.558395
1.633057,-0.897461,0.027588,-47.523495,52.200314,-179.519638
1.820068,-0.811768,-0.156738,-57.15942,46.661373,-191.932663
1.924316,-0.768799,-0.302734,-44.197079,23.376463,-194.892868
1.98999,-0.786621,-0.286377,-14.923095,-20.286558,-192.771896
1.954346,-0.799561,-0.151855,11.123656,-64.76593,-193.725571
1.823975,-0.796387,0.000244,22.804258,-89.881889,-197.936996
1.731934,-0.753906,0.058105,15.602111,-85.304253,-207.702621
1.837402,-0.69458,-0.031738,1.029968,-64.39209,-224.410995
2.060791,-0.644287,-0.213623,-5.599975,-49.911495,-239.22728
2.193848,-0.65625,-0.320313,5.126953,-62.614437,-243.286118
2.133057,-0.655029,-0.361084,18.203735,-96.649162,-242.813095
1.946533,-0.573486,-0.346924,24.337767,-130.844116,-245.666489
1.755127,-0.487549,-0.25415,27.06146,-151.885986,-246.948227
1.656494,-0.463623,-0.180908,23.651121,-158.561707,-245.063766
1.578125,-0.467773,-0.208496,3.89862,-146.400452,-246.833786
1.584961,-0.400146,-0.30127,-13.290404,-129.127502,-249.992355
1.606689,-0.388672,-0.35083,-11.276244,-117.073051,-249.992355
1.47583,-0.358154,-0.300049,-7.316589,-121.147148,-249.946579
1.271973,-0.279297,-0.258545,-7.087707,-132.797241,-249.908432
1.120117,-0.171143,-0.232178,-9.941101,-130.66864,-245.635971
1.136719,-0.071533,-0.20166,-9.45282,-119.384758,-236.190781
1.208496,0.002686,-0.167969,-1.144409,-117.713921,-227.058395
1.222412,0.041992,-0.130127,8.285522,-127.494804,-220.94725
1.163086,0.04834,-0.111816,13.816833,-138.061523,-215.751633
1.097656,0.064941,-0.111328,15.068053,-142.059326,-211.181625
1.059814,0.096191,-0.146484,12.413024,-133.659363,-209.434494
0.998291,0.087158,-0.205078,8.094788,-111.869804,-210.441574
0.846191,0.059082,-0.281982,3.974914,-89.813225,-201.782211
0.724854,0.0979,-0.321533,1.052856,-82.984917,-187.904343
0.656982,0.109619,-0.313477,-1.25885,-83.808891,-186.958298
0.576416,0.108398,-0.312988,-4.203796,-91.819756,-182.357773
0.471924,0.142822,-0.343262,-3.723144,-107.833855,-170.249924
0.392822,0.168701,-0.37207,3.189087,-126.579277,-158.790588
0.3479,0.164795,-0.354492,14.968871,-142.707825,-148.452759
0.33374,0.138184,-0.287354,26.649473,-153.22876,-137.023926
0.266602,0.10498,-0.205811,31.707762,-153.678894,-124.588005
0.154297,0.079834,-0.168945,27.854918,-143.234253,-114.051811
0.065186,0.077393,-0.183838,19.966125,-124.572746,-105.445854
0.00415,0.077148,-0.198975,14.35089,-103.439323,-97.396843
-0.037598,0.088867,-0.198975,14.877318,-89.24102,-88.294975
-0.062256,0.093506,-0.183105,19.790649,-81.352226,-79.902649
-0.075195,0.077148,-0.174316,25.703428,-75.469971,-71.922302
-0.094238,0.051025,-0.168213,30.364988,-68.733215,-62.461849
-0.11377,0.030029,-0.151611,32.974243,-60.241695,-52.947994
-0.104248,0.009277,-0.155762,33.195496,-51.551815,-45.860287
-0.063232,-0.012451,-0.13916,31.929014,-44.013973,-40.939327
-0.032471,-0.021484,-0.110352,31.333921,-40.573116,-36.270142
-0.019287,-0.031738,-0.08374,30.479429,-41.641232,-33.912659
-0.052979,-0.049316,-0.038818,29.113768,-41.290279,-34.683228
-0.09668,-0.056396,-0.002197,25.505064,-37.765503,-36.148071
-0.080078,-0.051758,-0.022217,21.530149,-30.029295,-37.864685
0.043457,-0.048584,-0.050537,20.759581,-14.915465,-40.977474
0.16626,-0.048096,-0.061523,22.514341,2.13623,-41.572567
0.205811,-0.01001,-0.090576,23.03314,3.845215,-38.909912
0.219727,0.040039,-0.109131,24.490355,-15.457152,-41.206356
0.226563,0.077393,-0.092773,30.128477,-43.067928,-48.889156
0.201172,0.092285,-0.050781,34.347534,-71.281433,-54.344173
0.166748,0.086426,0.003174,32.875061,-97.930901,-60.18829
0.148682,0.088379,0.034912,26.626585,-112.503044,-72.372437
0.12915,0.124268,0.011963,17.463684,-99.876396,-84.625237
0.073486,0.200439,-0.085205,5.729675,-64.666748,-88.760368
0.047607,0.341064,-0.218506,-3.265381,-21.430967,-90.461723
0.195313,0.46582,-0.328125,-3.349304,13.46588,-92.208855
0.375977,0.491699,-0.302734,0.999451,21.369932,-82.908623
0.435547,0.474854,-0.26123,0.961304,-7.507324,-61.080929
0.320313,0.456787,-0.259521,-5.935668,-50.155636,-46.089169
0.135498,0.485352,-0.297852,-18.096924,-68.260193,-48.835751
-0.028809,0.562988,-0.387939,-33.546448,-48.515316,-58.197018
-0.145752,0.684082,-0.494873,-48.439022,-8.308411,-65.261841
-0.127686,0.81958,-0.624512,-56.03027,32.279968,-71.212769
-0.002686,0.893799,-0.784424,-53.37524,62.759396,-69.358826
0.121582,0.867188,-0.913086,-41.069027,76.164246,-52.543636
0.186768,0.803467,-0.944092,-23.53668,67.390442,-27.664183
0.187744,0.766113,-0.924561,-7.385253,40.443417,-8.262634
0.080811,0.78418,-0.861816,1.197815,12.184142,-1.625061
-0.043213,0.859863,-0.825439,1.480102,-8.041382,-3.265381
-0.009033,0.935303,-0.934082,-3.944397,-17.280579,-6.134033
0.121582,0.946289,-1.044434,-10.711669,-13.442992,-4.714966
0.255615,0.917725,-1.104004,-15.380858,-1.434326,-0.602722
0.310303,0.881592,-1.099365,-16.700745,10.375976,4.806519
0.302979,0.873047,-1.044189,-15.274047,19.729614,7.019042
0.32251,0.869629,-0.993652,-14.98413,31.120298,5.691528
0.330078,0.835205,-0.963379,-11.947631,44.486996,6.340026
0.331055,0.772705,-0.926025,-6.507873,52.360531,7.568359
0.306396,0.760986,-0.898926,-3.036499,51.391598,5.989074
0.273926,0.814453,-0.884766,-1.655578,39.642334,2.120972
0.303467,0.835205,-0.885986,-2.380371,19.165039,1.358032
0.3396,0.782959,-0.878174,-4.577637,-0.183105,10.299682
0.303955,0.740234,-0.846924,-9.292603,-12.771605,24.627684
0.228027,0.743164,-0.818848,-15.419005,-18.684387,36.231995
0.168457,0.733643,-0.78833,-19.668579,-17.00592,44.578548
0.147461,0.677734,-0.743408,-20.248411,-6.454467,53.413387
0.129883,0.588867,-0.684326,-19.172668,10.101317,63.499447
0.116943,0.507568,-0.637939,-18.058777,26.542662,68.977356
0.097168,0.446533,-0.603027,-16.845703,38.475037,67.260742
0.085449,0.409424,-0.578613,-15.159606,42.533871,63.934322
0.087646,0.376709,-0.558838,-12.741088,39.154053,62.782284
0.087646,0.347412,-0.533447,-9.918213,29.953001,64.933777
0.080566,0.320801,-0.503662,-6.622314,14.907836,70.716858
0.067139,0.283447,-0.480469,-2.418518,-6.095886,80.635063
0.047607,0.238037,-0.44458,3.433227,-32.951355,92.65136
0.035645,0.197754,-0.398193,10.917663,-60.806271,101.943962
0.040283,0.156494,-0.351563,19.515991,-80.619804,111.412041
0.04248,0.116211,-0.320068,27.236937,-89.942924,127.197258
0.040039,0.085693,-0.311279,32.341003,-94.528191,145.385742
0.029297,0.063232,-0.297363,37.086487,-94.856255,159.614563
-0.005371,0.053223,-0.267578,43.128963,-89.126579,172.554001
-0.057861,0.043457,-0.202393,50.354,-77.774048,186.93541
-0.090576,0.039307,-0.133301,55.564877,-63.827511,200.187668
-0.097656,0.029297,-0.102539,59.234615,-52.078243,211.341843
-0.07251,-0.019287,-0.108643,64.567566,-44.631954,220.367416
-0.021729,-0.079834,-0.111328,70.869446,-42.41943,228.736862
0.055664,-0.123047,-0.188477,76.660156,-43.014523,236.686691
0.180176,-0.165283,-0.289063,85.418694,-37.002563,241.950974
0.285645,-0.199707,-0.342041,99.487297,-19.493103,245.368942
0.350586,-0.209717,-0.372314,116.607658,3.517151,249.816879
0.33252,-0.234375,-0.356445,133.010864,30.021666,249.992355
0.258301,-0.311279,-0.29541,139.755249,62.294003,249.93132
0.168945,-0.404297,-0.195557,129.318237,99.380486,249.984726
0.1875,-0.440918,-0.222656,112.037651,128.128052,249.992355
0.44751,-0.499512,-0.48291,100.028984,140.99884,249.992355
0.807129,-0.609619,-0.748779,95.489494,143.928528,247.451767
1.030518,-0.718506,-0.853516,98.228447,139.99939,240.005478
1.072266,-0.764648,-0.852539,100.21209,124.435417,244.415268
0.97876,-0.728516,-0.833496,96.542351,99.365227,249.992355
0.827881,-0.705811,-0.794922,90.202324,77.926636,249.992355
0.707031,-0.677002,-0.789551,84.289543,65.994263,249.870285
0.688232,-0.69043,-0.899414,78.163147,62.515255,249.992355
0.834229,-0.763672,-1.12207,68.214417,61.607357,249.992355
1.039307,-0.837402,-1.226563,62.644955,53.062435,246.864304
1.123535,-0.899902,-1.185547,61.599728,32.798767,239.234909
1.075195,-0.929199,-1.075684,54.870602,8.621216,238.204941
0.950684,-0.938477,-0.953125,45.410152,-8.544922,239.776596
0.858887,-0.925049,-0.894531,32.88269,-11.146544,240.035995
0.806396,-0.88208,-0.867676,15.090941,8.132935,234.794601
0.773193,-0.845215,-0.845947,-7.667541,45.166012,228.355392
0.783936,-0.775391,-0.873047,-30.822752,84.640495,224.212631
0.83667,-0.713379,-0.946289,-47.012325,111.946098,217.987045
0.875977,-0.719727,-0.980469,-59.516903,118.621819,207.824692
0.93457,-0.724609,-0.972168,-72.975159,110.015862,195.640549
0.970947,-0.704834,-0.928955,-79.612732,97.412102,188.873276
0.957031,-0.647705,-0.872314,-80.535881,86.029045,189.422592
0.94165,-0.581787,-0.861328,-82.962029,79.429626,191.017136
0.938477,-0.568359,-0.900879,-85.998528,80.184937,188.552841
0.854736,-0.598145,-0.989014,-91.674797,85.304253,182.76976
0.788574,-0.595703,-0.992188,-101.150505,87.570183,176.071152
0.860107,-0.61377,-0.872559,-112.792961,90.080254,166.168198
0.963867,-0.633545,-0.727295,-133.621216,95.581047,156.1203
1.031494,-0.589844,-0.662109,-157.569885,98.274223,151.58844
1.060791,-0.512451,-0.636719,-172.531113,96.740715,148.902893
1.028809,-0.449219,-0.669434,-180.068954,98.129265,143.531799
0.917725,-0.384766,-0.759766,-185.813889,103.996269,139.73999
0.879639,-0.324707,-0.786621,-187.454208,106.903069,135.84137
0.926025,-0.288818,-0.734619,-186.370834,107.727043,126.518242
0.952148,-0.264404,-0.643555,-185.211166,114.364616,116.073601
0.945801,-0.264893,-0.559082,-183.898911,131.546021,108.436577
0.941406,-0.283691,-0.487061,-183.067307,152.191162,101.997368
0.979492,-0.287598,-0.446045,-181.800827,161.811813,91.598503
1.057129,-0.261963,-0.45459,-177.246078,157.066345,75.042725
1.11792,-0.220459,-0.518311,-166.503891,144.287109,57.670589
1.162598,-0.186768,-0.564697,-152.503967,125.602715,43.197628
1.199463,-0.193115,-0.530762,-136.283875,101.806633,30.34973
1.191895,-0.208496,-0.454102,-120.201103,79.933167,20.446775
1.156982,-0.210938,-0.370117,-105.674736,68.824768,15.502929
1.117676,-0.217773,-0.294189,-93.1549,73.570251,13.839721
1.075684,-0.226807,-0.233154,-83.457939,91.911308,12.672423
1.056396,-0.227783,-0.209473,-75.59967,116.195671,10.940551
1.092041,-0.218506,-0.249512,-65.155029,135.116577,8.903503
1.199463,-0.222656,-0.335938,-46.623226,135.635376,5.081176
1.314697,-0.255371,-0.37207,-19.126892,114.456169,-1.625061
1.414795,-0.324219,-0.357666,13.641356,76.011658,-11.528014
1.51123,-0.388184,-0.3396,46.226498,27.786253,-23.399351
1.570313,-0.436035,-0.310303,76.286316,-16.50238,-34.194946
1.564941,-0.48584,-0.263428,103.576653,-48.522945,-41.580196
1.514893,-0.539307,-0.243408,128.227234,-66.802979,-47.729488
1.437988,-0.57959,-0.29248,149.726868,-69.862366,-53.108212
1.388672,-0.610352,-0.394775,168.601974,-60.104366,-57.708736
1.412598,-0.648438,-0.484863,186.68364,-41.549679,-63.987728
1.41748,-0.713867,-0.495605,203.697189,-21.316526,-73.829651
1.387451,-0.818359,-0.403076,214.157089,-9.208679,-86.166374
1.42041,-0.972168,-0.287354,208.190903,-4.432678,-102.882378
1.634033,-1.087891,-0.292725,184.104904,-4.241943,-126.586906
1.868896,-1.094727,-0.38916,163.284286,-4.096985,-152.832031
1.95874,-1.0625,-0.444092,161.163315,-1.800537,-171.501144
1.9021,-1.041016,-0.504639,168.174728,8.041382,-181.770309
1.791504,-1.057129,-0.657227,170.120224,26.44348,-189.613327
1.758789,-1.054932,-0.82251,169.448837,40.122986,-201.339706
1.83252,-1.031494,-0.886963,174.354538,35.003662,-212.921127
1.928223,-1.012207,-0.826904,180.397018,9.376526,-221.290573
2.008057,-0.998291,-0.719482,178.016647,-22.613523,-228.965744
1.991943,-1.035156,-0.604492,164.543137,-34.538269,-239.044174
1.841064,-1.11377,-0.468018,147.132874,-14.335631,-249.107346
1.695068,-1.177246,-0.321289,128.578186,30.876158,-249.992355
1.530273,-1.135742,-0.376221,108.963005,89.851372,-249.885544
1.471191,-0.935791,-0.745361,100.128166,137.054443,-249.961838
1.678223,-0.698975,-1.054443,123.863213,141.00647,-249.992355
1.869873,-0.553223,-1.101563,170.326218,91.964714,-249.992355
1.79834,-0.47876,-0.960693,204.643234,10.009766,-249.992355
1.557129,-0.468506,-0.763672,209.73967,-64.567566,-249.992355
1.2854,-0.487549,-0.556641,192.22258,-109.176628,-249.992355
1.017822,-0.527588,-0.359863,161.994919,-124.999992,-249.992355
0.867432,-0.553223,-0.279297,125.541679,-121.780388,-249.992355
0.806396,-0.525391,-0.324707,99.258415,-102.363579,-249.992355
0.678467,-0.474854,-0.370605,86.639397,-71.037292,-241.958603
0.526123,-0.413086,-0.423096,78.025818,-38.108826,-220.504745
0.418945,-0.383057,-0.416504,69.763184,-10.223388,-201.286301
0.401611,-0.341309,-0.374023,63.484188,1.655578,-184.005722
0.412354,-0.336914,-0.324219,51.322933,-2.525329,-166.114792
0.321045,-0.378418,-0.293213,13.412475,-13.359069,-152.442932
0.267578,-0.322021,-0.586182,-39.413452,-22.956846,-140.007019
0.132813,-0.294678,-0.783691,-68.023682,-10.604857,-115.158073
-0.142578,-0.106934,-0.689697,-58.525082,29.571531,-82.168571
-0.203857,-0.04541,-0.598633,-39.31427,64.559937,-63.4613
-0.035156,-0.120605,-0.582764,-33.805847,68.016052,-70.709229
0.039795,-0.153809,-0.601563,-26.466368,44.639584,-88.035576
-0.039795,-0.172852,-0.450928,-7.156372,12.832641,-93.620293
-0.162109,-0.198975,-0.292969,5.867004,-12.176513,-84.442131
-0.267334,-0.196045,-0.194336,2.532959,-24.345396,-81.954948
-0.271484,-0.294189,-0.124023,-10.94818,-26.924131,-99.143974
-0.1521,-0.320313,-0.087402,-33.950806,-38.230896,-117.385857
-0.040039,-0.197998,-0.174072,-39.44397,-61.44714,-117.431633
-0.072998,-0.128418,-0.236328,-14.129638,-82.397453,-103.034966
-0.162842,-0.122314,-0.128906,16.479492,-95.153801,-92.948906
-0.1521,-0.112061,-0.019043,33.836365,-98.594658,-98.197929
-0.122559,-0.19873,0.047363,41.358944,-91.117851,-100.097649
-0.111328,-0.213379,0.105469,45.089718,-77.453613,-88.897697
-0.086426,-0.175781,0.157715,41.435238,-60.56213,-85.937492
-0.029785,-0.165771,0.181641,34.355164,-47.5769,-90.538017
0.059814,-0.138916,0.15332,36.2854,-48.454281,-84.976189
0.103027,-0.144043,0.133301,40.969845,-61.149593,-74.584961
0.090088,-0.151367,0.085938,39.321899,-75.462341,-72.860718
0.03125,-0.171143,0.041992,37.445068,-82.611076,-75.279236
-0.041748,-0.161377,0.006348,36.53717,-81.115715,-71.128845
-0.133545,-0.126953,0.031738,33.699036,-66.810608,-68.191528
-0.177979,-0.120117,0.004639,27.801512,-43.037411,-74.142456
-0.064453,-0.123291,-0.078613,23.200987,-23.902891,-79.467773
0.099854,-0.056885,-0.198242,20.660398,-21.087645,-80.741875
0.200684,0.05835,-0.230713,23.185728,-45.280453,-81.695549
0.301758,0.117432,-0.18335,28.388975,-96.603386,-79.978943
0.394287,0.110596,-0.181396,33.798218,-158.706665,-69.534302
0.347168,0.080811,-0.224121,38.017273,-207.099899,-58.731075
0.281738,0.08374,-0.235596,35.835266,-220.809921,-55.259701
0.419922,0.144287,-0.265381,22.583006,-198.120102,-49.659725
0.652588,0.210693,-0.341553,8.384705,-146.54541,-35.095215
0.758301,0.250244,-0.385986,0.282288,-85.563652,-15.434264
0.642822,0.298096,-0.381104,-10.391234,-36.590576,-1.228333
0.466797,0.401611,-0.407959,-23.231504,-4.043579,1.747131
0.379395,0.550049,-0.492432,-34.194946,21.514891,0.099182
0.456299,0.638428,-0.585938,-35.751343,44.288631,-0.907898
0.693848,0.601807,-0.6875,-26.123045,57.220455,8.010864
0.931885,0.474121,-0.812256,-11.772155,52.734371,28.610228
0.97876,0.331299,-0.871826,-0.144958,34.004211,50.193783
0.844482,0.320313,-0.886963,6.690979,11.001586,68.710327
0.67041,0.409668,-0.9375,17.181396,-2.26593,85.052483
0.538818,0.419922,-0.980957,30.570982,7.17926,100.555412
0.502686,0.382324,-0.966309,36.720276,31.303404,119.148247
0.549805,0.379883,-0.935059,37.414551,53.75671,137.504578
0.598389,0.362061,-0.902588,40.130615,68.321228,154.594421
0.598633,0.301025,-0.882813,43.228146,77.987671,178.085312
0.61377,0.22876,-0.862549,48.065182,86.135857,211.708054
0.667725,0.148193,-0.804688,58.28857,89.11895,246.688828
0.675049,0.053955,-0.78125,71.754456,74.134827,249.992355
0.578857,-0.044922,-0.833008,82.923882,42.976376,249.587997
0.450195,-0.137939,-0.859375,89.24865,12.260436,249.855026
0.387695,-0.230957,-0.848633,95.809929,-5.599975,249.992355
0.393066,-0.332031,-0.809814,106.246941,-10.391234,249.992355
0.395264,-0.45166,-0.756348,117.935173,-7.667541,249.992355
0.402588,-0.545654,-0.693848,132.232666,-2.02179,249.992355
0.418213,-0.640869,-0.631348,152.359009,10.330199,249.992355
0.497559,-0.824951,-0.604736,166.686996,33.462524,249.992355
0.793213,-1.089844,-0.539551,163.642868,56.076046,249.992355
1.049561,-1.327881,-0.331055,150.970459,61.134335,249.992355
1.065918,-1.452881,-0.204834,136.268616,42.892452,249.992355
0.911133,-1.419434,-0.221924,118.560783,36.346436,249.992355
0.746338,-1.343018,-0.320801,105.262749,72.555542,249.992355
0.716553,-1.387207,-0.437988,105.270378,138.519287,249.992355
0.918701,-1.518311,-0.605957,113.838188,201.942429,249.992355
1.351074,-1.659668,-0.800049,125.442497,242.607101,249.992355
1.53125,-1.773926,-0.696533,142.845154,249.992355,249.992355
1.242432,-1.858643,-0.317871,142.807007,245.948776,249.992355
0.881348,-1.860352,-0.09082,97.633354,225.189194,249.992355
0.95752,-1.803223,-0.124512,39.0625,210.296616,249.992355
1.244629,-1.626709,-0.280762,8.834839,196.449265,249.992355
1.348145,-1.507324,-0.320068,17.166138,178.192123,249.992355
1.283936,-1.472412,-0.249268,26.748655,153.106689,249.992355
1.235596,-1.390625,-0.205322,22.91107,118.667595,249.992355
1.197266,-1.305908,-0.204346,18.470764,86.105339,249.160751
1.101074,-1.241211,-0.218018,20.370481,63.041683,232.063278
0.967041,-1.179443,-0.242432,25.711058,52.055355,205.764755
0.831787,-1.114014,-0.2771,31.661985,50.933834,184.905991
0.746094,-1.018066,-0.327637,37.223816,54.13055,163.681015
0.710693,-0.927734,-0.336914,43.647762,58.303829,141.822815
0.6521,-0.85498,-0.304932,47.409054,59.616085,124.092094
0.578125,-0.801758,-0.262207,46.333309,57.487484,110.679619
0.510254,-0.750244,-0.23584,40.817257,50.354,100.059502
0.463135,-0.680176,-0.251465,34.080505,40.054321,90.225212
0.414795,-0.589355,-0.275146,27.397154,30.891417,80.940239
0.371094,-0.51123,-0.301025,20.957945,24.757383,72.982788
0.36792,-0.47168,-0.327637,16.120911,22.453306,67.260742
0.387207,-0.47583,-0.346436,13.404845,23.223875,63.484188
0.369141,-0.516846,-0.321289,14.335631,24.604795,61.500546
0.269531,-0.541504,-0.252197,15.296935,24.894712,62.339779
0.131592,-0.507568,-0.1875,10.726928,25.650023,64.544678
0.039551,-0.442627,-0.181885,3.601074,27.816771,65.292358
0.034668,-0.395264,-0.247803,-1.51062,27.580259,63.323971
0.111084,-0.373047,-0.321777,-4.768372,20.942686,57.319637
0.207031,-0.369385,-0.350098,-5.058288,5.28717,49.324032
0.269043,-0.401367,-0.306885,-1.831055,-15.846251,44.197079
0.193848,-0.440674,-0.162109,0.839233,-33.035278,45.799252
-0.045898,-0.468018,-0.003662,0.015259,-43.716427,55.5191
-0.181885,-0.560303,-0.005127,-1.365662,-47.065731,64.704895
-0.168457,-0.764648,-0.120361,0.953674,-32.913208,65.238953
-0.048096,-0.978516,-0.263916,3.723144,-13.351439,56.900021
0.179932,-1.015869,-0.329834,3.875732,-7.232666,41.397091
0.34375,-0.873047,-0.322998,2.319336,-15.632628,28.404234
0.366211,-0.75708,-0.277344,-2.326965,-28.572081,26.199339
0.299805,-0.798584,-0.225342,-8.415222,-29.58679,24.345396
0.183838,-0.901367,-0.16748,-14.587401,-12.359618,13.359069
0.155518,-0.921387,-0.168457,-27.19116,14.488219,-0.724792
0.188477,-0.88208,-0.236328,-42.304989,45.890804,-12.428283
0.243652,-0.89917,-0.295898,-52.772518,74.455261,-24.780272
0.320557,-0.990234,-0.332031,-59.951778,94.28405,-37.620544
0.308594,-1.075439,-0.375244,-70.106506,111.968987,-49.087521
0.275146,-1.072998,-0.417969,-82.763664,136.726379,-61.69891
0.324463,-0.990234,-0.406006,-92.086784,169.517502,-74.386597
0.398438,-0.907227,-0.365479,-100.5783,202.514633,-84.648125
0.4646,-0.843018,-0.358154,-109.817497,227.027878,-93.360893
0.503662,-0.799805,-0.397461,-114.860527,242.095932,-100.288383
0.491699,-0.757324,-0.468018,-113.319389,249.893173,-102.844231
0.531006,-0.686523,-0.540039,-105.537407,249.099716,-102.47039
0.581787,-0.653076,-0.570801,-95.802299,240.943893,-103.157036
0.581299,-0.686523,-0.569336,-92.239372,224.899277,-105.010979
0.58252,-0.714111,-0.543701,-93.032829,204.742416,-107.246391
0.617188,-0.730957,-0.529297,-87.562553,186.141953,-110.954277
0.68457,-0.762451,-0.554688,-78.186035,168.960556,-117.233269
0.763184,-0.859131,-0.589844,-65.956116,156.990051,-126.41906
0.841064,-0.95752,-0.615479,-48.370358,152.389526,-134.170532
0.906982,-0.97998,-0.638184,-28.610228,147.201538,-134.025574
0.913086,-0.933105,-0.705566,-9.742737,135.566711,-127.563469
0.908447,-0.885498,-0.731445,6.011962,121.74987,-124.862663
1.023926,-0.9646,-0.677002,16.860962,112.442009,-131.248474
1.150146,-1.158936,-0.589844,25.245665,109.436028,-143.295288
1.255859,-1.323486,-0.490234,36.193848,96.221916,-150.901794
1.415039,-1.355225,-0.484131,50.262447,60.775753,-156.745911
1.522949,-1.317139,-0.509521,68.115234,13.21411,-170.089706
1.548828,-1.288574,-0.525146,84.365837,-32.836914,-187.385544
1.575195,-1.293945,-0.572998,95.79467,-66.810608,-202.476486
1.614258,-1.374268,-0.580811,107.63549,-87.409966,-214.385971
1.618408,-1.524902,-0.506592,123.504631,-98.258965,-220.970139
1.542236,-1.635986,-0.367676,139.595032,-114.44854,-221.687302
1.4104,-1.69458,-0.185791,148.460388,-135.673523,-226.196274
1.34668,-1.734375,0.006104,136.940002,-152.252197,-236.145004
1.445801,-1.680176,0.001953,102.920525,-165.229782,-249.008163
1.618652,-1.575684,0.001953,78.201294,-163.772568,-249.992355
1.540039,-1.564941,-0.017578,68.656921,-112.236015,-249.832138
1.494873,-1.452637,-0.085449,59.822079,-31.455992,-249.954208
1.585938,-1.339355,-0.148682,64.77356,28.32794,-249.992355
1.681152,-1.248779,-0.135498,80.467216,48.294064,-249.992355
1.888916,-1.246094,-0.072021,106.201164,29.853819,-249.992355
2.119385,-1.316895,-0.053955,122.947685,6.225585,-249.992355
2.29126,-1.450439,-0.102783,127.700798,-6.599426,-249.992355
2.2854,-1.637451,-0.131104,137.168884,-18.1427,-249.992355
2.082275,-1.727295,-0.085205,153.900146,-25.100706,-249.992355
1.855957,-1.642578,0.012695,169.715866,-28.022764,-249.992355
1.672363,-1.520996,0.07666,170.684799,-29.396055,-249.992355
1.54126,-1.44165,0.086914,160.97258,-27.336119,-249.992355
1.467041,-1.368164,0.013184,152.702332,-24.406431,-249.992355
1.487549,-1.25415,-0.213623,150.268555,-27.030943,-249.992355
1.543945,-1.146973,-0.453125,155.426025,-37.086487,-249.992355
1.383545,-1.041992,-0.554443,166.084274,-53.497311,-249.992355
1.150391,-0.935059,-0.486572,174.087509,-74.768066,-249.992355
0.946289,-0.857422,-0.328613,170.791611,-92.033379,-249.992355
0.704346,-0.783203,-0.213135,154.121399,-101.036064,-249.992355
0.558594,-0.635742,-0.213135,130.516052,-108.718864,-249.992355
0.499023,-0.443115,-0.30249,106.407158,-112.709038,-249.992355
0.432617,-0.266846,-0.369629,85.067741,-108.940117,-248.641953
0.377686,-0.159668,-0.381348,71.342468,-96.366875,-234.245285
0.304199,-0.11499,-0.354492,66.459656,-75.431824,-209.999069
0.227051,-0.089844,-0.302002,64.964294,-55.702206,-184.03624
0.162109,-0.056885,-0.223145,61.882015,-43.113705,-162.422165
0.092529,-0.030273,-0.156494,58.349606,-34.988403,-145.423889
0.011963,-0.019531,-0.148193,54.450985,-25.177,-128.730774
-0.054199,-0.02002,-0.182373,48.904415,-10.879516,-113.891594
-0.081055,-0.024658,-0.210205,40.969845,7.80487,-105.186455
-0.084717,-0.04126,-0.23877,31.059263,27.44293,-103.210442
-0.073975,-0.087402,-0.263916,22.468565,44.372555,-103.965752
-0.059326,-0.131836,-0.298828,13.21411,57.884212,-106.246941
-0.058105,-0.138672,-0.287109,6.454467,67.466736,-108.184807
-0.016846,-0.16333,-0.305176,9.437561,70.3125,-111.54937
-0.001465,-0.19873,-0.260986,7.331848,67.28363,-118.499748
-0.009277,-0.202393,-0.276123,-0.137329,53.596493,-117.568962
0.075439,-0.199707,-0.320068,-0.282288,20.965574,-106.811516
0.137451,-0.203857,-0.312256,5.401611,-19.91272,-101.455681
0.105469,-0.20459,-0.262207,12.771605,-57.388302,-101.188652
0.025635,-0.192871,-0.224121,15.304564,-85.58654,-96.031181
-0.097656,-0.155762,-0.174072,12.367248,-96.351616,-86.952202
-0.19043,-0.111816,-0.103271,9.017944,-88.394157,-80.070496
-0.205566,-0.09375,-0.065918,4.371643,-68.92395,-77.659607
-0.171631,-0.089111,-0.061523,-1.655578,-51.033016,-76.934814
-0.133789,-0.092529,-0.076416,-5.180358,-42.510983,-74.928284
-0.123535,-0.094238,-0.068115,-7.118225,-42.221066,-72.227478
-0.126709,-0.092285,-0.057129,-8.880615,-45.845028,-69.206238
-0.159912,-0.095215,-0.054199,-10.902404,-49.560543,-63.08746
-0.20459,-0.102295,-0.033203,-12.237548,-52.200314,-54.611202
-0.227051,-0.120117,0.000244,-13.031005,-52.261349,-47.32513
-0.242676,-0.144531,0.054443,-13.961791,-48.942562,-41.053768
-0.238281,-0.164063,0.119629,-15.159606,-45.539852,-34.65271
-0.180908,-0.172852,0.147461,-17.471313,-46.348568,-30.456541
-0.129639,-0.17749,0.106201,-19.462585,-50.941463,-27.915953
-0.140137,-0.193848,0.021484,-18.417358,-56.78558,-22.613523
-0.166504,-0.199219,-0.057861,-15.998839,-62.629696,-13.320922
-0.167725,-0.186279,-0.115967,-15.098571,-65.856934,-5.744934
-0.172852,-0.144531,-0.14917,-17.807007,-67.184448,-2.204895
-0.081787,-0.099854,-0.18335,-16.914368,-74.111938,2.227783
0.125977,-0.103271,-0.200439,-12.802123,-85.853569,10.284423
0.284424,-0.140137,-0.201416,-10.223388,-99.983208,26.55792
0.277832,-0.183594,-0.234863,-7.850646,-114.433281,52.032467
0.227051,-0.210938,-0.358887,-5.073547,-122.985832,80.780022
0.239258,-0.180176,-0.470703,-2.212524,-113.510124,106.430046
0.314209,-0.090088,-0.512451,2.731323,-85.037224,128.692627
0.37915,-0.046143,-0.481934,7.667541,-54.985043,148.902893
0.462646,-0.05249,-0.422852,7.453918,-46.874996,167.5186
0.550537,-0.083252,-0.446777,2.159119,-61.56921,181.549057
0.5625,-0.138184,-0.543457,-1.411438,-79.00238,193.565353
0.537598,-0.216064,-0.696289,0.968933,-84.777824,212.715134
0.502441,-0.253174,-0.820801,2.540588,-75.584412,237.380966
0.503906,-0.213623,-0.903809,0.518799,-57.601925,249.992355
0.559326,-0.15918,-0.963379,-1.586914,-37.780762,249.992355
0.618408,-0.142334,-1.029541,-2.189636,-20.088194,249.725327
0.690918,-0.175293,-1.088867,0.480652,-13.47351,249.992355
0.768555,-0.231201,-1.053223,3.128052,-23.124693,249.992355
0.950439,-0.262451,-1.018311,4.943848,-53.314205,249.992355
1.155762,-0.289307,-1.008057,9.033203,-91.186516,249.992355
1.169678,-0.312256,-0.961426,17.448425,-108.421318,249.992355
1.075195,-0.351318,-0.889404,27.030943,-99.754326,249.992355
0.957031,-0.401855,-0.78418,32.852173,-71.395874,249.992355
0.848145,-0.461426,-0.672119,32.249451,-30.075071,249.992355
0.836914,-0.560303,-0.592529,27.130125,11.95526,249.992355
1.07959,-0.727051,-0.644043,16.975403,44.403072,249.992355
1.608887,-0.931396,-0.776367,3.379822,55.320736,249.992355
2.124756,-1.070313,-0.851807,-2.220154,33.760071,249.992355
2.216553,-1.053223,-0.832031,15.86914,-19.790649,249.992355
1.874268,-0.957275,-0.679443,56.205746,-73.120117,249.992355
1.455078,-0.905273,-0.557617,89.859001,-81.17675,249.992355
1.241211,-0.932373,-0.520752,104.019157,-47.058102,249.992355
1.192627,-1.025391,-0.493408,108.627312,4.592896,249.992355
1.141602,-1.16333,-0.428223,106.307976,58.021542,249.992355
1.075195,-1.353271,-0.399902,93.833916,106.018059,249.992355
1.122559,-1.515381,-0.529785,77.445984,147.30835,249.992355
1.31665,-1.612305,-0.67334,71.510315,178.031906,249.992355
1.545654,-1.645508,-0.770996,81.451408,179.985031,249.992355
1.708984,-1.60083,-0.87085,99.479668,139.49585,249.992355
1.730225,-1.516602,-0.902344,121.368401,73.616028,249.992355
1.640625,-1.475586,-0.869385,142.76123,7.118225,249.992355
1.461914,-1.441162,-0.790039,166.343674,-42.304989,249.992355
1.244385,-1.427979,-0.634277,186.363205,-68.191528,249.992355
1.075928,-1.413818,-0.531494,189.346298,-77.934265,249.511703
0.994141,-1.388916,-0.544189,177.322372,-77.011108,232.429489
0.969238,-1.337402,-0.630127,164.047226,-66.505432,200.302109
0.911377,-1.253174,-0.765625,154.876709,-48.767086,176.712021
0.791992,-1.153809,-0.89209,144.844055,-28.190611,155.883789
0.718506,-1.070313,-0.889893,136.672974,-10.475158,131.454468
0.701416,-1.012451,-0.768311,128.890991,9.155273,108.322136
0.674561,-0.980225,-0.635498,115.341179,36.514282,91.88842
0.588867,-0.95166,-0.537598,97.56469,69.473267,80.825798
0.487549,-0.924561,-0.477051,77.430725,101.257317,70.251465
0.441895,-0.908936,-0.451172,55.725094,125.144951,54.794308
0.488281,-0.901123,-0.480469,34.309387,136.825562,32.493591
0.572266,-0.868652,-0.540283,17.26532,137.60376,6.103515
0.621338,-0.82251,-0.604248,9.002686,134.681702,-15.708922
0.622559,-0.790771,-0.653564,7.629394,132.873535,-27.565001
0.605713,-0.775635,-0.654785,9.170532,130.233765,-34.255981
0.575439,-0.784912,-0.61377,9.658813,125.366203,-41.976925
0.512207,-0.823975,-0.584229,5.706787,121.025078,-49.987789
0.460449,-0.880127,-0.587158,-2.799988,115.852348,-58.860775
0.499023,-0.905518,-0.608154,-11.749267,106.468193,-70.69397
0.583252,-0.88623,-0.617432,-15.342711,93.688957,-86.044304
0.663574,-0.865479,-0.601807,-13.587951,79.093933,-100.517265
0.734131,-0.885986,-0.571045,-10.986327,60.264584,-108.062737
0.735107,-0.928711,-0.515869,-9.407043,38.230896,-108.909599
0.669434,-0.971191,-0.455811,-10.261535,17.967224,-106.1325
0.637207,-0.994873,-0.411621,-15.411376,-0.869751,-102.638237
0.716797,-1.035889,-0.494629,-20.301817,-27.252195,-104.36248
0.835449,-1.108398,-0.623047,-15.670775,-67.03186,-115.379326
0.911865,-1.2229,-0.633789,2.540588,-129.493713,-131.378174
0.918213,-1.325928,-0.503906,25.840757,-204.704269,-146.614075
0.815918,-1.339844,-0.377441,35.972595,-249.992355,-154.724121
0.692383,-1.298584,-0.314453,29.991148,-249.992355,-162.498459
0.623779,-1.399414,-0.257324,17.776489,-249.267563,-176.780685
0.523193,-1.518311,-0.303711,-4.15802,-249.961838,-164.344772
0.589355,-1.561768,-0.401611,-26.893614,-249.992355,-144.424438
0.460449,-1.640869,-0.420654,-26.794432,-246.627792,-128.52478
0.190186,-1.743408,-0.407959,-15.899657,-197.738632,-120.857231
0.343262,-1.86084,-0.340576,-18.188477,-110.237114,-147.789001
0.804688,-1.797852,-0.408447,-37.078857,-50.247189,-201.263412
1.508301,-1.653564,-0.459473,-38.711548,-61.996456,-249.992355
1.800049,-1.581299,-0.444336,-33.370972,-94.66552,-249.992355
1.638428,-1.603027,-0.578369,-34.484863,-78.788757,-249.214157
1.763184,-1.622314,-0.648438,-24.54376,-43.724056,-249.93132
2.114746,-1.678955,-0.63623,-11.116027,-35.125732,-249.992355
2.149414,-1.740723,-0.621826,-4.989624,-46.020504,-249.984726
1.944824,-1.692139,-0.588379,-10.055541,-55.984493,-249.992355
1.864014,-1.640137,-0.548584,-21.385191,-68.214417,-249.992355
1.801758,-1.609131,-0.47876,-30.456541,-77.125549,-249.992355
1.672363,-1.471436,-0.480225,-35.720825,-80.360405,-249.992355
1.53125,-1.291016,-0.498779,-35.903931,-73.96698,-249.992355
1.345459,-1.170654,-0.488281,-35.78186,-58.197018,-249.992355
1.112061,-1.055664,-0.44873,-37.971497,-45.097347,-249.992355
0.924316,-0.91748,-0.449463,-40.466305,-40.794369,-249.992355
0.841797,-0.804199,-0.471924,-42.106625,-41.931149,-249.992355
0.760254,-0.75,-0.388672,-37.773132,-45.478817,-249.992355
0.615967,-0.731934,-0.260498,-31.646727,-55.686947,-249.992355
0.446045,-0.65625,-0.181152,-30.731199,-65.734863,-249.992355
0.307129,-0.538818,-0.181641,-35.087585,-64.193726,-249.992355
0.222168,-0.405029,-0.226563,-41.16058,-49.545284,-249.992355
0.196289,-0.273926,-0.341797,-42.724606,-25.222776,-249.992355
0.167725,-0.196045,-0.42627,-32.348633,5.607605,-249.824509
0.150635,-0.178711,-0.382813,-12.397765,27.992247,-241.317734
0.17334,-0.201416,-0.266357,8.773804,27.267454,-223.97612
0.162354,-0.243652,-0.172607,24.406431,9.605408,-210.189804
0.056641,-0.268799,-0.103516,28.503416,-4.310608,-202.949509
-0.048828,-0.290527,-0.10791,23.780821,-1.434326,-204.147324
-0.108887,-0.30957,-0.151123,16.494751,22.506712,-213.867172
-0.138672,-0.30249,-0.18457,11.512755,61.721798,-223.442062
-0.10791,-0.252441,-0.202393,12.96997,94.322197,-226.463303
-0.001221,-0.219482,-0.209961,22.926329,98.083488,-225.036606
0.090088,-0.260986,-0.13623,40.641781,62.644955,-222.434982
0.149902,-0.397461,-0.161133,57.769772,1.655578,-212.783798
0.157715,-0.471436,-0.167969,60.157772,-56.304928,-195.983871
0.107178,-0.445801,-0.187256,56.358334,-97.595207,-176.795944
-0.046631,-0.416016,-0.140625,54.313656,-117.401115,-160.102844
-0.196777,-0.374756,-0.077148,51.315304,-123.474113,-145.896912
-0.237061,-0.3396,-0.037109,37.376404,-119.422905,-145.797729
-0.187012,-0.335693,-0.132568,14.030456,-95.748894,-156.867981
-0.144531,-0.260742,-0.176514,-4.692078,-64.735413,-153.434753
-0.012207,-0.156982,-0.208008,-12.077331,-55.755611,-144.447327
0.109131,-0.153809,-0.227783,-8.636475,-72.685242,-141.365051
0.125244,-0.213379,-0.150146,-4.653931,-107.116692,-133.247375
0.068359,-0.239258,-0.033691,-8.110046,-143.074036,-119.560234
-0.038574,-0.247803,0.030518,-17.295837,-163.665756,-107.002251
-0.121338,-0.249512,0.077637,-27.580259,-166.610703,-94.215385
-0.161865,-0.242188,0.130127,-35.346985,-157.867432,-81.039421
-0.200439,-0.23999,0.145508,-39.810181,-144.859314,-70.251465
-0.239014,-0.241211,0.118652,-43.655392,-129.600525,-62.499996
-0.266113,-0.238525,0.081299,-48.004147,-111.190788,-56.663509
-0.292236,-0.222412,0.083984,-50.247189,-87.486259,-51.803585
-0.286621,-0.192871,0.093018,-50.552364,-62.19482,-48.683163
-0.220947,-0.162842,0.060547,-48.683163,-41.709896,-45.623775
-0.139648,-0.146484,0.018555,-42.304989,-32.577515,-40.344234
-0.09082,-0.158691,-0.018311,-33.714294,-36.865234,-31.60858
-0.128662,-0.168457,-0.043701,-29.647825,-46.31805,-19.798279
-0.23291,-0.136475,-0.059326,-28.96118,-54.092403,-7.987976
-0.251709,-0.075195,-0.070068,-28.465269,-59.05151,0.808716
-0.126953,-0.035156,-0.083984,-26.69525,-59.875484,8.323669
0.022705,-0.046631,-0.070313,-23.03314,-56.90765,25.93231
0.089844,-0.071777,-0.048828,-19.897461,-55.480953,60.096737
0.116943,-0.091064,-0.034668,-15.502929,-55.343624,97.023003
0.050781,-0.110596,-0.070313,-9.300232,-46.69952,119.99511
-0.105713,-0.080811,-0.06958,-7.957458,-25.772093,128.52478
-0.144531,0.006104,-0.124756,-13.328551,5.752563,132.43866
-0.081787,0.134033,-0.253418,-24.597166,45.31097,143.287659
0.051758,0.24585,-0.41626,-26.359556,79.879761,164.527878
0.260254,0.277344,-0.565674,-13.175963,94.604485,200.698837
0.502686,0.195801,-0.691406,9.69696,90.064995,245.887741
0.635254,0.032227,-0.778564,40.832516,82.962029,249.992355
0.749512,-0.128662,-0.827393,70.014954,78.765869,249.443039
0.831543,-0.199707,-0.848877,80.238342,81.756584,249.816879
0.869629,-0.259277,-0.77002,78.651428,94.932549,249.992355
0.959717,-0.355225,-0.708984,67.047119,107.39135,249.992355
1.24585,-0.45459,-0.81958,41.473385,111.862175,249.992355
1.665039,-0.501221,-1.079102,17.242432,117.97332,249.992355
1.955322,-0.452148,-1.331543,12.153625,130.783081,249.992355
2.001221,-0.385742,-1.389648,28.930662,132.56073,249.992355
1.923584,-0.389404,-1.268799,48.72131,105.949394,249.992355
1.720947,-0.449951,-1.039063,45.0592,63.369747,249.992355
1.500732,-0.421875,-0.754395,28.70941,19.844055,249.992355
1.47876,-0.427002,-0.641113,24.337767,-15.86151,249.992355
1.580078,-0.527832,-0.695068,16.319275,-31.776426,249.992355
1.682373,-0.615967,-0.804199,2.487183,-30.792234,249.992355
1.754883,-0.654053,-0.815918,1.533508,-29.975889,249.992355
1.635986,-0.631104,-0.748535,9.658813,-29.548643,249.992355
1.414795,-0.616699,-0.626465,13.710021,-16.548157,249.992355
1.229736,-0.62207,-0.463867,10.108947,8.590698,249.992355
1.192383,-0.647461,-0.411621,2.349854,33.103943,249.992355
1.210449,-0.689453,-0.470947,-12.443542,56.076046,249.992355
1.164063,-0.761963,-0.564453,-27.976988,78.62854,249.992355
1.205322,-0.831543,-0.686279,-38.81073,86.029045,249.992355
1.354492,-0.855957,-0.808105,-38.30719,61.775204,249.992355
1.413574,-0.878418,-0.826904,-24.726866,14.442443,249.992355
1.344971,-0.922607,-0.807861,-8.628845,-29.701231,249.992355
1.256836,-0.932129,-0.811035,6.896972,-49.110409,249.992355
1.17627,-0.895508,-0.784668,26.176451,-40.786739,249.992355
1.06665,-0.917236,-0.715576,41.885372,-19.821167,249.992355
0.971191,-0.97168,-0.669434,51.673885,-0.892639,249.992355
0.862305,-1.077637,-0.628174,58.746334,11.32965,249.992355
0.79248,-1.131836,-0.61792,58.990475,12.96234,249.992355
0.855713,-1.202148,-0.625,53.764339,8.560181,249.992355
0.929688,-1.217285,-0.667725,45.631405,8.155823,249.992355
0.960449,-1.130127,-0.749512,37.986755,13.275146,249.992355
0.929199,-1.03833,-0.779053,37.094116,24.360655,249.992355
0.804932,-1.020996,-0.738037,37.330627,44.56329,247.299179
0.702881,-0.961914,-0.691895,35.255432,72.990417,235.412582
0.671631,-0.930176,-0.596436,39.31427,108.6502,218.574509
0.634033,-0.969238,-0.470215,37.063599,144.241333,198.40239
0.603516,-1.022705,-0.425049,21.759031,168.479904,173.751816
0.615967,-1.033691,-0.438965,4.295349,174.507126,146.881104
0.695313,-0.996338,-0.457764,-5.546569,165.191635,121.299736
0.746094,-0.960938,-0.445801,-7.530212,149.82605,99.739067
0.718018,-0.971924,-0.416992,-5.950927,134.078979,82.778923
0.665039,-0.980713,-0.4021,-0.839233,117.988579,72.090149
0.612793,-0.949951,-0.384521,8.132935,98.335258,66.650391
0.588867,-0.917969,-0.376465,13.534545,72.372437,61.271664
0.54248,-0.907959,-0.386963,12.077331,46.363827,50.407406
0.51001,-0.894043,-0.400635,6.950378,22.071836,36.888123
0.5,-0.855469,-0.40332,2.334595,1.937866,23.086546
0.450928,-0.798584,-0.410645,-1.304626,-10.482787,10.902404
0.475098,-0.763916,-0.431396,-1.716614,-17.028809,0.495911
0.53125,-0.770508,-0.45459,1.655578,-15.060424,-9.223938
0.541504,-0.791992,-0.484375,4.936218,-8.895874,-16.143799
0.513672,-0.838135,-0.516113,6.652832,-1.274109,-22.544859
0.470947,-0.894043,-0.490723,5.653381,7.965087,-32.196045
0.408203,-0.928467,-0.436279,2.243042,18.844604,-47.500607
0.361816,-0.913574,-0.430908,-6.874084,29.243467,-63.629147
0.435059,-0.866943,-0.466064,-17.38739,40.229794,-78.613281
0.561523,-0.855957,-0.489014,-20.851133,57.365414,-92.247002
0.638428,-0.884277,-0.480713,-19.538879,76.522827,-95.329277
0.699707,-0.927979,-0.472168,-17.349243,90.835564,-88.340752
0.732422,-0.968506,-0.481689,-13.526916,99.83062,-81.413261
0.736572,-0.975586,-0.472412,-8.155823,104.003899,-80.856316
0.742676,-0.953125,-0.451904,-1.670837,104.217522,-84.83123
0.770264,-0.934814,-0.424072,5.928039,102.09655,-89.576714
0.81665,-0.931152,-0.394287,14.175414,97.145073,-94.276421
0.876953,-0.947021,-0.369629,23.147581,87.402336,-98.777763
0.977783,-0.983643,-0.338867,33.096313,71.044922,-103.141777
1.07666,-1.032227,-0.299316,43.014523,46.142574,-107.963554
1.138672,-1.080322,-0.259033,52.101131,11.062621,-113.090508
1.168701,-1.132813,-0.21582,59.791561,-27.221678,-119.949333
1.160156,-1.173584,-0.175537,65.788269,-59.455868,-127.349846
1.13623,-1.205566,-0.128906,71.464539,-84.289543,-132.507324
1.124512,-1.257813,-0.087158,75.775146,-102.874748,-140.830994
1.149658,-1.296631,-0.100586,75.874329,-118.8507,-151.756287
1.175293,-1.331299,-0.125732,76.10321,-134.414673,-162.727341
1.135254,-1.37207,-0.146484,78.00293,-140.022278,-174.613937
0.996094,-1.396484,-0.100098,83.862297,-135.749817,-189.94902
0.963135,-1.417969,-0.051514,85.060112,-110.557549,-208.885178
1.032959,-1.43457,-0.039307,81.657402,-74.409485,-229.309067
1.106201,-1.446533,-0.03418,80.93261,-42.716976,-244.483932
1.166016,-1.465332,-0.037109,83.145134,-17.562866,-249.992355
1.20166,-1.494629,-0.063721,87.295525,9.216309,-249.992355
1.215088,-1.551758,-0.060791,93.307487,33.630371,-249.870285
1.229248,-1.640625,-0.007568,97.015373,46.966549,-249.992355
1.25708,-1.666748,0.016113,97.175591,45.661922,-249.992355
1.331299,-1.675049,-0.021973,101.814262,35.743713,-249.992355
1.422852,-1.683838,-0.05542,109.916679,23.422239,-249.992355
1.512451,-1.67627,-0.068359,117.607109,12.985229,-249.992355
1.545898,-1.678711,-0.081543,122.306816,9.986877,-249.992355
1.514893,-1.680908,-0.08252,124.694817,12.855529,-249.992355
1.466309,-1.656494,-0.043457,126.892082,19.40155,-249.992355
1.45166,-1.643555,0.052979,124.092094,29.907225,-249.992355
1.514648,-1.640137,0.072021,115.180962,40.367123,-249.992355
1.612549,-1.595947,0.01001,110.626213,46.493526,-249.992355
1.592529,-1.495361,-0.0896,115.982048,45.906063,-249.992355
1.500977,-1.375244,-0.149658,129.043579,35.232544,-249.992355
1.365479,-1.253418,-0.177979,144.577026,19.126892,-249.992355
1.203613,-1.14624,-0.174805,158.027649,-0.205994,-249.992355
1.050049,-1.075439,-0.112305,166.000351,-23.178099,-249.992355
0.975586,-1.013916,-0.067139,165.863022,-49.537655,-249.992355
0.883301,-0.917725,-0.098877,159.927368,-71.784973,-249.992355
0.711914,-0.790039,-0.163818,155.197144,-88.844292,-249.992355
0.538818,-0.658203,-0.209717,154.35791,-99.334709,-246.444687
0.361816,-0.693359,0.008789,154.632568,-99.472038,-229.370102
0.222656,-1.782959,0.223389,66.589355,-96.763603,-219.810471
0.394775,-1.132813,-0.772705,-176.338181,-111.305229,-213.058456
0.701416,0.115234,-1.762939,-179.275497,-150.32959,-181.755051
0.121826,0.143066,-1.319092,24.604795,-182.945236,-130.577087
-0.674316,0.063721,-0.85498,107.002251,-148.31543,-123.954765
-0.756104,-0.107422,-0.72998,93.78051,-46.012875,-172.203049
-0.250488,-0.192871,-0.65332,96.42791,32.974243,-200.996384
0.110107,-0.10376,-0.327393,120.475761,47.218319,-200.019821
0.101807,-0.19043,-0.057861,131.378174,6.614685,-216.773972
0.006348,-0.333252,-0.072754,116.874687,-47.851559,-243.00383
-0.019287,-0.361084,-0.143066,103.851311,-84.129326,-249.992355
-0.089355,-0.311523,-0.19458,107.078545,-94.520561,-242.233261
-0.223389,-0.221436,-0.21167,121.612541,-79.185486,-226.089462
-0.323975,-0.217773,-0.205078,135.238647,-47.973629,-222.221359
-0.316895,-0.237549,-0.165527,144.187927,-21.591185,-227.348312
-0.215332,-0.252197,-0.201172,154.426575,-8.308411,-224.533066
-0.189941,-0.260498,-0.182617,160.942062,-3.494262,-207.275375
-0.251709,-0.260498,-0.11084,154.693604,-6.446838,-188.407883
-0.27832,-0.260254,-0.016357,137.413025,-13.427733,-177.177414
-0.259766,-0.258545,0.053955,117.866508,-23.620604,-164.070114
-0.241943,-0.243652,0.064697,96.366875,-40.359493,-144.638062
-0.278564,-0.199463,0.062988,74.165344,-60.806271,-130.111694
-0.354004,-0.149658,0.040039,59.158321,-77.331543,-127.128593
-0.407471,-0.126221,0.012451,52.070614,-86.791985,-126.586906
-0.406738,-0.119141,-0.000244,47.126766,-92.292778,-122.962944
-0.37793,-0.107666,0.001953,40.237423,-95.855705,-117.416374
-0.38208,-0.092041,0.021973,31.98242,-98.846428,-110.91613
-0.39502,-0.072266,0.002197,22.857664,-104.423515,-102.325432
-0.424316,-0.046875,-0.042969,10.910033,-110.389702,-92.704765
-0.434814,-0.016113,-0.07666,-0.762939,-116.416924,-81.748955
-0.408936,0.010254,-0.081055,-5.378723,-120.75042,-67.619324
-0.386719,0.039063,-0.068604,-5.119323,-120.681755,-49.232479
-0.381592,0.08252,-0.061523,-5.439758,-117.240898,-27.168272
-0.343262,0.138428,-0.048584,-9.384155,-109.085075,-4.638672
-0.217041,0.17749,-0.035156,-14.442443,-100.624077,21.797178
-0.083252,0.195557,-0.050781,-16.891479,-97.549431,56.755062
-0.026611,0.201416,-0.086914,-17.677307,-98.159782,97.518913
-0.075195,0.180908,-0.08252,-14.137267,-89.950554,133.308411
-0.160645,0.120605,-0.044189,-7.713317,-64.52179,160.331726
-0.248779,0.081543,-0.014648,-9.857178,-22.53723,177.505478
-0.203369,0.130615,-0.036621,-23.971556,24.124144,177.261337
0.087158,0.247314,-0.111328,-42.823788,57.151791,160.53772
0.349609,0.357178,-0.240967,-50.880428,70.304871,158.01239
0.468994,0.384277,-0.399414,-45.471188,68.611145,192.672714
0.458496,0.309082,-0.439941,-32.905579,67.108154,242.660507
0.379883,0.165283,-0.516357,-19.538879,70.3125,249.992355
0.310303,0.016602,-0.729492,-17.326355,81.29882,249.55748
0.336426,-0.044189,-0.903809,-24.337767,97.244255,249.740585
0.467529,-0.031494,-0.994873,-22.605894,110.359184,249.992355
0.631592,-0.055908,-1.065918,-8.422852,115.776054,249.992355
0.874268,-0.162109,-1.094971,10.154723,111.1679,249.992355
1.087402,-0.303223,-0.985596,26.93939,101.97448,249.992355
1.104736,-0.420898,-0.82666,34.431458,86.84539,249.992355
1.060547,-0.492432,-0.68335,27.282713,59.036251,249.992355
1.011963,-0.556641,-0.592285,11.70349,34.439087,249.992355
0.898193,-0.643311,-0.583252,-7.530212,34.309387,249.992355
0.862549,-0.739258,-0.711914,-32.325745,54.985043,249.992355
1.006104,-0.773193,-0.835938,-52.558895,88.23394,249.992355
1.169434,-0.779541,-0.853027,-54.336544,120.323174,249.992355
1.374512,-0.827393,-0.844727,-48.103329,126.075737,249.992355
1.745117,-0.89917,-0.779785,-38.986206,103.042595,249.992355
1.958984,-1.033691,-0.567871,-22.094725,63.507076,249.992355
1.827637,-1.222412,-0.326904,-18.1427,8.590698,249.992355
1.531982,-1.303223,-0.247803,-40.702816,-44.998165,249.992355
1.320801,-1.290771,-0.338867,-65.02533,-68.275452,249.992355
1.231934,-1.255371,-0.438477,-69.335938,-50.765987,249.992355
1.201172,-1.239258,-0.465332,-60.661312,-8.506775,249.992355
1.205078,-1.247559,-0.436523,-51.910397,36.567688,249.992355
1.248047,-1.281006,-0.377197,-44.189449,71.556091,249.992355
1.261719,-1.327393,-0.339111,-35.194397,92.834465,249.992355
1.257813,-1.390381,-0.284424,-26.30615,103.050224,249.992355
1.180908,-1.503174,-0.284668,-21.919249,103.111259,249.992355
1.088135,-1.595459,-0.309082,-17.562866,99.44915,249.992355
1.199463,-1.70752,-0.218262,-25.085447,99.105827,249.992355
1.381348,-1.783936,-0.33374,-45.730587,53.825375,249.992355
1.315674,-1.649414,-0.531006,-39.260864,15.602111,249.992355
1.250732,-1.577148,-0.569092,-8.255005,11.383056,249.992355
1.234375,-1.558594,-0.604736,11.901855,26.077269,249.992355
1.242432,-1.504883,-0.672363,19.645691,39.131165,249.992355
1.227783,-1.514404,-0.587891,29.235838,43.617245,249.992355
1.058838,-1.529053,-0.398193,28.20587,41.259762,249.992355
0.860352,-1.503418,-0.283936,6.439209,30.082701,249.237045
0.828857,-1.409668,-0.270996,-20.149229,26.649473,226.547226
0.893799,-1.290527,-0.289307,-30.082701,46.142574,183.296188
0.912598,-1.179199,-0.289551,-30.151365,81.985466,146.705627
0.880615,-1.057861,-0.276123,-32.394409,115.615837,118.774406
0.849854,-0.950928,-0.270752,-32.463074,138.282776,94.024651
0.841797,-0.882568,-0.290283,-29.556273,148.704529,72.784424
0.831299,-0.846436,-0.353516,-25.817869,149.658203,58.853146
0.792236,-0.811523,-0.421875,-21.362303,144.363403,50.354
0.706299,-0.792725,-0.467773,-15.182494,135.597229,44.189449
0.592773,-0.788818,-0.4646,-8.31604,123.672478,37.643433
0.5625,-0.780518,-0.448975,-2.63977,109.046928,28.20587
0.629395,-0.751953,-0.429199,3.257751,94.177238,17.807007
0.716064,-0.716309,-0.388184,11.520385,79.566956,9.429932
0.748291,-0.697754,-0.345459,19.943237,66.642761,6.851196
0.718018,-0.683594,-0.3396,24.154661,56.90765,12.252807
0.678711,-0.66748,-0.384033,24.513243,49.507137,19.02771
0.653076,-0.658203,-0.447754,23.956297,41.770931,21.080015
0.640625,-0.662842,-0.462646,23.864744,32.524109,18.234253
0.643066,-0.685059,-0.416992,23.567198,24.459837,11.947631
0.673828,-0.701172,-0.339844,20.538328,22.064207,1.953125
0.766357,-0.693604,-0.26709,15.014647,23.254393,-10.467528
0.870117,-0.683594,-0.273438,6.904602,19.958496,-22.987364
0.928711,-0.67041,-0.331299,1.335144,9.025574,-36.849976
0.924561,-0.674561,-0.36792,5.111694,-2.876281,-49.59869
0.88501,-0.703613,-0.355225,14.495849,-8.659363,-59.204098
0.881104,-0.744141,-0.33374,22.605894,-8.529663,-68.138123
0.954834,-0.807617,-0.318604,28.625486,-5.859375,-82.199089
0.989258,-0.931641,-0.376221,32.501221,-2.5177,-104.86602
0.906982,-1.03418,-0.418945,31.692503,-2.059937,-132.804871
0.959717,-1.07251,-0.406494,33.821106,-12.680053,-160.28595
1.10791,-1.06543,-0.366699,37.231445,-27.6947,-187.316879
1.141113,-1.045166,-0.331787,35.194397,-39.085388,-205.642685
1.099365,-1.060303,-0.342285,32.653809,-44.204708,-213.14238
1.070801,-1.106934,-0.355469,34.942627,-40.565487,-217.643723
1.084229,-1.147705,-0.375977,39.077759,-35.575867,-221.45079
1.153809,-1.176025,-0.405518,44.349667,-40.801998,-228.706345
1.245605,-1.1875,-0.408447,56.90765,-65.757751,-241.432175
1.368408,-1.190918,-0.362061,75.790405,-115.783684,-249.992355
1.471191,-1.206787,-0.243164,92.323296,-185.16539,-249.992355
1.453369,-1.242188,-0.059082,98.640434,-240.974411,-249.824509
1.362793,-1.32251,0.042969,93.978874,-244.499191,-249.992355
1.27832,-1.373535,0.035889,85.906975,-190.696701,-249.992355
1.38623,-1.376465,-0.044434,73.471069,-121.223442,-249.992355
1.510986,-1.429932,-0.111328,68.740845,-67.710876,-249.992355
1.637939,-1.464111,-0.206543,71.472168,-40.206905,-249.992355
1.847656,-1.415527,-0.254883,94.360344,-56.663509,-249.992355
1.955811,-1.360107,-0.213623,127.67791,-104.415886,-249.992355
1.881836,-1.332764,-0.250244,142.227173,-146.728516,-249.992355
1.782471,-1.358398,-0.331299,139.511108,-157.104492,-249.992355
1.668213,-1.358887,-0.343262,132.644653,-141.853333,-249.992355
1.532959,-1.305664,-0.298584,123.481743,-121.902458,-249.992355
1.439453,-1.243896,-0.269043,110.389702,-109.115593,-249.992355
1.445068,-1.155029,-0.258789,98.648064,-107.604973,-249.992355
1.550293,-1.108398,-0.28418,95.870964,-108.497612,-249.992355
1.531494,-1.119873,-0.324951,92.483513,-101.280205,-249.992355
1.410156,-1.060547,-0.41333,87.501518,-92.628471,-249.992355
1.305176,-0.945801,-0.541504,85.243217,-79.048157,-249.992355
1.215088,-0.816406,-0.598389,84.037773,-63.896175,-249.992355
1.121826,-0.70874,-0.525635,84.846489,-58.395382,-249.992355
1.022461,-0.64624,-0.399414,83.854668,-66.268921,-249.992355
0.936035,-0.579102,-0.286377,75.363159,-81.352226,-249.992355
0.911865,-0.470703,-0.265137,63.034054,-96.626274,-249.992355
0.916016,-0.388184,-0.302734,51.856991,-103.157036,-249.992355
0.799072,-0.350098,-0.31665,41.122433,-98.274223,-249.992355
0.637451,-0.313721,-0.28833,28.923033,-88.287346,-248.001083
0.498047,-0.309326,-0.401123,22.40753,-67.581177,-224.044785
0.369385,-0.307861,-0.574219,12.016295,-26.664732,-190.483078
0.169434,-0.094971,-0.418457,-6.515502,18.432617,-157.913208
0.168213,-0.050537,-0.523926,-16.685486,44.113155,-126.274101
0.26709,-0.076416,-0.499268,-22.987364,46.295162,-103.256218
0.270264,-0.056152,-0.431396,-27.336119,22.895811,-90.690605
0.20874,-0.061279,-0.378418,-29.914854,-10.330199,-75.363159
0.084473,-0.061035,-0.375,-36.529541,-26.893614,-58.067318
-0.04834,-0.073242,-0.36792,-45.56274,-14.564513,-48.96545
-0.04248,-0.109619,-0.350586,-51.849361,8.781433,-42.678829
0.055664,-0.116943,-0.32251,-56.724545,29.495237,-39.428711
0.122314,-0.104248,-0.298828,-58.189388,39.894104,-43.04504
0.137939,-0.126221,-0.231689,-59.104916,39.558411,-47.966
0.244629,-0.124512,-0.178467,-58.151241,21.842955,-50.765987
0.313477,-0.112305,-0.13501,-52.680965,-8.06427,-54.77142
0.22998,-0.091553,-0.107422,-49.21722,-33.905029,-59.989925
0.105469,-0.076416,-0.126221,-47.790524,-38.917542,-61.515804
0.004639,-0.076172,-0.152588,-46.592709,-21.766661,-64.811707
-0.029053,-0.054932,-0.175781,-41.91589,3.768921,-76.309204
-0.016846,-0.04248,-0.210205,-32.684326,25.80261,-89.408867
-0.006104,-0.045654,-0.246094,-21.575926,38.269043,-96.710197
-0.005859,-0.040771,-0.275391,-10.635375,40.27557,-101.051323
-0.015869,-0.045898,-0.260254,-0.823975,34.729004,-104.324333
-0.031006,-0.014648,-0.249023,8.041382,22.460936,-104.476921
-0.017334,-0.016113,-0.255127,17.807007,-1.121521,-102.615349
0.00708,-0.060059,-0.256348,22.926329,-34.90448,-99.494926
-0.006836,-0.093994,-0.243652,26.268003,-70.907593,-93.688957
-0.076172,-0.104492,-0.219482,26.275633,-102.119438,-85.266106
-0.153809,-0.101318,-0.199707,23.925779,-121.482841,-77.789307
-0.205566,-0.119873,-0.165527,21.743773,-126.41143,-71.868896
-0.225098,-0.147217,-0.140625,17.166138,-121.994011,-65.231323
-0.239258,-0.164063,-0.114746,10.559081,-113.754265,-56.915279
-0.26709,-0.166992,-0.071533,2.754211,-103.919975,-49.049374
-0.292969,-0.157959,-0.034424,-5.767822,-92.361443,-42.503353
-0.298584,-0.139648,-0.005127,-14.205932,-79.986572,-37.322998
-0.27832,-0.105713,0.017578,-20.256041,-70.579529,-32.234192
-0.24585,-0.076172,-0.00415,-24.54376,-66.291809,-24.993895
-0.218506,-0.040527,-0.042236,-25.787352,-67.840576,-13.679503
-0.206299,0.003662,-0.063477,-25.833128,-75.233459,1.327515
-0.214355,0.031738,-0.070557,-27.70233,-84.182732,17.440796
-0.237305,0.031982,-0.078125,-33.798218,-91.354362,33.51593
-0.191162,0.043945,-0.051514,-43.67828,-102.104179,50.315853
-0.003418,0.031494,-0.111816,-40.260311,-122.200005,73.478699
0.098145,0.000244,-0.173828,-15.61737,-133.735657,108.871452
0.053711,0.012939,-0.084473,10.498046,-122.772209,142.242432
-0.018311,0.040283,0.000732,17.837524,-91.346733,157.951355
-0.054688,0.073975,-0.045898,11.825561,-53.916927,174.224838
-0.08667,0.059326,-0.085693,16.326904,-20.965574,204.078659
-0.109131,-0.021484,-0.141357,32.798767,5.500793,232.681259
-0.102051,-0.125,-0.148438,52.558895,23.468016,249.992355
-0.015137,-0.300049,-0.127441,77.911377,29.624937,249.992355
0.179932,-0.535156,-0.214355,93.925468,33.630371,249.740585
0.312988,-0.732422,-0.273682,94.566338,65.361023,249.969467
0.457031,-0.827637,-0.388916,80.169678,126.350395,249.992355
0.698975,-0.834229,-0.648193,57.189938,199.821457,249.992355
0.935547,-0.931396,-0.870605,42.778011,249.992355,249.992355
0.981934,-1.130371,-0.896729,35.652161,249.992355,249.992355
0.981201,-1.301025,-0.825928,23.91815,249.05394,249.992355
1.13623,-1.414307,-0.768799,1.068115,249.984726,249.992355
1.525879,-1.484131,-0.833252,-25.451658,242.004379,249.992355
2.140625,-1.571777,-0.890869,-43.182369,173.645004,249.992355
2.550293,-1.704102,-0.848145,-47.935482,95.382683,249.992355
2.387939,-1.721191,-0.718994,-41.03088,37.765503,249.992355
1.931152,-1.577148,-0.613525,-34.179688,7.102966,249.992355
1.648682,-1.489014,-0.623535,-37.284851,18.196106,249.992355
1.609131,-1.539551,-0.630859,-42.66357,54.977413,249.992355
1.645752,-1.650879,-0.592773,-43.655392,92.819206,249.992355
1.703613,-1.791504,-0.496094,-37.574768,113.418571,249.992355
1.657715,-1.936279,-0.360352,-33.51593,113.273613,249.992355
1.449463,-2.062744,-0.213623,-32.173157,104.469292,249.992355
1.283691,-2.073975,-0.168213,-39.024353,134.567261,249.992355
1.063965,-2.121582,-0.244873,-67.6651,248.199448,249.992355
1.965332,-2.286621,0.534424,-67.733765,249.992355,249.992355
3.395264,-2.172607,0.650879,-158.52356,139.022827,249.992355
2.337402,-1.662109,-0.208008,-226.310715,-148.445129,249.992355
1.330811,-1.369873,-0.313232,-171.93602,-200.775131,249.992355
1.264648,-1.318359,-0.330811,-93.368523,-112.968437,249.992355
1.354004,-1.166016,-0.28125,-34.370422,-47.409054,249.992355
1.370361,-1.24585,-0.099121,2.311707,-27.664183,248.458847
1.297119,-1.333984,-0.09082,7.667541,-26.214598,222.946152
1.147705,-1.309082,-0.138672,6.996154,3.234863,194.587692
0.916992,-1.423828,-0.058105,8.598328,56.945797,181.915268
0.90918,-1.492432,-0.019531,-5.775451,82.481377,159.294128
1.236816,-1.314453,-0.113525,-24.841307,58.280941,121.261589
1.439941,-1.039551,-0.249268,-33.584595,5.615234,96.282951
1.273438,-0.869629,-0.280029,-27.290342,-53.25317,96.107475
0.969482,-0.79541,-0.246582,-12.954711,-92.994682,106.048576
0.750732,-0.734375,-0.24707,2.288818,-102.684013,113.784782
0.690186,-0.681885,-0.254395,16.830444,-90.148918,114.387505
0.687012,-0.71875,-0.216309,30.3421,-70.1828,111.534111
0.626465,-0.82251,-0.145264,41.91589,-51.74255,109.947197
0.584473,-0.838379,-0.111572,42.91534,-41.549679,111.251823
0.636719,-0.762695,-0.189941,35.28595,-36.567688,106.925957
0.697998,-0.684082,-0.386475,25.070189,-27.938841,95.146172
0.700684,-0.638184,-0.530518,14.137267,-14.389037,83.511345
0.700684,-0.63916,-0.504639,4.646301,2.571106,74.485779
0.676758,-0.654541,-0.402344,-9.788513,26.19171,69.366455
0.64624,-0.61377,-0.343262,-34.095764,55.480953,67.825317
0.637695,-0.530762,-0.357422,-60.485836,87.829582,65.071106
0.664551,-0.470703,-0.397461,-77.987671,119.659416,56.915279
0.74292,-0.468994,-0.411377,-84.037773,146.514893,42.259212
0.835449,-0.496338,-0.403809,-82.81707,166.786179,21.743773
0.949951,-0.513184,-0.388184,-79.89502,178.565964,-3.410339
1.063232,-0.50415,-0.338379,-75.576782,180.534348,-31.806944
1.136719,-0.498535,-0.324951,-69.42749,171.485886,-60.142513
1.205566,-0.493408,-0.359619,-62.095638,152.061462,-85.601799
1.236084,-0.514404,-0.406006,-49.34692,126.594536,-107.833855
1.220947,-0.569824,-0.422852,-29.052732,97.396843,-127.700798
1.189941,-0.618164,-0.372803,-5.218505,69.488525,-145.751953
1.184326,-0.644775,-0.302979,14.450072,48.797604,-162.124619
1.192871,-0.666504,-0.252441,26.824949,36.29303,-177.825912
1.2146,-0.724609,-0.220947,34.614563,27.221678,-192.802414
1.281738,-0.829346,-0.206055,39.69574,16.342163,-210.670456
1.35083,-0.909912,-0.22168,44.662472,4.089355,-231.681808
1.395752,-0.945068,-0.270264,53.443905,-6.805419,-249.153122
1.359619,-0.928467,-0.310791,71.357727,-11.779784,-249.992355
1.34668,-0.928955,-0.256104,95.771782,-17.570496,-249.771103
1.393311,-0.974609,-0.157715,114.471428,-30.395506,-249.946579
1.464844,-1.000732,-0.101074,122.825615,-50.781246,-249.992355
1.581543,-1.05127,-0.087891,126.937859,-69.915771,-249.992355
1.598633,-1.170898,-0.057617,133.94928,-71.372986,-249.992355
1.523438,-1.284668,-0.008057,141.967773,-53.367611,-249.992355
1.512207,-1.292725,0.031982,148.292542,-25.886534,-249.992355
1.66333,-1.240723,-0.015869,153.488159,-7.919311,-249.992355
1.796875,-1.187988,-0.09668,159.324646,-6.347656,-249.992355
1.888916,-1.197266,-0.079834,177.047714,-22.033689,-249.992355
1.964355,-1.172363,0.004639,200.714096,-48.370358,-249.992355
2.064941,-1.093506,0.105225,211.387619,-70.037842,-249.992355
2.259033,-1.164307,0.196289,211.296066,-86.036674,-249.992355
2.26123,-1.23999,0.245605,206.367477,-84.304802,-249.992355
2.233398,-1.201172,0.266846,194.374069,-68.67981,-249.992355
2.215332,-1.174561,0.225342,182.258591,-42.381283,-249.992355
2.189453,-1.06958,0.16748,175.544724,-25.962828,-249.992355
2.26123,-0.940674,0.101074,176.292404,-35.881042,-249.992355
2.320557,-0.873535,0.027344,184.257492,-59.883114,-249.992355
2.191895,-0.878662,0.028809,200.592026,-87.715141,-249.992355
2.067871,-0.886963,0.063965,211.433395,-115.570061,-249.992355
1.881836,-0.844482,0.095947,212.852463,-128.677368,-249.992355
1.641602,-0.793945,0.125977,208.22142,-129.951477,-249.992355
1.53833,-0.726074,0.127686,196.022018,-121.582024,-249.992355
1.442383,-0.647949,0.087402,180.564865,-99.182121,-249.992355
1.270752,-0.578613,0.037354,168.724045,-71.006775,-249.992355
1.197998,-0.502197,-0.008057,160.919174,-47.645565,-249.992355
1.219727,-0.434814,-0.082031,157.180786,-28.610228,-249.992355
1.160156,-0.385986,-0.163818,160.148621,-14.564513,-249.992355
1.033447,-0.371826,-0.277344,165.473923,-12.413024,-249.992355
0.969482,-0.355957,-0.350586,168.342575,-22.300718,-249.992355
0.924316,-0.32959,-0.357422,167.427048,-36.743164,-247.436508
0.826904,-0.322266,-0.353271,159.0271,-51.887508,-225.288376
0.673828,-0.318115,-0.34668,141.563416,-65.254211,-192.550644
0.528076,-0.301758,-0.374512,120.071404,-70.655823,-159.210205
0.460205,-0.276855,-0.421143,102.371208,-62.873837,-126.434319
0.462158,-0.265137,-0.428223,96.031181,-44.509884,-96.153252
0.410889,-0.283447,-0.4021,98.281853,-24.642942,-68.534851
0.305664,-0.311768,-0.383301,99.998466,-11.566161,-44.990536
0.220215,-0.286377,-0.375244,94.345085,-0.076294,-31.47888
0.178467,-0.191406,-0.353027,82.420341,17.333984,-27.519224
0.16626,-0.084473,-0.321777,68.481445,35.865784,-24.353025
0.135498,-0.007324,-0.295166,49.888607,49.880978,-21.430967
0.118164,0.015869,-0.373047,34.210205,55.458065,-16.609192
0.192383,-0.048828,-0.574219,31.455992,48.46954,-6.698608
0.255127,-0.153809,-0.68335,36.369324,32.25708,5.91278
0.224365,-0.209717,-0.696045,43.785091,10.19287,20.759581
0.117188,-0.206055,-0.611572,51.795956,-15.647887,32.119751
-0.047363,-0.195068,-0.452148,53.077694,-35.392761,31.85272
-0.198242,-0.192627,-0.345215,43.05267,-31.822203,25.291441
-0.29541,-0.168945,-0.308594,24.711607,-3.64685,20.332335
-0.273926,-0.101318,-0.268799,5.256652,30.883787,11.871337
-0.050781,-0.066895,-0.237793,-2.960205,47.599789,2.052307
0.22168,-0.10791,-0.176514,-3.189087,43.464657,-2.26593
0.336426,-0.166748,-0.056396,-9.658813,18.569946,1.602173
0.25293,-0.203857,0.055664,-28.137205,-26.252745,9.590149
0.023438,-0.155518,0.115234,-51.879879,-76.896667,8.804321
-0.203125,-0.054199,0.07251,-72.616577,-101.051323,-15.892028
-0.334229,0.010254,0.005859,-79.177856,-80.841057,-48.049923
-0.326904,0.006348,-0.03833,-81.359856,-30.456541,-73.760986
-0.217285,-0.017822,-0.052979,-84.518425,16.548157,-85.700981
-0.065674,-0.066895,-0.043945,-88.539116,43.762203,-87.821953
0.147949,-0.072266,-0.097656,-98.365776,43.983456,-82.794182
0.321777,-0.062012,-0.124268,-106.681816,24.261473,-74.028015
0.323975,-0.128418,-0.135498,-108.421318,-1.426697,-61.904903
0.237061,-0.21875,-0.134033,-112.693779,-33.485413,-43.952938
0.100586,-0.199219,-0.118408,-121.902458,-66.65802,-33.485413
-0.013428,-0.093994,-0.085205,-122.680656,-94.360344,-34.980774
-0.110107,0.00708,-0.063721,-113.18969,-99.891655,-36.514282
-0.148682,0.075195,-0.108643,-106.849663,-69.290161,-37.139893
