ax,ay,az,gx,gy,gz
-0.274658,-0.965332,0.114502,0.793457,2.792358,3.135681
-0.274902,-0.965332,0.113037,0.648498,3.02124,3.280639
-0.272217,-0.962158,0.112793,0.572205,3.082275,3.456115
-0.271973,-0.960205,0.112061,0.526428,3.295898,3.562927
-0.272705,-0.959961,0.110107,0.488281,3.601074,3.829956
-0.274902,-0.957031,0.110107,0.427246,3.768921,4.03595
-0.273926,-0.958252,0.10791,0.549316,4.081726,4.020691
-0.274902,-0.960205,0.107422,0.808716,4.356384,3.807068
-0.275635,-0.966309,0.108154,0.816345,4.585266,3.479004
-0.276855,-0.969727,0.10791,1.068115,5.142211,3.051758
-0.281494,-0.971924,0.107666,1.106262,5.561828,2.380371
-0.285645,-0.970215,0.105957,1.235962,6.034851,1.777649
-0.288086,-0.968506,0.107178,1.266479,6.553649,1.342773
-0.290771,-0.967773,0.106934,1.159668,7.080078,1.075745
-0.295898,-0.963379,0.105957,1.182556,7.347106,0.946045
-0.29834,-0.963623,0.107666,0.923157,7.316589,0.831604
-0.301514,-0.964355,0.109619,0.62561,6.988525,1.022339
-0.302979,-0.962891,0.108887,0.549316,6.195068,1.068115
-0.299072,-0.964844,0.113037,0.411987,5.249023,1.235962
-0.300781,-0.965576,0.114502,0.350952,4.623413,1.426697
-0.300293,-0.963867,0.115967,0.457764,4.142761,1.63269
-0.300049,-0.963623,0.119873,0.50354,3.440857,1.716614
-0.301514,-0.96582,0.116699,0.640869,2.761841,1.937866
-0.30127,-0.966797,0.114502,0.740051,2.113342,2.128601
-0.301025,-0.96875,0.11084,0.75531,1.495361,2.26593
-0.297119,-0.968506,0.108887,0.87738,1.106262,2.418518
-0.296875,-0.970947,0.104248,0.900268,0.999451,2.326965
-0.295654,-0.967773,0.10376,1.014709,0.892639,2.418518
-0.293945,-0.964355,0.104248,1.106262,0.984192,2.342224
-0.290771,-0.965088,0.104492,0.946045,0.999451,2.502441
-0.289795,-0.9646,0.104248,0.793457,1.167297,2.563476
-0.289307,-0.965576,0.106445,0.976562,1.525879,2.548218
-0.287598,-0.968994,0.108643,1.12915,1.831055,2.548218
-0.290039,-0.974365,0.108887,1.358032,2.182007,2.510071
-0.288818,-0.974365,0.105225,1.63269,2.76947,2.502441
-0.290771,-0.972168,0.105225,1.823425,3.326416,2.471924
-0.291748,-0.9729,0.104248,2.01416,3.837585,2.502441
-0.294434,-0.968262,0.105469,2.13623,4.264832,2.510071
-0.296875,-0.966309,0.103516,2.105713,4.470825,2.700805
-0.294922,-0.966309,0.102783,2.090454,4.341125,2.89154
-0.296875,-0.962402,0.10498,1.960754,4.219055,3.013611
-0.299561,-0.960205,0.108643,1.777649,4.096985,3.166198
-0.297363,-0.960205,0.107178,1.617432,3.868103,3.242492
-0.300537,-0.958984,0.105713,1.411438,3.89862,3.242492
-0.304199,-0.956299,0.107422,1.419067,3.486633,3.036499
-0.30542,-0.955566,0.104736,1.251221,2.754211,2.861023
-0.306641,-0.954834,0.102539,1.121521,1.747131,2.700805
-0.307617,-0.954102,0.102539,0.930786,0.740051,2.388
-0.305664,-0.955322,0.098145,0.579834,-0.274658,2.26593
-0.304443,-0.95874,0.099121,0.343323,-0.724792,2.166748
-0.303955,-0.956787,0.099609,0.267029,-1.213074,2.029419
-0.301514,-0.959473,0.099121,0.274658,-1.449585,1.869202
-0.30127,-0.962402,0.0979,0.068665,-1.411438,1.785278
-0.302002,-0.96167,0.100342,-0.053406,-1.51062,1.670837
-0.303223,-0.964355,0.098633,-0.12207,-1.335144,1.556396
-0.304688,-0.969238,0.101807,-0.099182,-1.174927,1.434326
-0.305664,-0.971924,0.10083,-0.198364,-1.350403,1.190186
-0.304688,-0.97583,0.102051,-0.190735,-1.63269,1.174927
-0.307129,-0.97583,0.102295,-0.160217,-1.64032,1.220703
-0.307129,-0.974854,0.100586,-0.076294,-1.617432,1.022339
-0.30249,-0.970947,0.103516,0.045776,-1.770019,0.999451
-0.300537,-0.968994,0.104492,0.1297,-1.655578,0.907898
-0.29834,-0.966553,0.106689,0.076294,-1.342773,0.907898
-0.297852,-0.963867,0.105469,0.244141,-1.113892,1.075745
-0.299072,-0.963623,0.105469,0.198364,-1.052856,0.946045
-0.298096,-0.962402,0.107178,0.228882,-1.091003,0.900268
-0.298096,-0.959961,0.10791,0.343323,-1.106262,0.778198
-0.298828,-0.962402,0.103271,0.450134,-0.862122,0.671387
-0.302734,-0.966553,0.102051,0.785828,-0.663757,0.419617
-0.30542,-0.965088,0.101318,0.793457,-0.282288,0.289917
-0.30835,-0.963135,0.10083,0.823975,0.114441,0.289917
-0.310547,-0.961426,0.100098,0.762939,0.183105,0.457764
-0.313232,-0.962646,0.097656,0.801086,0.12207,0.602722
-0.313721,-0.966309,0.095459,0.709534,-0.25177,0.778198
-0.313232,-0.966064,0.094971,0.549316,-0.686645,0.968933
-0.311279,-0.969727,0.093506,0.358582,-1.106262,0.984192
-0.307129,-0.970703,0.09375,0.25177,-1.38855,0.991821
-0.302246,-0.967773,0.096436,0.045776,-1.251221,0.862122
-0.302734,-0.965332,0.100342,-0.152588,-0.854492,0.823975
-0.299805,-0.965576,0.10498,-0.198364,-0.717163,0.564575
-0.294189,-0.962891,0.108154,-0.259399,-0.686645,0.320435
-0.29541,-0.960938,0.109619,-0.221252,-0.37384,0.152588
-0.297607,-0.963379,0.109375,0.053406,-0.030518,-0.091553
-0.297119,-0.963623,0.109863,0.282288,0.221252,-0.289917
-0.300781,-0.962646,0.109375,0.480652,0.587463,-0.587463
-0.302246,-0.965576,0.109131,0.648498,0.740051,-0.785828
-0.307617,-0.964355,0.107178,0.679016,0.656128,-0.63324
-0.311768,-0.963867,0.106934,0.717163,0.37384,-0.679016
-0.314209,-0.963379,0.107178,0.747681,-0.030518,-0.610352
-0.311279,-0.965576,0.105225,0.801086,-0.457764,-0.450134
-0.31543,-0.966553,0.105469,0.862122,-0.564575,-0.320435
-0.314697,-0.964844,0.105225,1.075745,-0.366211,-0.205994
-0.315674,-0.965332,0.105469,1.190186,-0.091553,-0.053406
-0.314209,-0.963867,0.103516,1.228333,0.152588,-0.137329
-0.312012,-0.961914,0.105713,1.373291,0.511169,-0.076294
-0.311768,-0.960449,0.106934,1.449585,0.762939,0.12207
-0.316162,-0.956299,0.106934,1.487732,0.663757,-0.030518
-0.316162,-0.956055,0.108643,1.403808,0.518799,-0.030518
-0.313477,-0.956299,0.106201,1.190186,0.335693,-0.076294
-0.314209,-0.956543,0.108887,1.091003,0.022888,-0.160217
-0.313232,-0.955078,0.111816,1.091003,-0.106812,-0.236511
-0.315186,-0.957031,0.111816,1.00708,-0.450134,-0.236511
-0.315674,-0.958984,0.108887,0.923157,-0.892639,-0.297546
-0.317383,-0.960205,0.110352,0.862122,-1.00708,-0.38147
-0.318604,-0.960693,0.108887,0.88501,-1.167297,-0.389099
-0.317627,-0.961426,0.110596,0.869751,-1.25885,-0.442505
-0.317871,-0.960205,0.111572,0.679016,-1.472473,-0.404358
-0.316895,-0.960693,0.109131,0.617981,-1.647949,-0.320435
-0.317383,-0.960693,0.109619,0.556946,-1.792908,-0.183105
-0.318604,-0.959473,0.111816,0.305176,-2.082825,-0.175476
-0.318115,-0.960449,0.111572,0.198364,-2.525329,-0.144958
-0.315186,-0.95874,0.11377,0.167847,-2.998352,-0.167847
-0.315186,-0.956787,0.114014,-0.015259,-3.349304,-0.267029
-0.31665,-0.955811,0.111816,-0.114441,-3.562927,-0.244141
-0.314209,-0.958008,0.11377,-0.328064,-3.822326,-0.335693
-0.311279,-0.957031,0.112061,-0.236511,-4.104614,-0.587463
-0.310791,-0.958008,0.112305,-0.152588,-4.150391,-0.579834
-0.312012,-0.957764,0.111572,-0.114441,-4.272461,-0.465393
-0.314697,-0.958252,0.109863,-0.297546,-4.394531,-0.511169
-0.314209,-0.959473,0.109375,-0.305176,-4.257202,-0.350952
-0.312012,-0.958984,0.109619,-0.259399,-4.127502,-0.25177
-0.310059,-0.96167,0.105713,-0.183105,-3.791809,-0.244141
-0.30957,-0.964355,0.106689,-0.007629,-3.250122,-0.144958
-0.312744,-0.962646,0.109619,0.114441,-2.677917,-0.114441
-0.3125,-0.962402,0.113037,0.183105,-2.166748,-0.076294
-0.313477,-0.963867,0.111084,0.419617,-1.945495,-0.022888
-0.312012,-0.958496,0.109375,0.396728,-1.907349,-0.045776
-0.312744,-0.958984,0.110596,0.335693,-1.960754,0.0
-0.312988,-0.959717,0.111572,0.511169,-2.02179,0.068665
-0.312012,-0.95874,0.109863,0.587463,-1.914978,0.015259
-0.311035,-0.957764,0.109863,0.396728,-1.960754,-0.022888
-0.313721,-0.956055,0.111084,0.434875,-2.098083,-0.061035
-0.313477,-0.958008,0.108643,0.534058,-2.151489,-0.114441
-0.314209,-0.958984,0.107422,0.434875,-2.342224,-0.045776
-0.3125,-0.960205,0.108887,0.274658,-2.700805,0.0
-0.3125,-0.958008,0.107666,0.221252,-2.815246,-0.015259
-0.312256,-0.959473,0.108398,0.045776,-2.685547,-0.106812
-0.309326,-0.95459,0.110596,0.083923,-2.540588,-0.12207
-0.310059,-0.955322,0.115723,-0.038147,-2.418518,-0.007629
-0.311035,-0.958496,0.112549,-0.038147,-2.296448,0.022888
-0.310791,-0.962646,0.109863,-0.030518,-2.006531,-0.099182
-0.311035,-0.963379,0.108154,0.091553,-1.747131,-0.1297
-0.3125,-0.962646,0.106445,0.289917,-1.464844,-0.343323
-0.31543,-0.960693,0.108643,0.335693,-1.144409,-0.495911
-0.317627,-0.959229,0.107422,0.289917,-1.251221,-0.38147
-0.316406,-0.960205,0.104492,0.137329,-1.556396,-0.267029
-0.314453,-0.959961,0.106201,0.106812,-1.876831,-0.267029
-0.314941,-0.958496,0.106689,0.175476,-2.182007,-0.213623
-0.313721,-0.95752,0.109375,0.205994,-2.151489,-0.167847
-0.311523,-0.954346,0.109619,0.297546,-1.853943,-0.099182
-0.310303,-0.957275,0.108643,0.366211,-1.434326,-0.076294
-0.311279,-0.959717,0.109375,0.434875,-0.999451,-0.1297
-0.314697,-0.956787,0.111084,0.457764,-0.869751,-0.167847
-0.31543,-0.957275,0.110596,0.541687,-0.732422,-0.213623
-0.316162,-0.958984,0.109375,0.457764,-0.732422,-0.228882
-0.316406,-0.960205,0.109619,0.518799,-0.724792,-0.190735
-0.317871,-0.960449,0.109863,0.595093,-0.701904,-0.053406
-0.316406,-0.960449,0.108643,0.63324,-0.671387,0.091553
-0.315186,-0.959473,0.10791,0.740051,-0.602722,0.076294
-0.317627,-0.962646,0.110596,0.694275,-0.640869,0.228882
-0.318359,-0.958984,0.11084,0.717163,-0.785828,0.267029
-0.316162,-0.95752,0.110596,0.785828,-0.793457,0.312805
-0.316406,-0.958252,0.111084,0.717163,-0.930786,0.312805
-0.31543,-0.960449,0.112549,0.709534,-1.098633,0.244141
-0.3125,-0.960693,0.109863,0.701904,-1.190186,0.190735
-0.308594,-0.961426,0.107666,0.679016,-1.243591,0.12207
-0.311279,-0.960449,0.108398,0.701904,-1.113892,-0.030518
-0.312744,-0.960449,0.109375,0.63324,-1.014709,-0.144958
-0.312256,-0.962158,0.110352,0.579834,-1.190186,-0.335693
-0.314209,-0.961426,0.108643,0.473022,-1.182556,-0.427246
-0.313965,-0.961426,0.107666,0.411987,-1.327515,-0.541687
-0.313965,-0.961914,0.106201,0.488281,-1.396179,-0.648498
-0.315674,-0.960205,0.107422,0.312805,-1.586914,-0.686645
-0.313232,-0.959717,0.107666,0.244141,-1.76239,-0.640869
-0.312012,-0.96167,0.107422,0.213623,-1.815796,-0.701904
-0.312012,-0.959229,0.108887,0.213623,-1.586914,-0.701904
-0.312012,-0.960938,0.108154,0.175476,-1.449585,-0.854492
-0.314453,-0.959961,0.109619,0.228882,-1.091003,-0.938415
-0.315186,-0.960205,0.110107,0.328064,-0.808716,-0.991821
-0.317871,-0.959229,0.112061,0.350952,-0.732422,-1.052856
-0.320068,-0.957275,0.110107,0.267029,-0.808716,-1.060486
-0.318359,-0.95874,0.111328,0.274658,-0.869751,-1.121521
-0.315918,-0.959229,0.113281,0.228882,-0.823975,-1.106262
-0.317627,-0.957764,0.112793,0.282288,-0.495911,-1.106262
-0.317383,-0.95752,0.111328,0.335693,-0.167847,-1.068115
-0.320557,-0.956543,0.114014,0.358582,-0.091553,-0.938415
-0.325684,-0.955322,0.115723,0.335693,-0.366211,-0.831604
-0.327393,-0.957764,0.113281,0.190735,-0.839233,-0.808716
-0.326172,-0.958008,0.11084,0.068665,-1.541138,-0.671387
-0.324951,-0.95752,0.111084,0.022888,-2.052307,-0.534058
-0.327881,-0.959229,0.109863,0.015259,-2.532959,-0.465393
-0.326416,-0.959961,0.108643,-0.175476,-2.868652,-0.404358
-0.325439,-0.958984,0.108398,-0.183105,-3.349304,-0.389099
-0.322021,-0.960693,0.110107,-0.038147,-3.684997,-0.37384
-0.322266,-0.959961,0.109375,-0.114441,-4.03595,-0.289917
-0.31958,-0.959717,0.110596,-0.335693,-4.28772,-0.320435
-0.31665,-0.959473,0.107422,-0.419617,-4.53186,-0.389099
-0.314209,-0.958984,0.108643,-0.457764,-4.547119,-0.366211
-0.312012,-0.957031,0.113525,-0.488281,-4.646301,-0.37384
-0.308838,-0.956787,0.111084,-0.556946,-4.570007,-0.450134
-0.308594,-0.959961,0.10791,-0.396728,-4.302979,-0.37384
-0.307373,-0.960449,0.108154,-0.480652,-3.974914,-0.50354
-0.308594,-0.96167,0.106201,-0.37384,-3.486633,-0.63324
-0.310791,-0.961182,0.106445,-0.312805,-2.967834,-0.686645
-0.310059,-0.954834,0.106445,-0.297546,-2.662658,-0.75531
-0.310303,-0.952881,0.106201,-0.328064,-2.426147,-0.732422
-0.313721,-0.956543,0.104492,-0.38147,-2.304077,-0.88501
-0.318604,-0.961182,0.104004,-0.556946,-2.586365,-1.029968
-0.318359,-0.964111,0.105713,-0.656128,-3.005981,-1.228333
-0.314697,-0.964111,0.108643,-0.663757,-3.39508,-1.457214
-0.315918,-0.962646,0.111328,-0.862122,-3.738403,-1.708984
-0.317627,-0.962158,0.11377,-0.846863,-3.837585,-1.876831
-0.31958,-0.96167,0.112549,-0.869751,-4.043579,-1.770019
-0.318604,-0.959717,0.113281,-0.75531,-4.470825,-1.747131
-0.317139,-0.960693,0.11377,-0.717163,-5.004883,-1.747131
-0.315186,-0.960449,0.111816,-0.648498,-5.340576,-1.571655
-0.313965,-0.962646,0.111328,-0.747681,-5.584716,-1.350403
-0.313721,-0.964355,0.110107,-0.831604,-5.699157,-1.014709
-0.311768,-0.96875,0.108398,-0.709534,-5.783081,-0.930786
-0.312012,-0.966797,0.107422,-0.732422,-5.714416,-0.87738
-0.308838,-0.966553,0.106934,-0.671387,-5.393981,-0.854492
-0.308838,-0.963135,0.106689,-0.541687,-4.951477,-0.946045
-0.307861,-0.965088,0.104248,-0.534058,-4.638672,-0.984192
-0.307617,-0.965332,0.102783,-0.526428,-4.165649,-0.900268
-0.309326,-0.962402,0.104736,-0.480652,-3.822326,-0.770569
-0.307373,-0.960693,0.103027,-0.465393,-3.738403,-0.808716
-0.30835,-0.960693,0.102539,-0.419617,-3.77655,-0.816345
-0.305176,-0.956055,0.102051,-0.541687,-3.77655,-0.770569
-0.302979,-0.952148,0.105957,-0.762939,-3.814697,-0.770569
-0.303467,-0.953125,0.108887,-0.862122,-3.852844,-0.785828
-0.304199,-0.954834,0.110107,-0.946045,-3.837585,-0.709534
-0.30249,-0.956543,0.108398,-0.930786,-3.669739,-0.770569
-0.303955,-0.95459,0.108887,-0.808716,-3.479004,-0.801086
-0.302002,-0.950684,0.106934,-0.816345,-3.059387,-0.793457
-0.30249,-0.952393,0.104492,-0.923157,-2.632141,-0.732422
-0.300049,-0.953125,0.10083,-1.075745,-2.571106,-0.778198
-0.299561,-0.950684,0.09668,-1.365662,-2.868652,-0.778198
-0.294922,-0.950195,0.093262,-1.63269,-3.067016,-0.862122
-0.290527,-0.95166,0.09375,-1.983642,-2.845764,-1.045227
-0.287842,-0.958496,0.093262,-2.365112,-2.418518,-1.304626
-0.285645,-0.963379,0.090332,-2.845764,-1.815796,-1.747131
-0.28418,-0.962646,0.088623,-3.211975,-1.022339,-2.365112
-0.286865,-0.965332,0.088867,-3.868103,-0.228882,-2.983093
-0.286621,-0.965332,0.088135,-4.600525,0.053406,-3.723144
-0.291504,-0.964355,0.09082,-5.1651,0.221252,-4.562378
-0.299072,-0.967529,0.096191,-5.935668,-0.099182,-5.41687
-0.302002,-0.971436,0.101074,-6.523132,-0.88501,-6.202697
-0.307373,-0.974365,0.104492,-7.026672,-1.647949,-7.072448
-0.30957,-0.972168,0.107178,-7.369995,-2.540588,-7.659912
-0.313232,-0.968018,0.112549,-7.659912,-3.166198,-7.759094
-0.31665,-0.965088,0.116455,-7.736206,-4.03595,-7.835388
-0.321045,-0.965088,0.115234,-7.728576,-4.882813,-7.598876
-0.324707,-0.966553,0.118408,-7.781982,-6.088256,-7.156372
-0.327148,-0.969727,0.119141,-7.667541,-7.453918,-6.706237
-0.325928,-0.970215,0.118408,-7.347106,-8.682251,-6.286621
-0.321045,-0.9646,0.113037,-7.057189,-9.475708,-5.737304
-0.320801,-0.964844,0.106201,-6.652832,-9.765625,-5.256652
-0.318604,-0.967041,0.098877,-6.362915,-9.735107,-4.966736
-0.319336,-0.967285,0.095459,-6.065368,-9.773254,-4.615784
-0.318359,-0.970459,0.091797,-5.889892,-10.002136,-4.318237
-0.31665,-0.968506,0.088135,-5.874633,-10.505675,-3.990173
-0.314453,-0.968506,0.08667,-5.836486,-11.047362,-3.829956
-0.310059,-0.965332,0.082764,-5.653381,-11.604308,-3.578186
-0.306641,-0.961914,0.083252,-5.577087,-12.069701,-3.387451
-0.306641,-0.96582,0.083984,-5.485534,-12.557982,-3.189087
-0.303223,-0.966797,0.08667,-5.371093,-13.130187,-3.051758
-0.298096,-0.966797,0.089355,-5.218505,-13.618468,-2.89154
-0.294189,-0.968506,0.089355,-4.928589,-13.999938,-2.700805
-0.291992,-0.973633,0.091064,-4.79126,-14.328002,-2.578735
-0.287842,-0.976807,0.087402,-4.760742,-14.61029,-2.593994
-0.287354,-0.973389,0.088623,-4.463196,-14.923095,-2.571106
-0.286133,-0.976318,0.089355,-4.592896,-15.663146,-2.624511
-0.283447,-0.975586,0.092773,-4.608154,-16.334534,-2.784729
-0.279785,-0.9729,0.094971,-4.524231,-16.777039,-2.876281
-0.275146,-0.972656,0.095703,-4.28009,-16.50238,-3.074646
-0.27417,-0.971924,0.091553,-3.929138,-16.166687,-3.463745
-0.277832,-0.974854,0.088379,-3.829956,-16.517639,-3.822326
-0.278564,-0.975098,0.088379,-3.601074,-17.00592,-4.005432
-0.282471,-0.97583,0.087646,-3.570556,-17.38739,-4.066467
-0.281982,-0.977051,0.080322,-3.700256,-17.76886,-4.081726
-0.279297,-0.976074,0.079102,-3.677368,-17.967224,-3.822326
-0.278076,-0.975586,0.074463,-3.860473,-18.196106,-3.349304
-0.277344,-0.976318,0.071045,-3.929138,-18.569946,-2.914428
-0.276855,-0.97583,0.071777,-4.112244,-18.981934,-2.418518
-0.275146,-0.976563,0.074463,-4.188538,-19.065857,-2.02179
-0.273682,-0.975098,0.072021,-4.203796,-18.699646,-1.480102
-0.268799,-0.975098,0.072754,-4.043579,-18.157959,-0.984192
-0.268799,-0.974609,0.072754,-3.784179,-17.25769,-0.694275
-0.268555,-0.975342,0.075439,-3.677368,-16.25824,-0.541687
-0.27002,-0.9729,0.080078,-3.471374,-15.426635,-0.411987
-0.268066,-0.972168,0.082031,-3.295898,-14.907836,-0.144958
-0.269043,-0.975098,0.083496,-3.089905,-14.343261,-0.061035
-0.270508,-0.974854,0.085205,-2.845764,-13.97705,0.007629
-0.269531,-0.974365,0.083496,-2.555847,-13.610839,0.0
-0.268066,-0.976807,0.07959,-2.27356,-12.96997,-0.160217
-0.269531,-0.974854,0.081055,-2.052307,-12.245177,-0.068665
-0.27002,-0.972412,0.081543,-1.89209,-11.802672,-0.015259
-0.272217,-0.968018,0.079346,-1.853943,-11.787414,0.099182
-0.271729,-0.966797,0.079102,-1.731872,-12.08496,0.228882
-0.27002,-0.970947,0.078857,-1.724243,-12.428283,0.282288
-0.269531,-0.971436,0.073975,-1.731872,-12.901305,0.396728
-0.265625,-0.971436,0.07251,-1.777649,-13.504027,0.328064
-0.263428,-0.973145,0.06958,-1.808166,-13.816833,0.228882
-0.264404,-0.976563,0.072266,-1.88446,-14.09912,0.083923
-0.265869,-0.976807,0.068359,-1.914978,-14.289855,-0.022888
-0.264404,-0.980713,0.067139,-2.01416,-14.305114,-0.099182
-0.26416,-0.980225,0.065186,-2.166748,-13.832091,-0.053406
-0.258545,-0.980713,0.064209,-2.319336,-13.008117,0.282288
-0.260498,-0.978271,0.063721,-2.510071,-12.413024,0.343323
-0.263184,-0.979004,0.067871,-2.807617,-12.428283,0.556946
-0.260254,-0.978516,0.064697,-3.013611,-12.886046,0.839233
-0.258789,-0.97876,0.06665,-3.204345,-13.702392,0.762939
-0.250488,-0.976563,0.070068,-3.349304,-14.434813,0.938415
-0.240967,-0.976074,0.074463,-3.257751,-14.633178,0.648498
-0.239258,-0.974609,0.076172,-2.89917,-14.335631,0.343323
-0.238525,-0.976807,0.075195,-2.754211,-13.313293,0.106812
-0.237061,-0.977295,0.073486,-2.449036,-11.886596,-0.228882
-0.234131,-0.974365,0.073975,-2.250671,-10.429381,-0.50354
-0.235596,-0.973877,0.077393,-2.151489,-9.353638,-0.808716
-0.236572,-0.97583,0.077393,-1.724243,-8.81958,-1.144409
-0.234863,-0.979492,0.076904,-1.617432,-8.415222,-1.464844
-0.232666,-0.980225,0.07666,-1.335144,-7.789611,-1.571655
-0.233154,-0.981201,0.075684,-1.25885,-6.614685,-1.533508
-0.240723,-0.981445,0.076416,-1.037598,-5.294799,-1.556396
-0.247803,-0.982178,0.075195,-0.831604,-4.577637,-1.472473
-0.247559,-0.981445,0.072754,-0.892639,-4.257202,-1.396179
-0.24292,-0.97998,0.072998,-0.564575,-3.707886,-1.266479
-0.248047,-0.978027,0.073242,-0.274658,-2.525329,-1.190186
-0.256104,-0.975098,0.06958,-0.205994,-1.63269,-0.923157
-0.264648,-0.972412,0.064697,-0.137329,-1.64032,-0.907898
-0.265381,-0.973145,0.063721,-0.183105,-2.250671,-0.762939
-0.263428,-0.969482,0.062988,-0.312805,-2.471924,-0.450134
-0.267822,-0.966553,0.059326,-0.282288,-2.319336,-0.236511
-0.275146,-0.960693,0.059326,-0.244141,-2.6474,-0.053406
-0.268311,-0.956543,0.0625,-0.167847,-3.822326,-0.12207
-0.256348,-0.959229,0.070068,0.083923,-4.486084,-0.144958
-0.243164,-0.959717,0.069824,0.312805,-3.601074,-0.389099
-0.242432,-0.960938,0.066162,0.434875,-1.556396,-0.579834
-0.253662,-0.963867,0.060059,0.396728,0.747681,-0.694275
-0.265137,-0.965576,0.054688,0.358582,2.380371,-0.595093
-0.27417,-0.967041,0.052246,0.083923,3.257751,-0.282288
-0.280518,-0.972656,0.046631,-0.053406,3.723144,0.328064
-0.282959,-0.975586,0.049316,0.12207,4.104614,0.793457
-0.286133,-0.981445,0.05127,0.045776,4.234314,1.327515
-0.288574,-0.982422,0.056641,-0.099182,3.601074,1.76239
-0.285645,-0.979736,0.070557,0.053406,2.761841,2.067566
-0.276611,-0.974854,0.085205,0.450134,2.593994,2.105713
-0.268555,-0.972168,0.095703,0.88501,3.623962,2.105713
-0.271729,-0.971924,0.098633,1.403808,5.111694,2.044678
-0.273193,-0.969727,0.101807,1.731872,6.256103,1.922607
-0.272705,-0.96875,0.10083,2.27356,6.813049,1.876831
-0.276367,-0.969238,0.096924,2.593994,7.17926,2.044678
-0.277588,-0.967041,0.089844,2.76947,6.912231,2.349854
-0.276367,-0.965088,0.08667,2.990722,6.355285,2.494812
-0.273926,-0.9646,0.08667,3.028869,5.775451,2.63977
-0.273926,-0.967529,0.08374,3.089905,5.561828,2.922058
-0.277832,-0.966064,0.077881,3.074646,5.599975,3.181457
-0.278809,-0.966797,0.076416,2.990722,5.500793,3.158569
-0.27832,-0.967773,0.072021,2.914428,5.66864,3.120422
-0.285889,-0.971436,0.067871,2.89917,6.271362,3.158569
-0.285889,-0.974121,0.065918,2.929687,6.896972,3.234863
-0.29126,-0.969727,0.063232,2.838135,6.752014,2.990722
-0.288086,-0.964111,0.063965,2.861023,6.301879,2.632141
-0.288574,-0.967285,0.06665,2.723694,5.798339,2.738952
-0.290527,-0.967773,0.064941,2.76947,5.371093,2.822876
-0.289063,-0.967285,0.068604,2.731323,4.707336,2.655029
-0.282715,-0.972168,0.070557,2.929687,4.676819,2.288818
-0.276367,-0.970703,0.074219,3.135681,5.256652,2.075195
-0.273193,-0.971191,0.074951,3.440857,6.080627,1.876831
-0.276123,-0.970215,0.079102,3.540039,6.744384,1.533508
-0.278809,-0.969727,0.078125,3.639221,6.79779,1.25885
-0.275146,-0.972656,0.079834,3.570556,6.469726,0.839233
-0.270264,-0.976563,0.07666,3.639221,6.92749,0.495911
-0.271484,-0.977295,0.074951,3.768921,8.308411,0.396728
-0.275879,-0.977295,0.074463,3.890991,9.658813,0.358582
-0.281494,-0.978027,0.074951,3.814697,10.032654,0.38147
-0.281982,-0.979492,0.073486,3.662109,9.529114,0.495911
-0.281738,-0.97876,0.077148,3.532409,8.857727,0.534058
-0.277832,-0.974854,0.078125,3.540039,8.872986,0.419617
-0.281982,-0.978516,0.07959,3.417969,9.368896,0.404358
-0.288086,-0.979492,0.076416,3.387451,9.895325,0.465393
-0.29248,-0.977051,0.074951,3.303528,9.70459,0.411987
-0.29541,-0.979004,0.076904,3.028869,8.903503,0.419617
-0.296387,-0.977539,0.077393,2.998352,8.178711,0.358582
-0.296631,-0.975586,0.081787,2.906799,7.713317,0.274658
-0.296631,-0.972656,0.083496,2.830505,7.30133,0.083923
-0.296387,-0.96875,0.08252,2.929687,7.072448,0.015259
-0.29248,-0.968994,0.078125,2.922058,7.019042,-0.106812
-0.296387,-0.969482,0.075439,2.76947,7.316589,-0.144958
-0.303467,-0.96582,0.071533,2.471924,7.400512,-0.144958
-0.307617,-0.963867,0.067383,2.113342,6.942749,-0.160217
-0.309326,-0.966064,0.069092,1.724243,6.324768,-0.228882
-0.311035,-0.965576,0.071289,1.312256,5.363464,-0.205994
-0.310547,-0.962646,0.074707,1.075745,4.219055,-0.297546
-0.306396,-0.964844,0.078369,1.014709,3.211975,-0.419617
-0.302979,-0.966797,0.081299,1.00708,2.685547,-0.465393
-0.307373,-0.963867,0.08374,0.946045,2.326965,-0.572205
-0.30835,-0.961182,0.08667,0.968933,1.876831,-0.595093
-0.307617,-0.962402,0.086914,0.862122,1.441955,-0.488281
-0.30542,-0.963867,0.081299,0.823975,1.091003,-0.404358
-0.305664,-0.963135,0.074951,0.663757,0.87738,-0.160217
-0.303711,-0.960205,0.071777,0.534058,1.060486,0.244141
-0.299561,-0.961914,0.070801,0.312805,1.541138,0.663757
-0.299805,-0.959717,0.072266,0.289917,1.914978,1.083374
-0.298828,-0.959961,0.075928,0.442505,2.197266,1.541138
-0.293945,-0.961914,0.076172,0.793457,2.777099,1.823425
-0.291992,-0.963135,0.072266,1.167297,3.433227,2.006531
-0.293213,-0.968994,0.073486,1.541138,3.829956,2.029419
-0.294189,-0.973145,0.072266,1.441955,3.829956,1.831055
-0.29248,-0.97168,0.071045,1.197815,3.944397,1.487732
-0.293701,-0.970459,0.069092,1.243591,4.653931,1.091003
-0.299072,-0.972168,0.069824,1.00708,5.363464,1.029968
-0.305664,-0.969971,0.071777,0.854492,5.516052,0.785828
-0.307617,-0.969971,0.071045,0.62561,5.073547,0.816345
-0.310547,-0.969482,0.073242,0.518799,4.40979,0.991821
-0.309082,-0.96875,0.077148,0.549316,3.77655,1.029968
-0.307129,-0.965332,0.079834,0.602722,3.059387,1.144409
-0.304932,-0.9646,0.082764,0.602722,2.5177,1.335144
-0.307373,-0.96167,0.081543,0.511169,2.227783,1.548767
-0.30835,-0.960693,0.079102,0.259399,1.861572,1.63269
-0.310059,-0.958984,0.083496,0.099182,1.022339,1.64032
-0.309326,-0.958252,0.07959,0.083923,0.12207,1.647949
-0.308105,-0.959229,0.075928,-0.114441,-0.442505,1.518249
-0.30835,-0.958984,0.072021,-0.144958,-0.823975,1.289368
-0.309814,-0.962891,0.067383,-0.282288,-1.243591,1.098633
-0.309082,-0.964355,0.068115,-0.106812,-1.602173,0.823975
-0.306885,-0.963135,0.068115,-0.053406,-1.907349,0.549316
-0.305908,-0.961914,0.063965,-0.37384,-2.037048,0.274658
-0.30542,-0.965088,0.061035,-0.518799,-1.998901,0.228882
-0.306885,-0.968262,0.063232,-0.434875,-1.655578,0.137329
-0.304688,-0.968018,0.063477,-0.259399,-1.312256,0.190735
-0.302002,-0.969727,0.064697,-0.259399,-1.060486,0.228882
-0.299805,-0.969727,0.064697,-0.297546,-0.62561,0.259399
-0.299805,-0.971924,0.063721,-0.175476,0.167847,0.282288
-0.305176,-0.973877,0.065918,-0.305176,0.709534,0.244141
-0.306396,-0.971436,0.069336,-0.267029,0.778198,0.228882
-0.301514,-0.970947,0.069336,-0.37384,0.267029,0.274658
-0.302979,-0.970215,0.06958,-0.38147,-0.053406,0.259399
-0.298584,-0.970947,0.070068,-0.343323,0.015259,0.1297
-0.29248,-0.967041,0.073975,-0.25177,0.465393,0.083923
-0.29248,-0.962158,0.07251,-0.076294,1.373291,0.083923
-0.29541,-0.962158,0.072021,0.053406,2.182007,0.045776
-0.299561,-0.962891,0.072754,0.1297,2.243042,-0.038147
-0.30127,-0.962158,0.07251,0.152588,1.739502,-0.289917
-0.303955,-0.963623,0.071289,0.175476,1.205444,-0.617981
-0.305664,-0.962402,0.071533,0.152588,0.892639,-0.862122
-0.306885,-0.964111,0.070313,0.022888,0.541687,-1.052856
-0.309326,-0.964844,0.067627,0.0,0.572205,-1.167297
-0.312988,-0.963867,0.06665,-0.1297,0.938415,-1.144409
-0.317139,-0.964111,0.064209,-0.12207,1.029968,-1.075745
-0.318848,-0.964844,0.065186,-0.198364,0.602722,-0.907898
-0.31543,-0.966797,0.064941,-0.320435,0.221252,-0.816345
-0.314697,-0.966309,0.066895,-0.213623,0.25177,-0.648498
-0.313477,-0.960693,0.070068,-0.190735,0.389099,-0.495911
-0.313721,-0.961426,0.072754,-0.244141,0.25177,-0.495911
-0.312988,-0.963135,0.071289,-0.335693,0.106812,-0.534058
-0.315186,-0.965088,0.070801,-0.480652,0.015259,-0.411987
-0.31665,-0.965088,0.068359,-0.556946,-0.411987,-0.320435
-0.319336,-0.964111,0.069824,-0.724792,-1.022339,-0.404358
-0.313965,-0.962891,0.06958,-0.831604,-1.739502,-0.350952
-0.30835,-0.965332,0.071533,-0.770569,-2.037048,-0.419617
-0.30835,-0.964355,0.071045,-0.75531,-2.037048,-0.389099
-0.307617,-0.964844,0.072021,-0.709534,-2.029419,-0.198364
-0.305908,-0.965088,0.072754,-0.839233,-2.174377,-0.289917
-0.30542,-0.966309,0.07373,-0.656128,-2.159119,-0.282288
-0.304443,-0.963867,0.071777,-0.549316,-1.922607,-0.37384
-0.302979,-0.961426,0.072021,-0.434875,-1.739502,-0.419617
-0.304932,-0.962891,0.073975,-0.289917,-1.525879,-0.526428
-0.307373,-0.961182,0.077148,-0.305176,-1.350403,-0.541687
-0.311035,-0.957764,0.076416,-0.320435,-1.174927,-0.427246
-0.315186,-0.959717,0.076416,-0.175476,-1.190186,-0.244141
-0.316162,-0.962646,0.077637,0.1297,-1.472473,-0.076294
-0.317139,-0.966797,0.07666,0.274658,-1.869202,-0.045776
-0.314453,-0.968506,0.07251,0.396728,-2.037048,0.015259
-0.31665,-0.96875,0.07251,0.549316,-1.899719,-0.137329
-0.322998,-0.968994,0.074951,0.488281,-1.922607,-0.183105
-0.323242,-0.973145,0.074951,0.37384,-1.51062,0.038147
-0.31958,-0.973633,0.067871,0.183105,-1.274109,0.236511
-0.321045,-0.966064,0.061768,0.267029,-1.266479,-0.045776
-0.326416,-0.9646,0.060547,0.038147,-1.281738,0.114441
-0.333496,-0.965332,0.065186,-0.106812,-1.853943,0.679016
-0.330811,-0.965332,0.074463,-0.022888,-3.013611,1.022339
-0.32251,-0.964844,0.077148,-0.007629,-3.814697,1.106262
-0.316895,-0.963135,0.082275,0.282288,-4.295349,1.220703
-0.313477,-0.9646,0.083984,0.434875,-4.234314,1.365662
-0.314453,-0.963135,0.080078,0.305176,-4.02832,1.411438
-0.323242,-0.958496,0.072266,-0.068665,-4.478455,1.426697
-0.323975,-0.95752,0.067139,-0.305176,-5.638122,1.426697
-0.319336,-0.958008,0.06665,-0.549316,-6.91986,1.564026
-0.312744,-0.960449,0.064209,-0.63324,-7.659912,1.586914
-0.309326,-0.96167,0.062012,-0.679016,-7.751464,1.647949
-0.311035,-0.961426,0.061035,-0.648498,-7.56073,1.579285
-0.310547,-0.965088,0.066895,-0.595093,-7.583618,1.64032
-0.30835,-0.970215,0.068604,-0.617981,-7.67517,1.63269
-0.306641,-0.970459,0.067627,-0.450134,-7.339477,1.487732
-0.3125,-0.969482,0.068115,-0.297546,-6.896972,1.426697
-0.314697,-0.971191,0.065918,-0.160217,-6.660461,1.525879
-0.315186,-0.972412,0.061035,-0.198364,-6.477355,1.495361
-0.319336,-0.969238,0.056396,-0.328064,-6.492614,1.617432
-0.320557,-0.968994,0.052734,-0.305176,-6.660461,2.067566
-0.323486,-0.969238,0.053467,-0.473022,-7.026672,2.624511
-0.323975,-0.964844,0.049316,-0.198364,-7.133483,3.105163
-0.321045,-0.962158,0.047607,-0.068665,-7.095336,3.532409
-0.315186,-0.959717,0.055908,-0.068665,-7.072448,4.119873
-0.304199,-0.952148,0.062256,-0.015259,-6.706237,4.440308
-0.292969,-0.944824,0.069092,0.236511,-6.248474,4.554749
-0.289795,-0.940918,0.073975,0.076294,-5.645751,4.440308
-0.287354,-0.938232,0.070313,-0.335693,-4.745483,4.295349
-0.287354,-0.936035,0.064941,-0.892639,-3.684997,4.058838
-0.291748,-0.939697,0.057617,-1.655578,-2.89154,3.768921
-0.304932,-0.943115,0.053223,-2.487183,-2.342224,3.372192
-0.319092,-0.945557,0.045166,-3.135681,-2.593994,3.349304
-0.329346,-0.946045,0.044434,-4.066467,-3.936767,3.532409
-0.329834,-0.952393,0.04248,-4.875183,-5.577087,3.677368
-0.330566,-0.953857,0.040039,-5.462646,-6.92749,3.761291
-0.337402,-0.952393,0.039795,-5.935668,-8.171082,3.746032
-0.342529,-0.948486,0.037354,-6.393432,-9.437561,3.990173
-0.349121,-0.944824,0.03418,-7.202148,-10.803222,4.478455
-0.349609,-0.944824,0.034424,-7.652282,-12.153625,4.806519
-0.343506,-0.94873,0.042969,-8.041382,-12.924193,5.020141
-0.338867,-0.949219,0.051514,-8.132935,-13.420104,4.920959
-0.339111,-0.950684,0.057129,-8.033752,-13.923644,4.814148
-0.345215,-0.954346,0.063232,-8.010864,-15.205382,4.577637
-0.3396,-0.961426,0.06543,-8.049011,-16.792297,4.272461
-0.330078,-0.967041,0.067871,-7.80487,-17.158508,3.921509
-0.323242,-0.967285,0.069336,-7.080078,-16.494751,3.631592
-0.320068,-0.970703,0.070313,-6.317138,-15.663146,3.326416
-0.320557,-0.976318,0.067383,-5.615234,-15.151977,2.983093
-0.31958,-0.977051,0.069336,-4.974365,-14.35852,2.822876
-0.319336,-0.97876,0.069336,-4.165649,-13.824462,2.868652
-0.318115,-0.973633,0.070801,-3.433227,-13.290404,2.754211
-0.316406,-0.974854,0.065674,-2.815246,-12.115478,3.128052
-0.31665,-0.973877,0.058594,-2.403259,-10.742187,3.387451
-0.318604,-0.972656,0.052979,-2.02179,-9.521484,3.921509
-0.323242,-0.969971,0.049316,-1.716614,-9.124756,4.852295
-0.321533,-0.969727,0.048828,-1.625061,-9.33075,5.516052
-0.321533,-0.971924,0.041504,-1.464844,-9.681702,6.111145
-0.319824,-0.969727,0.044434,-1.319885,-9.872437,6.660461
-0.31665,-0.969482,0.037842,-1.335144,-9.803772,6.851196
-0.315186,-0.970215,0.037598,-1.045227,-9.056091,6.813049
-0.317139,-0.971924,0.031738,-0.999451,-8.140564,6.721496
-0.316162,-0.969727,0.030762,-1.029968,-7.347106,6.256103
-0.318604,-0.968018,0.032227,-1.014709,-6.538391,5.844116
-0.317383,-0.967529,0.031982,-0.862122,-5.737304,5.104064
-0.316895,-0.96875,0.033936,-1.022339,-5.111694,4.684448
-0.316406,-0.968994,0.037598,-1.167297,-5.0354,3.997802
-0.305176,-0.970703,0.045898,-1.228333,-5.073547,3.265381
-0.30249,-0.975586,0.046631,-1.411438,-4.882813,2.861023
-0.307129,-0.972412,0.052002,-1.457214,-4.585266,2.548218
-0.30249,-0.975586,0.055664,-1.76239,-4.852295,2.326965
-0.297119,-0.980957,0.057373,-1.808166,-5.226135,1.907349
-0.299316,-0.980713,0.0625,-1.747131,-5.233764,1.396179
-0.299316,-0.978027,0.0625,-1.304626,-4.631042,1.121521
-0.293213,-0.975098,0.064697,-0.709534,-3.517151,0.480652
-0.291748,-0.973389,0.070801,0.221252,-1.091003,-0.022888
-0.301514,-0.9729,0.069092,1.00708,2.044678,-0.022888
-0.311523,-0.971436,0.066162,1.38855,4.753113,0.228882
-0.320557,-0.96875,0.060791,1.594543,6.500244,0.358582
-0.329346,-0.96167,0.054932,1.914978,7.286071,0.648498
-0.338379,-0.957764,0.050293,1.991272,7.263183,0.938415
-0.343262,-0.955322,0.046143,1.968384,6.744384,1.029968
-0.343506,-0.953125,0.045166,2.082825,6.195068,1.403808
-0.342529,-0.950439,0.044434,2.098083,5.966186,1.716614
-0.346924,-0.946045,0.039795,2.052307,6.29425,1.960754
-0.3479,-0.940674,0.041748,1.937866,6.759643,2.288818
-0.351807,-0.938477,0.043457,2.02179,7.30133,2.494812
-0.351318,-0.938965,0.044434,1.937866,7.965087,2.563476
-0.352783,-0.941406,0.043945,1.869202,8.460999,2.746582
-0.357666,-0.939453,0.042969,1.945495,8.583069,3.082275
-0.358887,-0.941895,0.041992,1.815796,8.140564,3.501892
-0.354492,-0.947754,0.040771,1.403808,7.324218,3.990173
-0.35083,-0.950928,0.039795,1.197815,6.652832,4.516602
-0.349121,-0.954102,0.038818,0.88501,6.195068,4.989624
-0.347168,-0.958984,0.03833,0.648498,5.79071,5.393981
-0.345947,-0.960205,0.03833,0.488281,5.371093,5.569458
-0.350342,-0.955566,0.031738,0.343323,4.959106,5.599975
-0.350586,-0.951172,0.03833,0.030518,4.486084,5.722045
-0.331787,-0.95459,0.039307,-0.137329,4.493713,5.66864
-0.331543,-0.953857,0.033447,0.076294,5.256652,4.623413
-0.335938,-0.947754,0.029541,0.183105,6.088256,4.638672
-0.338135,-0.949463,0.027344,-0.083923,5.859375,4.142761
-0.330078,-0.947754,0.031738,-0.602722,5.859375,3.379822
-0.324707,-0.944092,0.036377,-0.907898,6.393432,2.868652
-0.324707,-0.944824,0.032715,-1.13678,7.759094,2.105713
-0.333496,-0.946777,0.031006,-1.091003,9.506226,1.190186
-0.342529,-0.947266,0.030029,-1.396179,10.44464,0.160217
-0.348389,-0.945313,0.03418,-1.609802,10.665893,-0.663757
-0.354248,-0.944336,0.037109,-1.625061,10.620116,-1.274109
-0.359375,-0.945801,0.036621,-1.739502,10.253905,-1.770019
-0.364502,-0.947754,0.033203,-1.678467,10.009766,-2.120972
-0.36792,-0.948486,0.032471,-1.564026,9.742737,-2.357483
-0.375732,-0.948242,0.029785,-1.708984,9.475708,-2.426147
-0.381104,-0.947998,0.030762,-1.747131,8.705139,-2.357483
-0.379639,-0.950928,0.030518,-1.991272,7.637023,-2.113342
-0.38208,-0.952393,0.030273,-2.14386,6.774902,-2.01416
-0.387451,-0.956787,0.029785,-2.128601,5.630493,-1.88446
-0.386719,-0.95874,0.028076,-2.365112,4.272461,-1.853943
-0.383789,-0.963623,0.030762,-2.563476,3.349304,-1.617432
-0.381836,-0.963135,0.031494,-2.609253,2.853393,-1.63269
-0.380859,-0.961426,0.034912,-2.494812,2.540588,-1.76239
-0.380615,-0.962646,0.038818,-2.532959,2.059937,-1.502991
-0.383301,-0.959473,0.042236,-2.456665,1.304626,-1.335144
-0.384277,-0.959229,0.046143,-2.14386,0.320435,-1.167297
-0.384277,-0.963379,0.04834,-1.777649,-1.052856,-0.88501
-0.381836,-0.965332,0.050049,-1.174927,-2.494812,-0.602722
-0.377686,-0.970703,0.04834,-0.350952,-3.761291,-0.495911
-0.371582,-0.978027,0.046387,0.75531,-4.394531,-0.37384
-0.369873,-0.980469,0.047363,1.937866,-4.318237,-0.274658
-0.367432,-0.979248,0.044922,3.036499,-3.631592,-0.25177
-0.362549,-0.976807,0.045654,4.074097,-2.578735,-0.068665
-0.362549,-0.975342,0.043701,5.226135,-1.327515,0.061035
-0.355225,-0.970703,0.036865,6.278991,0.015259,0.167847
-0.349365,-0.964111,0.032227,7.156372,1.861572,0.564575
-0.345459,-0.958252,0.02417,7.865905,3.982544,0.991821
-0.344727,-0.955322,0.020752,8.277893,5.760192,1.502991
-0.354492,-0.955811,0.019043,8.079529,7.263183,1.808166
-0.356689,-0.954102,0.023926,7.690429,8.155823,2.548218
-0.358643,-0.954834,0.027832,7.743835,8.644104,2.838135
-0.369873,-0.956299,0.030518,7.728576,8.293152,2.426147
-0.371338,-0.949219,0.0271,7.209777,7.202148,2.212524
-0.368164,-0.950439,0.025635,6.736755,5.744934,1.63269
-0.366211,-0.95166,0.031738,6.29425,4.241943,0.923157
-0.364258,-0.951416,0.033936,5.973815,3.089905,0.312805
-0.360352,-0.953125,0.032227,5.607605,2.677917,-0.289917
-0.362061,-0.953857,0.039063,5.226135,2.662658,-0.679016
-0.36499,-0.950684,0.041016,5.096435,2.464294,-1.037598
-0.367188,-0.951172,0.043457,4.79126,1.777649,-1.251221
-0.367676,-0.948975,0.044678,4.653931,0.968933,-1.38092
-0.371582,-0.950684,0.043701,4.03595,0.312805,-1.342773
-0.372559,-0.946533,0.046387,3.768921,-0.572205,-1.205444
-0.372559,-0.946777,0.044189,3.456115,-1.419067,-1.022339
-0.373535,-0.94458,0.039795,3.280639,-2.13623,-0.839233
-0.375244,-0.944092,0.039795,2.861023,-2.998352,-0.617981
-0.375488,-0.944336,0.038574,2.799988,-3.784179,-0.442505
-0.375732,-0.943359,0.037354,2.670288,-4.501343,-0.213623
-0.374268,-0.945313,0.03833,2.632141,-5.142211,0.0
-0.372803,-0.944336,0.038574,2.655029,-5.271911,0.167847
-0.371582,-0.942871,0.037598,2.685547,-5.149841,0.442505
-0.368164,-0.943359,0.036133,2.799988,-4.676819,0.686645
-0.368896,-0.944824,0.032715,2.952575,-4.104614,0.785828
-0.366699,-0.943115,0.034668,3.097534,-3.204345,0.991821
-0.367188,-0.944092,0.03125,3.15094,-2.372742,1.235962
-0.368652,-0.943115,0.029785,2.944946,-1.922607,1.335144
-0.366211,-0.940186,0.031982,2.716064,-1.655578,1.457214
-0.367188,-0.940674,0.0354,2.319336,-1.556396,1.533508
-0.364258,-0.941406,0.037109,2.105713,-1.983642,1.663208
-0.363037,-0.941406,0.036133,1.731872,-2.319336,1.655578
-0.360596,-0.939453,0.037354,1.319885,-2.685547,1.358032
-0.35791,-0.936768,0.040527,1.022339,-3.082275,1.243591
-0.357178,-0.936768,0.040527,0.663757,-3.39508,1.060486
-0.356201,-0.936279,0.043945,0.099182,-3.738403,0.671387
-0.354492,-0.934814,0.048096,-0.343323,-4.295349,0.396728
-0.356201,-0.934814,0.050293,-0.831604,-4.875183,0.068665
-0.355713,-0.934326,0.04834,-1.190186,-5.332946,-0.221252
-0.354736,-0.937012,0.050293,-1.838684,-5.500793,-0.541687
-0.353516,-0.941162,0.05127,-2.250671,-5.752563,-0.686645
-0.353027,-0.943604,0.05127,-2.593994,-5.683898,-0.831604
-0.354736,-0.945557,0.050049,-3.044128,-5.836486,-1.00708
-0.35498,-0.946533,0.045654,-3.387451,-6.019592,-1.152039
-0.35498,-0.947754,0.045166,-3.662109,-6.04248,-1.220703
-0.358398,-0.947998,0.043945,-3.883362,-5.851745,-1.197815
-0.361328,-0.94873,0.043213,-4.127502,-5.569458,-1.190186
-0.363037,-0.949707,0.043457,-4.371643,-5.714416,-1.174927
-0.365234,-0.950439,0.043945,-4.379272,-5.950927,-1.205444
-0.364746,-0.953613,0.039795,-4.40979,-6.233215,-1.220703
-0.362061,-0.954834,0.036133,-4.440308,-6.652832,-1.205444
-0.362793,-0.953125,0.041504,-4.470825,-6.866455,-1.159668
-0.36084,-0.954102,0.043213,-4.592896,-6.683349,-1.190186
-0.361328,-0.947021,0.041748,-4.760742,-6.599426,-1.197815
-0.358154,-0.942627,0.044189,-4.79126,-6.484985,-1.029968
-0.357422,-0.946045,0.043945,-4.508972,-6.378173,-1.060486
-0.356445,-0.949463,0.040283,-4.501343,-5.958557,-1.12915
-0.357422,-0.954834,0.036865,-4.28772,-5.477905,-1.220703
-0.360596,-0.960693,0.039795,-4.013062,-4.959106,-1.426697
-0.362305,-0.96582,0.036865,-3.982544,-4.234314,-1.518249
-0.359863,-0.964111,0.036133,-4.013062,-4.608154,-1.838684
-0.359863,-0.961914,0.037354,-3.959656,-4.760742,-2.174377
-0.364014,-0.962158,0.040039,-3.868103,-4.714966,-2.319336
-0.36499,-0.960205,0.041016,-3.631592,-5.264282,-2.532959
-0.358154,-0.957764,0.04126,-3.39508,-5.92041,-2.593994
-0.350586,-0.955078,0.043945,-3.211975,-5.767822,-2.632141
-0.351807,-0.950195,0.046387,-2.967834,-5.050659,-2.456665
-0.35376,-0.950684,0.047363,-2.960205,-4.264832,-2.13623
-0.356201,-0.950928,0.050049,-2.830505,-3.77655,-1.88446
-0.359131,-0.950439,0.049805,-2.563476,-3.64685,-1.739502
-0.361572,-0.95166,0.049561,-2.319336,-3.692627,-1.777649
-0.362549,-0.954346,0.049805,-2.037048,-3.77655,-1.792908
-0.362305,-0.955566,0.046875,-1.739502,-3.753662,-1.876831
-0.362793,-0.958008,0.042236,-1.335144,-3.471374,-2.006531
-0.361816,-0.961914,0.036865,-0.900268,-2.845764,-2.075195
-0.362061,-0.959717,0.034912,-0.38147,-2.13623,-2.067566
-0.362061,-0.959229,0.034424,-0.030518,-1.296997,-2.059937
-0.366211,-0.956543,0.036865,0.25177,-0.282288,-2.105713
-0.368896,-0.952637,0.038574,0.389099,0.717163,-1.724243
-0.369629,-0.95459,0.038574,0.549316,0.747681,-1.38855
-0.366943,-0.952393,0.037842,0.62561,0.75531,-1.12915
-0.370605,-0.948486,0.040771,0.930786,0.808716,-0.671387
-0.374756,-0.948242,0.043213,0.984192,0.549316,-0.183105
-0.375244,-0.944824,0.043213,0.839233,-0.289917,0.030518
-0.37207,-0.942871,0.044678,0.785828,-1.312256,0.328064
-0.370605,-0.94458,0.047119,0.816345,-2.204895,0.541687
-0.36792,-0.944336,0.044678,0.87738,-2.433777,0.663757
-0.368408,-0.944824,0.042725,0.747681,-2.784729,0.617981
-0.368896,-0.94873,0.041748,0.75531,-3.631592,0.541687
-0.365723,-0.951172,0.038818,0.854492,-4.043579,0.305176
-0.36499,-0.951172,0.036865,0.862122,-4.066467,0.045776
-0.363037,-0.95166,0.032715,0.854492,-3.822326,-0.144958
-0.360107,-0.949463,0.032715,1.075745,-3.52478,-0.282288
-0.361572,-0.949707,0.031982,1.083374,-2.990722,-0.274658
-0.364746,-0.94873,0.033691,1.045227,-2.63977,-0.259399
-0.361816,-0.949707,0.033203,0.999451,-2.304077,-0.167847
-0.36377,-0.948975,0.035156,0.869751,-2.044678,-0.015259
-0.36499,-0.947266,0.035156,0.968933,-1.953125,0.175476
-0.364258,-0.944824,0.035645,0.892639,-1.922607,0.328064
-0.364014,-0.940186,0.038574,0.778198,-1.899719,0.534058
-0.361328,-0.936523,0.042725,0.839233,-1.785278,0.671387
-0.35791,-0.931396,0.041016,0.640869,-1.663208,0.991821
-0.355957,-0.929443,0.041016,0.442505,-1.625061,1.251221
-0.359619,-0.932129,0.040039,0.099182,-1.335144,1.571655
-0.359131,-0.933838,0.040527,-0.137329,-1.174927,2.067566
-0.360596,-0.94043,0.039551,0.068665,-1.068115,2.197266
-0.362549,-0.945313,0.035889,0.526428,-1.014709,2.029419
-0.361572,-0.952393,0.033691,1.281738,-0.930786,1.76239
-0.36084,-0.962646,0.028809,2.288818,-0.312805,1.296997
-0.364014,-0.9729,0.026855,3.257751,0.762939,0.663757
-0.364014,-0.97998,0.022461,4.203796,2.151489,0.213623
-0.36499,-0.983643,0.023193,4.890442,3.448486,-0.061035
-0.364502,-0.983887,0.028076,5.584716,5.065917,-0.068665
-0.364258,-0.983154,0.031738,6.385803,6.896972,-0.106812
-0.362549,-0.981201,0.037598,7.164001,8.422852,0.007629
-0.363037,-0.976074,0.042725,8.178711,9.635925,0.061035
-0.358887,-0.973145,0.04248,9.178162,10.627746,0.183105
-0.355225,-0.96875,0.043945,9.971619,11.810302,0.350952
-0.35083,-0.963867,0.047607,10.658263,13.298034,0.617981
-0.347656,-0.955811,0.051025,11.169433,15.121459,0.907898
-0.348145,-0.947021,0.052734,11.550902,16.952515,1.167297
-0.354248,-0.941895,0.053955,11.726378,18.211365,1.403808
-0.359375,-0.943359,0.052246,11.558532,18.928528,1.579285
-0.36377,-0.942383,0.048584,11.032104,18.943787,1.64032
-0.372803,-0.940186,0.044678,10.459899,18.440247,1.602173
-0.378662,-0.937744,0.039795,9.689331,17.150879,1.480102
-0.380127,-0.931641,0.039307,8.865356,15.449523,1.38092
-0.38208,-0.930908,0.038818,8.071899,13.47351,1.197815
-0.384033,-0.935059,0.039063,7.324218,11.909484,0.808716
-0.382568,-0.938721,0.038818,6.851196,10.856627,0.495911
-0.38208,-0.938721,0.036133,6.454467,9.300232,0.007629
-0.381104,-0.940674,0.037842,6.179809,8.522034,-0.671387
-0.386719,-0.945801,0.039307,5.928039,7.797241,-0.823975
-0.39209,-0.946045,0.037598,5.546569,6.774902,-0.984192
-0.390381,-0.94751,0.041504,5.15747,5.53894,-1.220703
-0.388428,-0.945801,0.046387,4.943848,4.447937,-1.434326
-0.391113,-0.945801,0.049072,4.669189,3.501892,-1.228333
-0.391357,-0.946533,0.051514,4.318237,2.334595,-1.083374
-0.388916,-0.945068,0.055908,4.005432,0.900268,-0.923157
-0.388428,-0.947754,0.056396,3.913879,-0.564575,-0.648498
-0.382324,-0.943848,0.057861,3.677368,-1.846313,-0.396728
-0.376221,-0.943359,0.057617,3.410339,-2.89154,-0.160217
-0.369873,-0.94043,0.059082,3.051758,-3.562927,0.114441
-0.365479,-0.937256,0.063965,2.746582,-3.913879,0.305176
-0.364502,-0.936279,0.059326,2.601623,-3.883362,0.38147
-0.359863,-0.9375,0.059814,2.403259,-3.509521,0.534058
-0.356934,-0.937988,0.059082,2.250671,-2.983093,0.526428
-0.357178,-0.936768,0.054688,2.113342,-2.250671,0.434875
-0.357422,-0.942627,0.050781,1.76239,-1.358032,0.427246
-0.360596,-0.946045,0.049316,1.38855,-0.518799,0.289917
-0.366943,-0.944336,0.049072,1.251221,0.099182,0.045776
-0.37085,-0.943359,0.049316,1.457214,0.228882,-0.228882
-0.369873,-0.946289,0.053955,1.556396,-0.045776,-0.686645
-0.369873,-0.950439,0.054443,1.464844,-0.038147,-0.778198
-0.371094,-0.949707,0.055176,1.571655,0.099182,-0.938415
-0.372559,-0.952393,0.055664,1.739502,0.190735,-1.014709
-0.373535,-0.955566,0.056641,1.800537,0.259399,-0.961304
-0.376953,-0.952881,0.060059,1.853943,0.25177,-0.930786
-0.378174,-0.950684,0.063477,1.960754,0.091553,-0.694275
-0.377686,-0.946045,0.06665,1.724243,-0.137329,-0.595093
-0.377686,-0.942627,0.065674,1.586914,-0.801086,-0.183105
-0.377441,-0.942139,0.064209,1.487732,-1.480102,0.137329
-0.375977,-0.940674,0.062744,1.121521,-2.189636,0.366211
-0.375732,-0.936523,0.05957,0.923157,-2.693176,0.686645
-0.373291,-0.936768,0.056641,0.778198,-3.39508,0.953674
-0.369629,-0.936523,0.054688,0.480652,-3.997802,1.121521
-0.368408,-0.935303,0.053223,0.144958,-4.53949,1.029968
-0.36792,-0.938477,0.052979,0.038147,-4.875183,0.846863
-0.36499,-0.943604,0.05249,0.0,-4.798889,0.640869
-0.366943,-0.946533,0.05249,-0.076294,-4.486084,0.38147
-0.365967,-0.95166,0.050049,-0.061035,-4.165649,0.091553
-0.365967,-0.954834,0.052246,-0.068665,-4.173279,-0.259399
-0.366943,-0.955078,0.054932,0.091553,-4.058838,-0.518799
-0.365967,-0.957275,0.054932,0.289917,-3.715515,-0.686645
-0.364502,-0.956299,0.055176,0.427246,-3.257751,-0.694275
-0.366211,-0.955322,0.055176,0.602722,-2.922058,-0.602722
-0.367432,-0.951904,0.057617,0.663757,-2.868652,-0.411987
-0.364746,-0.950928,0.058838,0.75531,-3.044128,-0.228882
-0.365234,-0.949951,0.060059,0.762939,-3.14331,-0.099182
-0.364746,-0.948486,0.061523,0.839233,-3.372192,-0.038147
-0.364502,-0.948242,0.058594,0.892639,-3.410339,-0.061035
-0.361084,-0.94873,0.057617,1.029968,-3.463745,-0.297546
-0.357666,-0.948486,0.056152,0.991821,-3.227234,-0.564575
-0.359375,-0.946289,0.05542,0.999451,-2.876281,-0.823975
-0.360107,-0.944092,0.05542,0.938415,-2.426147,-0.976562
-0.361328,-0.943115,0.05835,0.831604,-2.090454,-0.953674
-0.359131,-0.943115,0.055176,0.610352,-1.518249,-0.900268
-0.358398,-0.946777,0.053223,0.717163,-0.679016,-0.816345
-0.358154,-0.950684,0.052246,0.778198,0.160217,-0.717163
-0.361328,-0.954346,0.050537,0.663757,1.213074,-0.770569
-0.365479,-0.955811,0.052246,0.701904,2.220154,-0.846863
-0.368408,-0.951172,0.054199,0.854492,2.754211,-0.907898
-0.369873,-0.949707,0.056396,0.87738,2.89154,-0.862122
-0.370361,-0.947754,0.057373,0.846863,3.028869,-0.946045
-0.369141,-0.944824,0.056396,0.991821,3.013611,-0.930786
-0.367432,-0.945313,0.058594,1.205444,2.983093,-0.961304
-0.367188,-0.947266,0.058594,1.464844,3.486633,-0.862122
-0.367676,-0.946533,0.060547,1.502991,4.104614,-0.778198
-0.370361,-0.945313,0.061768,1.533508,4.592896,-0.663757
-0.371338,-0.94458,0.064697,1.724243,4.745483,-0.579834
-0.374512,-0.94458,0.064697,1.861572,4.699707,-0.564575
-0.374023,-0.946045,0.06665,1.88446,4.417419,-0.549316
-0.375977,-0.94458,0.068359,1.800537,4.013062,-0.526428
-0.375244,-0.945557,0.066895,1.831055,3.723144,-0.556946
-0.376465,-0.945801,0.06543,1.930237,3.570556,-0.564575
-0.380371,-0.945557,0.063232,1.976013,3.40271,-0.587463
-0.38208,-0.944824,0.063232,2.128601,3.051758,-0.549316
-0.379395,-0.944336,0.062256,2.02179,2.571106,-0.350952
-0.381104,-0.944092,0.061279,2.067566,2.113342,-0.160217
-0.381348,-0.942871,0.059326,2.067566,1.686096,-0.030518
-0.378418,-0.945313,0.060791,2.044678,1.312256,0.190735
-0.376953,-0.947021,0.060303,2.090454,0.923157,0.320435
-0.373535,-0.946045,0.05835,2.01416,0.679016,0.473022
-0.374512,-0.94751,0.058838,1.968384,0.648498,0.50354
-0.373291,-0.946289,0.058838,1.960754,0.663757,0.434875
-0.373535,-0.945557,0.058594,1.968384,0.511169,0.305176
-0.373047,-0.943359,0.058105,1.922607,0.350952,0.183105
-0.370361,-0.943848,0.060303,1.846313,0.061035,0.205994
-0.366943,-0.944336,0.059082,1.739502,-0.144958,0.175476
-0.366699,-0.943115,0.061035,1.747131,-0.091553,0.015259
-0.365234,-0.945801,0.05835,1.571655,0.183105,-0.152588
-0.362549,-0.941406,0.058838,1.403808,0.617981,-0.205994
-0.364746,-0.941162,0.058838,1.319885,1.106262,-0.114441
-0.369629,-0.942383,0.058838,0.900268,1.373291,-0.190735
-0.369629,-0.940918,0.056396,0.656128,1.335144,-0.228882
-0.372803,-0.945801,0.053467,0.579834,1.342773,-0.320435
-0.375977,-0.946777,0.058594,0.389099,1.075745,-0.457764
-0.377197,-0.947266,0.062256,0.213623,0.88501,-0.572205
-0.378906,-0.946777,0.061035,0.099182,0.450134,-0.770569
-0.380371,-0.949707,0.05957,0.190735,0.030518,-0.907898
-0.384277,-0.950195,0.0625,0.221252,-0.656128,-1.167297
-0.385742,-0.952148,0.063721,0.144958,-1.434326,-1.174927
-0.384277,-0.952637,0.068115,0.328064,-2.281189,-1.266479
-0.383057,-0.950439,0.067627,0.694275,-2.922058,-1.251221
-0.38208,-0.946777,0.068115,1.014709,-3.097534,-1.350403
-0.380371,-0.94458,0.068848,1.312256,-2.998352,-1.296997
-0.379395,-0.941162,0.067627,1.548767,-2.960205,-1.228333
-0.378906,-0.939209,0.067627,1.564026,-2.937317,-1.083374
-0.379639,-0.940186,0.065918,1.586914,-2.944946,-0.846863
-0.379639,-0.938965,0.065918,1.564026,-3.059387,-0.549316
-0.379883,-0.942139,0.065186,1.495361,-3.234863,-0.480652
-0.380615,-0.941406,0.065918,1.449585,-3.295898,-0.320435
-0.379395,-0.938965,0.061523,1.289368,-3.456115,-0.198364
-0.378662,-0.941406,0.061279,1.052856,-3.677368,-0.152588
-0.378418,-0.94165,0.060059,1.098633,-3.768921,-0.221252
-0.378906,-0.942139,0.058838,1.022339,-3.768921,-0.190735
-0.375977,-0.943604,0.05835,0.915527,-3.860473,-0.236511
-0.373535,-0.94458,0.061279,0.808716,-4.096985,-0.282288
-0.37085,-0.942871,0.063965,0.686645,-4.112244,-0.50354
-0.371826,-0.944092,0.064209,0.740051,-3.997802,-0.686645
-0.374023,-0.945801,0.068115,0.602722,-3.967285,-0.816345
-0.373535,-0.943359,0.073975,0.518799,-4.180908,-1.060486
-0.374268,-0.942627,0.073486,0.457764,-4.364014,-1.022339
-0.372314,-0.943359,0.069092,0.37384,-4.608154,-0.999451
-0.371338,-0.949707,0.065186,0.335693,-4.928589,-1.144409
-0.372314,-0.95459,0.064209,0.488281,-4.821777,-1.083374
-0.372559,-0.954346,0.063721,0.63324,-4.707336,-1.113892
-0.374268,-0.953369,0.067139,0.747681,-4.737854,-1.197815
-0.373047,-0.950195,0.068604,0.75531,-4.928589,-1.228333
-0.373047,-0.947021,0.069824,0.610352,-5.218505,-1.220703
-0.371582,-0.945801,0.06665,0.457764,-5.683898,-1.167297
-0.368896,-0.946045,0.065186,0.335693,-6.217956,-1.052856
-0.365967,-0.945068,0.064697,0.297546,-6.332397,-0.953674
-0.363037,-0.944336,0.062744,0.198364,-5.798339,-0.75531
-0.36084,-0.943604,0.060791,0.312805,-5.271911,-0.679016
-0.358154,-0.943604,0.058838,0.221252,-4.341125,-0.648498
-0.359863,-0.945068,0.059082,0.289917,-3.372192,-0.579834
-0.361572,-0.943604,0.062012,0.328064,-2.746582,-0.602722
-0.364014,-0.94458,0.063721,0.12207,-2.342224,-0.511169
-0.363525,-0.942871,0.063721,-0.007629,-2.128601,-0.427246
-0.36084,-0.944336,0.063477,0.053406,-1.846313,-0.495911
-0.36084,-0.94751,0.064697,0.1297,-1.403808,-0.518799
-0.360596,-0.95459,0.060791,0.282288,-0.87738,-0.816345
-0.36084,-0.955078,0.05957,0.495911,-0.114441,-1.091003
-0.365234,-0.955566,0.060059,0.38147,0.740051,-1.152039
-0.369385,-0.953369,0.061035,0.320435,1.106262,-1.449585
-0.373291,-0.951904,0.060791,0.167847,0.762939,-1.739502
-0.375488,-0.952148,0.060059,0.1297,-0.25177,-1.907349
-0.373535,-0.950928,0.060059,0.221252,-1.625061,-2.212524
-0.368652,-0.94458,0.05835,0.205994,-2.784729,-2.372742
-0.364502,-0.944092,0.05957,-0.053406,-3.456115,-2.502441
-0.363037,-0.943359,0.058105,-0.320435,-3.814697,-2.426147
-0.364502,-0.938965,0.055908,-0.602722,-3.715515,-2.334595
-0.361816,-0.9375,0.055176,-0.694275,-3.341675,-2.388
-0.365967,-0.932129,0.052734,-0.900268,-3.02124,-2.449036
-0.370361,-0.932617,0.047852,-1.091003,-3.059387,-2.426147
-0.373047,-0.938965,0.044922,-1.037598,-3.326416,-2.456665
-0.373779,-0.945313,0.03833,-0.671387,-3.372192,-2.601623
-0.376221,-0.949951,0.035889,-0.404358,-3.39508,-2.876281
-0.379395,-0.956543,0.033203,-0.12207,-3.471374,-3.120422
-0.383789,-0.95874,0.035645,0.549316,-3.509521,-3.501892
-0.385986,-0.961182,0.035156,1.281738,-3.631592,-4.02832
-0.387695,-0.959717,0.030029,1.785278,-3.669739,-4.318237
-0.381592,-0.957764,0.027832,2.189636,-3.723144,-4.272461
-0.379395,-0.956299,0.030273,2.830505,-3.044128,-4.356384
-0.377686,-0.952148,0.03418,3.204345,-1.922607,-4.219055
-0.378906,-0.947998,0.032959,3.791809,-0.778198,-3.952026
-0.380859,-0.945068,0.035156,4.188538,-0.160217,-3.890991
-0.382813,-0.939941,0.037354,4.66156,-0.076294,-3.746032
-0.380859,-0.943848,0.039307,5.004883,0.144958,-3.684997
-0.380127,-0.943115,0.042725,5.523681,0.511169,-3.768921
-0.381836,-0.942383,0.044678,6.004333,1.060486,-3.997802
-0.386475,-0.946777,0.043213,6.614685,1.556396,-4.386902
-0.388916,-0.94873,0.044189,7.339477,2.059937,-4.79126
-0.388184,-0.952148,0.040527,7.904052,2.662658,-5.172729
-0.392334,-0.955322,0.0354,8.323669,3.578186,-5.470275
-0.39624,-0.960938,0.03833,8.666992,4.570007,-5.722045
-0.395508,-0.961426,0.045654,8.850098,5.546569,-6.088256
-0.387451,-0.958252,0.060059,9.399414,7.392883,-6.16455
-0.38623,-0.960938,0.066162,10.475158,9.544373,-6.378173
-0.380615,-0.95166,0.071045,11.573791,13.09204,-6.729125
-0.372803,-0.951416,0.074707,12.931823,18.829346,-6.248474
-0.37793,-0.955078,0.073975,14.396667,25.382994,-6.286621
-0.387207,-0.949707,0.07373,15.86914,30.647276,-6.057739
-0.401855,-0.944824,0.081543,16.822815,33.988953,-5.569458
-0.403076,-0.941162,0.098145,17.189026,35.736084,-4.676819
-0.397217,-0.94043,0.111328,18.188477,36.964417,-3.463745
-0.394775,-0.931885,0.121582,19.355774,38.131714,-2.571106
-0.39917,-0.926758,0.131104,20.484922,38.81073,-1.647949
-0.393555,-0.929688,0.134766,21.995543,39.268494,-0.823975
-0.388916,-0.941895,0.143066,23.605345,40.481564,-0.480652
-0.400879,-0.956055,0.156982,25.512693,41.778561,-0.488281
-0.408447,-0.968018,0.179443,27.534483,42.381283,-0.282288
-0.415527,-0.975098,0.19873,29.876707,42.266842,0.076294
-0.411133,-0.978516,0.212402,32.562256,42.16766,0.480652
-0.41333,-0.976807,0.218018,35.461426,42.190548,0.984192
-0.42334,-0.971436,0.218994,38.68103,42.610165,1.739502
-0.43042,-0.962891,0.204346,41.267391,42.388912,3.639221
-0.420654,-0.95166,0.199707,42.991634,41.839596,6.713867
-0.407471,-0.94043,0.216064,45.021053,42.625423,9.95636
-0.404053,-0.926514,0.239258,47.309872,45.364376,14.801024
-0.405518,-0.90625,0.248535,49.98016,49.034115,21.873472
-0.406982,-0.879395,0.246338,52.055355,52.902218,29.571531
-0.429443,-0.860352,0.237793,53.726192,57.121273,38.108826
-0.469238,-0.871094,0.22583,54.26025,60.539242,47.767635
-0.505859,-0.901367,0.227295,53.25317,61.653133,58.135983
-0.529541,-0.951904,0.240967,51.536556,60.508724,67.886353
-0.552979,-1.000244,0.254883,50.216671,57.655331,76.133728
-0.584717,-1.031982,0.267822,49.484249,52.810665,82.748405
-0.623291,-1.040771,0.273682,48.820492,45.448299,88.027946
-0.661377,-1.04126,0.276367,47.966,35.758972,91.842644
-0.691162,-1.037109,0.282227,47.058102,24.505613,94.169609
-0.717285,-1.020508,0.29126,46.142574,12.359618,95.489494
-0.753906,-1.00293,0.305664,45.700069,0.091553,96.687309
-0.759766,-0.980225,0.321289,44.952389,-13.21411,98.411552
-0.736328,-0.949707,0.330078,44.456478,-25.497435,99.670403
-0.73877,-0.925537,0.333984,46.06628,-36.308289,100.593559
-0.765869,-0.889404,0.342529,48.286434,-49.591061,102.386467
-0.765137,-0.83667,0.355469,48.828121,-65.307617,105.148308
-0.746338,-0.800293,0.366943,48.759457,-78.041077,108.215324
-0.740723,-0.771973,0.378418,49.110409,-85.029594,111.648552
-0.738281,-0.734619,0.385498,49.804684,-87.974541,115.341179
-0.710205,-0.693848,0.392578,49.301144,-88.058464,118.537895
-0.691895,-0.668945,0.397705,49.22485,-85.807793,120.964043
-0.678467,-0.630371,0.408203,49.758907,-82.740776,122.627251
-0.672363,-0.598633,0.422607,50.407406,-80.368034,123.977654
-0.675049,-0.563965,0.45166,51.582333,-79.452515,125.984184
-0.689209,-0.53418,0.465088,52.856441,-78.50647,128.700256
-0.699463,-0.492676,0.471191,53.207394,-77.026367,132.278442
-0.705078,-0.458252,0.476563,52.978512,-73.730469,135.414124
-0.724121,-0.434814,0.474365,53.306576,-69.999695,138.397217
-0.749756,-0.416016,0.469238,53.436275,-69.259644,141.265869
-0.747559,-0.373535,0.473389,52.429195,-73.883057,143.875122
-0.686523,-0.337891,0.481445,48.736568,-78.948975,146.720886
-0.661377,-0.323486,0.493652,47.157284,-79.963684,148.864746
-0.659424,-0.295166,0.514893,47.500607,-78.475952,150.054932
-0.679688,-0.273682,0.539551,48.400875,-77.339172,150.802612
-0.695313,-0.252441,0.561035,48.72131,-76.843262,152.244568
-0.680176,-0.236572,0.573242,48.667904,-77.003479,154.174805
-0.677734,-0.213623,0.57959,49.797054,-76.812744,154.296875
-0.689941,-0.189697,0.578613,51.559444,-77.507019,154.792786
-0.698486,-0.159668,0.573975,52.429195,-80.26123,156.585693
-0.69165,-0.142578,0.574219,52.001949,-82.626335,158.531189
-0.675049,-0.137451,0.557373,52.284237,-81.840508,159.873962
-0.65332,-0.121338,0.544678,52.452084,-78.681946,161.033615
-0.652588,-0.112305,0.533203,52.719112,-73.959351,161.178574
-0.617432,-0.083252,0.52417,53.047176,-70.69397,161.582932
-0.585693,-0.055664,0.527344,51.185604,-67.710876,160.133362
-0.622559,-0.055908,0.5271,50.666805,-62.316891,157.775879
-0.655762,-0.045898,0.541016,50.590511,-58.395382,159.133911
-0.679932,-0.051514,0.563477,50.079342,-56.335445,160.644516
-0.66748,-0.029297,0.570801,50.704952,-54.428097,162.132248
-0.599365,0.00415,0.571777,49.118038,-48.316952,164.543137
-0.599365,0.006348,0.56958,48.614498,-35.110474,165.748581
-0.641846,0.031738,0.561768,48.988338,-21.003721,166.229233
-0.689453,0.067871,0.575195,44.93713,-13.641356,166.931137
-0.743896,0.078857,0.591309,39.44397,-12.268065,167.068466
-0.782471,0.084229,0.599854,36.392212,-15.266418,168.15184
-0.845947,0.087646,0.60791,34.736633,-21.39282,168.952927
-0.831543,0.101563,0.59082,33.973694,-27.328489,169.265732
-0.772705,0.105713,0.565918,33.576965,-28.411863,168.350204
-0.724854,0.124268,0.551758,35.400391,-20.683287,163.352951
-0.700439,0.147461,0.536865,36.178589,-8.979797,158.195496
-0.679932,0.165771,0.534668,36.2854,4.40979,153.388977
-0.772705,0.162598,0.550049,37.155151,14.808654,149.177551
-0.907471,0.181885,0.595215,37.689209,14.213561,148.338318
-0.880371,0.2229,0.658936,33.01239,2.571106,150.009155
-0.782471,0.212158,0.695557,28.57971,-6.072998,149.475098
-0.702148,0.204346,0.714355,28.259275,-5.905151,149.612427
-0.696045,0.219727,0.700195,27.755735,-0.282288,149.803162
-0.669922,0.269531,0.683838,26.077269,8.636475,150.375366
-0.665039,0.283447,0.654053,21.484373,19.378662,151.023865
-0.710693,0.278076,0.644775,20.027161,27.961729,147.666931
-0.749512,0.310791,0.646484,18.165588,30.776976,145.15686
-0.723145,0.345215,0.631592,14.518737,29.891966,144.53125
-0.709717,0.358154,0.611084,11.83319,29.319761,142.951965
-0.720215,0.364014,0.570557,9.902954,29.472349,141.319275
-0.780762,0.384033,0.526123,6.92749,27.854918,139.671326
-0.833252,0.411865,0.495361,3.005981,23.590086,137.557983
-0.875244,0.416016,0.482422,-0.686645,16.265869,134.864807
-0.888672,0.41333,0.488525,-4.272461,7.514953,130.92804
-0.872314,0.414063,0.498047,-7.720947,0.267029,128.746033
-0.853271,0.430908,0.499268,-10.44464,-1.182556,126.373283
-0.860107,0.44751,0.499268,-11.940001,3.913879,120.513908
-0.845703,0.441162,0.498291,-14.617919,12.825011,117.111198
-0.834717,0.427002,0.49292,-18.218994,24.147032,114.921562
-0.813721,0.448975,0.49292,-21.827696,34.973145,111.465446
-0.774658,0.445557,0.472656,-28.442381,42.930599,106.948845
-0.750488,0.443359,0.475586,-31.166075,51.925655,100.196831
-0.764893,0.432373,0.5354,-31.867979,60.409542,94.444267
-0.835693,0.456787,0.612061,-31.425474,67.977905,86.227409
-0.931152,0.473145,0.627441,-30.693052,77.377319,81.68792
-1.06958,0.480469,0.655029,-26.077269,75.393677,75.805664
-1.096924,0.512207,0.69458,-23.29254,50.674435,65.26947
-1.037354,0.544678,0.714111,-22.735594,17.486572,58.41827
-0.925293,0.561768,0.72998,-20.294188,-5.935668,54.489132
-0.841553,0.545166,0.746338,-17.50946,-17.303467,47.920223
-0.756592,0.546143,0.757324,-12.725829,-17.50946,37.307739
-0.673584,0.572266,0.759277,-9.45282,-9.437561,28.083799
-0.653809,0.584229,0.74707,-8.735657,2.746582,20.416258
-0.67334,0.589844,0.738281,-8.720398,15.815734,13.72528
-0.688721,0.599854,0.728516,-9.552002,28.694151,9.429932
-0.741455,0.614014,0.720703,-10.078429,41.023251,5.851745
-0.817627,0.63916,0.714355,-9.864807,48.126217,2.967834
-0.873535,0.663086,0.715088,-11.024474,46.19598,2.120972
-0.868652,0.68042,0.724854,-13.229369,38.124084,2.212524
-0.834229,0.683105,0.749756,-15.075683,32.333374,1.930237
-0.80542,0.678467,0.770996,-15.335082,33.798218,1.945495
-0.80957,0.700928,0.769287,-14.694213,39.978027,1.579285
-0.824707,0.719971,0.766357,-14.541625,44.448849,1.091003
-0.833008,0.727539,0.766357,-14.686584,45.104977,-0.022888
-0.831543,0.721924,0.767822,-14.686584,43.861385,-0.617981
-0.855469,0.707764,0.768555,-13.381957,41.519161,-0.617981
-0.888184,0.700439,0.753174,-10.44464,36.117554,-0.900268
-0.899658,0.700439,0.741455,-6.965637,26.710508,-0.961304
-0.883545,0.704834,0.724365,-3.860473,15.884398,-0.144958
-0.825195,0.699951,0.693359,-1.533508,7.324218,1.739502
-0.785156,0.694824,0.668945,0.923157,3.677368,2.326965
-0.752197,0.700928,0.652588,3.40271,3.936767,1.098633
-0.73999,0.694336,0.638184,5.569458,5.233764,-1.037598
-0.771729,0.686768,0.635254,8.209229,6.454467,-4.135132
-0.810547,0.68457,0.62207,10.292052,6.278991,-7.110595
-0.855469,0.665283,0.599609,12.367248,5.271911,-9.147644
-0.903564,0.64502,0.580322,15.838622,3.822326,-10.32257
-0.923584,0.641602,0.556152,18.890381,0.061035,-10.665893
-0.920898,0.638184,0.537109,21.224974,-6.469726,-11.016845
-0.913574,0.628418,0.522705,23.231504,-15.129088,-12.329101
-0.897949,0.622559,0.504883,24.314878,-24.566648,-13.732909
-0.873535,0.619629,0.501709,24.772642,-33.592224,-15.335082
-0.852783,0.604736,0.515869,25.131224,-40.893551,-18.684387
-0.817627,0.578369,0.525879,25.856016,-44.982906,-21.835325
-0.785645,0.563232,0.518555,27.236937,-46.218868,-24.696348
-0.744873,0.570557,0.509521,27.9541,-44.982906,-28.259275
-0.704346,0.572021,0.493896,26.153563,-40.336605,-33.050537
-0.67749,0.55127,0.471191,23.15521,-31.921385,-38.078308
-0.677734,0.52832,0.446045,21.064756,-22.666929,-42.633053
-0.678955,0.520752,0.426514,19.172668,-15.525817,-48.416134
-0.662842,0.511719,0.41333,16.700745,-11.314391,-54.89349
-0.630859,0.497559,0.393799,14.511107,-8.262634,-61.363216
-0.591553,0.485107,0.376953,12.489318,-4.356384,-68.42041
-0.601318,0.464111,0.362061,11.726378,-1.38092,-76.385498
-0.590332,0.456543,0.351318,10.292052,-3.677368,-83.57238
-0.515869,0.449219,0.329102,5.28717,-10.238647,-91.567986
-0.408447,0.418701,0.308594,-0.465393,-14.076232,-101.654045
-0.337891,0.379639,0.287842,-5.142211,-10.757445,-112.42675
-0.32666,0.343994,0.295654,-9.742737,-1.663208,-122.550957
-0.4729,0.287598,0.339355,-11.367797,7.476806,-132.614136
-0.635254,0.275146,0.360596,-11.886596,9.849548,-138.092041
-0.64917,0.299072,0.360107,-17.13562,4.104614,-140.99884
-0.560791,0.310791,0.346191,-22.766111,-1.655578,-150.497437
-0.477539,0.291504,0.322021,-25.009153,-3.967285,-162.330612
-0.455811,0.269043,0.300049,-27.908323,-5.1651,-173.385605
-0.41748,0.245605,0.309326,-33.64563,-7.949829,-182.983383
-0.39917,0.195557,0.319336,-41.236874,-8.384705,-191.139206
-0.468018,0.092041,0.357666,-46.630856,-1.289368,-196.678146
-0.601807,0.004395,0.416748,-47.981258,9.254456,-198.165878
-0.773438,-0.057129,0.523193,-47.424313,15.319823,-195.571884
-0.85083,-0.054932,0.609375,-47.409054,14.503478,-189.079269
-0.748535,-0.030273,0.655518,-50.315853,9.841919,-178.710922
-0.642334,0.001953,0.654297,-51.48315,8.872986,-172.142014
-0.612793,0.03418,0.610596,-51.902767,12.168883,-166.275009
-0.570068,0.088867,0.552002,-56.343075,15.686034,-159.156799
-0.513428,0.114502,0.498779,-65.177917,18.90564,-155.609131
-0.470947,0.113281,0.472412,-74.356079,24.116514,-156.959534
-0.512207,0.075684,0.515381,-81.237785,29.296873,-161.025986
-0.686768,0.00708,0.595215,-84.114067,31.448362,-165.245041
-0.831299,-0.039307,0.666748,-86.608879,25.230406,-162.277206
-0.841064,-0.041748,0.721924,-91.560356,9.986877,-156.005859
-0.789551,-0.02832,0.753662,-95.16906,-6.881713,-155.189514
-0.751221,-0.037598,0.749756,-96.519463,-20.164488,-155.830383
-0.737549,-0.07251,0.71582,-98.182671,-31.776426,-155.143738
-0.694336,-0.104736,0.680176,-101.699821,-41.15295,-154.769897
-0.648682,-0.171143,0.67041,-105.674736,-43.41888,-155.128479
-0.756104,-0.328857,0.735107,-100.95977,-39.978027,-157.554626
-0.935791,-0.466309,0.820557,-89.515678,-43.998714,-155.99823
-1.00293,-0.512207,0.853516,-83.95385,-59.982296,-143.257141
-0.960449,-0.485352,0.834229,-81.68792,-76.942444,-128.471375
-0.882568,-0.461914,0.791016,-78.24707,-84.892265,-119.323723
-0.807129,-0.452881,0.743896,-75.134277,-82.000725,-114.036552
-0.710205,-0.435059,0.699463,-74.485779,-69.953918,-109.870903
-0.59082,-0.416748,0.639893,-75.286865,-50.025936,-106.613152
-0.453369,-0.397217,0.573486,-74.386597,-24.917601,-105.583183
-0.325439,-0.376221,0.533447,-73.524475,2.799988,-108.825676
-0.276855,-0.397705,0.499268,-74.60022,33.927917,-113.769524
-0.290527,-0.424561,0.476318,-75.836182,67.245483,-116.859428
-0.331055,-0.448975,0.464111,-77.819824,98.31237,-120.765678
-0.380859,-0.473389,0.465332,-79.399109,123.497002,-126.586906
-0.40625,-0.501953,0.489746,-79.864502,141.242981,-133.003235
-0.429688,-0.53418,0.527832,-78.361511,153.335571,-139.61792
-0.547852,-0.607178,0.580566,-71.205139,158.050537,-146.644592
-0.714111,-0.683838,0.638428,-57.899471,145.599365,-153.038025
-0.807861,-0.730713,0.671631,-47.58453,112.785332,-153.396606
-0.796875,-0.750732,0.660889,-41.587826,72.288513,-147.613525
-0.734863,-0.75708,0.624023,-36.766052,37.384033,-142.585754
-0.68457,-0.766602,0.58374,-32.897949,13.687133,-139.839172
-0.648193,-0.767334,0.56543,-31.051634,1.785278,-136.909485
-0.595703,-0.760254,0.553223,-32.051086,-0.534058,-133.43811
-0.54834,-0.774902,0.546387,-33.958435,6.080627,-129.898071
-0.513672,-0.810791,0.546875,-32.913208,19.035339,-127.578728
-0.492188,-0.848145,0.565918,-30.654905,33.500671,-125.389091
-0.513916,-0.908203,0.593018,-28.20587,50.971981,-119.621269
-0.641357,-0.967285,0.628662,-20.523069,69.099426,-110.397331
-0.76123,-0.979492,0.661621,-12.100219,78.346252,-97.80883
-0.796875,-0.956299,0.673828,-6.408691,74.661255,-84.663383
-0.746582,-0.922363,0.658691,-2.258301,64.964294,-72.906494
-0.682861,-0.90332,0.623779,1.846313,56.861874,-61.69891
-0.632813,-0.875244,0.589355,6.065368,53.222652,-50.47607
-0.594727,-0.830566,0.561768,9.346008,52.986141,-39.840698
-0.576416,-0.785156,0.544189,11.863708,54.252621,-30.158995
-0.563721,-0.751221,0.538574,14.205932,56.28204,-21.095274
-0.557129,-0.720459,0.536377,16.304016,58.837887,-12.5885
-0.589111,-0.70874,0.531006,17.921448,60.958858,-4.753113
-0.663818,-0.725098,0.529297,19.454956,59.318539,2.189636
-0.724854,-0.756836,0.531006,19.241333,49.85046,7.80487
-0.754883,-0.793701,0.550293,18.363953,33.439636,12.367248
-0.753174,-0.810547,0.574951,18.997192,13.999938,16.708374
-0.73291,-0.80127,0.59082,21.40045,-4.951477,21.850584
-0.711426,-0.773193,0.604248,25.695799,-21.408079,28.724669
-0.706055,-0.754639,0.608887,32.073975,-34.584045,38.345337
-0.710938,-0.743164,0.590332,39.367676,-44.761654,50.537106
-0.705322,-0.735596,0.544434,46.089169,-51.940914,64.308167
-0.701904,-0.736328,0.48877,53.169247,-55.732723,77.949524
-0.721436,-0.748535,0.445313,59.867855,-56.999203,91.339104
-0.759521,-0.767822,0.414795,64.247131,-57.312008,102.60009
-0.804932,-0.789795,0.408936,65.841675,-57.327267,109.611504
-0.837158,-0.818359,0.43457,63.934322,-56.900021,112.403862
-0.888916,-0.854248,0.506348,61.355587,-54.550167,110.633842
-0.974121,-0.862061,0.610352,61.965939,-51.887508,105.842583
-1.019043,-0.834473,0.690674,62.774654,-51.025387,101.806633
-1.012451,-0.782471,0.734375,65.223694,-51.979061,98.57177
-0.990234,-0.712158,0.739258,71.388245,-53.245541,96.374504
-0.962891,-0.646973,0.702881,78.239441,-53.291317,96.351616
-0.924561,-0.591797,0.65625,84.320061,-51.475521,98.121635
-0.88916,-0.539551,0.615723,88.729851,-49.499508,101.203911
-0.878174,-0.505859,0.587891,89.843742,-46.714779,105.133049
-0.893311,-0.474854,0.58374,90.316765,-41.946407,109.115593
-0.858154,-0.411865,0.600342,88.394157,-36.102295,113.166801
-0.794922,-0.350098,0.637451,85.327141,-27.06909,114.82238
-0.756348,-0.293945,0.671387,83.816521,-14.244079,115.737907
-0.737549,-0.23999,0.693115,82.359306,-3.562927,118.507378
-0.737549,-0.183105,0.712646,80.749504,1.525879,121.902458
-0.696289,-0.133301,0.719727,77.545166,2.319336,125.778191
-0.664307,-0.104248,0.713867,74.867249,1.594543,129.348755
-0.68335,-0.081299,0.706543,72.624207,1.052856,133.911133
-0.716064,-0.055664,0.675537,69.580078,-2.365112,140.937805
-0.726563,-0.014893,0.651123,65.139771,-11.528014,147.247314
-0.702148,0.013916,0.634766,59.562679,-21.362303,150.337219
-0.670166,0.001465,0.607178,54.63409,-25.352476,152.618408
-0.647217,0.009521,0.568604,51.246639,-23.178099,154.258728
-0.701904,0.013916,0.548828,47.775265,-19.470215,154.640198
-0.812988,0.018799,0.569336,44.883724,-19.111633,156.692505
-0.828369,0.040771,0.584961,39.794922,-25.718687,162.3535
-0.766602,0.059082,0.588623,35.232544,-32.974243,165.229782
-0.734863,0.070313,0.601563,35.621643,-33.699036,164.405807
-0.74585,0.076416,0.628174,37.696838,-30.456541,164.848312
-0.730469,0.094482,0.605225,38.635254,-27.717588,167.114243
-0.642578,0.118164,0.549316,36.979675,-24.887083,170.005783
-0.615234,0.154541,0.500732,36.209106,-17.524719,169.776901
-0.61499,0.187988,0.473389,35.270691,-8.277893,168.846115
-0.610596,0.206055,0.457275,31.204222,-2.212524,169.120773
-0.564453,0.237793,0.438721,25.375364,1.731872,169.502243
-0.50415,0.26416,0.451172,19.561768,7.087707,170.310959
-0.47168,0.27832,0.467773,16.227722,19.271851,170.021042
-0.432129,0.280518,0.468262,13.893126,37.033081,169.982895
-0.425049,0.300049,0.45752,12.771605,53.817745,169.494614
-0.422607,0.335449,0.440674,10.482787,65.071106,167.778
-0.47876,0.352539,0.415527,7.202148,65.765381,166.252121
-0.529541,0.37915,0.421143,4.043579,54.901119,164.62706
-0.516846,0.418945,0.429199,-3.356933,36.476135,162.681564
-0.450928,0.408936,0.428467,-12.237548,19.035339,160.896286
-0.440186,0.381836,0.449707,-14.175414,8.644104,156.715393
-0.411621,0.38501,0.45752,-14.678954,5.096435,152.709961
-0.384277,0.404297,0.452393,-16.265869,6.912231,149.604797
-0.410889,0.428223,0.450684,-16.906738,11.779784,144.180298
-0.446289,0.42749,0.456299,-18.318176,15.380858,138.183594
-0.469238,0.407959,0.462158,-20.591734,15.884398,131.011963
-0.455322,0.374756,0.475098,-22.987364,13.648986,123.603813
-0.433105,0.361572,0.48584,-25.161741,11.589049,117.523186
-0.432861,0.359619,0.491455,-28.20587,10.810851,113.021843
-0.473389,0.383301,0.520508,-32.424927,12.237548,107.292168
-0.514648,0.396484,0.549805,-35.28595,16.494751,100.280754
-0.585205,0.410645,0.580078,-33.401489,19.073486,93.688957
-0.693604,0.436523,0.618164,-31.593321,15.441894,86.47155
-0.743164,0.403809,0.634277,-32.196045,9.231567,82.618706
-0.770508,0.359619,0.650635,-30.761717,4.440308,80.818169
-0.816895,0.318848,0.685791,-27.8244,0.50354,77.606201
-0.8125,0.268799,0.732666,-24.681089,-3.082275,77.568054
-0.833252,0.202393,0.741211,-23.635862,-4.272461,79.139709
-0.854736,0.141357,0.780518,-22.460936,5.348205,82.359306
-0.862061,0.092773,0.824463,-16.63208,21.911619,86.181633
-0.968262,0.034668,0.800293,-11.871337,32.859802,83.961479
-1.054688,0.204346,0.793457,-9.910583,31.364439,78.948975
-1.015625,0.378906,0.758545,-12.519835,20.13397,76.095581
-0.929199,0.345947,0.755615,-13.420104,9.750366,70.983887
-0.864502,0.278564,0.736816,-11.146544,10.345458,63.850399
-0.897461,0.278564,0.706299,-5.973815,16.792297,55.999752
-0.982666,0.314453,0.674561,-2.494812,20.729063,48.408504
-1.059082,0.343018,0.643311,-1.38092,19.264221,43.754574
-1.063232,0.360352,0.586182,-2.380371,17.150879,40.885921
-1.05127,0.362549,0.533936,-2.822876,21.583555,36.216736
-1.034424,0.371826,0.490479,-2.433777,32.463074,31.410215
-1.037354,0.388184,0.457031,-2.326965,43.434139,27.8244
-1.090088,0.397705,0.450928,-3.288269,46.669003,23.765562
-1.146973,0.407715,0.465576,-4.570007,39.459229,19.294739
-1.134521,0.416992,0.489746,-6.17218,25.001524,15.914916
-1.093262,0.416504,0.517578,-6.889343,12.664794,10.169982
-1.070068,0.407959,0.54834,-4.486084,9.613037,3.379822
-1.074463,0.418701,0.572754,-0.259399,13.526916,-2.861023
-1.079834,0.439453,0.599121,3.295898,20.706175,-9.82666
-1.093994,0.450684,0.624023,7.17926,30.84564,-16.571045
-1.116211,0.470703,0.64624,11.978148,41.603085,-21.377562
-1.151855,0.504639,0.64917,15.678405,46.69952,-25.138853
-1.197998,0.529053,0.642578,17.776489,43.968197,-28.57971
-1.233154,0.539551,0.649902,19.187927,35.919189,-30.426023
-1.227295,0.549561,0.644531,18.638611,25.764463,-30.738829
-1.220459,0.555176,0.637451,17.463684,17.364502,-31.867979
-1.230225,0.553223,0.639404,18.180847,12.649535,-33.317566
-1.222656,0.555908,0.639648,18.806458,9.918213,-33.851624
-1.216553,0.550293,0.639648,18.951416,8.018494,-34.927368
-1.210205,0.533447,0.64917,19.737244,6.408691,-35.865784
-1.207275,0.518799,0.654541,20.13397,4.585266,-36.407471
-1.217529,0.495361,0.648193,20.256041,3.593445,-36.865234
-1.219238,0.464111,0.644775,20.89691,3.387451,-36.804199
-1.226074,0.452148,0.644287,21.949766,1.686096,-37.322998
-1.236572,0.441406,0.641602,21.797178,-2.128601,-37.67395
-1.226563,0.419434,0.627197,20.568846,-5.599975,-37.124634
-1.194336,0.400391,0.614746,19.180298,-6.378173,-36.514282
-1.178223,0.385498,0.601563,18.074036,-3.913879,-36.811829
-1.168701,0.375244,0.587891,17.051697,-0.068665,-36.941528
-1.164795,0.361084,0.57251,16.136169,1.739502,-36.582947
-1.167725,0.353271,0.571777,15.373229,0.022888,-36.636353
-1.167236,0.335205,0.560303,14.152526,-4.196167,-36.720276
-1.155518,0.306396,0.55127,13.572692,-8.682251,-36.437988
-1.144775,0.287598,0.544434,14.47296,-11.695861,-36.445618
-1.129883,0.272705,0.525391,15.434264,-13.069152,-36.911011
-1.104736,0.260986,0.511719,16.784668,-13.511657,-37.322998
-1.068848,0.25415,0.488037,18.318176,-13.526916,-37.643433
-1.026611,0.247559,0.466064,19.813538,-13.732909,-37.857056
-1.015869,0.244141,0.448975,21.080015,-14.755248,-38.421631
-1.01123,0.240234,0.431641,21.980284,-16.517639,-37.757874
-0.977051,0.226563,0.412109,22.087095,-19.042969,-36.125183
-0.94458,0.202881,0.401123,23.002623,-20.713804,-36.460876
-0.915039,0.192139,0.396973,24.482725,-20.210264,-37.284851
-0.863281,0.185547,0.383545,25.100706,-17.410278,-37.139893
-0.799072,0.176758,0.359619,25.230406,-11.466979,-38.116455
-0.741455,0.174316,0.334229,25.772093,-1.976013,-39.886475
-0.706787,0.175781,0.308105,26.245115,9.58252,-41.351315
-0.687256,0.180664,0.2854,26.710508,20.683287,-42.083736
-0.671631,0.204834,0.259521,26.771544,27.549742,-43.266293
-0.628906,0.217773,0.25,25.634764,29.983519,-44.792171
-0.632568,0.23584,0.257568,25.527952,27.435301,-47.58453
-0.710693,0.270508,0.273926,24.116514,19.668579,-50.582882
-0.792236,0.290039,0.310791,21.720884,7.530212,-49.560543
-0.791504,0.319336,0.347656,19.554138,-4.814148,-47.508236
-0.748291,0.332764,0.373535,17.021179,-10.383605,-49.621578
-0.681396,0.353271,0.400391,16.197205,-6.576538,-53.092953
-0.63623,0.358887,0.406494,15.579223,5.432128,-56.350704
-0.626465,0.366455,0.411621,15.144347,21.415709,-59.150692
-0.633789,0.384766,0.413574,14.205932,36.972046,-61.035152
-0.628906,0.378418,0.427734,11.909484,49.903866,-61.69891
-0.639893,0.335938,0.452637,10.581969,61.172482,-63.766476
-0.649414,0.31543,0.468506,10.475158,70.144653,-63.529964
-0.682373,0.302734,0.495605,10.276793,74.34082,-62.393185
-0.726807,0.30957,0.522217,11.650084,72.639465,-61.218258
-0.770752,0.3396,0.542725,12.077331,63.644405,-57.403561
-0.811279,0.383545,0.558594,11.032104,49.957272,-53.314205
-0.798584,0.453857,0.561768,9.613037,36.079407,-48.942562
-0.761475,0.517578,0.541016,6.889343,26.588438,-45.936581
-0.739502,0.571533,0.522949,4.692078,24.581907,-44.891354
-0.739014,0.607422,0.509766,3.547668,28.930662,-44.441219
-0.77124,0.637939,0.499023,2.494812,35.209656,-44.616695
-0.817871,0.657471,0.490967,0.602722,39.840698,-45.722958
-0.842285,0.676025,0.487549,-1.922607,41.625973,-46.340939
-0.863525,0.68335,0.493164,-4.699707,42.747494,-48.149105
-0.912109,0.664795,0.505615,-5.958557,42.831417,-50.98724
-0.964355,0.631348,0.52417,-6.538391,38.619995,-52.200314
-0.966797,0.58374,0.541016,-7.591247,29.731749,-52.192684
-0.914795,0.523926,0.543213,-8.666992,21.003721,-51.445004
-0.828125,0.428467,0.550537,-8.285522,16.88385,-51.200863
-0.734131,0.377197,0.55835,-5.996704,20.39337,-51.506039
-0.696045,0.354248,0.540283,-3.120422,29.46472,-52.24609
-0.797852,0.352539,0.515625,1.174927,36.315918,-51.956173
-0.915527,0.360596,0.488037,5.447387,30.029295,-47.500607
-0.923584,0.355469,0.472656,7.133483,6.690979,-40.565487
-0.876709,0.35083,0.459473,7.652282,-19.454956,-37.04834
-0.811768,0.330811,0.433105,8.857727,-36.598206,-31.150816
-0.787598,0.329834,0.39502,9.605408,-44.418331,-21.52252
-0.790039,0.359131,0.34668,9.971619,-46.638485,-14.152526
-0.797852,0.376221,0.302002,8.216858,-48.141476,-8.277893
-0.776123,0.350342,0.273438,4.981995,-48.889156,-5.134582
-0.731689,0.348877,0.257324,2.113342,-45.669552,-3.944397
-0.720947,0.344971,0.23877,-2.044678,-39.0625,-1.113892
-0.727051,0.284912,0.223145,-4.180908,-33.203125,-0.823975
-0.720947,0.266846,0.248535,-2.388,-28.800962,-2.601623
-0.697021,0.284424,0.301025,-0.541687,-23.681639,-5.310058
-0.662842,0.303955,0.351074,0.564575,-14.22882,-7.835388
-0.644287,0.317871,0.387207,1.930237,0.495911,-10.292052
-0.657471,0.334229,0.39917,4.127502,16.830444,-14.045714
-0.688232,0.354004,0.407471,6.141662,29.388426,-19.371033
-0.723877,0.364014,0.404785,6.988525,37.101746,-25.474546
-0.76001,0.358398,0.401855,7.637023,40.702816,-31.09741
-0.801758,0.341553,0.397461,8.705139,38.68866,-36.964417
-0.849121,0.335449,0.383789,10.108947,30.311583,-43.067928
-0.886963,0.342041,0.391602,10.2005,16.906738,-48.774715
-0.907715,0.327637,0.400879,8.682251,2.029419,-53.939816
-0.900635,0.307129,0.411133,7.568359,-10.101317,-58.509823
-0.880615,0.30249,0.420166,6.362915,-16.899109,-63.140865
-0.861816,0.303467,0.425293,4.852295,-20.591734,-67.321777
-0.866943,0.254883,0.433594,3.005981,-25.909422,-71.495056
-0.886719,0.206299,0.448975,0.778198,-35.812378,-74.890137
-0.888184,0.177979,0.473389,-2.296448,-50.315853,-76.36261
-0.842041,0.164795,0.508789,-6.599426,-64.064026,-75.35553
-0.802734,0.128662,0.538086,-11.138915,-69.747925,-73.493958
-0.82959,0.099854,0.562988,-14.389037,-64.01062,-69.862366
-0.908447,0.094971,0.577148,-17.478943,-50.918575,-65.086365
-0.980957,0.093018,0.577393,-21.034239,-38.871765,-61.119076
-1.046875,0.043945,0.576416,-24.978636,-33.378601,-58.586117
-1.147949,-0.026367,0.608643,-27.114866,-33.409119,-53.977962
-1.194092,-0.079346,0.636719,-28.503416,-34.675598,-42.16003
-1.174561,-0.136963,0.634766,-29.907225,-32.50885,-26.725767
-1.185791,-0.171387,0.634277,-28.099058,-24.780272,-13.420104
-1.193359,-0.152588,0.618164,-25.520323,-14.778136,-0.297546
-1.178955,-0.12915,0.591309,-25.642393,-6.248474,11.268615
-1.14209,-0.131104,0.565918,-25.80261,0.762939,20.39337
-1.09082,-0.144531,0.540527,-25.566099,6.629943,29.106138
-1.030518,-0.153564,0.525391,-24.528502,14.083861,35.53772
-0.989502,-0.149658,0.530518,-21.759031,24.688719,38.406372
-0.964844,-0.151611,0.523926,-18.730164,36.735535,38.345337
-0.958008,-0.154541,0.514893,-13.534545,45.722958,36.987305
-0.983643,-0.133789,0.515381,-7.965087,48.629757,36.148071
-1.004639,-0.115234,0.514648,-4.051208,46.112057,36.109924
-1.0,-0.099121,0.515869,0.183105,39.291382,35.629272
-0.990723,-0.084473,0.524658,5.477905,30.136106,33.988953
-0.975098,-0.051758,0.536621,9.895325,22.926329,33.035278
-0.932129,-0.025635,0.552002,10.70404,20.660398,33.172607
-0.901611,-0.026611,0.547119,10.604857,21.240232,33.851624
-0.883301,-0.011719,0.531494,12.21466,20.812986,34.919739
-0.847656,0.020264,0.519043,13.404845,19.981384,36.079407
-0.814209,0.037109,0.497314,12.786864,21.308897,37.704468
-0.79126,0.054688,0.482178,12.08496,25.871275,40.824886
-0.764893,0.08374,0.486816,10.368346,30.570982,43.731686
-0.740723,0.11499,0.480469,7.545471,31.974791,45.631405
-0.753418,0.14209,0.479736,5.722045,30.158995,47.71423
-0.77417,0.161377,0.482422,3.852844,26.206968,49.736019
-0.776123,0.162109,0.467529,1.739502,20.439146,51.811214
-0.780273,0.1604,0.462158,2.02179,13.656615,52.764889
-0.787109,0.169434,0.465332,3.547668,7.293701,53.344723
-0.809814,0.169922,0.467285,4.333496,1.060486,55.679317
-0.811279,0.182617,0.463135,5.050659,-5.493164,58.79211
-0.80127,0.19873,0.465332,5.378723,-12.008666,61.294552
-0.786621,0.206543,0.479736,5.119323,-17.196655,64.079285
-0.762207,0.20752,0.487793,3.501892,-21.965025,68.313599
-0.735596,0.20459,0.481689,2.113342,-25.535582,71.655273
-0.707031,0.204346,0.479492,1.457214,-26.924131,73.936462
-0.697266,0.209961,0.4729,0.724792,-24.902342,75.492859
-0.711914,0.226807,0.464844,0.694275,-21.217344,76.48468
-0.729492,0.244629,0.468994,1.167297,-16.494751,76.713562
-0.750488,0.261719,0.4646,1.25885,-12.7182,77.659607
-0.734131,0.298096,0.468506,-0.083923,-12.237548,78.536987
-0.730713,0.318359,0.472412,-2.655029,-13.694762,78.437805
-0.738281,0.315674,0.489014,-2.792358,-13.015746,78.720093
-0.739502,0.314941,0.498779,-1.960754,-11.222838,79.521179
-0.731934,0.322998,0.516846,-0.556946,-10.154723,80.131531
-0.727295,0.342041,0.533936,1.00708,-10.894774,80.368034
-0.734863,0.349854,0.544922,2.304077,-11.772155,79.666138
-0.757813,0.342041,0.553223,4.379272,-12.153625,79.76532
-0.761719,0.35376,0.558594,6.385803,-14.526366,80.291748
-0.753418,0.366943,0.570313,7.942199,-20.202635,79.971313
-0.736816,0.35083,0.573486,10.536193,-27.053831,79.597473
-0.691162,0.322754,0.567139,13.626098,-34.164429,80.00946
-0.615479,0.306885,0.54541,15.380858,-39.886475,80.741875
-0.539307,0.301025,0.519287,16.784668,-40.596004,81.451408
-0.507324,0.296143,0.498535,17.76886,-35.018921,82.18383
-0.468262,0.313232,0.46167,16.647339,-25.444029,81.375114
-0.460693,0.354248,0.412598,13.839721,-12.359618,76.73645
-0.525879,0.403076,0.380127,11.169433,4.699707,68.405151
-0.651855,0.421631,0.373047,9.109497,20.469664,59.761044
-0.772217,0.37915,0.365234,8.331299,28.991697,53.230282
-0.829102,0.328857,0.34375,8.842468,28.160093,50.621029
-0.831543,0.335205,0.334473,11.436461,20.1416,50.239559
-0.846436,0.4104,0.341309,13.282775,9.559631,49.232479
-0.904053,0.464111,0.327881,11.901855,0.961304,48.400875
-0.976563,0.480469,0.317871,10.787963,-2.471924,47.172543
-0.989258,0.493896,0.313232,10.375976,0.747681,42.999264
-0.979004,0.513428,0.290527,9.95636,11.619567,36.613464
-0.987793,0.5,0.276123,11.184691,29.739378,31.257627
-0.985596,0.394043,0.359375,14.877318,48.301693,29.731749
-1.043701,0.237549,0.405273,20.713804,63.522335,29.777525
-1.089844,0.222412,0.303711,23.54431,75.920105,33.508301
-1.036377,0.383545,0.203857,22.583006,77.507019,35.598755
-0.928955,0.568848,0.216309,19.798279,68.206787,31.35681
-0.889893,0.608398,0.254639,14.564513,59.638973,27.923582
-0.892822,0.545166,0.244385,9.590149,55.328365,28.343199
-0.899414,0.530029,0.215576,5.332946,52.223202,28.556822
-0.903564,0.544189,0.191895,0.831604,46.82922,26.68762
-0.900391,0.537842,0.176514,-2.883911,37.246704,24.467466
-0.870117,0.514893,0.151855,-5.737304,26.359556,22.171019
-0.827637,0.513916,0.111328,-7.858276,19.851685,20.88928
-0.835693,0.547363,0.091553,-9.384155,19.973755,20.736692
-0.916016,0.584473,0.101807,-10.612487,22.392271,19.630432
-0.998779,0.589355,0.125977,-11.146544,21.469114,18.371582
-1.036133,0.575195,0.144531,-10.406493,15.922545,16.807556
-1.011719,0.554688,0.153809,-7.5531,10.589599,13.374328
-0.970947,0.550537,0.153564,-2.304077,10.147094,8.384705
-0.959473,0.558838,0.147217,4.051208,15.380858,2.479553
-0.992432,0.567627,0.135498,9.468079,22.697447,-3.479004
-1.048584,0.569092,0.113037,13.740539,27.847288,-7.8125
-1.125244,0.581787,0.094971,16.395569,26.580809,-10.57434
-1.199219,0.595703,0.080322,17.036438,18.951416,-13.21411
-1.230225,0.597656,0.080322,17.272949,7.781982,-15.098571
-1.218262,0.598877,0.0896,16.944885,-2.777099,-17.13562
-1.187256,0.589355,0.091309,15.899657,-8.079529,-19.744873
-1.158203,0.579834,0.092773,15.930175,-5.332946,-22.300718
-1.139893,0.573975,0.098145,16.494751,3.921509,-24.353025
-1.151123,0.576172,0.095947,17.288208,15.029906,-26.672361
-1.196289,0.579102,0.084717,17.440796,24.131773,-29.373167
-1.233154,0.597168,0.086914,17.234802,29.396055,-30.899046
-1.27417,0.617188,0.09082,16.326904,29.800413,-32.592773
-1.312988,0.624023,0.098145,15.86151,28.060911,-34.255981
-1.343994,0.615479,0.104248,16.159058,23.880003,-34.301758
-1.330078,0.608398,0.113037,17.349243,18.165588,-34.40094
-1.297119,0.614258,0.124756,18.074036,13.786315,-35.987854
-1.284912,0.604492,0.12207,17.997742,14.022826,-36.949158
-1.271484,0.591309,0.116943,18.363953,17.028809,-35.324097
-1.250977,0.586182,0.109375,18.180847,21.202085,-34.553528
-1.241455,0.582764,0.109375,17.433167,26.725767,-34.248352
-1.251465,0.568848,0.117676,16.471863,32.318115,-33.187866
-1.250488,0.550781,0.129395,15.892028,35.049438,-31.34918
-1.241211,0.542725,0.145996,15.098571,33.432007,-29.96063
-1.220947,0.536377,0.152344,13.09204,28.717039,-28.923033
-1.196777,0.525879,0.153564,11.474608,24.078367,-27.565001
-1.175781,0.52002,0.150391,10.665893,20.89691,-25.512693
-1.170166,0.51416,0.143555,9.811401,18.630981,-23.979185
-1.168213,0.51123,0.131592,8.705139,16.372681,-22.65167
-1.174316,0.506348,0.115967,7.56073,13.145446,-20.63751
-1.173584,0.495605,0.099365,6.530761,8.094788,-17.494202
-1.171631,0.481689,0.085938,5.752563,1.869202,-15.075683
-1.156738,0.474121,0.076416,4.776001,-3.990173,-13.122558
-1.125244,0.462158,0.058105,3.555298,-8.102417,-10.795592
-1.086426,0.453125,0.040283,2.906799,-9.010315,-9.086609
-1.056396,0.445557,0.026611,2.39563,-6.523132,-8.087158
-1.048828,0.442627,0.008301,1.716614,-3.288269,-6.980896
-1.054932,0.44165,-0.009033,0.610352,-1.960754,-5.455017
-1.058105,0.432617,-0.023926,-0.694275,-3.044128,-3.555298
-1.04541,0.428711,-0.033203,-2.441406,-5.256652,-1.449585
-1.025391,0.424561,-0.042236,-4.875183,-6.973266,0.267029
-1.025391,0.413818,-0.049072,-7.148742,-6.713867,2.220154
-1.02417,0.407959,-0.050049,-9.361267,-6.469726,5.1651
-1.016602,0.400146,-0.053711,-11.985778,-7.057189,7.621765
-1.001221,0.392578,-0.051758,-14.083861,-7.751464,9.719849
-0.974121,0.394043,-0.042969,-16.426086,-8.613586,12.161254
-0.959473,0.398682,-0.041992,-19.462585,-9.07135,14.411925
-0.94165,0.39624,-0.047119,-22.270201,-8.140564,17.433167
-0.918457,0.389648,-0.047119,-24.772642,-6.721496,20.004272
-0.902832,0.392822,-0.040283,-26.94702,-5.905151,21.217344
-0.892334,0.395508,-0.03418,-29.502867,-6.019592,22.6593
-0.876221,0.391357,-0.034668,-32.272339,-6.66809,24.971006
-0.85791,0.387207,-0.034668,-34.934998,-7.438659,27.053831
-0.834961,0.38916,-0.035645,-37.849426,-7.827758,29.235838
-0.823486,0.393555,-0.034424,-41.069027,-8.483887,31.517027
-0.817383,0.39502,-0.028809,-44.425961,-10.337829,33.554077
-0.810303,0.397461,-0.019531,-48.141476,-12.870788,35.575867
-0.790527,0.395996,-0.007568,-52.101131,-15.983581,37.956238
-0.78418,0.396729,0.000488,-55.854794,-18.096924,39.31427
-0.7771,0.406738,0.007324,-59.219357,-18.760681,40.771481
-0.778809,0.414307,0.011475,-61.988827,-18.39447,41.90826
-0.785889,0.422607,0.013184,-64.155579,-18.035889,41.893002
-0.806641,0.431396,0.018555,-65.803528,-18.714905,40.977474
-0.830322,0.441895,0.020996,-66.635132,-20.904539,39.527893
-0.852051,0.450195,0.034912,-66.917419,-25.100706,37.063599
-0.860107,0.461182,0.054199,-65.826416,-29.21295,33.51593
-0.880127,0.474365,0.062012,-63.377377,-31.059263,29.037474
-0.912354,0.475098,0.071533,-59.661861,-31.417845,23.345945
-0.930664,0.47876,0.080322,-54.824825,-31.929014,16.75415
-0.939209,0.483887,0.082275,-49.690243,-31.425474,8.865356
-0.94458,0.464844,0.099365,-44.05975,-28.549192,0.343323
-0.956299,0.440186,0.126709,-37.574768,-23.712156,-8.19397
-0.954102,0.465088,0.16748,-31.379698,-19.218445,-15.785216
-0.949951,0.470215,0.199219,-26.153563,-16.342163,-24.414061
-0.945557,0.44873,0.232666,-20.347593,-14.045714,-32.737732
-0.964111,0.426514,0.269531,-13.366698,-13.069152,-38.513184
-0.96582,0.427734,0.32959,-6.378173,-17.021179,-44.876095
-0.945801,0.403809,0.361572,-0.846863,-24.116514,-50.697323
-0.865479,0.380127,0.391846,4.226685,-31.036375,-54.63409
-0.796631,0.357422,0.421143,10.108947,-33.546448,-60.264584
-0.787109,0.319824,0.450195,15.945434,-32.714844,-64.796448
-0.835449,0.265381,0.476563,20.820616,-34.858704,-66.596985
-0.822998,0.238281,0.513184,24.864195,-43.617245,-65.78064
-0.747559,0.230469,0.547852,26.275633,-55.130001,-64.826965
-0.660156,0.225586,0.574219,26.229856,-60.9436,-64.743042
-0.597656,0.22583,0.589355,26.916502,-58.2962,-63.659664
-0.535889,0.251465,0.598145,27.236937,-49.446102,-62.568661
-0.467773,0.294922,0.603027,25.016783,-36.125183,-63.522335
-0.422852,0.317871,0.594238,22.14813,-18.051147,-66.497803
-0.455322,0.325684,0.590576,20.050049,3.440857,-70.869446
-0.552246,0.349854,0.599121,18.188477,22.6593,-75.645447
-0.632568,0.399414,0.604004,14.556884,33.38623,-79.666138
-0.700439,0.39917,0.589355,9.498596,35.018921,-86.334221
-0.761963,0.387939,0.571777,6.16455,30.540464,-93.574516
-0.805664,0.374023,0.561523,2.601623,20.164488,-100.433342
-0.81543,0.342041,0.55542,-1.312256,7.408142,-107.345573
-0.795166,0.295166,0.549072,-4.417419,-3.410339,-113.143913
-0.810059,0.244873,0.560059,-5.554199,-10.208129,-118.47686
-0.923584,0.178711,0.59668,-3.135681,-15.876769,-122.596733
-1.020996,0.139893,0.618652,0.930786,-29.197691,-121.139519
-1.011475,0.144531,0.632324,1.014709,-52.642818,-117.576591
-0.943848,0.15625,0.630859,-1.113892,-76.553345,-117.622368
-0.858398,0.139404,0.613525,-2.14386,-91.957085,-117.240898
-0.755371,0.128662,0.590088,-3.005981,-96.733086,-116.943352
-0.64624,0.112793,0.559814,-5.187988,-90.301506,-119.583122
-0.723389,0.037598,0.592529,-4.692078,-71.243286,-124.244682
-0.899658,-0.053223,0.63916,2.250671,-42.785641,-121.314995
-0.954834,-0.087158,0.656494,8.155823,-19.91272,-108.345024
-0.935059,-0.058594,0.662109,12.413024,-5.119323,-102.989189
-0.955811,-0.023682,0.649658,18.379211,2.464294,-100.944511
-0.989746,0.002197,0.614258,21.125792,1.449585,-91.934196
-0.955566,0.025391,0.565918,19.226074,-4.249573,-82.778923
-0.868408,0.046387,0.522461,16.166687,-5.599975,-77.049255
-0.784668,0.060303,0.476074,13.412475,1.533508,-72.654724
-0.73291,0.084229,0.446289,10.528563,13.351439,-70.579529
-0.713623,0.0979,0.435791,6.782531,25.695799,-72.166443
-0.778564,0.077148,0.449219,4.684448,34.996033,-75.424194
-0.919922,0.037598,0.480713,5.592346,37.979126,-76.515198
-1.017822,0.022705,0.540283,7.316589,29.281614,-72.731018
-1.006592,0.047607,0.608398,6.576538,11.978148,-68.786621
-0.940918,0.047852,0.638184,5.577087,-4.119873,-65.971375
-0.923828,0.040527,0.634033,6.843566,-16.220093,-62.164303
-0.906738,0.053467,0.608643,6.835937,-26.855467,-59.013363
-0.871826,0.059814,0.575195,4.829407,-36.849976,-56.640621
-0.821289,0.052979,0.552246,2.441406,-43.014523,-55.297848
-0.766113,0.038086,0.543213,-0.473022,-43.334957,-55.13763
-0.753418,0.010254,0.555176,-2.815246,-38.902283,-56.587215
-0.812744,-0.030029,0.596191,-2.655029,-32.402039,-58.013912
-0.91626,-0.06665,0.644287,-1.068115,-29.769896,-56.831356
-0.977783,-0.094238,0.687988,0.328064,-33.805847,-52.291866
-0.970459,-0.106934,0.708252,1.220703,-41.488644,-46.409603
-0.933594,-0.119141,0.714355,3.341675,-46.874996,-41.038509
-0.881836,-0.128418,0.710693,6.04248,-45.989986,-35.614014
-0.817627,-0.134521,0.696533,9.025574,-37.277222,-31.135557
-0.76123,-0.136475,0.673828,12.96234,-21.766661,-28.465269
-0.746826,-0.139404,0.654541,18.005371,-3.181457,-26.94702
-0.79126,-0.134521,0.643311,23.53668,12.748717,-26.107786
-0.848633,-0.121094,0.631592,27.778624,21.40045,-25.016783
-0.876709,-0.118408,0.631836,30.418394,24.261473,-24.070738
-0.898193,-0.124268,0.637695,33.660889,25.68054,-23.468016
-0.917725,-0.115723,0.640625,37.414551,25.840757,-22.430418
-0.935547,-0.116455,0.639648,40.161129,23.41461,-20.835875
-0.931641,-0.114746,0.645752,42.816158,19.050598,-17.799377
-0.897949,-0.105225,0.646484,44.075008,15.579223,-13.397216
-0.86377,-0.097168,0.635498,44.593807,16.899109,-9.216309
-0.854736,-0.0896,0.617188,45.661922,23.53668,-4.623413
-0.866943,-0.083496,0.603027,46.524044,32.234192,-0.045776
-0.878906,-0.067627,0.59082,46.043392,40.061951,3.768921
-0.894775,-0.051025,0.577393,44.441219,45.494076,7.217407
-0.930664,-0.03125,0.575439,42.175289,48.530575,9.963989
-0.973389,-0.026611,0.57959,39.627075,49.865719,12.886046
-1.006348,-0.015869,0.582275,37.208557,48.515316,16.319275
-1.026367,-0.018066,0.572998,34.645081,43.159481,19.042969
-1.02417,-0.017822,0.566162,34.072876,35.057068,22.941587
-1.007324,-0.010742,0.552002,34.622192,26.161192,29.258726
-0.968994,-0.002686,0.529785,34.950256,19.859314,34.812927
-0.937256,0.017578,0.511719,35.461426,18.081665,38.803101
-0.912109,0.043213,0.48584,35.270691,21.133421,42.617794
-0.906982,0.065918,0.463623,34.286499,27.839659,46.401974
-0.915771,0.092041,0.438965,32.783508,36.483765,49.453732
-0.916992,0.122803,0.416992,30.281065,43.998714,52.062984
-0.938965,0.15625,0.398926,27.053831,48.492428,53.199764
-0.973877,0.171631,0.389648,24.055479,49.697872,55.099483
-1.001953,0.180176,0.387207,21.64459,47.279354,58.273312
-1.033936,0.201416,0.384766,19.340515,41.259762,60.493465
-1.056885,0.231689,0.371826,16.204834,33.256531,63.354488
-1.055664,0.266113,0.35791,12.359618,25.367735,67.298889
-1.029785,0.298584,0.346436,7.415771,20.172117,68.435669
-1.005615,0.326904,0.341553,2.731323,19.40155,67.237854
-0.995117,0.344971,0.326904,-1.579285,22.209166,66.749573
-1.017822,0.352539,0.303467,-4.951477,24.482725,67.03186
-1.068848,0.36377,0.279297,-7.255554,23.29254,66.543579
-1.099365,0.372559,0.267822,-9.735107,17.112732,67.184448
-1.081543,0.375488,0.265625,-12.96234,7.575988,69.671631
-1.033936,0.365723,0.259033,-16.716003,-0.831604,71.472168
-0.995605,0.35791,0.250732,-19.172668,-5.172729,72.319031
-0.938477,0.359131,0.25,-21.789549,-6.607055,73.783875
-0.876221,0.350098,0.22998,-24.757383,-7.530212,74.432373
-0.811768,0.341064,0.227783,-26.573179,-5.645751,73.936462
-0.766846,0.330566,0.225586,-27.923582,-1.457214,73.532104
-0.735352,0.323242,0.217529,-29.067991,3.730774,72.395325
-0.729248,0.32373,0.219727,-30.128477,7.385253,70.388794
-0.719482,0.321777,0.246094,-32.684326,8.018494,69.023132
-0.705078,0.312988,0.265625,-36.026001,5.775451,68.832397
-0.671387,0.321045,0.272217,-38.383484,3.387451,68.069458
-0.646484,0.336182,0.268066,-40.756222,3.799438,67.329407
-0.633789,0.343262,0.258301,-43.914791,7.93457,67.03949
-0.61084,0.345215,0.246094,-46.386715,16.38031,65.704346
-0.595215,0.352295,0.223633,-48.858639,28.20587,63.453671
-0.629395,0.36792,0.21582,-51.338192,41.275021,60.096737
-0.660156,0.373779,0.223145,-53.817745,53.581234,56.137081
-0.69165,0.368896,0.254395,-55.14526,63.369747,53.077694
-0.733154,0.363037,0.294434,-54.870602,69.252014,49.858089
-0.803467,0.358887,0.32666,-53.688046,71.372986,47.32513
-0.863281,0.33252,0.341797,-51.330563,69.328308,48.645016
-0.89209,0.322754,0.350342,-47.386166,60.607906,52.757259
-0.893799,0.326416,0.348389,-44.334408,45.455929,56.159969
-0.863281,0.331543,0.341797,-41.290279,29.098509,59.898373
-0.801514,0.329834,0.335938,-39.077759,18.486023,63.255306
-0.700928,0.34082,0.318848,-37.773132,19.989014,65.437317
-0.655518,0.362549,0.296631,-35.743713,31.272886,66.726685
-0.689697,0.38916,0.284912,-33.355713,45.913692,66.474915
-0.726807,0.39917,0.2771,-33.52356,55.618282,66.307068
-0.751953,0.393799,0.26709,-34.317017,56.236263,65.765381
-0.811279,0.392822,0.255615,-33.8974,50.399776,63.903805
-0.841064,0.401855,0.265137,-33.683777,40.687557,63.896175
-0.854492,0.374512,0.28833,-33.096313,27.44293,64.422607
-0.837646,0.37915,0.298096,-31.318663,15.518188,62.965389
-0.79248,0.413086,0.306396,-31.440733,8.224487,63.346859
-0.735107,0.438965,0.294678,-32.13501,8.979797,63.896175
-0.704346,0.454102,0.257813,-33.836365,16.975403,63.156124
-0.717529,0.455566,0.23584,-35.675049,28.541563,61.683651
-0.755371,0.456299,0.223633,-36.064148,36.735535,59.478756
-0.841064,0.435547,0.197266,-36.598206,33.546448,57.243343
-0.880127,0.420898,0.192139,-36.819458,16.921997,56.175228
-0.862549,0.420654,0.205322,-36.66687,-9.056091,55.625912
-0.808594,0.426514,0.228027,-37.025452,-35.02655,54.168697
-0.775635,0.44458,0.239258,-38.124084,-52.642818,51.86462
-0.709229,0.47583,0.256348,-39.962769,-58.898922,48.675533
-0.672852,0.496094,0.303955,-42.442318,-55.862423,43.739315
-0.764404,0.450195,0.357666,-46.157833,-37.338257,37.658691
-0.876953,0.373291,0.334961,-47.843929,1.235962,37.467957
-1.057617,0.385986,0.270996,-45.364376,42.701717,37.620544
-1.265869,0.451416,0.271729,-40.740963,60.089108,29.739378
-1.473633,0.424072,0.310791,-37.467957,38.162231,20.76721
-1.527588,0.326172,0.359863,-36.697388,-11.947631,20.164488
-1.389648,0.285645,0.395752,-38.215637,-63.179012,24.337767
-1.126709,0.317627,0.405029,-42.068478,-86.433403,26.214598
-0.972412,0.343506,0.403564,-42.747494,-71.105957,27.420042
-0.980957,0.361816,0.406494,-39.558411,-33.363342,28.259275
-1.094971,0.385986,0.389893,-37.55188,1.747131,27.084349
-1.227295,0.41333,0.35791,-35.758972,19.645691,24.101255
-1.332031,0.432129,0.332031,-33.470154,17.990112,19.760132
-1.35791,0.424805,0.296875,-31.044004,4.821777,14.671325
-1.293701,0.398926,0.241699,-28.70941,-7.102966,9.780884
-1.245605,0.376221,0.202881,-24.92523,-7.659912,2.777099
-1.247559,0.375488,0.196777,-19.218445,2.471924,-6.912231
-1.280273,0.387939,0.207275,-13.641356,12.725829,-16.876221
-1.331299,0.397461,0.212891,-9.300232,15.815734,-26.046751
-1.359375,0.388428,0.229248,-6.355285,11.650084,-34.347534
-1.380859,0.357422,0.239746,-2.853393,5.081176,-42.114254
-1.404297,0.326172,0.239258,1.846313,-0.213623,-47.363277
-1.397461,0.284668,0.220459,5.363464,-4.417419,-51.86462
-1.343994,0.264893,0.211182,9.140015,-6.790161,-57.708736
-1.291016,0.27124,0.210205,12.420653,-6.790161,-64.186096
-1.233643,0.267578,0.207275,14.381408,-3.509521,-70.4422
-1.179688,0.257324,0.192139,15.785216,1.403808,-76.644897
-1.12793,0.25293,0.18335,17.921448,5.058288,-84.266655
-1.043945,0.250488,0.164551,18.196106,6.431579,-95.016472
-0.952637,0.211914,0.134521,16.288757,7.621765,-107.749931
-0.907471,0.154053,0.14502,15.541076,13.420104,-121.582024
-0.919678,0.072021,0.121338,16.014099,20.065308,-134.216309
-1.026123,-0.03833,0.098877,16.769409,16.75415,-148.048401
-1.083496,-0.137695,0.085938,17.318726,3.326416,-161.674484
-1.014893,-0.205078,0.073242,15.151977,-14.007567,-174.95726
-0.89209,-0.246582,0.08252,14.09912,-25.863646,-191.902145
-0.792969,-0.268066,0.102051,15.380858,-29.685972,-208.98436
-0.710205,-0.297852,0.109863,16.914368,-32.432556,-225.898727
-0.629639,-0.334961,0.104248,15.998839,-36.407471,-243.576035
-0.55542,-0.405518,0.101807,13.587951,-33.218384,-249.992355
-0.612061,-0.534424,0.127197,13.999938,-20.202635,-249.992355
-0.867676,-0.720947,0.159912,22.102354,-6.523132,-249.839767
-1.093262,-0.84668,0.199219,34.996033,-9.124756,-249.992355
-1.12207,-0.848877,0.193604,44.601437,-32.356262,-249.992355
-1.029053,-0.811279,0.133057,48.164364,-63.926693,-249.992355
-0.92041,-0.797852,0.069824,47.691341,-90.156548,-249.992355
-0.793945,-0.812744,0.0354,44.822689,-102.317802,-249.992355
-0.686279,-0.851807,0.027344,39.43634,-96.519463,-249.992355
-0.671143,-0.924072,0.044434,33.638,-71.434021,-249.992355
-0.694824,-1.002197,0.062256,29.472349,-31.517027,-249.992355
-0.728027,-1.085693,0.051025,27.328489,12.374877,-249.992355
-0.834717,-1.119385,0.037354,30.937193,46.333309,-249.992355
-0.882813,-1.036621,0.04541,34.950256,63.270565,-249.992355
-0.848389,-0.961914,0.046387,31.562803,68.252563,-249.992355
-0.772217,-0.932129,0.056152,25.108335,72.441101,-249.992355
-0.689209,-0.943848,0.065918,17.807007,84.243767,-249.992355
-0.629395,-1.00293,0.062256,10.406493,105.033867,-249.992355
-0.583984,-1.07666,0.050293,3.097534,133.468628,-249.992355
-0.554199,-1.151855,0.042236,-1.579285,166.496262,-249.992355
-0.556641,-1.211914,0.031982,-4.173279,199.53154,-249.992355
-0.562744,-1.292969,0.031006,-6.805419,230.186447,-249.992355
-0.570801,-1.396729,0.023682,-8.178711,249.992355,-249.992355
-0.589355,-1.496094,0.013428,-6.41632,249.992355,-249.992355
-0.638184,-1.545654,0.01123,-1.457214,249.626144,-249.992355
-0.68335,-1.508789,0.017334,4.928589,249.992355,-249.992355
-0.730957,-1.388672,0.045654,13.694762,249.992355,-249.992355
-0.773193,-1.199951,0.08374,24.024961,249.992355,-249.816879
-0.780273,-1.022461,0.085938,32.234192,249.992355,-236.251816
-0.77002,-0.915527,0.044434,37.750244,249.992355,-204.925522
-0.733154,-0.849121,-0.024902,41.007992,248.870834,-175.521835
-0.669434,-0.80835,-0.075684,38.871765,223.327621,-148.834229
-0.631104,-0.809814,-0.099854,31.761168,177.566513,-124.214165
-0.626465,-0.855957,-0.099609,23.834227,132.499695,-103.919975
-0.621582,-0.925049,-0.095215,16.853333,86.013786,-88.821404
-0.602051,-0.982178,-0.101563,10.978698,42.404171,-78.00293
-0.57251,-1.012695,-0.114746,5.775451,9.353638,-69.213867
-0.564697,-1.050537,-0.117432,0.88501,-10.993957,-60.630795
-0.578857,-1.0896,-0.119385,-3.242492,-22.697447,-54.443356
-0.573242,-1.092041,-0.120605,-6.561279,-27.053831,-52.101131
-0.557129,-1.087158,-0.120605,-10.169982,-21.736143,-51.696774
-0.569092,-1.094482,-0.10376,-13.534545,-5.645751,-51.879879
-0.623535,-1.104248,-0.075684,-15.510558,14.671325,-52.551266
-0.676758,-1.109131,-0.04541,-16.838074,31.921385,-54.679867
-0.708008,-1.11792,-0.019043,-17.486572,44.097897,-57.052608
-0.723877,-1.131104,-0.001221,-17.425537,51.971432,-59.829708
-0.734131,-1.134277,0.016846,-17.051697,55.091854,-62.713619
-0.734131,-1.119141,0.02124,-16.410828,52.795406,-65.116882
-0.72876,-1.083496,0.020996,-15.472411,44.967648,-67.314148
-0.718262,-1.027588,0.017334,-14.709472,32.592773,-69.267273
-0.706055,-0.969482,0.009033,-14.892577,17.044067,-69.67926
-0.684814,-0.911621,0.003906,-15.930175,0.587463,-68.328857
-0.65918,-0.855225,0.003906,-17.692566,-14.907836,-64.880371
-0.637695,-0.807373,0.013184,-20.271299,-28.70941,-59.501644
-0.616699,-0.779541,0.037842,-23.262022,-41.336056,-52.597042
-0.59668,-0.779297,0.074707,-25.817869,-52.787777,-44.509884
-0.569336,-0.785156,0.108643,-27.084349,-62.805172,-35.499573
-0.5271,-0.78125,0.122559,-27.06909,-69.68689,-26.390074
-0.490234,-0.773682,0.127441,-27.008055,-72.486877,-17.440796
-0.471436,-0.775635,0.129639,-26.931761,-71.777344,-8.781433
-0.47168,-0.787842,0.131836,-26.44348,-69.496155,-1.052856
-0.48584,-0.813965,0.140381,-25.604246,-67.443848,6.011962
-0.493896,-0.841797,0.147705,-24.810789,-66.40625,13.015746
-0.48877,-0.866943,0.143555,-23.361204,-66.337585,19.271851
-0.46167,-0.887695,0.130615,-21.850584,-66.131592,23.567198
-0.412598,-0.911621,0.122314,-20.324705,-65.452576,25.115965
-0.369629,-0.938965,0.130615,-18.447876,-64.704895,22.91107
-0.354736,-0.972412,0.163574,-15.632628,-64.460754,18.562317
-0.338135,-0.993652,0.187012,-11.970519,-63.919064,14.701842
-0.316895,-1.005127,0.187256,-7.637023,-60.844418,10.612487
-0.314697,-1.019043,0.173584,-3.288269,-53.138729,5.950927
-0.335205,-1.020752,0.154297,0.198364,-42.350765,2.922058
-0.37085,-1.012207,0.135986,2.532959,-31.417845,1.846313
-0.402832,-0.992676,0.128906,3.868103,-23.29254,1.739502
-0.401855,-0.974854,0.138184,4.928589,-19.721985,3.189087
-0.361572,-0.956055,0.153564,5.989074,-20.111082,5.592346
-0.310303,-0.942383,0.163818,7.247924,-21.484373,7.156372
-0.269043,-0.926758,0.167236,8.956909,-21.90399,9.063721
-0.241211,-0.916504,0.180664,10.337829,-23.559568,11.672973
-0.246582,-0.926758,0.200195,12.001037,-26.664732,12.573241
-0.281006,-0.950195,0.214844,14.427184,-30.113218,14.343261
-0.299805,-0.969971,0.221924,16.532898,-33.500671,19.302368
-0.304443,-0.99707,0.199219,18.997192,-34.141541,24.635313
-0.320068,-1.062744,0.157715,21.40045,-31.463621,30.105589
-0.34375,-1.164307,0.130859,22.232054,-27.969358,35.194397
-0.36377,-1.220703,0.139893,21.881102,-26.596067,40.039063
-0.353516,-1.172119,0.172852,21.545408,-27.328489,46.562191
-0.331787,-1.058105,0.220215,22.239683,-28.366087,55.52673
-0.321289,-0.960938,0.246826,24.147032,-27.587889,66.215515
-0.332031,-0.929688,0.255615,26.069639,-26.336668,78.842163
-0.347168,-0.942383,0.262451,27.641294,-27.282713,92.063896
-0.358643,-0.966553,0.267822,29.762266,-32.081604,104.942314
-0.367188,-0.988037,0.262451,31.646727,-39.077759,117.713921
-0.37085,-1.032227,0.24707,32.539368,-44.364925,130.508423
-0.383545,-1.107422,0.227295,32.88269,-45.707699,143.028259
-0.40918,-1.187988,0.19751,33.38623,-42.884823,154.258728
-0.439209,-1.257568,0.18042,34.172058,-38.612366,163.894638
-0.47168,-1.3125,0.174805,34.744263,-34.65271,171.05864
-0.506836,-1.345703,0.175293,35.545349,-32.363892,176.017746
-0.529785,-1.335449,0.181396,36.613464,-30.456541,180.397018
-0.536621,-1.280518,0.193359,37.368774,-27.244566,185.28746
-0.551025,-1.199707,0.210938,38.81073,-22.003172,189.773544
-0.573486,-1.098145,0.232422,39.18457,-13.793944,194.297775
-0.573242,-1.019287,0.24585,36.5448,-3.601074,199.386581
-0.589355,-0.967285,0.255859,33.39386,7.598876,204.467758
-0.648926,-0.913086,0.259277,30.586241,15.029906,209.915146
-0.715088,-0.85791,0.260254,26.489256,13.999938,216.194138
-0.764648,-0.821777,0.251953,21.331785,3.570556,222.381577
-0.788818,-0.802979,0.238037,15.777587,-13.22174,226.791367
-0.787842,-0.784668,0.231445,12.08496,-32.020569,229.202255
-0.78125,-0.730713,0.244141,9.529114,-47.973629,229.476913
-0.789307,-0.686035,0.249756,5.867004,-57.197567,228.965744
-0.832764,-0.6604,0.255859,3.265381,-60.569759,228.965744
-0.864014,-0.644287,0.253418,1.228333,-63.20953,228.485092
-0.851074,-0.640137,0.247559,-0.12207,-67.398071,226.860031
-0.818848,-0.624268,0.239746,-1.205444,-69.404602,224.388107
-0.798096,-0.589111,0.234619,-2.502441,-68.832397,222.228989
-0.794434,-0.525635,0.23877,-3.677368,-66.482544,220.062241
-0.816406,-0.473633,0.236328,-5.508422,-64.254761,219.177231
-0.824951,-0.436523,0.259033,-8.346558,-64.102173,220.611557
-0.855957,-0.414551,0.263184,-11.764525,-65.811157,220.527634
-0.851318,-0.375,0.279297,-14.450072,-65.643311,219.322189
-0.821533,-0.351563,0.275391,-19.859314,-62.57629,220.436081
-0.858154,-0.350342,0.276611,-24.330137,-55.450436,221.96196
-0.86499,-0.348145,0.282959,-27.175901,-47.416683,224.197372
-0.831055,-0.336182,0.285645,-30.937193,-42.92297,226.440414
-0.815674,-0.302246,0.293457,-33.432007,-41.473385,225.723251
-0.842773,-0.25293,0.313232,-34.65271,-41.40472,223.983749
-0.874756,-0.216797,0.34668,-35.446167,-42.251583,225.021347
-0.855469,-0.189697,0.374023,-37.208557,-44.067379,227.584824
-0.800781,-0.16333,0.389648,-39.69574,-45.722958,227.989182
-0.762939,-0.139893,0.390137,-40.916439,-43.701168,226.62352
-0.73999,-0.110352,0.388184,-41.084286,-37.223816,226.280197
-0.68042,-0.090332,0.388184,-42.526241,-30.59387,227.012619
-0.611084,-0.054199,0.378906,-44.601437,-25.81024,225.60881
-0.609619,-0.009766,0.359375,-46.775814,-20.1416,222.129807
-0.62085,0.01001,0.344482,-49.430843,-13.336181,221.733078
-0.621826,0.020752,0.331299,-52.650448,-8.110046,222.5952
-0.539063,0.049316,0.323975,-56.518551,-5.905151,221.313461
-0.501953,0.101318,0.296387,-60.760494,-3.128052,215.545639
-0.525146,0.152344,0.276611,-63.323971,4.966736,206.886276
-0.571533,0.169678,0.26416,-66.131592,14.953612,197.456345
-0.5625,0.164307,0.254395,-68.115234,21.186827,187.759384
-0.563232,0.170166,0.25,-68.008423,23.071287,177.200302
-0.5271,0.169678,0.23291,-67.573547,24.681089,169.586166
-0.547363,0.170654,0.208496,-68.054199,29.029844,165.466293
-0.595215,0.174561,0.204834,-68.67218,35.415649,159.927368
-0.652344,0.207764,0.218262,-67.03949,38.68866,152.862549
-0.779053,0.266357,0.241699,-63.941952,35.980225,144.126892
-0.862549,0.310791,0.266113,-60.417171,26.161192,135.704041
-0.869141,0.33252,0.281982,-55.572506,14.533996,125.602715
-0.822021,0.336914,0.276123,-48.950191,10.482787,113.044731
-0.852783,0.332275,0.248779,-40.771481,17.585754,101.814262
-0.859863,0.334961,0.242676,-33.248901,28.434752,95.863335
-0.912842,0.340088,0.246338,-27.923582,32.112122,91.247551
-0.914307,0.332275,0.287354,-22.560118,26.68762,87.333672
-0.849854,0.317871,0.356201,-18.806458,16.113281,86.151115
-0.788086,0.29834,0.451904,-14.968871,12.237548,83.648674
-0.822266,0.248779,0.516846,-8.789063,24.04022,81.43615
-0.937988,0.218994,0.375977,-3.768921,48.110958,82.077019
-0.94873,0.32373,0.202393,2.555847,65.925598,80.192566
-0.963135,0.526123,0.162842,10.009766,60.234066,66.375732
-0.97876,0.609619,0.202881,10.337829,31.112669,51.078793
-0.958252,0.581055,0.217041,4.180908,-6.111145,45.776363
-0.870361,0.583984,0.221924,0.854492,-30.586241,42.228695
-0.831055,0.623047,0.27124,-2.037048,-36.773682,34.477234
-0.858887,0.628174,0.307617,-6.019592,-28.816221,28.373716
-0.905029,0.617676,0.339111,-7.003784,-12.451171,26.504515
-0.936768,0.606934,0.340088,-6.156921,8.041382,24.894712
-0.983398,0.593506,0.313721,-4.096985,30.143736,22.201536
-1.055176,0.603516,0.28125,-1.152039,46.463009,19.584656
-1.130371,0.630615,0.261963,1.174927,51.643368,16.090393
-1.190674,0.65625,0.256104,2.01416,44.30389,12.71057
-1.262939,0.664551,0.240723,1.625061,28.472898,10.231017
-1.255371,0.654053,0.224365,0.694275,8.895874,8.285522
-1.187744,0.635742,0.220703,1.731872,-6.965637,4.699707
-1.137451,0.621582,0.227539,4.608154,-13.023376,-0.045776
-1.111084,0.60498,0.224121,7.537841,-11.138915,-4.364014
-1.074707,0.586914,0.223633,10.772704,-6.019592,-8.369446
-1.050781,0.573975,0.219238,14.434813,-0.740051,-13.656615
-1.039551,0.57373,0.218018,17.883301,4.951477,-19.042969
-1.056641,0.575684,0.211914,19.546509,11.001586,-23.277281
-1.053467,0.587158,0.217041,21.507261,17.272949,-26.18408
-1.037842,0.610107,0.225586,21.789549,22.041319,-29.907225
-1.04126,0.608398,0.217773,22.377012,27.526854,-34.873962
-1.03418,0.619385,0.226807,24.513243,32.241821,-38.673401
-1.060547,0.604004,0.213867,24.978636,33.416748,-43.350216
-1.083008,0.584229,0.206055,27.030943,30.693052,-48.583981
-1.070068,0.566895,0.202637,29.21295,24.566648,-53.283688
-1.072021,0.54541,0.182861,30.693052,18.173218,-58.975216
-1.039795,0.513184,0.168213,32.806396,13.702392,-63.819881
-0.976563,0.498535,0.1521,34.362793,10.269164,-69.67926
-0.894531,0.49292,0.127197,35.095215,9.689331,-77.842712
-0.791748,0.481445,0.110107,34.576416,12.573241,-86.799614
-0.682861,0.451416,0.09375,32.844543,17.959595,-98.480217
-0.646484,0.397217,0.075684,31.73065,24.604795,-113.494865
-0.726318,0.336182,0.073242,32.89032,29.945372,-128.738403
-0.81958,0.272705,0.063721,34.004211,30.181883,-140.426636
-0.827637,0.21875,0.052002,35.354614,22.918699,-150.123596
-0.799316,0.121094,0.049316,37.879944,13.229369,-163.337692
-0.749268,0.153564,0.048584,41.847225,6.446838,-176.071152
-0.665527,0.172119,0.036377,40.702816,1.289368,-190.765366
-0.62085,0.099365,0.008545,37.979126,-1.022339,-205.650314
-0.602295,0.032715,-0.00293,37.513733,-1.480102,-219.177231
-0.640869,-0.039307,-0.010254,37.80365,-3.326416,-233.787521
-0.703613,-0.122314,0.024902,40.794369,-9.933472,-247.497543
-0.728516,-0.170898,0.077393,45.547482,-24.04785,-249.992355
-0.735596,-0.24292,0.113281,48.706051,-42.892452,-249.916061
-0.748047,-0.292236,0.126953,53.047176,-61.920162,-249.923691
-0.718262,-0.316895,0.130859,57.189938,-81.04705,-249.992355
-0.659424,-0.352051,0.124512,58.586117,-98.396294,-249.992355
-0.600586,-0.38916,0.110352,58.906551,-109.901421,-249.992355
-0.55835,-0.44165,0.112305,58.715816,-112.663261,-249.992355
-0.53125,-0.530762,0.114258,57.083126,-106.185905,-249.992355
-0.557617,-0.653564,0.118164,55.541988,-91.644279,-249.992355
-0.648682,-0.79541,0.117676,55.419918,-71.304321,-249.992355
-0.703857,-0.936768,0.121826,56.129452,-50.559994,-249.992355
-0.697998,-1.058594,0.122803,56.236263,-30.410765,-249.992355
-0.642822,-1.174805,0.127441,56.968685,-5.973815,-249.992355
-0.567871,-1.300537,0.13208,58.372494,25.0473,-249.992355
-0.495605,-1.438965,0.130127,59.143063,62.965389,-249.992355
-0.458008,-1.5979,0.125732,60.775753,106.674187,-249.992355
-0.457031,-1.763184,0.107666,63.980099,152.587891,-249.992355
-0.470947,-1.916992,0.06665,67.024231,198.417648,-249.992355
-0.497559,-2.054932,0.006836,71.769714,241.470322,-249.992355
-0.562744,-2.160889,-0.05835,79.475403,249.992355,-249.992355
-0.671875,-2.199707,-0.113281,90.095512,249.771103,-249.992355
