ax,ay,az,gx,gy,gz
-0.389893,-0.915527,-0.092529,3.639221,0.610352,5.813598
-0.395752,-0.915527,-0.093262,3.501892,1.327515,5.859375
-0.395508,-0.915527,-0.092285,3.540039,2.319336,5.958557
-0.394775,-0.919189,-0.087646,3.456115,2.998352,6.278991
-0.397217,-0.924561,-0.083984,3.204345,3.356933,6.317138
-0.39917,-0.929688,-0.083008,2.845764,3.532409,6.233215
-0.401611,-0.932373,-0.075928,2.494812,3.463745,6.126403
-0.40625,-0.936523,-0.071533,2.243042,3.448486,6.103515
-0.40625,-0.9375,-0.067139,2.052307,3.242492,5.943298
-0.40918,-0.935547,-0.064209,1.945495,3.364563,5.844116
-0.410889,-0.932129,-0.062256,1.907349,3.433227,5.859375
-0.408936,-0.929932,-0.063721,1.716614,3.265381,5.966186
-0.405762,-0.933105,-0.060059,1.480102,2.998352,6.233215
-0.40332,-0.934082,-0.054199,1.174927,2.510071,6.225585
-0.402588,-0.935547,-0.051514,1.022339,2.006531,6.034851
-0.404053,-0.935547,-0.048584,0.686645,1.441955,6.187438
-0.41333,-0.936279,-0.051025,0.144958,0.671387,6.309509
-0.41748,-0.932861,-0.050049,-0.030518,0.350952,6.347656
-0.41748,-0.930908,-0.048584,-0.022888,0.793457,6.431579
-0.41333,-0.930908,-0.048828,-0.068665,0.938415,6.271362
-0.411377,-0.932373,-0.048828,-0.335693,0.564575,6.088256
-0.414795,-0.932617,-0.049805,-0.892639,-0.312805,6.065368
-0.416748,-0.929932,-0.048096,-1.312256,-1.373291,6.17218
-0.417969,-0.924561,-0.048828,-1.594543,-2.212524,6.126403
-0.419678,-0.926025,-0.049805,-1.89209,-2.998352,5.737304
-0.422363,-0.924072,-0.05127,-2.227783,-3.883362,5.493164
-0.423096,-0.921875,-0.050293,-2.609253,-4.905701,5.340576
-0.423096,-0.920898,-0.049561,-3.028869,-5.744934,5.172729
-0.42749,-0.918213,-0.047119,-3.303528,-6.301879,4.966736
-0.43042,-0.916504,-0.046875,-3.65448,-6.690979,4.859924
-0.429199,-0.91626,-0.04126,-3.829956,-6.637573,4.501343
-0.430908,-0.91626,-0.040527,-3.959656,-6.706237,3.921509
-0.431152,-0.920654,-0.040039,-4.165649,-6.889343,3.555298
-0.433594,-0.918457,-0.037842,-4.440308,-6.881713,3.166198
-0.436523,-0.91748,-0.03833,-4.608154,-6.629943,2.662658
-0.433594,-0.919434,-0.040039,-4.730225,-6.408691,2.258301
-0.436035,-0.918701,-0.042725,-4.91333,-6.370544,1.937866
-0.436035,-0.912598,-0.045166,-5.027771,-6.66809,1.739502
-0.436523,-0.906738,-0.04248,-5.371093,-7.385253,1.617432
-0.433838,-0.898438,-0.04126,-5.79071,-7.865905,1.533508
-0.435547,-0.897949,-0.042236,-5.966186,-8.277893,1.449585
-0.43335,-0.898926,-0.040771,-6.111145,-8.605957,1.426697
-0.43335,-0.898926,-0.035889,-6.103515,-8.804321,1.281738
-0.431641,-0.901367,-0.031494,-5.996704,-8.964539,1.029968
-0.432373,-0.9021,-0.032227,-5.844116,-9.368896,0.686645
-0.432617,-0.9021,-0.035889,-5.691528,-9.895325,0.419617
-0.436035,-0.904053,-0.036133,-5.653381,-10.383605,-0.053406
-0.4375,-0.901611,-0.036621,-5.424499,-10.82611,-0.610352
-0.438232,-0.900879,-0.03833,-4.997253,-11.32965,-1.205444
-0.439941,-0.896973,-0.039063,-4.79126,-11.985778,-1.937866
-0.443115,-0.892822,-0.037842,-4.570007,-12.825011,-2.502441
-0.448242,-0.889648,-0.039063,-4.203796,-13.511657,-3.097534
-0.449707,-0.88623,-0.039795,-3.723144,-13.450622,-3.486633
-0.453369,-0.885254,-0.040039,-3.135681,-12.870788,-3.791809
-0.455322,-0.885254,-0.041504,-2.365112,-11.802672,-4.043579
-0.45752,-0.882324,-0.044189,-1.419067,-10.086059,-4.188538
-0.456543,-0.882568,-0.043701,-0.579834,-8.06427,-4.264832
-0.45752,-0.884277,-0.044922,0.160217,-6.072998,-4.333496
-0.456299,-0.887451,-0.041748,0.617981,-4.493713,-4.470825
-0.456299,-0.890381,-0.039551,0.87738,-3.234863,-4.577637
-0.456543,-0.893555,-0.04126,1.167297,-2.479553,-4.486084
-0.457764,-0.897217,-0.039795,1.319885,-1.800537,-4.402161
-0.45752,-0.902832,-0.035645,1.358032,-1.533508,-4.455566
-0.456299,-0.905029,-0.038574,1.556396,-1.51062,-4.348755
-0.454834,-0.904785,-0.040527,1.617432,-1.663208,-4.135132
-0.453613,-0.905762,-0.044189,1.564026,-2.197266,-3.852844
-0.454834,-0.905273,-0.043945,1.625061,-2.815246,-3.349304
-0.454834,-0.904785,-0.038818,1.777649,-3.410339,-2.922058
-0.456543,-0.903076,-0.039551,1.876831,-3.89862,-2.502441
-0.455078,-0.901611,-0.040283,2.113342,-4.28009,-1.914978
-0.452393,-0.899902,-0.039795,2.311707,-4.440308,-1.426697
-0.454346,-0.900146,-0.041504,2.479553,-4.524231,-0.961304
-0.454834,-0.897949,-0.041992,2.746582,-4.478455,-0.480652
-0.455322,-0.896484,-0.04248,2.906799,-4.219055,-0.083923
-0.456543,-0.895996,-0.038818,3.082275,-3.814697,0.038147
-0.456787,-0.898193,-0.03833,3.433227,-3.311157,0.045776
-0.457031,-0.902344,-0.038818,3.738403,-2.731323,0.236511
-0.454834,-0.903564,-0.037598,4.03595,-2.166748,0.25177
-0.452393,-0.905518,-0.041016,4.417419,-1.686096,0.297546
-0.452637,-0.907227,-0.042236,4.447937,-1.617432,0.37384
-0.451904,-0.906006,-0.042725,4.554749,-1.708984,0.404358
-0.451172,-0.906738,-0.044434,4.577637,-1.541138,0.396728
-0.449707,-0.905518,-0.048828,4.478455,-1.51062,0.274658
-0.449219,-0.905273,-0.050049,4.425049,-1.51062,0.457764
-0.448242,-0.908936,-0.053711,4.241943,-1.167297,0.556946
-0.447266,-0.913818,-0.056885,3.990173,-1.014709,0.297546
-0.442383,-0.916016,-0.057861,3.639221,-0.87738,0.076294
-0.438477,-0.916016,-0.0625,3.219604,-0.679016,-0.015259
-0.433838,-0.918213,-0.06665,2.746582,-0.671387,-0.404358
-0.433594,-0.919922,-0.07666,2.174377,-0.617981,-0.892639
-0.432129,-0.922607,-0.082275,1.792908,-0.541687,-1.235962
-0.430176,-0.922852,-0.085938,1.38855,-0.694275,-1.571655
-0.427002,-0.925537,-0.086426,0.999451,-1.342773,-1.876831
-0.42749,-0.925293,-0.085449,0.38147,-2.166748,-1.739502
-0.430908,-0.922119,-0.082764,-0.1297,-2.63977,-1.502991
-0.431641,-0.92041,-0.078125,-0.404358,-2.380371,-1.38092
-0.432373,-0.916504,-0.069824,-0.579834,-1.419067,-1.220703
-0.431152,-0.915283,-0.068359,-0.572205,-0.083923,-1.12915
-0.430908,-0.913818,-0.063721,-0.328064,1.594543,-1.091003
-0.43335,-0.911133,-0.059082,0.038147,3.135681,-1.045227
-0.431641,-0.9104,-0.052246,0.442505,4.440308,-1.022339
-0.43335,-0.911621,-0.043457,0.518799,5.470275,-1.037598
-0.430664,-0.911621,-0.043457,0.694275,6.41632,-1.251221
-0.430664,-0.907471,-0.043945,0.892639,6.866455,-1.556396
-0.432617,-0.907959,-0.039551,1.098633,6.721496,-1.693725
-0.431396,-0.90625,-0.037109,1.121521,6.41632,-1.770019
-0.430908,-0.908447,-0.033447,1.197815,6.41632,-2.075195
-0.429688,-0.907227,-0.030762,1.495361,6.317138,-2.479553
-0.428711,-0.903809,-0.032959,1.464844,5.92041,-2.876281
-0.427246,-0.902832,-0.032959,1.434326,5.317688,-2.975464
-0.429932,-0.902344,-0.03125,1.548767,4.768372,-2.960205
-0.432129,-0.905029,-0.033691,1.594543,4.394531,-2.937317
-0.433105,-0.906494,-0.03418,1.701355,4.40979,-2.761841
-0.434326,-0.906494,-0.030762,1.976013,4.455566,-2.677917
-0.431152,-0.907959,-0.030762,2.151489,4.486084,-2.685547
-0.43042,-0.911865,-0.033203,2.14386,4.127502,-2.6474
-0.432617,-0.914307,-0.033203,2.189636,4.051208,-2.693176
-0.431396,-0.912109,-0.036865,2.258301,3.890991,-2.532959
-0.428223,-0.909668,-0.043945,2.39563,3.707886,-2.433777
-0.424316,-0.90918,-0.047363,2.311707,3.349304,-2.304077
-0.424316,-0.911621,-0.049072,2.197266,2.929687,-2.13623
-0.422607,-0.912842,-0.050781,2.128601,2.601623,-2.052307
-0.422607,-0.914551,-0.054443,2.098083,2.494812,-1.907349
-0.421631,-0.914795,-0.054443,1.998901,2.403259,-1.800537
-0.424561,-0.914795,-0.05542,2.044678,2.403259,-1.602173
-0.423584,-0.912598,-0.054199,2.02179,2.334595,-1.38855
-0.42627,-0.910889,-0.052002,1.914978,2.555847,-0.984192
-0.427734,-0.908691,-0.053223,1.708984,2.76947,-0.556946
-0.425049,-0.906006,-0.054443,1.441955,3.242492,-0.289917
-0.418701,-0.910156,-0.053223,1.182556,3.692627,-0.091553
-0.419678,-0.914307,-0.052246,0.717163,4.211426,0.045776
-0.417725,-0.917969,-0.053223,0.404358,4.653931,0.045776
-0.416016,-0.919434,-0.053955,0.0,4.882813,0.160217
-0.412598,-0.921387,-0.053955,-0.228882,5.004883,0.274658
-0.4104,-0.925293,-0.053467,-0.404358,4.989624,0.335693
-0.408203,-0.923096,-0.054199,-0.526428,4.707336,0.297546
-0.405029,-0.923828,-0.054443,-0.495911,4.425049,0.38147
-0.403564,-0.924561,-0.053955,-0.305176,3.784179,0.488281
-0.407959,-0.924072,-0.052734,-0.259399,3.02124,0.549316
-0.41333,-0.922607,-0.047607,-0.160217,2.555847,0.62561
-0.417969,-0.918945,-0.042236,0.091553,2.799988,0.663757
-0.41748,-0.917236,-0.039063,0.488281,3.730774,0.709534
-0.416504,-0.915283,-0.041016,0.999451,4.798889,0.724792
-0.414063,-0.909424,-0.04126,1.411438,5.744934,0.595093
-0.414063,-0.907227,-0.04248,1.785278,6.629943,0.335693
-0.411621,-0.905518,-0.041992,2.098083,7.43103,0.152588
-0.410889,-0.90625,-0.044434,2.532959,8.201599,-0.137329
-0.4104,-0.904541,-0.046631,2.952575,9.162903,-0.480652
-0.409668,-0.906006,-0.047119,3.265381,9.941101,-0.88501
-0.407959,-0.905518,-0.049316,3.501892,10.421752,-1.235962
-0.407715,-0.906738,-0.052979,3.585815,10.765075,-1.464844
-0.406006,-0.90918,-0.056641,3.669739,10.887145,-1.693725
-0.405029,-0.909424,-0.058594,3.639221,10.887145,-1.846313
-0.403809,-0.913086,-0.05957,3.585815,10.871886,-1.823425
-0.402588,-0.913086,-0.058105,3.27301,10.650634,-1.831055
-0.402832,-0.91626,-0.055664,2.89154,10.040282,-1.838684
-0.404053,-0.915527,-0.056396,2.212524,9.094238,-1.846313
-0.405273,-0.912842,-0.054932,1.686096,8.079529,-1.686096
-0.404297,-0.913086,-0.055664,1.197815,7.324218,-1.51062
-0.404053,-0.912109,-0.052734,0.778198,6.713867,-1.243591
-0.405518,-0.914307,-0.049805,0.419617,6.332397,-1.00708
-0.405029,-0.91626,-0.049072,0.099182,6.17218,-0.892639
-0.40332,-0.919678,-0.050293,-0.160217,5.737304,-0.823975
-0.399902,-0.922119,-0.053955,-0.488281,5.332946,-0.770569
-0.398926,-0.921387,-0.049805,-0.724792,4.867554,-0.732422
-0.399902,-0.923828,-0.046631,-1.014709,4.081726,-0.862122
-0.401367,-0.924561,-0.049072,-1.274109,3.40271,-0.808716
-0.403076,-0.92627,-0.051025,-1.426697,3.082275,-0.724792
-0.404053,-0.929199,-0.051514,-1.365662,2.998352,-0.694275
-0.402588,-0.930908,-0.049805,-1.373291,2.883911,-0.732422
-0.400635,-0.932373,-0.04834,-1.403808,2.746582,-0.62561
-0.396729,-0.928711,-0.044922,-1.335144,2.525329,-0.564575
-0.393555,-0.927979,-0.047607,-1.350403,2.319336,-0.450134
-0.393555,-0.928223,-0.04834,-1.182556,2.349854,-0.289917
-0.390869,-0.928467,-0.052979,-0.968933,2.380371,-0.167847
-0.388672,-0.926025,-0.055908,-0.747681,2.555847,-0.076294
-0.380371,-0.924316,-0.060059,-0.595093,2.563476,0.022888
-0.377197,-0.923584,-0.062012,-0.572205,2.182007,-0.091553
-0.375244,-0.921143,-0.064941,-0.854492,1.541138,-0.335693
-0.377441,-0.919189,-0.061279,-0.862122,0.953674,-0.495911
-0.37793,-0.918945,-0.065674,-0.923157,0.62561,-0.778198
-0.380371,-0.916504,-0.066406,-0.869751,0.518799,-1.083374
-0.382813,-0.918701,-0.064697,-0.671387,0.724792,-1.457214
-0.385254,-0.917969,-0.063477,-0.511169,0.762939,-1.899719
-0.392334,-0.917236,-0.064209,-0.343323,0.62561,-2.037048
-0.394531,-0.918213,-0.061768,-0.274658,0.205994,-2.082825
-0.399414,-0.919434,-0.062744,-0.312805,-0.427246,-2.090454
-0.4021,-0.921387,-0.05957,-0.640869,-0.976562,-2.044678
-0.408691,-0.921875,-0.057373,-0.831604,-1.197815,-1.823425
-0.410156,-0.921387,-0.056641,-0.915527,-1.113892,-1.609802
-0.413818,-0.920654,-0.055176,-0.892639,-0.740051,-1.441955
-0.414307,-0.917969,-0.057129,-0.816345,-0.099182,-1.312256
-0.413818,-0.915283,-0.060791,-0.747681,0.679016,-1.098633
-0.4104,-0.912842,-0.062256,-0.579834,1.235962,-0.915527
-0.406494,-0.909668,-0.06543,-0.610352,1.457214,-0.808716
-0.403564,-0.910156,-0.064941,-0.686645,1.289368,-0.778198
-0.402344,-0.915039,-0.067627,-0.839233,1.037598,-0.907898
-0.402344,-0.913818,-0.068359,-0.946045,1.152039,-1.113892
-0.40332,-0.912842,-0.070557,-0.923157,1.411438,-1.220703
-0.401855,-0.915771,-0.070801,-0.87738,1.770019,-1.174927
-0.401611,-0.919189,-0.067139,-0.869751,2.090454,-1.235962
-0.401123,-0.92041,-0.064941,-0.869751,2.113342,-1.396179
-0.397949,-0.920166,-0.066406,-0.976562,1.968384,-1.350403
-0.396484,-0.921143,-0.066895,-1.098633,1.831055,-1.289368
-0.395264,-0.923096,-0.066895,-1.190186,1.808166,-1.266479
-0.394043,-0.922607,-0.068848,-1.022339,1.853943,-1.197815
-0.394043,-0.923096,-0.068604,-1.060486,1.754761,-1.174927
-0.393555,-0.924316,-0.071045,-1.052856,1.579285,-1.220703
-0.393799,-0.926025,-0.070801,-1.075745,1.609802,-1.235962
-0.394531,-0.925049,-0.068604,-1.113892,1.594543,-1.358032
-0.393555,-0.924561,-0.071289,-1.068115,1.708984,-1.350403
-0.391846,-0.922607,-0.070801,-0.991821,1.739502,-1.304626
-0.391846,-0.922852,-0.070801,-1.037598,1.602173,-1.25885
-0.391602,-0.920166,-0.073975,-1.12915,1.487732,-1.190186
-0.391602,-0.921875,-0.071289,-1.098633,1.525879,-1.045227
-0.39502,-0.922119,-0.067627,-1.159668,1.564026,-0.892639
-0.394531,-0.921631,-0.070068,-1.098633,1.716614,-0.930786
-0.390869,-0.922363,-0.070313,-1.190186,1.777649,-0.968933
-0.39209,-0.922607,-0.06543,-1.182556,1.586914,-0.862122
-0.394287,-0.921143,-0.065674,-1.174927,1.213074,-0.785828
-0.393555,-0.923828,-0.06543,-1.25885,0.968933,-0.938415
-0.397949,-0.923584,-0.063232,-1.342773,0.846863,-1.037598
-0.398682,-0.924561,-0.064453,-1.213074,1.083374,-0.907898
-0.397949,-0.924561,-0.063232,-1.159668,1.289368,-0.984192
-0.393311,-0.925537,-0.063477,-1.167297,1.235962,-1.13678
-0.392334,-0.921631,-0.062012,-1.098633,1.144409,-1.014709
-0.388672,-0.92041,-0.063965,-1.091003,1.068115,-0.930786
-0.38623,-0.919678,-0.063232,-1.00708,0.831604,-1.022339
-0.383789,-0.91748,-0.063232,-1.052856,0.801086,-1.00708
-0.381836,-0.91626,-0.063965,-0.816345,0.953674,-1.144409
-0.380615,-0.916016,-0.064453,-0.686645,1.091003,-1.289368
-0.381348,-0.916504,-0.065918,-0.534058,0.968933,-1.419067
-0.381836,-0.917236,-0.066895,-0.320435,0.831604,-1.770019
-0.381836,-0.913818,-0.065918,0.022888,0.915527,-2.13623
-0.38501,-0.916016,-0.069824,0.335693,0.938415,-2.403259
-0.384277,-0.915771,-0.074463,0.541687,0.915527,-2.754211
-0.387695,-0.916992,-0.075195,0.762939,0.709534,-2.868652
-0.391846,-0.918701,-0.073242,0.846863,0.556946,-3.051758
-0.39502,-0.919678,-0.071777,0.717163,0.602722,-3.204345
-0.396484,-0.922119,-0.07373,0.701904,0.808716,-3.181457
-0.398193,-0.925537,-0.076172,0.709534,1.197815,-2.983093
-0.396484,-0.924805,-0.074463,0.63324,1.548767,-2.830505
-0.394775,-0.925049,-0.074463,0.473022,1.754761,-2.624511
-0.397217,-0.924561,-0.074219,0.289917,1.716614,-2.296448
-0.395508,-0.920166,-0.07666,0.205994,1.571655,-1.693725
-0.394043,-0.920166,-0.072266,0.053406,1.121521,-1.190186
-0.39209,-0.919434,-0.071533,-0.167847,0.442505,-0.808716
-0.393311,-0.91626,-0.067139,-0.434875,-0.007629,-0.442505
-0.393311,-0.916748,-0.064941,-0.457764,0.25177,-0.267029
-0.391113,-0.915039,-0.067139,-0.297546,0.724792,-0.213623
-0.388184,-0.916016,-0.071045,-0.190735,0.808716,-0.244141
-0.386963,-0.91333,-0.069092,-0.198364,0.50354,-0.236511
-0.386475,-0.914795,-0.068848,-0.25177,0.015259,-0.228882
-0.385254,-0.917969,-0.072266,-0.25177,-0.389099,-0.236511
-0.389648,-0.919189,-0.071045,-0.259399,-0.50354,-0.411987
-0.392822,-0.920898,-0.071045,-0.282288,-0.480652,-0.511169
-0.393311,-0.922852,-0.072021,-0.328064,-0.38147,-0.564575
-0.393066,-0.921387,-0.074463,-0.366211,-0.457764,-0.396728
-0.394531,-0.922119,-0.075684,-0.564575,-0.534058,-0.267029
-0.39502,-0.92334,-0.077881,-0.587463,-0.419617,-0.007629
-0.392822,-0.920166,-0.079834,-0.556946,-0.221252,0.221252
-0.392578,-0.92041,-0.075928,-0.656128,0.053406,0.465393
-0.392822,-0.919922,-0.077148,-0.694275,0.12207,0.511169
-0.390381,-0.918701,-0.076904,-0.648498,0.335693,0.541687
-0.388916,-0.918457,-0.075928,-0.640869,0.473022,0.396728
-0.384766,-0.917236,-0.073975,-0.518799,0.427246,0.343323
-0.38501,-0.918213,-0.072754,-0.541687,0.045776,0.12207
-0.387695,-0.915527,-0.072266,-0.62561,-0.366211,-0.053406
-0.387207,-0.91748,-0.07251,-0.694275,-0.801086,-0.144958
-0.391602,-0.920898,-0.07251,-0.656128,-1.029968,-0.259399
-0.392822,-0.920166,-0.068848,-0.602722,-1.251221,-0.343323
-0.397217,-0.920654,-0.069824,-0.694275,-1.312256,-0.427246
-0.397217,-0.92334,-0.071289,-0.762939,-1.12915,-0.343323
-0.396484,-0.92334,-0.070557,-0.640869,-1.091003,-0.350952
-0.395996,-0.92334,-0.068848,-0.610352,-1.159668,-0.335693
-0.39502,-0.921143,-0.070068,-0.709534,-1.213074,-0.259399
-0.394775,-0.921875,-0.07251,-0.701904,-1.434326,-0.267029
-0.391357,-0.921143,-0.072754,-0.816345,-1.76239,-0.160217
-0.392822,-0.920166,-0.076172,-0.930786,-2.098083,-0.144958
-0.393066,-0.918213,-0.077393,-0.785828,-2.243042,-0.045776
-0.394043,-0.919434,-0.077637,-0.747681,-2.26593,0.022888
-0.392578,-0.917969,-0.079834,-0.831604,-2.403259,-0.007629
-0.39209,-0.917969,-0.080078,-0.900268,-2.548218,-0.022888
-0.391357,-0.915771,-0.081299,-0.991821,-2.655029,0.038147
-0.39502,-0.917725,-0.078125,-1.022339,-2.693176,-0.106812
-0.396484,-0.918701,-0.078613,-0.976562,-2.655029,-0.137329
-0.395508,-0.917725,-0.078613,-1.045227,-2.502441,-0.228882
-0.397949,-0.916992,-0.077148,-0.907898,-2.39563,-0.228882
-0.401855,-0.920166,-0.075684,-0.831604,-2.235413,-0.228882
-0.398926,-0.919434,-0.077393,-0.823975,-2.075195,-0.389099
-0.39917,-0.918701,-0.07666,-0.747681,-2.090454,-0.488281
-0.399902,-0.919189,-0.079346,-0.75531,-2.189636,-0.526428
-0.399414,-0.917725,-0.081299,-0.801086,-2.39563,-0.473022
-0.401855,-0.916748,-0.079102,-0.923157,-2.609253,-0.335693
-0.400879,-0.914795,-0.080078,-0.946045,-2.441406,-0.267029
-0.4021,-0.913818,-0.079102,-0.938415,-2.098083,-0.152588
-0.399902,-0.914307,-0.082031,-0.770569,-1.770019,-0.053406
-0.398193,-0.915039,-0.080811,-0.778198,-1.64032,-0.015259
-0.39917,-0.916016,-0.077637,-0.656128,-1.663208,-0.068665
-0.402832,-0.91748,-0.082764,-0.640869,-1.64032,-0.213623
-0.404785,-0.917725,-0.082031,-0.679016,-1.533508,-0.320435
-0.403564,-0.922119,-0.08252,-0.62561,-1.426697,-0.511169
-0.404297,-0.922852,-0.082031,-0.595093,-1.38855,-0.511169
-0.407227,-0.921387,-0.078857,-0.534058,-1.457214,-0.579834
-0.405518,-0.918701,-0.078369,-0.617981,-1.13678,-0.595093
-0.401367,-0.919922,-0.082275,-0.640869,-0.663757,-0.495911
-0.400391,-0.919922,-0.083984,-0.442505,-0.350952,-0.419617
-0.398438,-0.91748,-0.085938,-0.366211,-0.091553,-0.358582
-0.39624,-0.914063,-0.087158,-0.404358,0.175476,-0.015259
-0.390137,-0.914551,-0.084473,-0.442505,0.198364,0.038147
-0.389648,-0.914063,-0.085205,-0.396728,-0.335693,-0.007629
-0.389404,-0.914795,-0.084473,-0.541687,-1.037598,0.022888
-0.391357,-0.915771,-0.082275,-0.679016,-1.426697,-0.160217
-0.395996,-0.915771,-0.082275,-0.663757,-1.663208,-0.419617
-0.400391,-0.914551,-0.078857,-0.701904,-1.602173,-0.572205
-0.402588,-0.914551,-0.079834,-0.50354,-1.266479,-0.724792
-0.40332,-0.915283,-0.078125,-0.244141,-0.831604,-0.88501
-0.403076,-0.91748,-0.078125,-0.274658,-0.465393,-0.785828
-0.40332,-0.919678,-0.076904,-0.320435,-0.37384,-0.701904
-0.40332,-0.920898,-0.077393,-0.411987,-0.404358,-0.495911
-0.406982,-0.92041,-0.07666,-0.282288,-0.312805,-0.419617
-0.405762,-0.920166,-0.075439,-0.236511,-0.099182,-0.473022
-0.40332,-0.920654,-0.081055,-0.190735,0.358582,-0.335693
-0.400879,-0.919678,-0.084473,-0.1297,0.732422,-0.282288
-0.397217,-0.917236,-0.082764,-0.038147,0.900268,-0.213623
-0.394287,-0.915771,-0.087402,-0.068665,0.717163,-0.312805
-0.392334,-0.914551,-0.087646,-0.236511,0.289917,-0.282288
-0.394287,-0.915527,-0.080811,-0.282288,-0.267029,-0.114441
-0.39502,-0.918945,-0.081543,-0.320435,-0.457764,-0.228882
-0.396973,-0.915771,-0.083008,-0.305176,-0.274658,-0.442505
-0.396484,-0.913818,-0.08374,-0.099182,0.228882,-0.465393
-0.395752,-0.914307,-0.083496,0.160217,0.549316,-0.343323
-0.394531,-0.914063,-0.082031,0.267029,0.656128,-0.366211
-0.396729,-0.915039,-0.081055,0.228882,0.602722,-0.411987
-0.396973,-0.91626,-0.08252,0.297546,0.450134,-0.465393
-0.397461,-0.918213,-0.081299,0.099182,0.007629,-0.648498
-0.399414,-0.918213,-0.07959,0.007629,-0.434875,-0.617981
-0.401367,-0.918701,-0.083252,0.022888,-0.595093,-0.556946
-0.403809,-0.91748,-0.081055,0.015259,-0.274658,-0.694275
-0.403564,-0.91748,-0.080811,0.228882,0.045776,-0.671387
-0.401123,-0.915527,-0.082275,0.328064,0.228882,-0.518799
-0.398438,-0.912598,-0.07959,0.694275,0.190735,-0.465393
-0.397949,-0.914795,-0.076416,0.938415,0.114441,-0.404358
-0.397949,-0.915039,-0.077148,0.846863,0.328064,-0.38147
-0.395508,-0.915527,-0.079834,0.694275,0.411987,-0.289917
-0.397217,-0.915527,-0.082275,0.411987,0.205994,-0.366211
-0.400391,-0.917236,-0.082031,0.213623,0.106812,-0.549316
-0.397705,-0.916504,-0.081787,0.228882,0.564575,-0.656128
-0.395996,-0.92041,-0.081787,0.434875,0.991821,-0.732422
-0.391357,-0.923828,-0.083984,0.396728,0.839233,-0.946045
-0.389893,-0.921143,-0.080566,0.053406,0.259399,-0.892639
-0.392334,-0.922119,-0.082764,-0.167847,-0.358582,-0.823975
-0.392822,-0.919922,-0.081787,-0.236511,-0.671387,-0.87738
-0.391113,-0.920166,-0.08252,-0.267029,-0.75531,-0.648498
-0.392334,-0.920898,-0.079834,-0.25177,-0.671387,-0.556946
-0.392334,-0.922119,-0.080322,-0.198364,-0.770569,-0.488281
-0.391113,-0.922363,-0.077637,-0.167847,-0.999451,-0.610352
-0.39209,-0.924072,-0.079346,-0.38147,-1.274109,-0.526428
-0.39209,-0.921143,-0.079102,-0.419617,-1.670837,-0.602722
-0.393066,-0.918701,-0.080078,-0.564575,-1.853943,-0.640869
-0.390625,-0.916992,-0.079834,-0.671387,-1.930237,-0.62561
-0.392334,-0.917969,-0.080811,-0.511169,-2.037048,-0.679016
-0.392578,-0.915283,-0.078369,-0.50354,-2.082825,-0.656128
-0.392578,-0.915283,-0.081055,-0.465393,-2.227783,-0.701904
-0.395264,-0.916992,-0.079102,-0.442505,-2.441406,-0.62561
-0.399902,-0.917236,-0.082031,-0.434875,-2.746582,-0.785828
-0.401123,-0.920166,-0.081543,-0.411987,-2.861023,-0.900268
-0.406006,-0.920898,-0.082031,-0.419617,-2.853393,-1.022339
-0.405518,-0.920166,-0.089844,-0.396728,-2.853393,-0.923157
-0.405518,-0.921143,-0.086914,-0.488281,-3.135681,-0.808716
-0.404297,-0.921387,-0.085205,-0.762939,-3.65448,-0.709534
-0.406982,-0.921143,-0.087646,-0.923157,-3.890991,-0.541687
-0.406494,-0.919678,-0.086182,-1.106262,-3.761291,-0.274658
-0.403564,-0.91748,-0.087158,-1.190186,-3.341675,0.076294
-0.401367,-0.916016,-0.088379,-1.037598,-2.830505,0.396728
-0.398438,-0.91333,-0.087646,-0.961304,-2.227783,0.694275
-0.394287,-0.910889,-0.085205,-0.961304,-1.76239,0.869751
-0.388916,-0.9104,-0.081787,-0.907898,-1.777649,0.968933
-0.385742,-0.909424,-0.077637,-0.801086,-2.182007,0.923157
-0.385742,-0.9104,-0.074219,-0.961304,-2.868652,0.640869
-0.389648,-0.910156,-0.072998,-1.098633,-3.39508,0.221252
-0.392334,-0.909912,-0.072754,-1.00708,-3.448486,-0.076294
-0.39502,-0.912109,-0.074463,-0.854492,-3.311157,-0.312805
-0.398193,-0.917236,-0.071289,-0.717163,-3.189087,-0.480652
-0.398682,-0.921143,-0.071289,-0.602722,-3.295898,-0.526428
-0.403076,-0.921387,-0.071289,-0.686645,-3.639221,-0.50354
-0.404541,-0.921875,-0.073975,-0.709534,-3.921509,-0.419617
-0.405762,-0.921143,-0.074463,-0.785828,-3.845215,-0.37384
-0.406982,-0.920654,-0.076904,-0.709534,-3.631592,-0.358582
-0.408203,-0.923828,-0.081055,-0.671387,-3.189087,-0.389099
-0.403564,-0.922607,-0.081299,-0.610352,-2.845764,-0.335693
-0.400879,-0.92041,-0.085938,-0.602722,-2.89917,-0.335693
-0.398682,-0.918701,-0.090088,-0.747681,-3.128052,-0.328064
-0.395752,-0.91748,-0.086914,-0.900268,-3.501892,-0.335693
-0.400635,-0.921143,-0.0896,-0.976562,-3.578186,-0.297546
-0.403076,-0.919922,-0.08374,-1.00708,-3.196716,-0.297546
-0.400635,-0.919189,-0.084473,-0.839233,-2.609253,-0.236511
-0.399658,-0.914795,-0.081543,-0.831604,-2.098083,-0.152588
-0.398193,-0.91333,-0.080078,-0.610352,-1.876831,-0.144958
-0.398193,-0.916748,-0.075928,-0.404358,-1.64032,-0.091553
-0.396973,-0.922852,-0.072754,-0.244141,-1.731872,-0.038147
-0.397949,-0.927246,-0.069824,0.076294,-1.976013,-0.221252
-0.395996,-0.932617,-0.070313,0.076294,-2.26593,-0.62561
-0.398438,-0.931641,-0.070557,0.205994,-2.510071,-1.266479
-0.400146,-0.92749,-0.068848,0.541687,-2.731323,-1.808166
-0.397217,-0.923584,-0.066406,0.663757,-3.242492,-2.189636
-0.396729,-0.921143,-0.064941,0.701904,-4.089355,-2.63977
-0.398682,-0.921631,-0.061768,0.740051,-5.020141,-3.181457
-0.400879,-0.919922,-0.061523,1.075745,-5.249023,-3.448486
-0.402588,-0.917236,-0.064697,1.724243,-4.692078,-3.692627
-0.4021,-0.916992,-0.072266,2.418518,-3.921509,-4.104614
-0.397949,-0.914307,-0.075684,2.754211,-3.684997,-4.585266
-0.398682,-0.911133,-0.079834,2.922058,-3.77655,-4.989624
-0.402588,-0.908447,-0.082275,2.853393,-4.112244,-5.577087
-0.402344,-0.905518,-0.085693,2.716064,-4.112244,-6.126403
-0.403809,-0.90332,-0.087402,2.807617,-3.761291,-6.484985
-0.404541,-0.904785,-0.091553,2.952575,-3.211975,-6.698608
-0.404053,-0.910645,-0.089355,2.861023,-2.532959,-6.645202
-0.403809,-0.912109,-0.083984,2.685547,-1.960754,-6.42395
-0.399902,-0.912109,-0.083008,2.418518,-1.51062,-5.989074
-0.398193,-0.91748,-0.078125,2.311707,-1.411438,-5.599975
-0.399414,-0.923828,-0.072266,1.960754,-1.38092,-5.294799
-0.396729,-0.925049,-0.070313,1.777649,-1.220703,-4.943848
-0.393555,-0.926025,-0.070801,1.724243,-1.029968,-4.501343
-0.390381,-0.926514,-0.070557,1.609802,-0.87738,-4.203796
-0.390137,-0.924072,-0.068359,1.464844,-0.663757,-3.959656
-0.386963,-0.925049,-0.066406,1.197815,-0.663757,-3.753662
-0.382813,-0.926514,-0.059082,0.717163,-1.052856,-3.417969
-0.381348,-0.927979,-0.057617,0.366211,-1.533508,-3.196716
-0.381592,-0.932373,-0.057373,-0.015259,-1.838684,-2.960205
-0.380127,-0.935303,-0.057129,-0.228882,-1.754761,-2.662658
-0.378906,-0.932617,-0.061523,-0.328064,-1.441955,-2.304077
-0.376709,-0.931396,-0.060547,-0.473022,-1.586914,-1.945495
-0.372314,-0.932617,-0.055176,-0.732422,-2.098083,-1.579285
-0.372314,-0.932373,-0.05542,-1.25885,-3.173828,-1.312256
-0.370605,-0.929932,-0.057373,-1.747131,-4.165649,-0.984192
-0.367188,-0.927246,-0.05957,-2.243042,-5.203247,-0.419617
-0.365967,-0.927979,-0.055176,-2.655029,-6.454467,0.25177
-0.366699,-0.927246,-0.051025,-3.044128,-7.644653,0.724792
-0.369629,-0.933105,-0.050049,-3.311157,-8.354187,1.029968
-0.370605,-0.933838,-0.050537,-3.364563,-8.56781,1.235962
-0.369141,-0.931152,-0.05542,-3.257751,-8.44574,1.358032
-0.365234,-0.924805,-0.060791,-3.013611,-8.270264,1.441955
-0.366699,-0.920166,-0.059082,-2.914428,-8.44574,1.457214
-0.364746,-0.919922,-0.060059,-3.005981,-9.170532,1.113892
-0.366943,-0.92041,-0.060547,-3.318786,-10.162353,0.709534
-0.369873,-0.920166,-0.063477,-3.578186,-11.291503,0.457764
-0.376953,-0.921875,-0.066406,-3.807068,-12.008666,0.015259
-0.384277,-0.919434,-0.069824,-3.852844,-12.001037,-0.434875
-0.388428,-0.91748,-0.070557,-3.608703,-11.535644,-0.617981
-0.392334,-0.918457,-0.070313,-3.40271,-11.047362,-0.785828
-0.396484,-0.917969,-0.072021,-3.433227,-11.001586,-0.900268
-0.398926,-0.917969,-0.066895,-3.64685,-11.405944,-0.862122
-0.400635,-0.922363,-0.068604,-3.799438,-11.482238,-0.846863
-0.402344,-0.922852,-0.070068,-3.77655,-11.177062,-0.846863
-0.40332,-0.921631,-0.072266,-3.601074,-10.406493,-0.816345
-0.404785,-0.923096,-0.072266,-3.379822,-9.338379,-0.770569
-0.40332,-0.919678,-0.073975,-2.990722,-8.178711,-0.907898
-0.403564,-0.919434,-0.071777,-2.700805,-7.148742,-1.12915
-0.404297,-0.923096,-0.074707,-2.342224,-5.981445,-1.312256
-0.397949,-0.920654,-0.077148,-2.182007,-4.959106,-1.449585
-0.39502,-0.919678,-0.077637,-1.914978,-4.440308,-1.449585
-0.391357,-0.921387,-0.073242,-1.701355,-4.203796,-1.63269
-0.391846,-0.92041,-0.075439,-1.663208,-4.188538,-1.716614
-0.391357,-0.919922,-0.075439,-1.747131,-3.967285,-1.548767
-0.388916,-0.91748,-0.072266,-1.64032,-3.585815,-1.464844
-0.387207,-0.919678,-0.070557,-1.602173,-3.082275,-1.251221
-0.388672,-0.920898,-0.068604,-1.365662,-2.433777,-1.174927
-0.388672,-0.924316,-0.063965,-1.075745,-2.059937,-1.190186
-0.38623,-0.929199,-0.060059,-0.961304,-1.968384,-1.106262
-0.385742,-0.931396,-0.053955,-1.060486,-2.197266,-1.251221
-0.386719,-0.934814,-0.051514,-0.999451,-2.578735,-1.350403
-0.38623,-0.93457,-0.048828,-0.740051,-2.685547,-1.564026
-0.385986,-0.929199,-0.047363,-0.343323,-2.655029,-1.876831
-0.382813,-0.923584,-0.050537,0.068665,-2.63977,-2.075195
-0.382324,-0.916748,-0.057861,0.221252,-2.754211,-2.220154
-0.383545,-0.910645,-0.064941,0.25177,-3.120422,-2.243042
-0.381836,-0.907471,-0.065918,0.442505,-3.40271,-2.159119
-0.382813,-0.908203,-0.067139,0.495911,-3.631592,-2.220154
-0.384521,-0.910156,-0.071045,0.389099,-3.677368,-2.349854
-0.388428,-0.915771,-0.075195,0.328064,-3.189087,-2.525329
-0.390137,-0.918457,-0.076416,0.62561,-2.510071,-2.677917
-0.39502,-0.920654,-0.074463,0.686645,-1.731872,-2.868652
-0.397705,-0.922363,-0.075684,0.732422,-0.907898,-2.983093
-0.39624,-0.923828,-0.078125,0.839233,-0.305176,-3.234863
-0.394531,-0.921875,-0.079346,0.808716,-0.297546,-3.486633
-0.39502,-0.924805,-0.074707,0.694275,-0.717163,-3.417969
-0.397461,-0.924805,-0.073975,0.526428,-1.037598,-3.387451
-0.39917,-0.926025,-0.07373,0.427246,-1.13678,-3.334045
-0.398682,-0.927246,-0.070801,0.564575,-1.228333,-3.112793
-0.399658,-0.928711,-0.067139,0.465393,-1.045227,-2.754211
-0.397705,-0.925537,-0.067871,0.50354,-0.63324,-2.502441
-0.391846,-0.921875,-0.069092,0.717163,-0.030518,-2.365112
-0.388916,-0.919434,-0.070068,0.87738,1.052856,-2.250671
-0.385986,-0.916504,-0.069824,1.281738,2.212524,-2.250671
-0.381592,-0.916748,-0.071289,1.594543,3.181457,-2.220154
-0.376221,-0.917236,-0.071289,1.678467,3.700256,-2.296448
-0.37207,-0.914307,-0.075684,1.63269,3.410339,-2.372742
-0.373047,-0.911621,-0.071045,1.51062,2.555847,-2.441406
-0.377686,-0.912109,-0.071289,1.083374,2.296448,-2.525329
-0.377441,-0.911621,-0.075195,0.968933,3.089905,-2.677917
-0.375,-0.915771,-0.07666,1.205444,4.333496,-2.929687
-0.377441,-0.922852,-0.076904,1.335144,5.012512,-3.074646
-0.373779,-0.928955,-0.074219,1.098633,4.943848,-3.067016
-0.375977,-0.934326,-0.06958,0.930786,4.196167,-3.112793
-0.381592,-0.936279,-0.068359,0.511169,3.211975,-3.227234
-0.384277,-0.937256,-0.066895,0.25177,2.258301,-2.861023
-0.387939,-0.936279,-0.063721,0.221252,1.564026,-2.502441
-0.39209,-0.938721,-0.061523,0.183105,1.480102,-2.174377
-0.393311,-0.935303,-0.063232,0.213623,1.914978,-1.686096
-0.387207,-0.929443,-0.066162,0.297546,2.670288,-1.266479
-0.381348,-0.924805,-0.068359,0.282288,3.555298,-1.00708
-0.376709,-0.920898,-0.073975,0.320435,4.196167,-0.785828
-0.368896,-0.916992,-0.081299,0.267029,4.53949,-0.801086
-0.366211,-0.915771,-0.083984,0.213623,4.554749,-1.014709
-0.368164,-0.914551,-0.088135,0.106812,4.394531,-1.220703
-0.367188,-0.917969,-0.085693,-0.045776,4.104614,-1.457214
-0.368896,-0.918945,-0.083252,-0.274658,3.715515,-1.678467
-0.370361,-0.919434,-0.082275,-0.419617,3.318786,-1.785278
-0.371094,-0.922852,-0.081299,-0.411987,3.120422,-1.739502
-0.375244,-0.928955,-0.081787,-0.427246,3.135681,-1.792908
-0.378174,-0.93335,-0.075195,-0.267029,3.311157,-1.815796
-0.378662,-0.935791,-0.071533,0.015259,3.585815,-1.808166
-0.381592,-0.936279,-0.06958,0.190735,3.936767,-1.808166
-0.384521,-0.935547,-0.069824,0.358582,4.653931,-1.800537
-0.382813,-0.939697,-0.068848,0.747681,5.508422,-1.770019
-0.379395,-0.939209,-0.065674,0.892639,6.011962,-1.609802
-0.371338,-0.938965,-0.060791,0.984192,5.859375,-1.373291
-0.366699,-0.94165,-0.053223,1.12915,5.134582,-1.174927
-0.363037,-0.940186,-0.04834,1.13678,4.127502,-1.106262
-0.359375,-0.930908,-0.055908,1.121521,3.234863,-1.060486
-0.355225,-0.919678,-0.070068,1.220703,2.89917,-0.862122
-0.354004,-0.911133,-0.074463,1.670837,2.716064,-0.640869
-0.352051,-0.907715,-0.074707,2.159119,2.693176,-0.587463
-0.348145,-0.906738,-0.082031,2.120972,2.365112,-0.511169
-0.342285,-0.906006,-0.085449,2.006531,1.449585,-0.63324
-0.351318,-0.911621,-0.084473,1.625061,0.167847,-0.762939
-0.358887,-0.912109,-0.082764,1.205444,-0.610352,-0.930786
-0.36084,-0.915283,-0.077881,1.159668,-0.747681,-0.816345
-0.366699,-0.917725,-0.07373,1.319885,-0.62561,-0.869751
-0.368408,-0.920654,-0.072754,1.213074,-0.770569,-0.839233
-0.369141,-0.923828,-0.073975,1.091003,-1.029968,-0.732422
-0.369873,-0.921631,-0.074463,1.274109,-1.037598,-0.656128
-0.375244,-0.916504,-0.078369,1.51062,-0.709534,-0.595093
-0.373779,-0.913574,-0.078125,1.548767,-0.221252,-0.75531
-0.373535,-0.916016,-0.077148,1.693725,0.305176,-0.747681
-0.374512,-0.922363,-0.073242,1.823425,0.854492,-0.801086
-0.374756,-0.927979,-0.07373,1.724243,1.296997,-1.045227
-0.373535,-0.927979,-0.076904,1.701355,1.800537,-1.358032
-0.371582,-0.926514,-0.076172,1.64032,2.044678,-1.487732
-0.37207,-0.929199,-0.073486,1.541138,2.075195,-1.480102
-0.370361,-0.93042,-0.075684,1.487732,2.227783,-1.312256
-0.370605,-0.928711,-0.073975,1.495361,2.311707,-1.25885
-0.369873,-0.931885,-0.07251,1.655578,2.410889,-0.999451
-0.368408,-0.937256,-0.066406,1.625061,2.479553,-0.88501
-0.366211,-0.937988,-0.062744,1.64032,2.601623,-0.839233
-0.362793,-0.937988,-0.061035,1.579285,2.548218,-0.793457
-0.361328,-0.937988,-0.062012,1.464844,2.39563,-0.808716
-0.363037,-0.940186,-0.052002,1.411438,2.418518,-0.801086
-0.364014,-0.948242,-0.045654,1.564026,2.807617,-0.679016
-0.360107,-0.957031,-0.036377,1.976013,3.623962,-0.762939
-0.35376,-0.957031,-0.030762,2.204895,3.913879,-0.732422
-0.345703,-0.949707,-0.030762,2.243042,3.425598,-0.709534
-0.3479,-0.941162,-0.037598,2.372742,2.479553,-0.823975
-0.347412,-0.932129,-0.042725,2.677917,1.708984,-0.839233
-0.340576,-0.931885,-0.050781,3.173828,1.266479,-0.671387
-0.336426,-0.931641,-0.057617,3.623962,0.534058,-1.327515
-0.336182,-0.928223,-0.06665,3.562927,-0.87738,-2.105713
-0.341309,-0.926514,-0.072998,3.356933,-2.555847,-2.525329
-0.346924,-0.924072,-0.075928,3.074646,-4.165649,-2.990722
-0.352295,-0.924561,-0.080566,3.158569,-5.889892,-3.608703
-0.361084,-0.92749,-0.083008,2.632141,-6.713867,-4.257202
-0.367432,-0.92334,-0.089844,2.090454,-6.523132,-4.356384
-0.371094,-0.919434,-0.094482,2.212524,-5.546569,-4.119873
-0.371826,-0.920898,-0.101318,2.235413,-4.394531,-4.081726
-0.373291,-0.923096,-0.102783,1.777649,-3.364563,-3.761291
-0.376465,-0.928711,-0.104736,1.64032,-2.319336,-3.265381
-0.374268,-0.930908,-0.103027,1.312256,-1.609802,-2.853393
-0.378662,-0.932861,-0.104492,0.793457,-0.953674,-2.609253
-0.380127,-0.931152,-0.103516,0.450134,-0.343323,-2.571106
-0.381592,-0.933105,-0.10083,0.183105,0.366211,-2.27356
-0.382324,-0.935303,-0.0979,-0.076294,0.923157,-1.945495
-0.37915,-0.935059,-0.092529,-0.442505,1.335144,-1.708984
-0.379883,-0.938721,-0.084229,-0.747681,2.044678,-1.403808
-0.37793,-0.94043,-0.078125,-0.991821,2.777099,-1.121521
-0.37085,-0.940186,-0.073486,-0.923157,3.356933,-0.930786
-0.369141,-0.935791,-0.068848,-0.915527,4.104614,-0.785828
-0.36499,-0.933838,-0.064209,-0.801086,4.79126,-0.686645
-0.359131,-0.935303,-0.064697,-0.610352,5.294799,-0.701904
-0.356689,-0.933105,-0.064453,-0.465393,5.645751,-0.663757
-0.348877,-0.930664,-0.060547,-0.396728,5.714416,-0.602722
-0.343994,-0.931885,-0.060059,-0.434875,5.142211,-0.518799
-0.340332,-0.93457,-0.057129,-0.679016,4.127502,-0.366211
-0.339844,-0.934082,-0.056641,-0.724792,3.128052,-0.221252
-0.338135,-0.931885,-0.056396,-0.617981,2.624511,-0.297546
-0.335449,-0.927734,-0.060791,-0.274658,2.670288,-0.450134
-0.333008,-0.925537,-0.064453,0.198364,3.005981,-0.511169
-0.330811,-0.927734,-0.063477,0.511169,3.097534,-0.778198
-0.331543,-0.930664,-0.066162,0.640869,2.5177,-1.190186
-0.332764,-0.929932,-0.064453,0.587463,1.487732,-1.63269
-0.33667,-0.929932,-0.064941,0.465393,0.167847,-2.006531
-0.343994,-0.93335,-0.064941,0.137329,-0.991821,-2.220154
-0.352051,-0.935059,-0.063721,0.061035,-1.518249,-2.319336
-0.356445,-0.934814,-0.061523,0.267029,-1.396179,-2.326965
-0.36084,-0.933838,-0.064453,0.488281,-0.839233,-2.311707
-0.359131,-0.929443,-0.067871,0.717163,-0.213623,-2.14386
-0.358887,-0.930908,-0.070068,0.900268,0.38147,-2.029419
-0.357422,-0.929932,-0.070313,0.923157,0.961304,-1.945495
-0.356689,-0.93042,-0.072754,1.022339,1.327515,-1.907349
-0.35498,-0.93457,-0.072266,1.091003,1.304626,-1.88446
-0.35376,-0.935547,-0.073486,0.930786,0.930786,-1.815796
-0.353516,-0.93335,-0.074951,0.694275,0.679016,-2.13623
-0.355957,-0.93457,-0.075928,0.808716,0.747681,-2.090454
-0.35498,-0.937988,-0.074463,0.831604,0.984192,-2.052307
-0.353027,-0.938965,-0.070557,0.747681,1.167297,-1.869202
-0.353516,-0.933838,-0.070557,0.679016,1.182556,-1.76239
-0.351074,-0.93042,-0.068848,0.617981,1.159668,-1.739502
-0.353516,-0.930176,-0.071777,0.587463,1.243591,-1.701355
-0.353271,-0.93042,-0.06958,0.701904,1.441955,-1.64032
-0.351318,-0.93335,-0.068359,0.717163,1.541138,-1.731872
-0.349609,-0.933105,-0.067627,0.686645,1.556396,-1.976013
-0.346924,-0.93457,-0.069824,0.579834,1.274109,-2.120972
-0.348877,-0.930664,-0.072754,0.579834,1.014709,-2.212524
-0.346924,-0.929443,-0.06958,0.579834,0.740051,-2.296448
-0.350098,-0.926758,-0.067871,0.495911,0.595093,-2.403259
-0.350586,-0.925781,-0.069824,0.579834,0.587463,-2.487183
-0.351074,-0.92749,-0.072266,0.495911,0.724792,-2.388
-0.351807,-0.927979,-0.075439,0.411987,0.793457,-2.479553
-0.352295,-0.928955,-0.072021,0.404358,0.88501,-2.449036
-0.353516,-0.932373,-0.074219,0.419617,1.190186,-2.39563
-0.355225,-0.933594,-0.075195,0.411987,1.579285,-2.39563
-0.35498,-0.932861,-0.081787,0.343323,1.831055,-2.326965
-0.354004,-0.937012,-0.082764,0.053406,1.88446,-2.311707
-0.35498,-0.938232,-0.079834,-0.106812,1.76239,-2.296448
-0.355225,-0.938232,-0.078613,-0.328064,1.525879,-2.174377
-0.356201,-0.938965,-0.076904,-0.663757,1.556396,-2.006531
-0.357422,-0.936279,-0.076904,-0.762939,2.052307,-1.823425
-0.356934,-0.93457,-0.077881,-0.579834,2.883911,-1.625061
-0.351318,-0.935059,-0.080811,-0.427246,3.852844,-1.25885
-0.350342,-0.939697,-0.078125,-0.556946,4.653931,-0.938415
-0.345459,-0.942139,-0.076172,-0.656128,5.15747,-0.732422
-0.34375,-0.942871,-0.074219,-0.869751,5.134582,-0.396728
-0.341309,-0.941162,-0.071777,-1.159668,4.997253,-0.267029
-0.338135,-0.937012,-0.072998,-1.235962,4.516602,-0.099182
-0.337891,-0.936523,-0.068848,-1.502991,3.547668,-0.053406
-0.339111,-0.939453,-0.068359,-2.01416,2.510071,0.007629
-0.339844,-0.940918,-0.067871,-2.319336,1.556396,0.1297
-0.342529,-0.938965,-0.064453,-2.449036,0.602722,0.289917
-0.343506,-0.940674,-0.063232,-2.868652,-0.465393,0.37384
-0.343506,-0.94043,-0.061279,-3.227234,-1.525879,0.488281
-0.343262,-0.939453,-0.060547,-3.311157,-2.403259,0.671387
-0.344727,-0.934814,-0.060303,-3.494262,-3.044128,0.671387
-0.347168,-0.931152,-0.059082,-3.616333,-3.372192,0.778198
-0.346436,-0.929932,-0.059326,-3.593445,-3.410339,0.907898
-0.343018,-0.930176,-0.060303,-3.364563,-3.280639,0.862122
-0.344971,-0.931396,-0.064209,-3.39508,-3.105163,1.037598
-0.345215,-0.933594,-0.066895,-3.479004,-3.158569,1.098633
-0.34375,-0.9375,-0.066895,-3.387451,-3.219604,0.892639
-0.345215,-0.937012,-0.067627,-3.372192,-3.39508,0.724792
-0.346191,-0.938477,-0.071533,-3.448486,-3.692627,0.549316
-0.348877,-0.935303,-0.078613,-3.540039,-4.096985,0.38147
-0.347412,-0.931885,-0.080322,-3.562927,-4.402161,0.442505
-0.348145,-0.93335,-0.082275,-3.639221,-4.463196,0.602722
-0.349609,-0.932373,-0.08667,-3.639221,-4.470825,0.450134
-0.345459,-0.934814,-0.089111,-3.944397,-4.425049,0.442505
-0.342773,-0.937744,-0.093994,-4.53949,-4.585266,0.335693
-0.339844,-0.939209,-0.100098,-4.951477,-4.486084,0.274658
-0.344238,-0.940918,-0.095459,-5.012512,-4.020691,0.030518
-0.353027,-0.944824,-0.093994,-4.943848,-3.242492,-0.053406
-0.358643,-0.950928,-0.091309,-5.058288,-2.380371,0.244141
-0.359863,-0.954834,-0.085205,-5.28717,-1.251221,0.442505
-0.357422,-0.961182,-0.084961,-5.508422,-0.366211,0.289917
-0.350586,-0.964355,-0.083496,-5.966186,0.396728,-0.022888
-0.344971,-0.965576,-0.084229,-6.469726,0.816345,-0.457764
-0.338135,-0.968018,-0.088135,-7.209777,0.87738,-0.976562
-0.333984,-0.967285,-0.09082,-8.148193,0.976562,-1.457214
-0.324951,-0.960449,-0.092529,-8.598328,0.679016,-2.037048
-0.321289,-0.961426,-0.091553,-8.69751,-0.617981,-2.128601
-0.326416,-0.962402,-0.091553,-9.437561,-3.219604,-1.945495
-0.332275,-0.952393,-0.088623,-10.017395,-6.622314,-0.793457
-0.340088,-0.947021,-0.083008,-10.513305,-9.590149,0.709534
-0.34375,-0.936035,-0.08374,-11.20758,-11.45935,1.792908
-0.341797,-0.928223,-0.083252,-11.222838,-11.848449,3.112793
-0.34375,-0.927002,-0.081055,-11.009215,-11.619567,4.127502
-0.342773,-0.925781,-0.077393,-11.07788,-11.589049,4.936218
-0.343262,-0.923584,-0.075928,-11.238097,-11.230468,5.722045
-0.339844,-0.918945,-0.080078,-11.047362,-10.505675,5.599975
-0.334717,-0.918457,-0.082275,-10.44464,-9.674072,5.111694
-0.335693,-0.917236,-0.081299,-10.131835,-9.399414,4.722595
-0.336914,-0.914795,-0.084717,-9.803772,-9.628296,4.249573
-0.337646,-0.90918,-0.085938,-9.384155,-10.276793,3.570556
-0.338623,-0.908203,-0.085938,-8.81958,-11.383056,2.807617
-0.338623,-0.906494,-0.090088,-8.491516,-12.161254,1.976013
-0.341797,-0.902588,-0.092773,-7.949829,-12.428283,0.938415
-0.345215,-0.902832,-0.094727,-7.209777,-12.245177,0.038147
-0.3479,-0.901367,-0.098389,-6.622314,-11.45172,-0.717163
-0.345703,-0.901855,-0.099854,-5.737304,-10.513305,-1.846313
-0.344482,-0.90918,-0.107666,-4.989624,-9.407043,-3.14331
-0.348633,-0.91626,-0.116211,-4.425049,-8.712769,-4.432678
-0.356201,-0.924072,-0.121094,-3.608703,-8.125305,-4.936218
-0.365967,-0.929443,-0.126953,-2.952575,-7.766723,-5.371093
-0.372803,-0.937988,-0.12793,-2.555847,-7.896423,-5.798339
-0.381592,-0.945313,-0.129883,-2.243042,-8.087158,-5.737304
-0.391602,-0.94165,-0.134033,-2.296448,-7.896423,-5.187988
-0.395264,-0.938477,-0.133789,-2.433777,-6.942749,-4.379272
-0.39209,-0.932129,-0.135498,-2.464294,-5.630493,-3.509521
-0.387939,-0.925537,-0.136963,-2.693176,-4.28009,-2.449036
-0.379883,-0.916992,-0.137207,-2.822876,-3.013611,-1.411438
-0.380615,-0.911621,-0.133545,-2.967834,-1.922607,-0.541687
-0.377686,-0.90625,-0.132813,-3.219604,-1.060486,-0.030518
-0.375488,-0.905518,-0.131836,-3.227234,-0.228882,0.37384
-0.374023,-0.901611,-0.128906,-3.227234,-0.160217,0.732422
-0.376709,-0.905518,-0.126709,-3.829956,-0.534058,0.740051
-0.376709,-0.901367,-0.121826,-4.310608,-0.823975,0.709534
-0.380615,-0.9021,-0.114258,-4.081726,-0.770569,0.991821
-0.383545,-0.904053,-0.109375,-4.104614,-0.50354,0.900268
-0.380859,-0.905273,-0.10498,-4.081726,-0.183105,0.846863
-0.378662,-0.903076,-0.10498,-3.799438,0.350952,0.87738
-0.37915,-0.905762,-0.102051,-3.700256,0.679016,0.900268
-0.376953,-0.907227,-0.0979,-3.356933,1.083374,1.12915
-0.374512,-0.911865,-0.10083,-2.944946,2.082825,1.327515
-0.37085,-0.919189,-0.102295,-2.616882,3.059387,1.167297
-0.364502,-0.926025,-0.101807,-2.250671,3.852844,1.274109
-0.364502,-0.931152,-0.102295,-1.907349,4.478455,1.38855
-0.362305,-0.932373,-0.105957,-1.876831,5.1651,1.220703
-0.358887,-0.932373,-0.109375,-1.304626,6.278991,1.121521
-0.354248,-0.935059,-0.115479,-0.762939,7.156372,0.968933
-0.346191,-0.937744,-0.123047,-0.404358,7.514953,0.732422
-0.342529,-0.938721,-0.127686,-0.076294,7.621765,0.473022
-0.341553,-0.937988,-0.134277,0.053406,7.583618,0.068665
-0.340332,-0.939209,-0.138916,0.190735,7.5531,-0.236511
-0.3396,-0.945557,-0.14209,0.068665,7.316589,-0.549316
-0.341064,-0.949463,-0.14209,-0.190735,6.553649,-1.00708
-0.344727,-0.947754,-0.144287,-0.541687,5.317688,-1.365662
-0.35083,-0.946533,-0.14502,-1.167297,3.77655,-1.518249
-0.361816,-0.943604,-0.13916,-1.808166,2.26593,-1.434326
-0.365479,-0.940918,-0.138184,-2.159119,1.327515,-1.045227
-0.370117,-0.941895,-0.137207,-2.326965,1.281738,-0.556946
-0.370117,-0.934326,-0.133057,-2.563476,1.312256,-0.205994
-0.369141,-0.927246,-0.131104,-2.525329,1.396179,0.526428
-0.373047,-0.919922,-0.128662,-2.906799,1.266479,1.106262
-0.370605,-0.912354,-0.127197,-2.784729,1.594543,1.731872
-0.367432,-0.90918,-0.127686,-2.258301,2.250671,1.899719
-0.366211,-0.909668,-0.122314,-1.716614,2.799988,1.754761
-0.363281,-0.907471,-0.122559,-1.319885,3.547668,1.655578
-0.362061,-0.905762,-0.122803,-0.602722,4.554749,1.525879
-0.358154,-0.907715,-0.124268,0.091553,5.470275,0.823975
-0.35791,-0.90918,-0.121582,0.854492,6.576538,0.198364
-0.355225,-0.909668,-0.125,1.663208,7.949829,-0.556946
-0.355713,-0.911865,-0.128418,2.403259,9.315491,-1.548767
-0.352295,-0.917969,-0.126953,2.929687,10.45227,-2.586365
-0.351807,-0.922119,-0.12915,3.250122,11.238097,-3.700256
-0.351563,-0.924805,-0.132324,3.623962,11.550902,-4.585266
-0.348145,-0.929932,-0.135986,3.868103,11.657714,-5.439758
-0.347412,-0.935059,-0.135254,3.799438,11.398314,-5.943298
-0.345215,-0.931641,-0.135498,3.570556,11.001586,-6.034851
-0.345703,-0.927734,-0.137939,3.295898,10.643004,-5.91278
-0.346191,-0.927734,-0.138184,3.166198,10.467528,-5.622863
-0.343262,-0.928955,-0.138428,3.219604,10.231017,-5.149841
-0.343506,-0.925293,-0.137695,3.15094,10.108947,-4.486084
-0.344238,-0.921143,-0.13916,2.929687,9.963989,-3.807068
-0.341309,-0.924072,-0.141113,2.975464,9.910583,-3.120422
-0.336914,-0.925049,-0.138672,2.685547,9.857178,-2.578735
-0.3396,-0.92627,-0.138672,2.632141,9.895325,-1.899719
-0.337891,-0.930908,-0.139404,2.685547,9.712219,-1.495361
-0.328613,-0.931641,-0.133301,2.593994,8.628845,-0.785828
-0.329102,-0.929199,-0.128662,2.304077,6.698608,0.045776
-0.330811,-0.928223,-0.12793,1.869202,4.981995,0.617981
-0.333984,-0.92627,-0.129395,1.876831,4.264832,1.319885
-0.335449,-0.924316,-0.131348,2.075195,3.829956,1.853943
-0.334961,-0.921387,-0.134521,2.433777,3.555298,2.372742
-0.33667,-0.921875,-0.132324,2.410889,3.158569,2.548218
-0.334717,-0.919678,-0.130615,2.075195,2.403259,2.510071
-0.335205,-0.912842,-0.128174,2.052307,2.357483,2.578735
-0.335938,-0.903076,-0.128906,2.151489,3.189087,2.319336
-0.336426,-0.895752,-0.12793,2.548218,4.577637,1.823425
-0.335449,-0.890381,-0.130127,3.089905,6.523132,1.411438
-0.332764,-0.88916,-0.129883,3.555298,8.491516,1.068115
-0.331543,-0.893066,-0.133057,3.89862,9.544373,0.686645
-0.330811,-0.895752,-0.134521,3.921509,9.613037,0.38147
-0.334473,-0.900635,-0.136719,3.684997,8.773804,0.030518
-0.338623,-0.908447,-0.13501,3.005981,7.141113,0.007629
-0.342773,-0.911865,-0.134521,2.14386,5.088806,0.144958
-0.346191,-0.916504,-0.133545,1.419067,3.387451,0.389099
-0.353271,-0.922363,-0.128662,0.793457,2.159119,0.541687
-0.357422,-0.92749,-0.127686,0.312805,1.647949,0.801086
-0.357178,-0.930176,-0.127441,0.114441,2.006531,1.25885
-0.35791,-0.932129,-0.12915,-0.091553,2.479553,1.51062
-0.352539,-0.931396,-0.126221,-0.091553,2.6474,1.960754
-0.349365,-0.932617,-0.124268,-0.152588,2.761841,2.563476
-0.349365,-0.937012,-0.125977,-0.038147,2.662658,2.922058
-0.3479,-0.936279,-0.126953,-0.061035,2.487183,3.265381
-0.346436,-0.932373,-0.126953,0.061035,2.6474,3.64685
-0.343262,-0.933594,-0.12915,0.411987,2.807617,3.883362
-0.338867,-0.937256,-0.131104,0.366211,2.807617,3.913879
-0.335205,-0.938721,-0.129883,0.144958,2.494812,4.074097
-0.334473,-0.937012,-0.129639,0.061035,2.27356,4.119873
-0.332031,-0.937012,-0.134277,0.076294,2.258301,3.921509
-0.32666,-0.935547,-0.135498,0.221252,2.288818,3.677368
-0.328857,-0.93457,-0.137695,0.022888,2.082825,3.425598
-0.339111,-0.936035,-0.139404,-0.320435,1.861572,3.364563
-0.338623,-0.93335,-0.142334,-0.37384,2.067566,3.27301
-0.329346,-0.932129,-0.141602,-0.198364,2.479553,2.746582
-0.330566,-0.937012,-0.138916,-0.045776,2.197266,1.647949
-0.331055,-0.937256,-0.137207,-0.1297,1.594543,0.793457
-0.333008,-0.935059,-0.135986,-0.213623,1.106262,0.473022
-0.338379,-0.936768,-0.136475,0.144958,0.617981,0.061035
-0.335449,-0.936279,-0.133545,0.350952,0.1297,-0.198364
-0.343506,-0.937256,-0.131104,0.297546,-0.526428,-0.434875
-0.359375,-0.935303,-0.13208,0.038147,-0.854492,-0.801086
-0.359375,-0.932373,-0.131836,0.259399,0.289917,-0.465393
-0.348633,-0.931885,-0.128662,0.640869,1.792908,-0.610352
-0.344482,-0.932617,-0.123047,0.663757,1.937866,-1.235962
-0.342041,-0.930908,-0.124023,0.427246,1.373291,-1.426697
-0.344238,-0.928711,-0.125488,0.259399,0.389099,-1.396179
-0.353516,-0.928223,-0.124023,0.022888,-0.572205,-1.037598
-0.35083,-0.929688,-0.127197,-0.068665,-0.770569,-0.732422
-0.349854,-0.930176,-0.123779,-0.1297,-1.174927,-1.068115
-0.348633,-0.93335,-0.11792,-0.62561,-2.380371,-1.045227
-0.355469,-0.932861,-0.12207,-1.335144,-3.189087,-0.991821
-0.355225,-0.928467,-0.121826,-1.327515,-3.334045,-0.999451
-0.351074,-0.928223,-0.116455,-0.968933,-2.998352,-1.00708
-0.355469,-0.931885,-0.117432,-0.968933,-2.89154,-1.106262
-0.356445,-0.932373,-0.120361,-0.946045,-2.983093,-0.984192
-0.347656,-0.929932,-0.11792,-0.778198,-3.005981,-0.846863
-0.343018,-0.928711,-0.117432,-0.640869,-3.593445,-1.083374
-0.347656,-0.928467,-0.116699,-0.87738,-4.03595,-1.457214
-0.347412,-0.926758,-0.114746,-0.831604,-3.623962,-1.693725
-0.338135,-0.924316,-0.119385,-0.434875,-2.960205,-1.998901
-0.334961,-0.924561,-0.125,-0.38147,-3.067016,-2.296448
-0.336182,-0.924561,-0.129639,-0.411987,-3.532409,-2.479553
-0.336426,-0.921875,-0.128906,-0.198364,-3.845215,-2.578735
-0.333496,-0.917725,-0.126953,0.007629,-4.15802,-2.89154
-0.33667,-0.920166,-0.129395,-0.091553,-4.592896,-3.227234
-0.340332,-0.919678,-0.130615,-0.068665,-4.905701,-3.578186
-0.342529,-0.921387,-0.135742,0.175476,-4.829407,-3.761291
-0.342285,-0.922607,-0.137451,0.350952,-4.646301,-3.852844
-0.343018,-0.928223,-0.136475,0.343323,-4.837036,-3.90625
-0.34668,-0.929688,-0.135254,0.259399,-5.310058,-3.875732
-0.347168,-0.933105,-0.133545,0.022888,-6.065368,-3.837585
-0.347656,-0.935791,-0.131836,-0.205994,-6.965637,-3.730774
-0.349121,-0.932373,-0.133545,-0.434875,-7.705688,-3.463745
-0.351074,-0.927002,-0.133301,-0.602722,-8.262634,-3.387451
-0.351807,-0.922852,-0.134521,-0.602722,-8.529663,-3.219604
-0.353271,-0.917969,-0.135986,-0.564575,-8.636475,-2.975464
-0.356934,-0.914307,-0.135742,-0.480652,-8.850098,-2.677917
-0.35498,-0.911377,-0.135254,-0.404358,-8.956909,-2.26593
-0.36084,-0.908203,-0.134033,-0.534058,-8.903503,-2.304077
-0.364014,-0.914063,-0.133545,-0.488281,-8.575439,-2.159119
-0.366943,-0.916504,-0.133057,-0.396728,-7.728576,-2.227783
-0.364746,-0.917969,-0.132324,-0.274658,-6.507873,-2.326965
-0.366455,-0.917236,-0.133301,-0.015259,-5.134582,-2.388
-0.366211,-0.918457,-0.134277,0.213623,-4.173279,-2.578735
-0.365234,-0.92041,-0.140625,0.228882,-3.509521,-2.532959
-0.362549,-0.92041,-0.14502,0.152588,-3.013611,-2.5177
-0.358887,-0.923584,-0.144287,0.167847,-2.929687,-2.525329
-0.362061,-0.924316,-0.14502,-0.068665,-3.40271,-2.319336
-0.359375,-0.923828,-0.144531,-0.419617,-4.150391,-2.01416
-0.358887,-0.919434,-0.14502,-0.831604,-4.78363,-1.64032
-0.36084,-0.916748,-0.147217,-1.029968,-5.043029,-1.13678
-0.36377,-0.914307,-0.14502,-1.060486,-4.585266,-0.747681
-0.364258,-0.914551,-0.14209,-1.037598,-3.868103,-0.297546
-0.362549,-0.91748,-0.143066,-1.098633,-3.257751,0.236511
-0.362061,-0.918457,-0.141113,-1.266479,-2.738952,0.50354
-0.358154,-0.925537,-0.137695,-1.502991,-2.525329,0.778198
-0.360596,-0.927246,-0.138672,-1.495361,-2.365112,1.022339
-0.363037,-0.93042,-0.13916,-1.541138,-1.968384,0.823975
-0.358398,-0.929199,-0.136963,-1.525879,-1.64032,0.663757
-0.355225,-0.929688,-0.137207,-1.457214,-1.464844,0.610352
-0.35498,-0.928711,-0.139893,-1.708984,-1.457214,0.495911
-0.351074,-0.927002,-0.139404,-1.64032,-1.365662,0.457764
-0.351074,-0.925293,-0.136719,-1.434326,-1.022339,0.587463
-0.348145,-0.924072,-0.138428,-1.38855,-0.62561,0.564575
-0.344727,-0.925537,-0.13916,-1.235962,-0.480652,0.62561
-0.34375,-0.924316,-0.137451,-1.12915,-0.50354,0.724792
-0.344727,-0.921875,-0.141357,-1.144409,-0.526428,0.778198
-0.345703,-0.91748,-0.142334,-0.953674,-0.190735,0.701904
-0.344727,-0.914063,-0.141602,-0.938415,-0.076294,0.579834
-0.341553,-0.9104,-0.138184,-0.823975,-0.083923,0.740051
-0.344727,-0.906006,-0.140381,-0.686645,-0.205994,0.770569
-0.344971,-0.901611,-0.140381,-1.060486,-0.709534,0.717163
-0.349121,-0.904785,-0.140625,-1.25885,-1.182556,1.121521
-0.356201,-0.908447,-0.139648,-1.38855,-1.625061,1.579285
-0.361328,-0.913818,-0.141602,-1.502991,-1.838684,2.02179
-0.367188,-0.921387,-0.141846,-1.335144,-2.01416,2.532959
-0.367676,-0.932129,-0.140625,-1.319885,-2.571106,2.89917
-0.371826,-0.938965,-0.143555,-1.525879,-3.639221,3.311157
-0.376953,-0.941895,-0.143066,-1.647949,-4.333496,3.90625
-0.381836,-0.940674,-0.143066,-1.594543,-4.493713,4.310608
-0.381836,-0.93457,-0.148438,-1.304626,-4.112244,4.760742
-0.381104,-0.933594,-0.155029,-0.984192,-3.997802,5.081176
-0.383545,-0.931396,-0.152832,-1.220703,-3.494262,5.592346
-0.380371,-0.92627,-0.158691,-1.167297,-2.441406,6.378173
-0.374023,-0.920898,-0.162109,-0.778198,-0.785828,6.286621
-0.368408,-0.915771,-0.170166,-0.495911,0.808716,6.16455
-0.361816,-0.906738,-0.173096,-0.205994,2.182007,6.324768
-0.356201,-0.902832,-0.178467,0.053406,3.128052,5.981445
-0.358154,-0.900146,-0.177002,0.25177,3.723144,5.523681
-0.358643,-0.894287,-0.171631,0.366211,4.196167,5.004883
-0.360596,-0.896729,-0.165039,0.50354,4.760742,4.547119
-0.36499,-0.899902,-0.157715,0.587463,5.241394,3.684997
-0.365479,-0.900391,-0.151367,0.778198,5.889892,2.799988
-0.369385,-0.902832,-0.146729,0.991821,6.645202,2.044678
-0.374023,-0.906982,-0.14209,1.190186,7.369995,1.434326
-0.375732,-0.909912,-0.134521,1.533508,7.820129,1.274109
-0.372803,-0.914551,-0.128662,1.647949,8.171082,1.281738
-0.374756,-0.919922,-0.121826,1.533508,8.338928,1.190186
-0.378174,-0.924805,-0.118652,1.64032,8.31604,1.121521
-0.379883,-0.930176,-0.114258,1.625061,8.384705,1.342773
-0.378418,-0.933838,-0.111816,1.541138,8.506775,1.449585
-0.373779,-0.934082,-0.117188,1.403808,8.644104,1.586914
-0.368896,-0.935303,-0.120117,1.167297,8.628845,1.808166
-0.363037,-0.932617,-0.120117,1.144409,8.293152,2.227783
-0.355957,-0.931396,-0.121826,1.083374,7.530212,2.63977
-0.354492,-0.929932,-0.121826,0.946045,6.92749,2.937317
-0.349854,-0.929688,-0.120605,0.976562,6.401062,3.181457
-0.347412,-0.92749,-0.121582,1.060486,5.867004,3.105163
-0.346924,-0.927246,-0.121338,1.159668,5.462646,2.929687
-0.343506,-0.92627,-0.121338,1.235962,5.241394,2.716064
-0.341309,-0.922363,-0.123291,1.220703,4.928589,2.304077
-0.3396,-0.919922,-0.126953,1.350403,4.631042,1.808166
-0.338623,-0.920654,-0.126465,1.319885,4.112244,1.289368
-0.341797,-0.922607,-0.125977,1.220703,3.479004,0.762939
-0.345215,-0.922119,-0.127686,1.106262,2.670288,0.396728
-0.346191,-0.921143,-0.130615,0.900268,1.899719,0.061035
-0.346436,-0.922852,-0.130371,0.75531,1.167297,-0.236511
-0.351807,-0.925537,-0.133057,0.617981,0.648498,-0.602722
-0.356445,-0.932129,-0.132813,0.63324,0.053406,-0.869751
-0.361328,-0.931641,-0.13501,0.320435,-0.526428,-0.846863
-0.360596,-0.928467,-0.142822,-0.198364,-1.335144,-0.686645
-0.365479,-0.928711,-0.143555,-0.37384,-2.319336,-0.396728
-0.373047,-0.927979,-0.136719,-0.350952,-3.356933,0.045776
-0.384277,-0.929443,-0.13208,-0.366211,-3.585815,0.686645
-0.388428,-0.930176,-0.131348,-0.511169,-2.220154,0.62561
-0.375244,-0.925049,-0.136719,-0.343323,-0.091553,0.488281
-0.363525,-0.922852,-0.142334,-0.099182,0.892639,0.320435
-0.359131,-0.919922,-0.144531,-0.366211,0.007629,0.183105
-0.367432,-0.917969,-0.140869,-0.778198,-1.548767,0.366211
-0.372803,-0.9104,-0.141846,-0.976562,-2.288818,0.366211
-0.371582,-0.907715,-0.140137,-0.732422,-2.39563,0.282288
-0.37207,-0.908691,-0.134277,-0.534058,-2.311707,0.175476
-0.377441,-0.909424,-0.130371,-0.38147,-1.89209,-0.045776
-0.379883,-0.910156,-0.128174,-0.205994,-1.060486,-0.297546
-0.376221,-0.911377,-0.124023,0.099182,-0.549316,-0.511169
-0.375488,-0.913086,-0.123291,0.244141,-0.427246,-0.404358
-0.378662,-0.916992,-0.125488,0.259399,-0.541687,-0.343323
-0.379395,-0.918701,-0.13208,0.358582,-0.556946,-0.190735
-0.378662,-0.924316,-0.133789,0.335693,-0.717163,-0.091553
-0.378906,-0.925781,-0.13501,0.236511,-0.808716,0.091553
-0.37915,-0.924805,-0.138428,0.022888,-0.602722,0.038147
-0.375732,-0.922607,-0.143555,0.366211,-0.152588,0.091553
-0.368408,-0.922852,-0.144287,0.663757,-0.091553,0.335693
-0.366943,-0.92041,-0.143311,0.511169,-0.534058,0.534058
-0.369141,-0.918457,-0.142334,0.366211,-1.144409,0.579834
-0.368164,-0.916992,-0.147461,0.236511,-1.487732,0.679016
-0.369141,-0.916504,-0.143066,0.030518,-1.419067,0.595093
-0.369141,-0.914307,-0.141357,-0.007629,-1.152039,0.572205
-0.371338,-0.915527,-0.144287,-0.061035,-1.106262,0.511169
-0.37207,-0.916016,-0.144775,0.083923,-0.88501,0.343323
-0.375244,-0.919678,-0.144775,0.213623,-0.656128,0.099182
-0.37793,-0.920166,-0.143555,0.320435,-0.442505,-0.099182
-0.378418,-0.921875,-0.141113,0.389099,-0.396728,-0.328064
-0.378906,-0.921631,-0.139893,0.465393,-0.442505,-0.396728
-0.380615,-0.918213,-0.14209,0.511169,-0.343323,-0.366211
-0.382324,-0.915771,-0.142334,0.526428,0.0,-0.411987
-0.385254,-0.918945,-0.142578,0.732422,0.640869,-0.312805
-0.387451,-0.918945,-0.145996,0.961304,1.472473,-0.198364
-0.387451,-0.91626,-0.146729,1.289368,2.204895,-0.106812
-0.382324,-0.916992,-0.146729,1.358032,2.761841,0.068665
-0.380371,-0.915771,-0.145508,1.396179,2.914428,0.038147
-0.380127,-0.916016,-0.142334,1.281738,2.784729,0.038147
-0.379639,-0.914063,-0.143311,1.342773,2.662658,-0.12207
-0.381104,-0.912109,-0.140625,1.38855,2.807617,-0.282288
-0.38501,-0.912598,-0.141357,1.472473,3.181457,-0.450134
-0.385986,-0.914551,-0.141602,1.533508,3.64685,-0.511169
-0.382324,-0.915283,-0.139893,1.731872,4.173279,-0.442505
-0.38208,-0.913818,-0.140625,1.678467,4.364014,-0.488281
-0.382324,-0.912842,-0.141113,1.731872,4.53186,-0.457764
-0.38208,-0.913818,-0.142334,1.693725,4.707336,-0.282288
-0.378906,-0.917236,-0.140381,1.655578,4.852295,-0.12207
-0.376709,-0.919189,-0.137939,1.617432,4.959106,-0.053406
-0.375977,-0.920654,-0.135254,1.579285,5.050659,0.061035
-0.375488,-0.922119,-0.137939,1.571655,5.027771,0.022888
-0.373291,-0.92041,-0.135498,1.609802,5.081176,-0.053406
-0.369873,-0.916016,-0.138672,1.792908,5.249023,-0.053406
-0.368896,-0.912598,-0.137451,1.930237,5.126953,0.030518
-0.367432,-0.915527,-0.135254,1.907349,4.997253,0.007629
-0.366455,-0.918701,-0.133789,1.968384,4.981995,-0.076294
-0.366455,-0.916992,-0.134766,1.968384,4.959106,-0.183105
-0.365723,-0.917236,-0.137207,1.945495,4.768372,-0.297546
-0.365479,-0.915527,-0.137451,1.968384,4.615784,-0.335693
-0.367432,-0.916992,-0.137695,1.808166,4.40979,-0.335693
-0.369385,-0.916748,-0.138672,1.686096,4.104614,-0.244141
-0.368652,-0.916504,-0.137207,1.63269,3.852844,-0.198364
-0.370361,-0.917236,-0.137695,1.426697,3.410339,-0.221252
-0.370117,-0.919678,-0.136475,1.190186,3.005981,-0.183105
-0.375488,-0.920654,-0.13623,1.091003,2.670288,-0.190735
-0.377686,-0.922363,-0.137207,1.052856,2.555847,-0.175476
-0.374268,-0.924561,-0.135742,0.938415,2.464294,-0.137329
-0.375732,-0.92334,-0.137207,0.862122,2.235413,-0.198364
-0.375977,-0.923096,-0.136963,0.808716,2.319336,-0.282288
-0.375244,-0.922607,-0.13623,0.823975,2.372742,-0.213623
-0.373291,-0.92334,-0.135986,0.839233,2.456665,-0.167847
-0.375488,-0.921875,-0.137939,0.740051,2.418518,-0.183105
-0.374512,-0.917725,-0.13916,0.778198,2.449036,-0.198364
-0.371094,-0.91748,-0.140625,0.679016,2.487183,-0.076294
-0.373047,-0.919678,-0.142334,0.587463,2.426147,0.015259
-0.373047,-0.916992,-0.142822,0.488281,2.281189,0.152588
-0.37207,-0.913818,-0.142578,0.358582,2.128601,0.228882
-0.369385,-0.915039,-0.142334,0.244141,1.960754,0.389099
-0.366699,-0.915527,-0.141602,0.267029,1.876831,0.572205
-0.366211,-0.914795,-0.138672,0.198364,1.716614,0.732422
-0.36792,-0.915039,-0.13916,0.099182,1.655578,0.717163
-0.366699,-0.918213,-0.135986,0.007629,1.403808,0.62561
-0.365967,-0.918701,-0.13501,0.053406,1.213074,0.450134
-0.367432,-0.918945,-0.133789,0.114441,1.228333,0.328064
-0.368896,-0.916016,-0.134766,0.160217,1.274109,0.175476
-0.369629,-0.916504,-0.134277,0.25177,1.235962,0.045776
-0.369629,-0.917969,-0.135986,0.305176,1.243591,-0.068665
-0.369873,-0.917725,-0.135742,0.366211,1.296997,-0.022888
-0.367676,-0.916016,-0.134033,0.518799,1.289368,-0.274658
-0.373291,-0.91748,-0.137451,0.411987,1.083374,-0.595093
-0.37207,-0.916504,-0.136475,0.427246,0.854492,-0.480652
-0.374268,-0.917969,-0.133789,0.534058,0.862122,-0.480652
-0.374756,-0.915771,-0.136963,0.442505,0.823975,-0.88501
-0.374512,-0.914795,-0.142822,0.556946,0.915527,-1.00708
-0.372559,-0.918457,-0.143799,0.511169,0.770569,-0.892639
-0.370117,-0.918457,-0.145264,0.419617,0.411987,-0.762939
-0.374756,-0.917969,-0.142334,0.282288,-0.015259,-0.671387
-0.375244,-0.91333,-0.143311,0.114441,-0.465393,-0.587463
-0.373291,-0.912842,-0.141113,0.015259,-0.587463,-0.167847
-0.374268,-0.91333,-0.140869,0.083923,-0.617981,-0.068665
-0.376221,-0.91333,-0.140869,0.137329,-0.541687,0.022888
-0.374023,-0.913086,-0.140625,0.244141,-0.267029,0.297546
-0.371582,-0.912109,-0.140137,0.404358,-0.038147,0.419617
-0.370605,-0.912598,-0.139404,0.465393,-0.350952,0.457764
-0.370605,-0.912842,-0.136719,0.335693,-0.648498,0.404358
-0.370361,-0.9104,-0.13501,0.259399,-0.823975,0.144958
-0.372314,-0.909912,-0.135254,0.350952,-0.862122,-0.068665
-0.373779,-0.912842,-0.13623,0.534058,-0.701904,-0.427246
-0.378662,-0.914063,-0.137939,0.671387,-0.679016,-0.724792
-0.378174,-0.913086,-0.137939,0.556946,-0.846863,-0.808716
-0.380371,-0.914551,-0.140137,0.701904,-0.915527,-0.816345
-0.382324,-0.916992,-0.141602,0.617981,-0.961304,-0.617981
-0.380127,-0.915283,-0.142822,0.495911,-0.793457,-0.50354
-0.380371,-0.914551,-0.141602,0.617981,-0.389099,-0.312805
-0.381348,-0.91333,-0.140869,0.793457,0.114441,-0.198364
-0.37915,-0.918213,-0.141846,0.793457,0.610352,-0.099182
-0.378662,-0.921143,-0.140381,0.930786,0.892639,-0.083923
-0.376709,-0.921143,-0.144287,1.075745,1.014709,-0.167847
-0.377197,-0.920166,-0.144531,1.113892,1.052856,-0.236511
-0.374512,-0.921143,-0.142822,1.083374,0.915527,-0.25177
-0.373779,-0.925537,-0.141113,1.167297,0.602722,-0.343323
-0.373535,-0.926758,-0.141113,1.037598,0.534058,-0.228882
-0.374023,-0.921631,-0.142578,1.152039,0.87738,-0.175476
-0.367676,-0.914795,-0.144775,1.228333,1.190186,0.053406
-0.363525,-0.911133,-0.145752,1.296997,1.121521,0.305176
-0.360596,-0.908936,-0.147461,1.235962,1.022339,0.587463
-0.358398,-0.907227,-0.145264,1.152039,0.938415,0.854492
-0.35498,-0.90332,-0.14502,1.13678,0.808716,1.098633
-0.348633,-0.901123,-0.147461,1.060486,0.602722,1.228333
-0.348145,-0.900635,-0.148438,0.862122,0.595093,1.274109
-0.350586,-0.903076,-0.150635,0.617981,0.839233,1.228333
-0.353271,-0.907471,-0.156982,0.434875,1.335144,1.159668
-0.351074,-0.916748,-0.162354,0.495911,1.670837,1.091003
-0.350098,-0.927979,-0.164063,0.267029,1.091003,1.38855
-0.351318,-0.93457,-0.16748,-0.457764,-0.38147,1.808166
-0.354492,-0.936035,-0.16626,-1.029968,-2.128601,2.334595
-0.356201,-0.933105,-0.165283,-1.441955,-3.768921,3.044128
-0.356934,-0.928711,-0.169922,-1.785278,-5.081176,4.03595
-0.359619,-0.922363,-0.174072,-1.960754,-6.011962,5.065917
-0.362061,-0.91333,-0.173584,-2.098083,-6.446838,5.989074
-0.364258,-0.906494,-0.172363,-2.044678,-6.645202,6.744384
-0.364014,-0.896484,-0.175049,-1.899719,-6.454467,7.476806
-0.366699,-0.892578,-0.178711,-1.678467,-6.057739,8.102417
-0.362305,-0.894531,-0.176514,-1.533508,-5.393981,8.918762
-0.360352,-0.897461,-0.175049,-1.396179,-5.027771,9.513855
-0.361328,-0.901611,-0.173096,-1.365662,-5.249023,9.880066
-0.363037,-0.900146,-0.171875,-1.197815,-5.584716,10.093688
-0.362549,-0.901855,-0.17041,-0.953674,-5.867004,10.330199
-0.364746,-0.90332,-0.170898,-0.724792,-6.103515,10.360717
-0.36499,-0.9021,-0.171875,-0.419617,-6.454467,10.124206
-0.365234,-0.902832,-0.17041,-0.053406,-6.774902,10.06317
-0.369141,-0.902344,-0.170654,0.205994,-7.118225,9.971619
-0.369873,-0.902588,-0.176514,0.480652,-7.43103,9.933472
-0.369629,-0.904297,-0.177979,0.709534,-7.484436,9.857178
-0.367432,-0.900635,-0.177979,1.014709,-7.30133,9.963989
-0.366699,-0.895996,-0.182617,1.464844,-6.767272,9.994507
-0.36377,-0.894043,-0.182129,1.625061,-6.202697,10.055541
-0.356201,-0.890869,-0.18457,1.846313,-6.202697,10.078429
-0.35498,-0.894043,-0.184326,1.937866,-6.54602,9.910583
-0.355713,-0.897949,-0.188232,1.800537,-6.607055,9.796143
-0.353027,-0.897705,-0.193115,1.853943,-6.614685,9.635925
-0.350098,-0.901611,-0.202881,1.861572,-6.767272,9.231567
-0.345215,-0.902344,-0.206299,1.548767,-7.392883,8.644104
-0.343262,-0.897217,-0.208008,1.106262,-8.659363,8.132935
-0.34082,-0.89624,-0.200195,0.534058,-10.345458,7.507324
-0.337402,-0.903076,-0.203857,0.068665,-11.894225,6.820678
-0.328613,-0.908203,-0.218506,-0.389099,-13.809203,5.905151
-0.306885,-0.911621,-0.229248,-1.426697,-18.028259,5.584716
-0.295654,-0.921143,-0.229736,-3.829956,-25.80261,5.645751
-0.289063,-0.922363,-0.2229,-7.514953,-35.720825,5.0354
-0.295654,-0.917969,-0.2146,-11.184691,-46.95892,4.135132
-0.319824,-0.909424,-0.211426,-14.793395,-57.861324,3.822326
-0.335449,-0.891357,-0.213623,-17.63916,-66.581726,5.104064
-0.351074,-0.875244,-0.213623,-20.248411,-73.326111,6.721496
-0.388428,-0.856689,-0.209717,-23.117064,-77.507019,8.476257
-0.398193,-0.817383,-0.193848,-24.581907,-79.109192,11.970519
-0.415771,-0.777344,-0.182373,-25.093077,-78.193665,16.105652
-0.460693,-0.742432,-0.182373,-26.374815,-76.324463,19.943237
-0.486328,-0.704834,-0.174072,-26.702879,-71.281433,26.252745
-0.511719,-0.699219,-0.150391,-25.360106,-63.3316,33.195496
-0.526855,-0.739258,-0.125977,-22.972105,-55.633541,38.391113
-0.574463,-0.813232,-0.090332,-21.263121,-51.597591,41.343685
-0.677979,-0.890625,-0.063232,-20.973204,-49.118038,42.938229
-0.786621,-0.940674,-0.061279,-19.340515,-43.617245,45.516964
-0.855225,-0.99292,-0.057129,-16.181946,-33.26416,48.377987
-0.900635,-1.044434,-0.054688,-15.502929,-19.882202,48.400875
-0.922852,-1.06665,-0.077393,-16.975403,-7.148742,45.829769
-0.904053,-1.062012,-0.121826,-18.577576,0.930786,43.762203
-0.866699,-1.033447,-0.138428,-21.217344,-0.228882,44.921871
-0.833252,-1.002441,-0.135254,-25.817869,-10.765075,48.477169
-0.807373,-0.957031,-0.126709,-30.899046,-26.893614,52.413937
-0.798584,-0.899658,-0.128174,-35.392761,-45.104977,56.365963
-0.791992,-0.839355,-0.129639,-37.559509,-61.43951,62.088009
-0.806885,-0.780029,-0.132324,-37.330627,-73.791504,69.091797
-0.849609,-0.726563,-0.127686,-35.873413,-80.642693,75.973511
-0.89209,-0.678467,-0.126953,-33.27179,-79.185486,83.244316
-0.921875,-0.640869,-0.123779,-29.96826,-68.977356,90.339653
-0.94873,-0.607178,-0.115723,-26.901243,-53.047176,96.412651
-0.966064,-0.578857,-0.121094,-23.460386,-34.072876,101.882927
-0.953613,-0.550537,-0.132813,-20.210264,-13.511657,106.842033
-0.934082,-0.522705,-0.13916,-18.554688,5.493164,110.115044
-0.913086,-0.487549,-0.143066,-17.63916,20.942686,112.80822
-0.89624,-0.458496,-0.146484,-16.342163,33.317566,115.768425
-0.87915,-0.430176,-0.14209,-16.174316,42.846676,117.835991
-0.851563,-0.404785,-0.13916,-15.747069,50.468441,119.575493
-0.851074,-0.385254,-0.141357,-15.441894,56.755062,120.11718
-0.854492,-0.365234,-0.14502,-15.197753,62.400814,120.338432
-0.867676,-0.35083,-0.136475,-13.877868,67.016602,121.925346
-0.914307,-0.352539,-0.127686,-12.893676,69.602966,123.420708
-0.95459,-0.372314,-0.115967,-12.290954,70.915222,126.472466
-0.943848,-0.385254,-0.121582,-11.535644,72.875977,131.752014
-0.914307,-0.38623,-0.134033,-10.276793,73.638916,135.116577
-0.910156,-0.381348,-0.141602,-9.544373,71.19751,136.756897
-0.941162,-0.380371,-0.145996,-9.216309,66.635132,139.045715
-0.972412,-0.37207,-0.139648,-9.719849,62.751766,142.356873
-0.984375,-0.333252,-0.148926,-9.727478,61.027523,145.599365
-0.97583,-0.298828,-0.164307,-7.896423,60.234066,147.544861
-0.964844,-0.278564,-0.17627,-5.485534,59.310909,150.024414
-0.97876,-0.258301,-0.179932,-4.173279,56.732174,153.465271
-1.008545,-0.251221,-0.189453,-4.051208,53.718563,156.761169
-1.011963,-0.246338,-0.201904,-4.15802,53.520199,160.385132
-0.995361,-0.213135,-0.216309,-3.64685,55.824276,163.99382
-0.990723,-0.17334,-0.227295,-2.922058,57.205196,164.932236
-0.999023,-0.15332,-0.236816,-2.26593,56.663509,165.412888
-0.985107,-0.136475,-0.240479,-2.677917,54.573055,166.90062
-1.005371,-0.10498,-0.253906,-4.180908,52.467342,166.931137
-1.06665,-0.08667,-0.261963,-5.058288,52.886959,166.51915
-1.102539,-0.08667,-0.268799,-4.722595,58.41827,170.593246
-1.056396,-0.061035,-0.2771,-3.517151,64.033508,175.621017
-0.990234,-0.026123,-0.287354,-0.50354,61.82098,176.872238
-0.947754,-0.030029,-0.294922,0.900268,48.454281,175.46843
-0.935059,-0.01709,-0.298584,0.762939,29.983519,175.4608
-0.940186,0.019287,-0.280518,4.66156,15.457152,176.399216
-1.03125,0.051025,-0.268311,7.743835,9.513855,173.690781
-1.135498,0.062256,-0.296143,7.186889,15.632628,170.753464
-1.15918,0.060547,-0.324463,7.888793,35.713196,174.018845
-1.115479,0.068604,-0.378418,11.260985,60.623165,177.307114
-1.071777,0.041748,-0.418945,14.068603,78.979492,174.842819
-1.020508,-0.007568,-0.439209,12.771605,86.105339,174.171432
-0.986572,-0.036621,-0.451416,8.720398,81.863396,177.085861
-0.956543,-0.015381,-0.4729,6.744384,67.878723,178.497299
-0.948486,-0.05542,-0.44751,5.439758,49.873348,175.643906
-0.916748,-0.071777,-0.422607,0.473022,34.40094,175.84227
-0.917969,-0.032959,-0.422119,-1.564026,24.826048,178.909286
-0.981689,-0.016602,-0.436279,-2.754211,22.453306,176.21611
-0.935303,0.017822,-0.459229,-2.326965,27.282713,173.706039
-0.839111,0.042725,-0.486816,2.708435,34.713745,171.188339
-0.791992,0.059082,-0.490234,5.477905,36.888123,163.001999
-0.775879,0.092041,-0.472656,5.371093,33.561707,155.715942
-0.78418,0.137939,-0.431885,5.79071,27.19879,150.588989
-0.794434,0.159912,-0.400879,8.132935,19.851685,145.195007
-0.851074,0.161377,-0.365723,11.421203,12.077331,138.999939
-0.881348,0.169922,-0.326904,16.807556,6.240844,133.636475
-0.927979,0.192871,-0.332031,22.003172,4.325867,126.281731
-0.953857,0.220459,-0.355469,26.031492,5.523681,118.080132
-0.954834,0.238281,-0.38208,31.402586,9.063721,113.136284
-0.978027,0.269043,-0.418213,36.2854,11.95526,107.414238
-0.943359,0.278564,-0.422852,38.421631,11.726378,104.74395
-0.921631,0.302734,-0.406006,34.584045,9.231567,102.020256
-0.949707,0.337891,-0.416504,31.85272,4.814148,97.05352
-0.989502,0.3479,-0.436523,33.042908,-0.038147,95.199577
-0.972168,0.336914,-0.424561,33.546448,-6.599426,90.171806
-0.939209,0.279297,-0.448242,31.166075,-11.428832,81.451408
-0.888672,0.244873,-0.49707,28.915403,-14.045714,71.807861
-0.842773,0.20874,-0.56543,27.000425,-19.805908,60.615536
-0.832031,0.200195,-0.659668,23.742674,-31.288145,46.173092
-0.939453,0.227051,-0.676758,16.242981,-48.645016,38.276672
-1.108887,0.274658,-0.639648,4.623413,-59.585567,37.132263
-1.232666,0.342529,-0.608643,-3.64685,-49.903866,35.896301
-1.193115,0.406738,-0.575684,-6.484985,-24.002073,32.76825
-1.069092,0.47168,-0.566406,-4.318237,2.609253,25.939939
-0.993652,0.483887,-0.5625,-0.930786,16.929626,19.607544
-0.964111,0.509033,-0.597168,-0.267029,18.875122,16.021729
-0.953125,0.55542,-0.63623,-0.335693,11.558532,13.85498
-0.958496,0.570801,-0.635742,-1.617432,-1.304626,11.398314
-1.009521,0.608887,-0.625977,-5.15747,-11.650084,9.895325
-1.056885,0.640625,-0.595459,-6.851196,-14.694213,10.299682
-1.077393,0.654785,-0.545166,-8.094788,-11.100768,11.238097
-1.063477,0.65918,-0.505371,-10.025024,-3.341675,12.680053
-1.041504,0.636963,-0.488525,-11.45935,5.981445,12.886046
-1.033203,0.595215,-0.494629,-11.878966,13.481139,11.520385
-1.017822,0.574463,-0.521973,-9.44519,15.403747,9.689331
-1.007813,0.562012,-0.536133,-7.797241,8.018494,6.874084
-1.035889,0.566895,-0.556396,-9.902954,-6.851196,3.608703
-1.04834,0.595215,-0.575195,-11.83319,-20.683287,-0.312805
-1.064941,0.604004,-0.597168,-12.275695,-30.181883,-3.486633
-1.091309,0.60498,-0.618896,-14.427184,-36.468506,-5.401611
-1.09668,0.601563,-0.622559,-17.608643,-38.024902,-7.400512
-1.11084,0.595703,-0.623779,-21.202085,-34.301758,-10.459899
-1.115479,0.584961,-0.635254,-24.757383,-26.031492,-12.748717
-1.123047,0.581543,-0.63916,-27.732847,-13.71765,-13.420104
-1.126221,0.5979,-0.63623,-29.777525,2.250671,-13.076781
-1.130859,0.61377,-0.633789,-30.426023,20.126341,-13.076781
-1.128906,0.61792,-0.633057,-30.6015,35.270691,-13.923644
-1.122314,0.606934,-0.631836,-31.486509,44.593807,-14.945983
-1.086426,0.586426,-0.624756,-32.707214,47.8363,-16.166687
-1.040527,0.557861,-0.615723,-33.821106,47.698971,-18.119812
-1.006104,0.543457,-0.595947,-34.568787,46.913143,-20.988462
-0.985107,0.523438,-0.568359,-34.324646,48.286434,-23.841856
-0.987549,0.505859,-0.544189,-34.378052,53.0014,-26.908873
-0.959961,0.491943,-0.517334,-33.64563,61.279293,-30.22003
-0.96582,0.455566,-0.534912,-33.340454,72.608948,-35.140991
-1.045654,0.445557,-0.596191,-34.27124,85.288994,-41.954037
-1.054932,0.448975,-0.648926,-29.685972,95.802299,-45.539852
-1.016602,0.405518,-0.681396,-23.231504,96.885674,-47.309872
-0.958496,0.361572,-0.667236,-24.444578,83.641045,-48.454281
-0.927734,0.358154,-0.619141,-28.610228,64.468384,-46.82922
-0.886475,0.389648,-0.557617,-28.923033,48.233028,-47.683712
-0.797119,0.404053,-0.491455,-24.131773,36.224365,-50.834652
-0.656738,0.37915,-0.419434,-17.372131,25.588987,-54.168697
-0.523926,0.333984,-0.348633,-11.100768,12.504577,-60.882565
-0.441406,0.26709,-0.29834,-6.576538,-5.004883,-73.425293
-0.489502,0.176514,-0.300537,-7.240295,-23.612974,-90.026848
-0.605469,0.124268,-0.311035,-13.236999,-37.452698,-106.620781
-0.662842,0.091309,-0.33667,-18.203735,-36.766052,-117.202751
-0.684326,0.071289,-0.3479,-20.477293,-21.240232,-126.625053
-0.668701,0.057617,-0.338623,-20.606993,0.63324,-137.779236
-0.603516,0.051025,-0.319824,-19.432068,20.660398,-147.850037
-0.49707,0.05127,-0.287598,-18.325806,32.981873,-156.524658
-0.418945,0.05835,-0.269287,-16.822815,33.966064,-165.687546
-0.40625,0.05835,-0.297119,-11.169433,19.577026,-175.994858
-0.427002,0.020996,-0.295166,-2.563476,-11.848449,-184.394821
-0.424072,-0.019043,-0.256836,2.105713,-55.496212,-188.102707
-0.400146,-0.033203,-0.225586,0.236511,-101.882927,-191.757187
-0.375732,-0.032959,-0.200439,-6.17218,-140.914917,-199.768051
-0.474609,-0.030762,-0.178955,-16.052246,-162.902817,-211.898788
-0.761475,-0.0271,-0.191895,-27.94647,-158.111572,-225.837692
-1.210693,-0.009277,-0.250977,-36.705017,-125.091545,-239.364609
-1.432373,-0.05957,-0.303467,-33.607483,-70.419312,-237.068161
-1.351074,-0.082275,-0.337646,-23.231504,-9.674072,-212.272629
-1.178955,0.023438,-0.389893,-14.953612,31.272886,-192.207321
-1.00708,0.115234,-0.39624,-8.674622,38.963318,-184.623703
-0.885498,0.148438,-0.334229,-5.630493,19.40918,-173.103317
-0.8479,0.195313,-0.25415,-5.950927,-9.880066,-159.713745
-0.846924,0.268555,-0.2146,-3.097534,-31.295774,-154.36554
-0.92334,0.300049,-0.201416,3.585815,-41.831966,-156.791687
-1.020508,0.249756,-0.195068,7.247924,-43.884274,-162.178024
-1.114502,0.189941,-0.229492,7.698059,-33.699036,-164.268478
-1.239502,0.174561,-0.298096,10.536193,-12.20703,-165.496811
-1.29126,0.156738,-0.369629,16.921997,15.419005,-166.25975
-1.22876,0.141357,-0.403809,23.857115,41.046139,-162.254318
-1.118164,0.140137,-0.387451,29.762266,57.189938,-158.798218
-0.965576,0.127197,-0.344727,34.332275,63.285824,-160.522461
-0.897461,0.097656,-0.333496,37.834167,63.217159,-166.656479
-0.958008,0.021973,-0.353271,40.39764,56.594845,-174.45372
-1.008301,-0.075195,-0.388184,41.229244,48.622128,-177.162155
-0.953857,-0.118896,-0.422852,43.258663,43.373104,-173.377975
-0.909912,-0.150146,-0.443848,46.089169,36.949158,-172.874435
-0.898926,-0.192627,-0.445801,44.906612,28.312681,-177.192673
-0.855713,-0.202637,-0.42334,45.69244,21.080015,-176.040634
-0.805908,-0.201904,-0.365479,53.070065,15.388488,-171.821579
-0.746094,-0.205811,-0.329102,62.423702,7.293701,-172.782883
-0.658447,-0.201172,-0.322754,71.014404,-8.903503,-176.383957
-0.589844,-0.229736,-0.31543,78.025818,-34.484863,-177.711472
-0.648193,-0.334717,-0.365723,75.22583,-59.93652,-180.091843
-0.869873,-0.443848,-0.470947,61.157223,-68.664551,-183.15123
-0.994629,-0.505127,-0.540039,53.88641,-51.734921,-171.150192
-1.013916,-0.516846,-0.514648,60.791012,-21.484373,-148.918152
-0.996338,-0.52002,-0.46167,69.702148,3.280639,-133.804321
-0.960693,-0.524902,-0.429199,73.562622,15.068053,-122.88665
-0.911377,-0.522217,-0.401611,75.271606,13.72528,-110.015862
-0.862549,-0.522949,-0.371582,78.598022,4.943848,-98.236076
-0.823242,-0.532471,-0.361572,82.458488,-4.173279,-92.033379
-0.779297,-0.545898,-0.355469,84.632866,-13.96942,-92.292778
-0.730225,-0.599609,-0.340332,81.359856,-26.496885,-97.328178
-0.709229,-0.670898,-0.349854,68.603516,-40.100098,-105.979912
-0.760498,-0.723389,-0.355469,53.085323,-51.139828,-113.105766
-0.798584,-0.749023,-0.317139,43.434139,-57.594296,-113.044731
-0.815918,-0.759521,-0.262207,37.92572,-61.561581,-111.480705
-0.805908,-0.759521,-0.214111,32.417297,-67.970276,-112.152092
-0.779297,-0.760742,-0.190186,26.985167,-78.712463,-110.221855
-0.764404,-0.760986,-0.176758,22.972105,-94.245903,-104.972832
-0.829102,-0.798096,-0.189209,19.126892,-111.526482,-98.648064
-0.962646,-0.880127,-0.23584,9.689331,-121.650688,-90.240471
-1.01709,-0.911133,-0.290527,-2.479553,-115.135185,-74.813843
-0.959473,-0.870361,-0.308838,-7.263183,-94.367973,-56.053158
-0.87793,-0.831543,-0.284912,-5.15747,-71.533203,-41.511532
-0.842773,-0.83374,-0.26001,-4.936218,-56.945797,-29.136656
-0.839355,-0.820557,-0.244385,-8.544922,-49.995419,-14.770507
-0.843994,-0.782227,-0.241699,-9.849548,-44.639584,0.068665
-0.845215,-0.745605,-0.242188,-7.606506,-37.841797,11.32965
-0.827148,-0.712402,-0.26416,-4.898071,-29.830931,18.508911
-0.782715,-0.679443,-0.281738,-3.456115,-22.483824,23.15521
-0.726563,-0.645752,-0.26123,-5.081176,-18.608093,26.512144
-0.687012,-0.610352,-0.223389,-9.300232,-17.959595,29.21295
-0.707031,-0.59668,-0.185547,-12.916564,-16.63208,31.066893
-0.765869,-0.610352,-0.155029,-15.693664,-11.787414,31.806944
-0.81543,-0.647461,-0.134521,-16.090393,-1.739502,31.738279
-0.849609,-0.695313,-0.135254,-13.572692,11.543273,30.944822
-0.844482,-0.741699,-0.161377,-8.68988,24.009703,30.403135
-0.820557,-0.775635,-0.192383,-3.952026,31.898497,30.769346
-0.810059,-0.779541,-0.227051,-2.120972,34.431458,32.356262
-0.796875,-0.769775,-0.257324,-2.471924,33.52356,37.345886
-0.762207,-0.752197,-0.275391,-4.676819,30.792234,45.646664
-0.730225,-0.726807,-0.276855,-8.476257,26.94702,55.320736
-0.715088,-0.712158,-0.265625,-11.734008,23.605345,65.483093
-0.745117,-0.7229,-0.242188,-13.359069,21.179197,75.576782
-0.805908,-0.746094,-0.221436,-12.626647,19.355774,84.754936
-0.858154,-0.80542,-0.212891,-8.171082,19.592285,91.720573
-0.911133,-0.887939,-0.237549,-1.876831,22.048948,93.429558
-0.980469,-0.960205,-0.283691,5.699157,25.527952,90.148918
-1.034668,-1.04541,-0.34668,12.939452,31.700132,86.006157
-1.038818,-1.085693,-0.41333,17.26532,39.840698,86.174004
-1.028564,-1.068848,-0.460449,18.211365,47.523495,89.515678
-1.0,-1.014893,-0.467285,15.411376,53.474422,94.978325
-0.962646,-0.934082,-0.46582,10.57434,58.090206,104.187004
-0.935547,-0.850586,-0.454346,6.126403,62.469479,114.814751
-0.90918,-0.775879,-0.442871,3.517151,68.031311,125.679008
-0.903076,-0.711914,-0.431396,3.234863,76.850891,136.299133
-0.90332,-0.658203,-0.416504,4.776001,88.386528,144.874573
-0.888184,-0.619385,-0.39917,6.866455,100.296013,150.657654
-0.869873,-0.588379,-0.374268,7.514953,110.061638,153.457642
-0.877441,-0.5625,-0.35376,6.027221,117.523186,153.968811
-0.849854,-0.530518,-0.342041,5.40924,125.396721,155.24292
-0.817139,-0.505615,-0.34668,6.217956,130.744934,155.532837
-0.771973,-0.489014,-0.352783,6.866455,127.639763,153.198242
-0.733643,-0.472656,-0.372803,6.660461,114.31884,151.077271
-0.708496,-0.467041,-0.426514,5.096435,92.178337,149.101257
-0.719482,-0.468018,-0.427979,0.289917,66.757202,148.81897
-0.772705,-0.43457,-0.400391,-7.347106,46.630856,151.321411
-0.831055,-0.369629,-0.402832,-11.276244,36.6745,153.831482
-0.875977,-0.345215,-0.404297,-12.596129,34.881592,155.174255
-0.832031,-0.32373,-0.409424,-15.502929,36.743164,156.75354
-0.744385,-0.273926,-0.421631,-16.25824,36.888123,157.081604
-0.740967,-0.236084,-0.418701,-17.181396,32.646179,154.670715
-0.771484,-0.204346,-0.416992,-19.897461,27.976988,154.121399
-0.753906,-0.166748,-0.41333,-19.920349,26.710508,157.752991
-0.718018,-0.109131,-0.438232,-17.066956,24.505613,158.958435
-0.714111,-0.071777,-0.440918,-14.114379,18.157959,156.478882
-0.694824,-0.071533,-0.404541,-12.351989,11.993407,156.188965
-0.646729,-0.042725,-0.38623,-10.406493,7.888793,156.074524
-0.588623,-0.00293,-0.383789,-7.499694,2.6474,152.267456
-0.557129,0.009521,-0.391357,-5.92041,-4.226685,147.369385
-0.594727,0.007568,-0.442383,-7.667541,-9.422302,141.998291
-0.602051,0.017334,-0.476563,-8.476257,-9.254456,138.656616
-0.581055,0.043457,-0.46582,-7.720947,-2.212524,137.481689
-0.609131,0.098389,-0.469482,-7.400512,8.56781,133.94928
-0.61084,0.121826,-0.449951,-4.051208,18.089294,132.171631
-0.601807,0.120361,-0.40625,-1.693725,24.261473,132.835388
-0.589355,0.156006,-0.379883,-0.488281,23.490904,130.325317
-0.561523,0.171143,-0.35498,1.480102,18.112183,127.761833
-0.543701,0.181152,-0.394531,-0.610352,5.523681,123.840324
-0.552002,0.181152,-0.468262,-5.241394,-13.938903,121.078484
-0.579102,0.181885,-0.556152,-10.627746,-34.957886,120.788567
-0.605957,0.198486,-0.618408,-15.464782,-50.033566,120.483391
-0.632568,0.234619,-0.621094,-16.937256,-50.430294,121.12426
-0.65918,0.280762,-0.604492,-16.464233,-33.13446,120.094292
-0.655273,0.330078,-0.60791,-12.687682,-5.691528,116.401665
-0.639404,0.322021,-0.583252,-6.843566,21.354673,114.685051
-0.692871,0.294434,-0.574951,-6.011962,44.464108,111.938469
-0.734131,0.270752,-0.609375,-5.874633,62.057491,108.306877
-0.717285,0.237305,-0.630371,-3.883362,66.970825,107.208244
-0.689941,0.230225,-0.623047,-2.89917,55.27496,109.794609
-0.690186,0.254883,-0.565186,-4.005432,30.799864,112.586967
-0.757324,0.282227,-0.496826,-5.729675,5.699157,114.18914
-0.843994,0.296875,-0.45752,-5.592346,-8.018494,114.654533
-0.910645,0.285156,-0.472412,-1.63269,-6.67572,113.594048
-0.942627,0.25,-0.500977,1.113892,5.050659,111.106865
-0.950195,0.240479,-0.502686,1.89209,23.689268,109.741203
-0.895752,0.24707,-0.448486,5.752563,42.610165,108.947746
-0.807373,0.266113,-0.342529,11.70349,54.168697,107.017509
-0.779297,0.243164,-0.251953,20.233152,49.186703,103.363029
-0.779785,0.124512,-0.272461,20.584105,29.884336,95.91674
-0.856934,0.156738,-0.275146,9.933472,4.066467,82.44323
-1.003174,0.291016,-0.294189,6.080627,-16.88385,73.493958
-1.175049,0.404541,-0.337158,10.276793,-30.525206,67.41333
-1.25708,0.371582,-0.31543,8.903503,-31.47888,61.302181
-1.23584,0.381348,-0.308594,6.683349,-19.104004,50.811764
-1.244385,0.35791,-0.282959,8.796692,-11.062621,41.648861
-1.270996,0.337158,-0.290039,6.843566,-9.803772,38.871765
-1.264404,0.33252,-0.318115,2.311707,-9.887695,35.40802
-1.213379,0.337891,-0.353271,-2.5177,-11.741637,28.07617
-1.192627,0.362305,-0.37085,-7.110595,-16.517639,21.759031
-1.168945,0.394531,-0.385986,-10.414123,-20.347593,16.212463
-1.137207,0.407959,-0.411865,-14.72473,-22.422789,8.773804
-1.119873,0.422852,-0.427246,-21.041868,-24.993895,0.930786
-1.143066,0.443359,-0.44751,-27.801512,-26.039122,-6.355285
-1.173828,0.467285,-0.458252,-33.302307,-20.835875,-12.20703
-1.165771,0.482178,-0.465332,-36.643982,-11.070251,-16.746521
-1.192383,0.510986,-0.446533,-38.368225,-4.501343,-20.751951
-1.237549,0.537109,-0.403564,-37.54425,-5.813598,-21.90399
-1.248535,0.540283,-0.372559,-34.934998,-12.367248,-21.614073
-1.285156,0.537598,-0.376465,-33.729553,-21.331785,-23.559568
-1.312988,0.531494,-0.400146,-32.76825,-26.321409,-24.566648
-1.310791,0.516846,-0.449219,-29.685972,-23.368834,-25.001524
-1.318848,0.50293,-0.500732,-25.276182,-15.533446,-25.543211
-1.307129,0.489502,-0.538574,-21.537779,-6.66809,-25.505064
-1.289307,0.481934,-0.562256,-19.683838,1.647949,-25.581358
-1.285156,0.491211,-0.57959,-18.592834,8.255005,-26.43585
-1.286377,0.499023,-0.573242,-16.334534,11.749267,-25.772093
-1.258789,0.501465,-0.556885,-14.305114,11.367797,-23.887632
-1.255371,0.50708,-0.547607,-14.572143,7.591247,-23.239134
-1.27124,0.521729,-0.529785,-14.251708,3.379822,-21.430967
-1.264404,0.538818,-0.487305,-10.505675,-0.427246,-17.822266
-1.252197,0.548828,-0.44458,-6.950378,-5.226135,-14.671325
-1.264893,0.55249,-0.406494,-4.989624,-10.330199,-11.795043
-1.274414,0.564209,-0.364746,-2.128601,-14.457702,-7.858276
-1.266357,0.575439,-0.328857,2.204895,-17.158508,-3.463745
-1.255859,0.57959,-0.309082,6.347656,-18.341064,0.62561
-1.24585,0.573975,-0.298828,10.116576,-18.821716,4.936218
-1.219727,0.566406,-0.293457,14.053344,-20.744322,8.522034
-1.185791,0.551025,-0.284424,17.38739,-25.726316,11.047362
-1.19043,0.536621,-0.292236,18.348694,-33.401489,12.779235
-1.210449,0.513672,-0.295898,18.035889,-40.52734,14.915465
-1.233887,0.486084,-0.302734,16.891479,-43.769833,17.120361
-1.251221,0.475098,-0.319092,14.900207,-42.175289,18.592834
-1.23999,0.467773,-0.322021,13.47351,-36.16333,19.935608
-1.207764,0.456787,-0.325928,11.550902,-27.168272,20.904539
-1.185059,0.445068,-0.327393,8.583069,-17.944336,21.369932
-1.165771,0.447754,-0.316406,4.905701,-9.544373,21.499632
-1.139404,0.452393,-0.280273,2.456665,-2.784729,22.109983
-1.134033,0.451172,-0.248291,-0.083923,1.983642,21.446226
-1.127197,0.445313,-0.218994,-2.449036,4.943848,20.38574
-1.113037,0.426758,-0.20166,-4.562378,7.514953,19.340515
-1.10791,0.404053,-0.192871,-7.125854,9.033203,16.815186
-1.090332,0.382568,-0.198975,-9.513855,8.712769,13.420104
-1.065918,0.35376,-0.197754,-11.665343,6.179809,11.108397
-1.027588,0.322998,-0.193848,-14.648437,1.220703,9.185791
-0.947754,0.312988,-0.182617,-17.662048,-6.256103,6.721496
-0.837402,0.304199,-0.155273,-18.600464,-16.410828,3.959656
-0.780029,0.2854,-0.113037,-20.309446,-28.480528,0.511169
-0.750977,0.285645,-0.05835,-23.612974,-38.497925,-3.341675
-0.759521,0.292725,-0.013916,-26.580809,-40.90118,-6.576538
-0.772949,0.322021,-0.000488,-27.137754,-35.40802,-11.20758
-0.791748,0.366455,0.000732,-22.27783,-25.398252,-16.441345
-0.808594,0.384277,0.002441,-13.923644,-16.799927,-19.790649
-0.779297,0.394531,0.000732,-6.790161,-14.442443,-21.446226
-0.743652,0.404785,-0.010742,-1.693725,-19.866943,-24.566648
-0.715088,0.414795,-0.017578,2.388,-32.012939,-30.433653
-0.743164,0.411133,-0.038818,4.051208,-46.134945,-37.162781
-0.776855,0.401855,-0.08252,4.53949,-55.931087,-42.816158
-0.790771,0.373047,-0.130615,4.394531,-55.854794,-45.524593
-0.797852,0.384033,-0.157715,3.623962,-45.837399,-47.599789
-0.784912,0.395508,-0.19458,7.232666,-31.761168,-49.331661
-0.72876,0.376221,-0.227783,12.817382,-22.857664,-50.041195
-0.637939,0.354004,-0.268311,15.876769,-27.595518,-49.461361
-0.637939,0.324951,-0.338379,13.374328,-48.332211,-51.162716
-0.686279,0.315918,-0.395996,5.882263,-76.148987,-52.665707
-0.746338,0.336914,-0.437744,-1.968384,-95.657341,-47.851559
-0.802002,0.387695,-0.45459,-7.408142,-99.357597,-42.327877
-0.848389,0.435791,-0.452148,-9.468079,-86.395256,-38.81073
-0.879395,0.48291,-0.445801,-8.811951,-64.125061,-36.125183
-0.881348,0.517334,-0.437256,-5.958557,-41.267391,-34.01947
-0.844238,0.531982,-0.426758,-2.27356,-26.336668,-33.058167
-0.806152,0.541748,-0.420166,0.259399,-22.384642,-33.729553
-0.805664,0.573242,-0.412842,1.625061,-28.533934,-37.857056
-0.85498,0.608154,-0.422363,2.754211,-40.611263,-44.93713
-0.929443,0.637451,-0.450195,3.997802,-52.360531,-52.253719
-1.005859,0.630615,-0.500977,5.546569,-59.29565,-58.692928
-1.078613,0.584717,-0.540771,6.492614,-59.29565,-63.415524
-1.114502,0.528564,-0.563721,7.064819,-50.834652,-64.033508
-1.083008,0.466309,-0.549805,9.132385,-35.140991,-61.416622
-1.003418,0.398438,-0.537354,11.108397,-22.91107,-60.462948
-0.94165,0.337646,-0.52002,9.773254,-22.78137,-60.707088
-0.900146,0.295166,-0.495117,4.615784,-30.067442,-58.860775
-0.896484,0.286133,-0.47583,-0.312805,-38.223267,-57.632442
-0.980957,0.232666,-0.43457,-2.479553,-46.012875,-58.532711
-1.019775,0.153564,-0.377197,-5.638122,-46.661373,-54.916378
-0.955566,0.1521,-0.337402,-8.31604,-38.902283,-43.80798
-0.901855,0.190186,-0.303467,-6.996154,-31.34918,-34.27887
-0.867676,0.235596,-0.269775,-3.631592,-28.648375,-28.259275
-0.836914,0.263672,-0.249268,-0.297546,-30.693052,-21.01898
-0.845947,0.273682,-0.234131,0.930786,-34.599304,-13.946532
-0.895752,0.276123,-0.224854,-0.053406,-34.042358,-10.246276
-0.948486,0.2854,-0.240234,-0.62561,-22.621153,-8.247375
-0.964355,0.275635,-0.254395,0.267029,2.075195,-5.950927
-0.926758,0.258057,-0.2854,0.495911,32.363892,-6.958007
-0.884033,0.244141,-0.304688,-0.038147,54.26025,-11.306762
-0.848633,0.218262,-0.318115,-3.234863,62.58392,-14.640807
-0.812012,0.201904,-0.340332,-10.0708,58.456417,-17.593384
-0.798096,0.186279,-0.356934,-18.341064,45.341488,-22.6593
-0.820313,0.16626,-0.359619,-26.93939,30.906675,-29.632566
-0.859863,0.147705,-0.358643,-34.423828,21.560667,-36.842346
-0.905762,0.127686,-0.353516,-41.168209,19.607544,-43.853756
-0.953857,0.111816,-0.365967,-48.652645,25.321959,-51.139828
-1.001221,0.089111,-0.381836,-54.420467,37.406921,-57.327267
-1.028076,0.067627,-0.38623,-57.868954,51.246639,-61.378475
-1.016846,0.053955,-0.381836,-59.020992,60.928341,-63.362118
-0.979004,0.038574,-0.366943,-60.127254,62.568661,-64.727783
-0.936035,0.027344,-0.335938,-62.278744,55.175777,-66.299438
-0.893555,0.031982,-0.272949,-64.331055,42.083736,-68.229675
-0.900391,0.036621,-0.212158,-67.207336,30.555723,-70.869446
-0.918213,0.053467,-0.210938,-67.726135,26.382444,-74.295044
-0.990234,0.050781,-0.234863,-63.2019,27.282713,-78.00293
-1.071289,0.016846,-0.226074,-59.463497,28.823851,-79.25415
-1.095947,-0.002441,-0.19873,-59.43298,34.301758,-74.821472
-1.102051,0.040039,-0.214111,-59.860226,43.983456,-72.212219
-1.077637,0.096191,-0.247314,-56.221004,50.834652,-73.524475
-1.061279,0.122803,-0.276123,-51.780697,47.317501,-74.394226
-1.121338,0.11499,-0.286133,-49.156185,31.738279,-74.943542
-1.221191,0.095215,-0.283691,-47.927853,11.802672,-75.4776
-1.273438,0.076416,-0.278076,-45.608517,-4.936218,-72.410583
-1.263428,0.059082,-0.251709,-42.79327,-15.396117,-66.101074
-1.250244,0.074463,-0.191895,-42.251583,-20.530699,-60.577389
-1.292725,0.128418,-0.139404,-43.739315,-21.675108,-57.128902
-1.329346,0.181152,-0.117432,-43.67065,-17.280579,-52.955624
-1.323242,0.216064,-0.130127,-41.839596,-6.340026,-47.492977
-1.277832,0.259766,-0.156494,-39.535522,6.41632,-43.464657
-1.208008,0.29248,-0.185547,-35.522461,16.433716,-39.611816
-1.138672,0.296631,-0.190674,-30.654905,21.255491,-34.164429
-1.087891,0.316406,-0.181396,-27.580259,19.813538,-28.747557
-1.083008,0.355469,-0.166016,-24.459837,14.328002,-24.032591
-1.105713,0.381104,-0.143311,-19.78302,9.216309,-18.211365
-1.137207,0.400391,-0.11792,-13.908385,8.31604,-11.047362
-1.152344,0.418213,-0.096436,-6.942749,12.390136,-4.440308
-1.145996,0.433838,-0.085205,0.587463,17.990112,0.556946
-1.137939,0.450439,-0.088135,7.659912,20.088194,4.898071
-1.137939,0.453857,-0.093018,13.153075,18.486023,10.002136
-1.130371,0.454346,-0.098633,17.250061,16.51001,16.12854
-1.102295,0.453857,-0.108643,21.835325,15.068053,22.415159
-1.072998,0.444824,-0.115479,26.31378,14.091491,28.587339
-1.045654,0.432373,-0.120361,30.578611,13.59558,35.087585
-1.034424,0.415527,-0.112549,34.599304,14.625548,42.106625
-1.027344,0.401367,-0.10376,38.200378,18.52417,49.385067
-1.008545,0.395264,-0.106445,43.029781,24.139402,56.251522
-0.983154,0.374268,-0.120361,48.698421,27.473448,62.896725
-0.95166,0.35083,-0.136963,52.307125,26.382444,68.969727
-0.925781,0.341309,-0.156738,54.489132,21.987913,74.310303
-0.906494,0.341309,-0.174072,56.396481,16.151428,78.353882
-0.882568,0.332764,-0.171387,58.830257,10.894774,82.138054
-0.863525,0.325684,-0.154053,60.073849,8.010864,85.426323
-0.868652,0.327881,-0.143799,60.142513,9.674072,87.028496
-0.888672,0.326904,-0.164307,61.874386,14.312743,87.760918
-0.896973,0.296387,-0.189453,65.582275,18.417358,90.911858
-0.884766,0.255859,-0.214111,66.917419,20.240782,95.954887
-0.862061,0.250488,-0.245117,66.566467,19.226074,99.19738
-0.843018,0.245605,-0.25415,66.360474,16.433716,101.173393
-0.81958,0.244141,-0.233643,63.758846,14.778136,102.836601
-0.811035,0.262207,-0.208252,59.616085,16.967773,102.09655
-0.81958,0.283447,-0.204102,57.083126,22.567747,98.716728
-0.816895,0.299316,-0.196777,57.609554,27.008055,96.17614
-0.833496,0.290527,-0.203125,57.273861,26.901243,94.383232
-0.852783,0.279297,-0.235596,53.985592,23.597715,92.636101
-0.876465,0.288574,-0.284912,50.437923,20.599363,90.927116
-0.862305,0.308838,-0.328613,47.821041,19.424438,89.324944
-0.817383,0.324951,-0.349121,45.448299,18.066406,88.10424
-0.791504,0.335449,-0.348633,40.550228,15.647887,86.891167
-0.766357,0.365723,-0.328369,35.064697,12.96997,84.945671
-0.761719,0.393799,-0.311768,31.249998,10.231017,81.497185
-0.77417,0.399902,-0.321045,28.83148,5.867004,77.682495
-0.791992,0.390869,-0.343262,27.023314,-0.091553,75.317383
-0.786133,0.381104,-0.361084,25.856016,-6.149292,74.737549
-0.781738,0.371338,-0.375488,23.750303,-9.231567,74.371338
-0.756592,0.373047,-0.407715,21.286009,-9.986877,73.890686
-0.707275,0.370361,-0.422852,19.393921,-10.620116,75.836182
-0.666016,0.381592,-0.43042,16.052246,-13.740539,77.392578
-0.671875,0.40918,-0.426025,12.649535,-19.851685,76.217651
-0.764893,0.433594,-0.404053,9.254456,-26.374815,72.662354
-0.841064,0.444824,-0.385742,5.989074,-27.862547,68.901062
-0.828857,0.439209,-0.356689,4.28009,-22.056578,66.108704
-0.777832,0.429688,-0.31958,4.676819,-15.327453,61.767574
-0.737793,0.424805,-0.268311,7.392883,-14.678954,57.250973
-0.760254,0.433838,-0.212646,10.482787,-22.079466,53.932186
-0.853516,0.466309,-0.207275,12.496947,-32.600403,50.10223
-1.028809,0.481934,-0.259033,14.541625,-35.926819,45.143124
-1.169922,0.463623,-0.324219,20.149229,-25.55084,42.297359
-1.18335,0.422607,-0.373779,27.915953,-8.827209,39.955139
-1.136719,0.369873,-0.393066,29.617308,0.144958,34.40094
-1.07251,0.329102,-0.364258,24.879454,-3.234863,28.938292
-1.065186,0.222412,-0.317627,19.500732,-14.739989,26.93939
-1.189697,0.066406,-0.407471,5.584716,-30.380247,25.352476
-1.181885,0.091309,-0.476074,-6.347656,-44.296261,29.08325
-1.151855,0.149658,-0.431885,-6.965637,-49.903866,35.003662
-1.110352,0.223145,-0.375488,-7.156372,-48.309322,32.653809
-1.021484,0.290527,-0.3125,-7.873535,-38.085938,28.526304
-0.985596,0.326416,-0.229736,-7.980346,-23.368834,24.955748
-1.006836,0.345459,-0.152344,-7.575988,-10.734557,22.232054
-1.019775,0.365967,-0.077881,-4.768372,-1.350403,19.889832
-1.030029,0.355713,-0.01123,0.404358,2.655029,18.821716
-1.003174,0.330322,0.027344,5.821228,-2.89154,17.684937
-0.965332,0.32666,0.0354,8.850098,-18.966675,17.608643
-0.942627,0.345703,0.006104,12.016295,-40.184017,16.029358
-0.962158,0.369385,-0.054932,15.174865,-58.79974,12.283324
-1.019287,0.396973,-0.148193,16.921997,-69.061279,8.110046
-1.102295,0.403809,-0.238037,17.791748,-69.847107,4.592896
-1.183838,0.389404,-0.318359,18.341064,-61.714169,2.258301
-1.248047,0.371826,-0.368896,18.417358,-47.5769,0.350952
-1.263428,0.363281,-0.385254,15.747069,-35.324097,-4.013062
-1.270508,0.364502,-0.36084,9.994507,-30.044554,-8.499146
-1.28833,0.363037,-0.312256,2.822876,-29.434202,-11.047362
-1.299072,0.374268,-0.265625,-4.226685,-30.067442,-16.014099
-1.289307,0.387207,-0.229004,-9.384155,-30.555723,-21.438597
-1.318604,0.377197,-0.216309,-13.954162,-30.052183,-26.214598
-1.378906,0.378662,-0.210938,-18.081665,-27.244566,-31.166075
-1.408936,0.385986,-0.199463,-19.355774,-20.988462,-34.507751
-1.409668,0.392822,-0.184814,-18.234253,-14.015197,-37.574768
-1.401611,0.397705,-0.175049,-16.616821,-10.261535,-40.161129
-1.37915,0.402344,-0.159424,-15.098571,-10.345458,-41.366573
-1.362549,0.419434,-0.135498,-14.076232,-14.549254,-42.106625
-1.34375,0.4375,-0.11499,-12.893676,-21.171568,-42.892452
-1.342041,0.441895,-0.120361,-12.306212,-25.917051,-43.327328
-1.358643,0.436523,-0.13208,-11.756896,-25.627134,-43.663021
-1.350586,0.439697,-0.151855,-10.032654,-20.362852,-42.907711
-1.328369,0.438232,-0.15918,-7.690429,-13.587951,-40.626522
-1.331787,0.440918,-0.1521,-6.340026,-8.499146,-38.391113
-1.342773,0.450684,-0.125488,-4.928589,-4.638672,-35.133362
-1.32666,0.454834,-0.095215,-2.784729,-0.793457,-31.570433
-1.304932,0.462158,-0.081787,-1.770019,0.694275,-30.71594
-1.316895,0.467285,-0.080322,-0.25177,0.1297,-30.319212
-1.323486,0.460938,-0.08667,2.159119,-0.434875,-29.533384
-1.330566,0.44751,-0.092529,4.28009,-1.350403,-28.793333
-1.321777,0.427246,-0.104004,4.981995,-3.585815,-28.083799
-1.314209,0.405518,-0.108154,4.585266,-7.278442,-26.245115
-1.308838,0.379395,-0.099609,2.082825,-11.802672,-24.368284
-1.30127,0.366211,-0.096191,-1.068115,-13.313293,-21.697996
-1.279541,0.353271,-0.098389,-2.807617,-10.139464,-19.088745
-1.247314,0.332275,-0.087891,-2.868652,-3.547668,-17.524719
-1.217529,0.307861,-0.083008,-3.120422,3.768921,-15.937804
-1.199707,0.28418,-0.084961,-4.28772,9.82666,-14.915465
-1.200439,0.263672,-0.089111,-5.935668,13.09204,-14.770507
-1.198975,0.249023,-0.078857,-7.484436,13.481139,-13.824462
-1.180664,0.236328,-0.060547,-8.285522,11.787414,-12.21466
-1.179199,0.223877,-0.05249,-9.391785,8.468628,-11.558532
-1.171143,0.20459,-0.046631,-11.398314,4.371643,-11.398314
-1.173584,0.19043,-0.030518,-13.21411,1.739502,-10.612487
-1.173096,0.182617,-0.018311,-14.625548,0.587463,-9.803772
-1.168701,0.182617,-0.008789,-15.556334,2.876281,-8.06427
-1.150146,0.175781,-0.001221,-15.693664,7.316589,-6.004333
-1.134521,0.161377,-0.001465,-15.800475,11.672973,-5.088806
-1.142334,0.150391,-0.010498,-17.417908,15.838622,-5.027771
-1.14917,0.145752,-0.025391,-18.562317,20.332335,-4.180908
-1.143066,0.128662,-0.036133,-18.280029,24.742125,-2.120972
-1.127686,0.101807,-0.054932,-19.203186,27.336119,-0.411987
-1.114258,0.091064,-0.07373,-21.820066,28.266905,0.747681
-1.111084,0.08374,-0.079834,-24.749754,28.816221,2.487183
-1.096436,0.080811,-0.086426,-27.687071,30.662535,4.356384
-1.076904,0.075439,-0.087646,-30.555723,34.14917,5.554199
-1.068115,0.0625,-0.085938,-32.989502,38.017273,6.690979
-1.048828,0.047852,-0.078369,-35.209656,41.511532,8.644104
-1.011719,0.042236,-0.066162,-37.574768,44.403072,11.100768
-0.977783,0.036133,-0.052246,-40.153503,46.798702,12.672423
-0.952148,0.037598,-0.041504,-42.808529,48.934933,14.122008
-0.935059,0.039063,-0.0354,-44.677731,51.696774,15.907287
-0.917969,0.048096,-0.039551,-45.928951,54.687496,17.715454
-0.882813,0.049561,-0.039795,-46.279903,56.587215,19.760132
-0.849365,0.052246,-0.04248,-46.974178,56.457516,21.682737
-0.829834,0.065186,-0.047607,-48.553463,53.916927,23.094175
-0.815186,0.082275,-0.058105,-50.308224,50.781246,24.162291
-0.819092,0.097412,-0.077881,-52.482601,49.064632,25.093077
-0.855957,0.122314,-0.096436,-55.221554,50.552364,25.337217
-0.878418,0.151123,-0.128906,-57.189938,55.793758,25.512693
-0.884277,0.172607,-0.157715,-58.532711,63.4613,25.459288
-0.898682,0.200439,-0.189697,-60.783382,69.404602,24.024961
-0.914307,0.234619,-0.21875,-63.926693,72.120667,21.690367
-0.919922,0.274414,-0.240479,-67.28363,71.975708,18.501282
-0.933838,0.30542,-0.256836,-70.167542,68.351746,14.030456
-0.950928,0.331543,-0.274658,-73.34137,60.890194,8.483887
-0.978516,0.350098,-0.296875,-77.438354,52.61993,2.296448
-1.014893,0.370361,-0.32251,-80.993645,44.891354,-5.004883
-1.02832,0.378906,-0.337158,-82.458488,39.573669,-11.978148
-1.009033,0.400146,-0.348145,-82.321159,36.743164,-17.799377
-0.990723,0.41626,-0.349854,-80.474846,33.546448,-23.452757
-0.99292,0.425293,-0.334229,-78.926086,28.015135,-30.46417
-0.956543,0.4375,-0.326172,-75.22583,20.668028,-36.781311
-0.896484,0.465576,-0.312988,-68.916321,10.70404,-42.442318
-0.845703,0.481201,-0.301514,-62.927242,-2.838135,-49.133297
-0.865479,0.489258,-0.294922,-58.876034,-16.670227,-57.258602
-0.91333,0.48291,-0.28833,-54.656979,-24.92523,-64.079285
-0.934814,0.4729,-0.289307,-50.216671,-23.811338,-67.726135
-0.908691,0.474365,-0.298828,-45.028683,-15.090941,-69.67926
-0.863037,0.471924,-0.317871,-39.596558,-3.204345,-72.814941
-0.819336,0.468018,-0.330078,-35.842896,8.590698,-77.278137
-0.776123,0.469971,-0.327881,-33.454895,17.478943,-82.031242
-0.760498,0.487549,-0.321777,-30.899046,21.606443,-87.066643
-0.739502,0.509033,-0.292236,-27.107237,20.469664,-91.926567
-0.700439,0.523926,-0.245605,-22.941587,11.566161,-96.717827
-0.72583,0.517822,-0.197998,-21.453856,-5.79071,-103.553764
-0.784912,0.516113,-0.171875,-23.902891,-25.360106,-111.648552
-0.799561,0.539063,-0.161133,-26.161192,-41.732784,-118.545525
-0.796875,0.56543,-0.126709,-27.290342,-55.610653,-125.801079
-0.828369,0.564453,-0.084961,-29.167173,-66.452026,-134.32312
-0.864746,0.549805,-0.075684,-32.066345,-69.900513,-143.791199
-0.89209,0.524658,-0.083008,-34.393311,-65.544128,-153.404236
-0.888184,0.495361,-0.07959,-35.774231,-55.709835,-160.804733
-0.851074,0.471191,-0.077881,-35.552979,-43.29681,-165.733322
-0.821533,0.449707,-0.073975,-34.40094,-30.899046,-170.890793
-0.802246,0.425537,-0.070313,-32.974243,-20.111082,-176.650986
-0.790283,0.404541,-0.060059,-29.71649,-12.229918,-180.992111
-0.866211,0.402832,-0.058105,-23.574827,-11.390685,-184.638962
-0.943604,0.365234,-0.06665,-12.924193,-24.253843,-186.576828
-0.984375,0.278564,-0.052002,-1.525879,-50.819393,-179.62645
-1.14624,0.201172,-0.024902,2.380371,-88.546745,-169.692978
-1.263916,0.147949,-0.008545,0.305176,-121.513359,-158.355713
-1.300293,0.13208,0.012207,1.106262,-135.040283,-141.029358
-1.303467,0.149658,0.018555,4.524231,-129.974365,-126.571648
-1.274414,0.187012,0.02417,8.346558,-110.580437,-116.767876
-1.278809,0.20874,0.029541,12.107848,-82.656853,-105.995171
-1.293213,0.198975,0.008301,15.525817,-49.499508,-94.245903
-1.267822,0.200928,-0.028076,19.241333,-13.122558,-83.816521
-1.252686,0.224365,-0.048096,23.582457,20.019531,-76.965332
-1.280762,0.229004,-0.056885,27.832029,43.693539,-71.113586
-1.264648,0.190674,-0.066162,30.6015,58.631893,-60.928341
-1.184814,0.158447,-0.064453,31.196592,67.146301,-48.828121
-1.115967,0.165283,-0.05127,29.754637,69.000244,-42.129513
-1.09668,0.175293,-0.039795,28.610228,66.543579,-39.100647
-1.097656,0.165283,-0.026611,28.419493,63.407894,-34.034729
-1.11792,0.151123,-0.015137,28.305052,61.241146,-28.045652
-1.140869,0.12915,-0.016357,28.07617,60.874935,-23.513792
-1.150146,0.115234,-0.02002,28.396605,63.484188,-18.676758
-1.155518,0.107178,-0.02417,29.098509,69.061279,-13.641356
-1.167236,0.098877,-0.033447,29.273985,75.279236,-9.712219
-1.166016,0.084473,-0.051025,29.113768,81.199638,-6.256103
-1.14917,0.084717,-0.076172,29.96826,84.373466,-2.63977
-1.125977,0.083008,-0.097412,32.470703,80.596916,-0.068665
-1.098389,0.054932,-0.098877,34.477234,69.137573,2.365112
-1.084229,0.023926,-0.099121,33.813477,51.87225,5.134582
-1.109619,0.009033,-0.10083,31.753538,33.790588,6.179809
-1.170898,-0.01416,-0.109375,30.319212,20.149229,7.438659
-1.228271,-0.049561,-0.118652,29.899595,14.930724,11.657714
-1.252686,-0.075684,-0.128906,31.066893,18.52417,17.623901
-1.234863,-0.086182,-0.14209,34.568787,25.3067,24.002073
-1.19165,-0.0896,-0.154785,39.69574,30.09033,29.907225
-1.14502,-0.088623,-0.162354,43.685909,29.403685,35.438538
-1.113037,-0.083008,-0.175049,47.286983,22.109983,40.412899
-1.104004,-0.092041,-0.170166,51.246639,11.83319,44.105526
-1.110107,-0.116943,-0.157959,53.50494,3.601074,46.669003
-1.126709,-0.127197,-0.172363,54.229733,0.114441,48.08807
-1.132813,-0.139893,-0.200684,55.419918,0.785828,49.026485
-1.131348,-0.157959,-0.224609,56.762691,4.043579,50.552364
-1.145508,-0.177734,-0.246826,55.992123,7.888793,51.887508
-1.145752,-0.195557,-0.252686,54.397579,11.787414,54.13818
-1.119629,-0.206055,-0.236816,52.886959,16.059875,57.937618
-1.077637,-0.205078,-0.212402,50.514217,19.020081,60.989376
-1.067871,-0.192139,-0.19458,46.287533,20.195005,61.470028
-1.081543,-0.178223,-0.194336,42.106625,19.081116,60.31036
-1.076904,-0.181641,-0.200684,39.138794,17.417908,60.8139
-1.067139,-0.187256,-0.220703,35.758972,13.877868,60.104366
-1.09375,-0.188477,-0.245605,31.639097,8.239746,56.221004
-1.131104,-0.199463,-0.264893,27.931211,3.860473,53.1311
-1.150879,-0.21582,-0.276367,24.79553,2.426147,52.482601
-1.134277,-0.215088,-0.277832,21.759031,3.120422,53.321835
-1.10083,-0.209961,-0.273682,19.096375,4.638672,55.488583
-1.075195,-0.203369,-0.286133,15.762328,6.454467,58.04443
-1.051758,-0.194336,-0.322754,12.474059,9.384155,60.752865
-1.026367,-0.176514,-0.349365,11.100768,13.038634,64.498901
-1.024414,-0.160645,-0.361328,11.070251,14.045714,68.717957
-1.040771,-0.146973,-0.380127,10.604857,12.268065,72.677612
-1.022461,-0.143066,-0.38623,9.643555,11.192321,76.705933
-1.007813,-0.128418,-0.399902,7.530212,12.481688,78.407288
-1.003906,-0.104492,-0.417236,6.530761,16.143799,76.942444
-1.035889,-0.103027,-0.406982,6.103515,22.5296,74.737549
-1.066406,-0.103271,-0.403564,4.508972,32.218933,72.944641
-1.060059,-0.091553,-0.406006,5.455017,42.053219,71.739197
-1.036377,-0.094238,-0.401855,6.652832,46.592709,69.519043
-1.018555,-0.087891,-0.399902,5.012512,44.273373,65.605164
-1.012939,-0.067627,-0.391113,2.586365,38.276672,60.798641
-1.012695,-0.035889,-0.385498,1.693725,31.867979,55.175777
-1.028564,-0.014404,-0.375,1.678467,26.56555,48.820492
-1.040283,-0.010498,-0.361572,1.724243,23.384092,43.571468
-1.022705,0.001221,-0.345215,1.960754,22.697447,40.321346
-0.987549,0.029297,-0.329834,3.463745,21.812437,37.17804
-0.929932,0.050781,-0.295654,5.973815,19.355774,34.568787
-0.885498,0.069336,-0.260498,7.522583,15.571593,32.600403
-0.860107,0.088623,-0.240967,8.674622,10.749816,30.303953
-0.83252,0.108398,-0.241943,10.627746,6.370544,29.571531
-0.787354,0.123779,-0.250488,12.96234,1.464844,30.685423
-0.749023,0.134766,-0.258301,14.419555,-4.737854,30.990599
-0.739258,0.147949,-0.255859,13.809203,-9.941101,30.044554
-0.75293,0.168945,-0.253906,12.145995,-10.398864,28.839109
-0.768066,0.189697,-0.248535,11.283874,-4.989624,28.091429
-0.749023,0.203125,-0.240967,11.566161,3.608703,28.236387
-0.720459,0.205078,-0.229248,10.597228,11.253356,29.060362
-0.71582,0.222656,-0.224365,7.583618,14.312743,28.358458
-0.711914,0.229492,-0.234619,3.440857,13.534545,27.130125
-0.707275,0.236084,-0.245361,-0.869751,9.45282,26.30615
-0.713135,0.238525,-0.237305,-4.463196,2.204895,24.940489
-0.737793,0.237793,-0.229492,-8.285522,-6.118774,23.101805
-0.769775,0.239502,-0.228271,-12.374877,-14.259337,21.575926
-0.790039,0.217285,-0.231689,-15.792846,-21.324156,21.095274
-0.822021,0.193359,-0.249512,-18.859863,-26.672361,20.965574
-0.825439,0.177979,-0.30249,-21.980284,-30.006407,21.934507
-0.818115,0.171631,-0.370361,-25.642393,-29.869078,24.909971
-0.817627,0.18335,-0.433105,-28.915403,-27.648924,28.411863
-0.800781,0.182861,-0.457031,-30.372618,-24.818419,32.646179
-0.780518,0.19043,-0.458984,-31.799314,-21.850584,37.986755
-0.78833,0.213379,-0.464844,-33.302307,-20.324705,41.763302
-0.792969,0.231934,-0.452881,-33.157349,-20.347593,44.265743
-0.782715,0.245605,-0.436523,-32.943726,-20.599363,47.294613
-0.792236,0.278809,-0.428711,-33.798218,-19.264221,48.416134
-0.792236,0.30957,-0.415771,-34.286499,-13.565063,48.477169
-0.819092,0.333008,-0.407715,-34.454346,-3.417969,48.004147
-0.862793,0.341309,-0.425781,-33.485413,5.958557,47.126766
-0.829346,0.338623,-0.431885,-31.051634,10.307311,48.522945
-0.817627,0.332031,-0.398193,-31.318663,6.591796,50.018307
-0.82666,0.354004,-0.387939,-33.813477,-1.907349,50.094601
-0.830566,0.380615,-0.379395,-34.378052,-9.712219,51.101681
-0.859863,0.391846,-0.321533,-33.958435,-15.86914,53.802486
-0.862305,0.407959,-0.265137,-32.150269,-18.714905,58.639523
-0.814941,0.429443,-0.221191,-29.685972,-17.082214,62.484737
-0.751953,0.465332,-0.196777,-28.099058,-13.381957,63.240047
-0.716309,0.498779,-0.195801,-24.635313,-10.795592,62.187191
-0.744141,0.492188,-0.185547,-19.15741,-8.262634,61.088558
-0.79126,0.493408,-0.121826,-12.20703,-5.493164,61.508175
-0.846436,0.49707,-0.040771,-2.441406,-1.63269,64.994812
-0.942627,0.511475,0.017822,6.011962,5.40924,68.061829
-0.951904,0.536621,-0.003174,12.893676,14.816283,69.725037
-0.926514,0.51709,-0.095947,20.095823,26.481627,69.999695
-0.895264,0.486328,-0.366455,18.714905,30.113218,62.904354
-0.951416,0.409668,-0.632568,4.852295,21.850584,56.762691
-1.080566,0.290039,-0.694824,-14.343261,14.419555,56.037899
-1.212402,0.294189,-0.58667,-28.556822,19.271851,49.888607
-1.292725,0.327393,-0.389893,-31.219481,35.827637,39.596558
-1.280518,0.427979,-0.184326,-26.268003,49.530025,33.233643
-1.278076,0.506104,-0.025879,-21.14105,53.413387,32.554626
-1.268066,0.502686,0.066162,-15.823363,51.139828,29.739378
-1.246582,0.48291,0.106201,-9.780884,43.571468,24.131773
-1.242188,0.472412,0.095703,-5.264282,29.899595,18.173218
-1.276123,0.479248,0.01709,-4.554749,14.007567,11.306762
-1.324707,0.478271,-0.103271,-7.492065,-2.479553,4.806519
-1.37915,0.4729,-0.222168,-14.495849,-16.50238,-0.335693
-1.420654,0.458496,-0.30835,-22.415159,-23.147581,-5.630493
-1.467773,0.451904,-0.366699,-29.891966,-19.371033,-12.199401
-1.498535,0.472656,-0.385254,-36.384583,-8.224487,-17.951965
-1.460938,0.505615,-0.362061,-40.939327,6.660461,-22.346495
-1.391113,0.540283,-0.313232,-45.005795,21.072386,-25.634764
-1.331055,0.52832,-0.286865,-48.011776,31.082151,-29.815672
-1.287842,0.495117,-0.272705,-46.867367,37.261963,-35.079956
-1.244629,0.478027,-0.265869,-46.32568,39.321899,-42.991634
-1.252197,0.442627,-0.293701,-47.195431,39.512634,-50.85754
-1.274658,0.416748,-0.327881,-46.95892,36.872864,-56.465145
-1.294678,0.40332,-0.347412,-46.06628,27.969358,-61.06567
-1.299072,0.388184,-0.332031,-45.57037,13.801574,-64.506531
-1.291992,0.376709,-0.292236,-45.783993,-1.609802,-67.626953
-1.285156,0.369873,-0.245117,-44.799801,-12.237548,-71.250916
-1.299072,0.354248,-0.211914,-42.457577,-13.076781,-75.4776
-1.25415,0.326172,-0.176514,-38.368225,-2.89154,-79.63562
-1.203369,0.287354,-0.113281,-34.622192,16.479492,-85.563652
-1.121826,0.267822,-0.05957,-30.578611,39.131165,-94.993584
-1.005615,0.230225,-0.016113,-24.391172,62.011715,-105.255119
-0.896973,0.188477,-0.003418,-16.151428,79.811096,-117.546074
-0.757813,0.151611,-0.000488,-4.165649,83.961479,-131.706238
-0.650635,0.069092,-0.023193,6.835937,69.641113,-147.506714
-0.697021,-0.059082,-0.091309,7.949829,40.557858,-166.320786
-0.868408,-0.158203,-0.195313,-2.723694,13.412475,-183.990463
-0.91333,-0.144531,-0.260498,-9.056091,0.701904,-194.152817
-0.811768,-0.15332,-0.245117,-1.38855,-2.349854,-200.401291
-0.715332,-0.216064,-0.195557,5.943298,-7.240295,-213.172897
-0.647217,-0.272217,-0.14917,6.118774,-19.493103,-227.775558
-0.603027,-0.318604,-0.094482,5.203247,-36.750793,-237.106308
-0.605469,-0.369873,-0.041992,4.66156,-56.594845,-246.063217
-0.665771,-0.429688,-0.01001,3.440857,-73.570251,-249.992355
-0.792969,-0.500244,-0.006592,1.724243,-82.420341,-249.992355
-0.943359,-0.589844,0.003906,-0.297546,-81.55822,-249.900803
-0.982422,-0.675049,0.024414,-0.221252,-72.715759,-249.992355
-0.933105,-0.74585,0.040527,2.922058,-60.707088,-249.992355
-0.960938,-0.824463,0.061279,2.693176,-52.398678,-249.992355
-0.958008,-0.894287,0.091309,-0.488281,-48.599239,-249.992355
-0.903076,-0.969971,0.116699,0.709534,-48.553463,-249.992355
-0.987793,-1.075195,0.134033,-0.198364,-54.481503,-249.992355
-1.11499,-1.145996,0.147949,-5.226135,-61.828609,-249.992355
-1.090088,-1.184082,0.153076,-3.585815,-65.132141,-249.992355
-0.957764,-1.210693,0.180664,3.02124,-68.756104,-249.992355
-0.818359,-1.236328,0.219238,3.723144,-77.423096,-249.992355
-0.702393,-1.230957,0.255127,-0.465393,-88.684074,-249.992355
-0.619141,-1.236572,0.290527,-3.623962,-95.603935,-249.992355
-0.585205,-1.260254,0.308594,-5.332946,-94.566338,-249.992355
-0.596191,-1.277832,0.280762,-6.034851,-83.061211,-249.992355
-0.604248,-1.295654,0.237549,-3.959656,-62.141415,-249.992355
-0.608154,-1.332031,0.209961,0.411987,-38.772583,-249.992355
-0.63501,-1.360107,0.187256,3.059387,-17.64679,-249.992355
-0.675293,-1.330811,0.154053,2.243042,2.540588,-249.992355
-0.69043,-1.240479,0.136719,1.022339,23.315428,-249.992355
-0.670654,-1.103027,0.135254,1.991272,42.16003,-242.347702
-0.639893,-0.929688,0.116943,5.180358,55.953976,-222.740158
-0.588379,-0.779541,0.122559,9.101868,65.124512,-204.154953
-0.486084,-0.654785,0.152588,16.288757,67.54303,-183.425888
-0.384277,-0.628418,0.162842,27.656553,62.423702,-162.399277
-0.320801,-0.699463,0.143799,37.841797,50.132748,-146.461487
-0.32959,-0.804443,0.114746,41.206356,31.677244,-133.789063
-0.404297,-0.897949,0.094971,42.091366,13.290404,-123.344414
-0.486084,-0.952637,0.06958,43.655392,-0.762939,-114.608757
-0.547119,-0.982178,0.01709,46.401974,-12.512206,-106.575005
-0.595703,-1.020508,-0.046875,50.2243,-24.154661,-99.273674
-0.614014,-1.043945,-0.116943,51.040646,-35.369873,-90.690605
-0.616455,-1.07373,-0.142334,51.689144,-45.402523,-82.290642
-0.616943,-1.119629,-0.131836,50.689693,-54.855343,-77.24762
-0.612061,-1.145264,-0.123047,46.859737,-64.361572,-73.883057
-0.620117,-1.181885,-0.107422,43.251034,-75.263977,-71.655273
-0.638916,-1.2229,-0.099854,38.864136,-85.990898,-71.922302
-0.651367,-1.248779,-0.095215,35.148621,-96.908562,-74.356079
-0.685303,-1.277832,-0.109375,32.539368,-105.674736,-74.272156
-0.735352,-1.316895,-0.125488,31.303404,-109.001152,-70.3125
-0.764404,-1.318848,-0.146729,30.677794,-103.576653,-67.741394
-0.730957,-1.255371,-0.195557,30.288694,-93.711845,-63.110348
-0.676758,-1.167236,-0.250977,29.472349,-88.844292,-54.64172
-0.625977,-1.049805,-0.308838,25.108335,-92.910759,-45.661922
-0.582275,-0.92334,-0.35791,20.553587,-100.71563,-35.385132
-0.53833,-0.806885,-0.37207,16.563416,-108.848564,-23.818968
-0.533936,-0.706299,-0.366211,13.71765,-113.31176,-12.7182
-0.539063,-0.637451,-0.354492,12.557982,-110.435478,-3.242492
-0.559326,-0.601074,-0.318359,13.336181,-97.43499,5.0354
-0.589844,-0.588623,-0.284912,16.120911,-73.913574,12.84027
-0.58374,-0.593506,-0.259033,19.66095,-45.883175,19.805908
-0.542969,-0.603271,-0.226807,21.27075,-23.078917,23.963926
-0.491699,-0.625244,-0.196533,20.294188,-12.382506,25.337217
-0.446777,-0.668457,-0.17334,15.556334,-13.961791,23.086546
-0.446533,-0.71582,-0.156006,8.56781,-21.65222,18.455505
-0.491455,-0.755127,-0.141357,2.090454,-28.022764,12.7182
-0.554199,-0.775391,-0.135498,-4.341125,-27.641294,5.958557
-0.609619,-0.795166,-0.139404,-9.910583,-20.019531,0.465393
-0.633789,-0.823242,-0.151855,-14.259337,-8.926392,-3.410339
-0.623779,-0.841064,-0.163818,-18.348694,0.747681,-5.729675
-0.608154,-0.844482,-0.180664,-20.89691,5.851745,-6.385803
-0.56958,-0.871826,-0.19043,-21.705626,6.202697,-5.424499
