ax,ay,az,gx,gy,gz
-1.074463,-0.19458,-0.002686,39.489746,-95.565788,-15.533446
-0.945313,-0.30127,0.078613,37.361145,-84.678642,-16.479492
-1.121582,-0.268555,0.217773,34.698486,-85.891716,-25.123594
-1.489746,-0.13916,0.246338,38.757324,-75.782776,-38.246155
-1.637207,-0.070557,0.184082,42.28973,-40.489193,-48.599239
-1.396973,-0.1604,0.10376,42.503353,5.058288,-51.353451
-1.000488,-0.325439,-0.07251,41.137691,30.120848,-48.492428
-0.831055,-0.468018,-0.092773,41.419979,29.701231,-44.525143
-0.897217,-0.489258,0.032227,37.773132,21.583555,-46.119686
-1.071777,-0.393799,0.060303,29.594419,16.456604,-46.684261
-1.12915,-0.294434,-0.031738,16.937256,4.66156,-43.388363
-1.012207,-0.286377,-0.041748,2.418518,-24.093626,-37.811279
-0.709229,-0.326904,-0.005371,-7.850646,-72.219849,-41.954037
-0.611084,-0.365967,0.073975,0.312805,-102.020256,-43.640133
-0.993408,-0.430664,0.211914,20.88928,-76.728821,-40.016174
-1.266846,-0.500244,0.195068,30.792234,-6.278991,-34.40094
-1.251709,-0.52832,0.12793,21.377562,78.544617,-31.745909
-0.97168,-0.438232,0.13501,2.792358,118.713371,-39.001465
-0.762695,-0.301758,0.099121,-1.159668,106.208794,-45.616146
-0.689697,-0.272705,-0.001709,14.389037,70.610046,-42.503353
-0.575928,-0.362793,-0.085938,33.714294,48.706051,-41.023251
-0.585449,-0.438965,-0.156982,43.815609,58.41827,-41.336056
-0.906494,-0.419434,-0.057617,32.684326,77.75116,-37.643433
-1.150635,-0.365479,0.139648,18.493652,60.501095,-28.663633
-0.932617,-0.393311,0.104004,22.90344,-12.878417,-24.559019
-0.8479,-0.441406,-0.189697,42.045589,-97.900383,-19.882202
-1.072266,-0.482422,-0.413818,53.749081,-142.601013,-8.598328
-1.190674,-0.61499,-0.147949,56.236263,-119.789116,-5.088806
-0.510498,-0.472656,-0.467529,67.184448,-119.1101,-30.197142
-0.324951,0.078125,-1.81543,142.105103,-65.704346,15.197753
0.355957,0.541504,-3.496582,226.173386,3.196716,47.103878
0.758057,0.090576,-2.851074,249.992355,19.554138,36.598206
-1.784668,0.356201,-1.855225,249.908432,108.566277,102.485649
-2.109131,0.745117,0.44165,249.328598,142.494202,78.109741
-1.272705,1.286133,2.92334,242.942795,-26.786802,-78.475952
-3.451172,0.648926,2.848877,24.879454,8.155823,140.708923
-2.558105,0.073486,2.605469,-75.721741,58.181759,171.287521
-1.843506,-0.347168,2.093262,-19.91272,87.181084,7.331848
-1.985107,-0.630615,1.804199,29.434202,121.818535,-105.964653
-1.35791,-0.812988,1.581299,44.158932,76.156616,-95.985405
-0.479248,-0.981201,1.376465,9.147644,25.245665,-60.69183
-0.474365,-0.919434,1.183105,-69.549561,-9.262085,-44.502254
-1.22876,-0.467529,0.989746,-149.475098,-47.027584,-36.422729
-1.585449,0.060547,1.134277,-196.113571,-102.699272,-53.512569
-1.133057,0.36499,0.856689,-212.303146,-154.655457,-58.532711
-0.87915,0.443604,0.34668,-194.36644,-178.260788,-27.732847
-1.338135,0.305908,-0.00415,-154.258728,-185.623154,-6.500244
-1.604248,0.0625,-0.042969,-115.608208,-200.553879,-24.917601
-0.995361,-0.199951,0.04248,-97.953789,-215.843185,-56.938168
-0.355469,-0.41626,-0.082275,-104.255669,-182.52562,-58.059689
-0.302979,-0.495361,-0.20874,-131.156921,-109.123222,-40.473934
-0.611816,-0.42627,-0.308105,-150.161743,-25.360106,-34.706116
-0.923584,-0.313232,-0.513916,-148.216248,32.318115,-24.284361
-0.821045,-0.237549,-0.735596,-136.390686,34.584045,7.881164
-0.624023,-0.2771,-0.767578,-103.408806,15.594481,43.647762
-0.738037,-0.426025,-0.720703,-55.725094,-8.979797,45.936581
-1.068604,-0.51001,-0.486572,-19.66095,-39.169312,5.744934
-1.191895,-0.580322,-0.186279,5.172729,-49.301144,-40.359493
-1.075195,-0.688232,-0.01709,20.553587,-26.596067,-61.584469
-1.050293,-0.719238,0.140381,23.429869,20.118711,-59.387203
-1.068359,-0.729492,0.302002,16.014099,62.591549,-52.818295
-0.954346,-0.710938,0.359863,-2.403259,76.774597,-49.064632
-0.691406,-0.68457,0.356689,-24.955748,57.983395,-42.152401
-0.433594,-0.673584,0.387939,-42.442318,14.259337,-32.798767
-0.375977,-0.678955,0.348389,-50.758358,-40.40527,-19.813538
-0.379639,-0.667969,0.262939,-56.297298,-95.184319,-5.279541
-0.397949,-0.628906,0.27002,-58.692928,-133.285522,4.043579
-0.508057,-0.601318,0.247559,-55.076595,-147.171021,10.742187
-0.626953,-0.536133,0.185059,-50.849911,-137.290955,25.337217
-0.721924,-0.438965,0.186279,-44.502254,-105.331413,45.402523
-0.817871,-0.37793,0.152832,-34.812927,-65.65094,62.103268
-0.783691,-0.316162,0.132568,-25.169371,-37.376404,70.602417
-0.746582,-0.278809,0.138672,-10.017395,-22.941587,68.382263
-0.781006,-0.310791,0.056152,10.856627,-20.210264,62.103268
-0.679443,-0.384766,-0.06958,32.63092,-23.399351,64.804077
-0.710693,-0.437256,-0.158447,49.072262,-21.865843,79.154968
-0.909424,-0.404297,-0.117676,47.721859,-20.072937,85.929863
-1.096924,-0.320557,0.083252,27.877806,-6.355285,76.48468
-1.058594,-0.310791,0.257324,10.513305,14.457702,53.604122
-0.761963,-0.357422,0.351807,20.530699,23.452757,44.334408
-0.679688,-0.420166,0.46167,44.845577,15.411376,43.327328
-0.771484,-0.484863,0.425781,48.805233,-23.025511,29.243467
-0.945557,-0.452637,0.377686,24.452208,-69.770813,12.100219
-1.045898,-0.354248,0.474854,-6.034851,-96.992485,5.905151
-1.166504,-0.256592,0.503906,-12.161254,-86.364738,27.328489
-1.317871,-0.201172,0.451904,3.456115,-49.057003,48.667904
-1.262451,-0.175781,0.556641,22.789,-8.68988,39.421082
-1.176025,-0.171387,0.684082,28.366087,40.420528,12.069701
-1.243896,-0.198242,0.667236,22.682188,96.878044,3.013611
-1.275635,-0.234131,0.525635,7.980346,137.123108,-0.12207
-1.063721,-0.250977,0.487305,-8.804321,150.001526,-14.495849
-0.936279,-0.249512,0.458008,-9.170532,146.194458,-15.350341
-0.996582,-0.250488,0.266846,-2.677917,116.920464,-6.019592
-0.954834,-0.239746,0.229736,-4.714966,70.281982,-6.591796
-0.870361,-0.255371,0.365967,-5.027771,36.834717,-10.231017
-0.907959,-0.293213,0.40625,-2.624511,20.317076,-10.269164
-1.090576,-0.295166,0.348633,-4.28009,25.993345,-9.712219
-1.19873,-0.293457,0.228516,-9.620667,53.543087,-8.682251
-1.213135,-0.324463,0.058594,-13.320922,94.932549,-7.339477
-1.07666,-0.320801,-0.097168,-13.603209,128.952026,-8.44574
-0.804932,-0.29248,-0.174805,-9.078979,128.837585,-12.367248
-0.702148,-0.307373,-0.172363,0.221252,81.626884,-13.557433
-0.740234,-0.307861,-0.049805,8.369446,4.699707,-12.420653
-0.864014,-0.288086,0.172363,16.983032,-54.031368,-12.7182
-1.134521,-0.344971,0.250488,29.800413,-69.885254,-10.643004
-1.250488,-0.439941,0.184814,42.92297,-57.456966,-1.525879
-0.983398,-0.510986,0.144043,52.734371,-24.29962,10.261535
-0.766846,-0.536621,-0.011475,60.539242,11.444091,24.787901
-0.83667,-0.407227,-0.089111,48.21014,19.096375,23.147581
-0.847168,-0.207275,0.000732,30.860899,-6.79779,20.957945
-0.899414,-0.177002,0.108643,41.351315,-42.282101,33.119202
-0.976074,-0.289307,0.269043,60.417171,-90.827934,31.280516
-1.104492,-0.338135,0.4646,60.173031,-132.30896,13.687133
-1.184326,-0.306152,0.543945,47.409054,-128.646851,2.967834
-1.539063,-0.291992,0.545166,33.874512,-53.459164,-5.569458
-1.59668,-0.240479,0.487549,15.075683,46.188351,-23.216246
-1.259033,-0.145508,0.337646,4.074097,120.002739,-32.112122
-1.085205,-0.094971,0.224609,2.326965,130.584717,-37.528992
-1.000488,-0.091309,0.245361,-3.295898,87.043755,-51.734921
-0.988037,-0.174316,0.242188,-8.483887,43.518063,-58.189388
-1.023926,-0.352539,0.183594,-8.666992,33.676147,-55.030819
-1.056885,-0.479492,0.135986,-7.019042,54.51965,-55.946346
-0.945313,-0.534424,0.041504,-3.265381,72.792053,-53.962704
-0.852783,-0.535889,0.004395,-0.236511,88.027946,-49.232479
-0.906494,-0.479492,-0.004395,-3.967285,107.13195,-47.546383
-0.912842,-0.419434,-0.093018,-11.154174,139.640808,-45.539852
-0.830078,-0.395996,-0.234619,-11.222838,185.134872,-41.397091
-0.752686,-0.387207,-0.353027,-5.554199,222.610458,-39.283752
-0.690674,-0.36499,-0.468994,-2.487183,232.9254,-37.887573
-0.645508,-0.347656,-0.493652,-3.097534,216.16362,-31.158445
-0.710205,-0.35083,-0.44458,-1.106262,183.448776,-17.822266
-0.845459,-0.375732,-0.390381,8.026123,137.695313,-2.502441
-0.97168,-0.405273,-0.25293,19.256592,81.413261,5.264282
-0.98584,-0.419189,-0.012207,31.188963,21.820066,8.270264
-1.018066,-0.412354,0.146729,43.342587,-29.08325,8.163452
-1.147949,-0.41626,0.117676,43.518063,-65.101624,-1.373291
-1.204834,-0.417725,-0.010498,27.526854,-81.626884,-8.117676
-1.28418,-0.376709,-0.107422,6.629943,-64.628601,-5.126953
-1.377686,-0.319092,-0.099365,-9.315491,-26.641844,-7.156372
-1.346924,-0.302246,0.037109,-10.169982,16.334534,-16.159058
-1.28125,-0.329834,0.158203,4.249573,61.714169,-22.499083
-1.208984,-0.397461,0.165283,19.111633,98.480217,-26.786802
-1.093262,-0.475586,0.129395,23.635862,122.184746,-31.555174
-0.988281,-0.51709,0.096191,20.866392,137.397766,-33.470154
-0.849609,-0.531738,0.008057,14.999389,141.036987,-36.682129
-0.755127,-0.554932,-0.0625,8.956909,136.795044,-40.824886
-0.821289,-0.561279,-0.134033,-2.27356,134.262085,-41.007992
-0.877441,-0.55542,-0.246582,-23.315428,126.602165,-39.093018
-0.834229,-0.533936,-0.320801,-44.30389,110.28289,-34.797668
-0.785645,-0.528564,-0.356201,-56.739803,95.321648,-30.876158
-0.811035,-0.537842,-0.401611,-64.491272,81.04705,-24.92523
-0.877441,-0.556152,-0.426514,-71.113586,65.704346,-12.519835
-0.948975,-0.590088,-0.422363,-73.799133,52.841183,2.113342
-1.012451,-0.615723,-0.411621,-70.968628,47.07336,11.093139
-1.092773,-0.650146,-0.389404,-63.224789,47.45483,9.376526
-1.17334,-0.677002,-0.423584,-56.015011,54.565426,-3.318786
-1.179688,-0.661865,-0.548096,-51.345821,62.850948,-21.90399
-1.129883,-0.611816,-0.59375,-47.264095,63.316341,-41.862484
-1.031494,-0.579346,-0.425781,-37.796021,59.509274,-57.678219
-1.012939,-0.608154,-0.402588,-22.697447,60.9436,-57.937618
-1.034912,-0.642822,-0.543213,-18.638611,64.598083,-44.265743
-1.006836,-0.648926,-0.570557,-27.740477,62.286373,-33.8974
-1.001221,-0.64209,-0.494629,-34.919739,53.718563,-34.912109
-1.037842,-0.627441,-0.392334,-32.012939,41.900631,-43.746944
-1.033691,-0.620605,-0.263428,-20.881651,33.13446,-54.420467
-0.950928,-0.639404,-0.21167,-11.886596,34.912109,-61.347958
-0.911621,-0.647461,-0.287598,-14.755248,46.69952,-61.355587
-0.906982,-0.607178,-0.369629,-24.696348,61.256405,-55.320736
-0.920654,-0.573242,-0.366211,-28.755186,72.410583,-51.666256
-0.97583,-0.566406,-0.317139,-25.337217,78.24707,-56.900021
-1.003418,-0.55835,-0.276855,-18.989563,82.839958,-66.833496
-0.962402,-0.548584,-0.265625,-13.870238,92.811577,-73.936462
-0.862549,-0.557129,-0.311523,-9.269714,110.656731,-70.625305
-0.790527,-0.572754,-0.368652,-5.889892,134.094238,-58.235165
-0.784424,-0.565918,-0.434326,-6.340026,159.889221,-47.355648
-0.786865,-0.517334,-0.486572,-10.078429,184.814438,-42.198177
-0.773193,-0.452881,-0.478027,-12.077331,209.274277,-41.633602
-0.686035,-0.422119,-0.44458,-7.308959,227.165207,-43.334957
-0.510986,-0.443848,-0.35498,4.623413,230.834946,-44.30389
-0.376465,-0.503906,-0.293945,20.538328,219.734177,-42.28973
-0.404785,-0.557861,-0.360596,31.127928,204.032883,-36.903381
-0.484131,-0.547119,-0.325684,30.426023,193.237289,-28.045652
-0.437256,-0.523193,-0.181641,27.565001,191.070541,-16.189575
-0.348633,-0.534424,-0.338867,24.017332,190.391525,-4.608154
-0.336914,-0.473633,-0.624512,10.32257,188.674911,0.694275
-0.287109,-0.363037,-0.715088,-2.89154,186.332687,-0.350952
-0.225342,-0.309082,-0.755371,-4.096985,176.612839,-2.601623
-0.15625,-0.310791,-0.780762,5.073547,151.733398,-3.578186
-0.00415,-0.333008,-0.629883,15.731811,109.53521,-4.768372
0.061768,-0.384766,-0.44165,23.765562,59.852596,-5.1651
-0.040039,-0.438965,-0.424072,24.864195,20.210264,-3.929138
-0.174072,-0.438232,-0.498535,14.266967,-2.571106,-0.465393
-0.318848,-0.361084,-0.515625,2.449036,-14.091491,4.592896
-0.478271,-0.310791,-0.485107,3.837585,-14.389037,8.94165
-0.5,-0.34082,-0.480713,15.792846,-4.623413,9.147644
-0.347412,-0.427002,-0.524902,29.640196,5.592346,6.217956
-0.186768,-0.494629,-0.577881,36.315918,12.489318,3.410339
-0.118896,-0.503662,-0.614014,34.088135,13.374328,7.400512
-0.196289,-0.463867,-0.693115,29.678343,3.448486,19.470215
-0.280518,-0.42041,-0.849365,24.116514,-20.309446,31.60858
-0.28833,-0.370605,-0.866211,19.683838,-60.302731,37.239075
-0.396729,-0.329102,-0.819092,23.101805,-102.233879,34.324646
-0.554199,-0.338379,-0.736816,36.048889,-118.743889,23.880003
-0.734863,-0.439209,-0.718262,53.779598,-97.091667,15.022277
-0.887207,-0.569336,-0.75,63.598629,-44.357296,14.656066
-0.867188,-0.652588,-0.70874,60.256954,22.796629,17.410278
-0.699219,-0.70166,-0.695068,51.071163,84.602348,17.539978
-0.500732,-0.682129,-0.724609,42.709347,129.249573,17.662048
-0.352295,-0.638428,-0.755371,36.300659,154.853821,21.057127
-0.340576,-0.58374,-0.697266,31.517027,162.498459,25.970457
-0.469727,-0.569092,-0.649414,30.624388,156.37207,31.196592
-0.473389,-0.591553,-0.636963,30.036924,142.288208,31.021116
-0.279053,-0.660156,-0.675049,26.741026,126.296989,21.888731
-0.171631,-0.692383,-0.697998,21.89636,117.385857,9.689331
-0.193359,-0.650146,-0.665771,19.294739,116.363518,1.502991
-0.20752,-0.617676,-0.660889,18.051147,108.634941,1.167297
-0.19458,-0.613281,-0.633789,15.373229,81.642143,4.608154
-0.150391,-0.641602,-0.619873,13.771056,40.573116,7.17926
-0.068115,-0.680664,-0.599365,14.85443,0.564575,5.0354
0.011475,-0.719971,-0.58374,13.435363,-28.305052,-3.005981
0.02417,-0.750732,-0.577637,9.216309,-49.438473,-14.320373
-0.102295,-0.77124,-0.599365,6.698608,-63.568111,-24.147032
-0.388184,-0.770264,-0.641602,4.081726,-70.083618,-21.530149
-0.6521,-0.729248,-0.663818,-5.691528,-73.638916,5.79071
-0.651855,-0.676758,-0.635254,-22.65167,-85.876457,38.162231
-0.423096,-0.706299,-0.626221,-32.035828,-111.755363,45.608517
-0.180176,-0.7854,-0.60083,-30.632017,-141.105652,31.593321
-0.084229,-0.867188,-0.508545,-28.32794,-172.744736,12.161254
-0.265381,-0.873291,-0.419434,-30.113218,-206.924423,-1.098633
-0.593262,-0.827148,-0.357178,-34.164429,-229.118332,3.311157
-0.834717,-0.783936,-0.371826,-44.55566,-227.073654,19.775391
-0.916504,-0.745117,-0.422363,-60.974117,-197.38768,30.46417
-0.879639,-0.699219,-0.38623,-68.977356,-149.978638,28.411863
-0.830322,-0.659668,-0.376465,-60.821529,-107.086174,19.302368
-0.765381,-0.65625,-0.451904,-48.942562,-87.47863,10.70404
-0.666504,-0.645996,-0.518066,-49.209591,-89.103691,7.339477
-0.592773,-0.615479,-0.566895,-57.182308,-95.741264,8.285522
-0.590088,-0.591309,-0.608643,-61.759945,-92.842094,9.437561
-0.614258,-0.555176,-0.608887,-57.998653,-77.651978,12.21466
-0.675293,-0.528076,-0.517578,-51.589962,-53.390499,13.648986
-0.768555,-0.514893,-0.473145,-46.310421,-27.70233,13.206481
-0.768066,-0.542725,-0.561279,-45.509335,-3.417969,11.360168
-0.62915,-0.559814,-0.57666,-48.362728,17.524719,11.352538
-0.546387,-0.553223,-0.499023,-47.973629,34.767151,13.984679
-0.609863,-0.533203,-0.487793,-42.79327,43.838497,17.669678
-0.657227,-0.481689,-0.457764,-38.612366,48.072811,21.598814
-0.616455,-0.427979,-0.492432,-37.322998,52.36816,23.208616
-0.525879,-0.414551,-0.607178,-37.063599,53.50494,22.705076
-0.426025,-0.408936,-0.65625,-34.355164,51.841732,23.887632
-0.308838,-0.424805,-0.652588,-26.336668,49.47662,28.976439
-0.28418,-0.44458,-0.754639,-19.981384,48.72131,35.476685
-0.35791,-0.437988,-0.938477,-22.941587,42.114254,39.344788
-0.433594,-0.417725,-1.007813,-32.745361,24.16992,35.392761
-0.500732,-0.38208,-0.94751,-40.237423,0.75531,23.361204
-0.543213,-0.348389,-0.817627,-38.642883,-19.943237,11.32965
-0.556641,-0.365479,-0.705811,-27.969358,-31.494139,6.553649
-0.590576,-0.416992,-0.715332,-17.791748,-33.51593,8.979797
-0.612793,-0.44458,-0.819336,-18.051147,-28.747557,12.702941
-0.567383,-0.419189,-0.891846,-24.79553,-19.111633,12.359618
-0.490723,-0.372314,-0.89502,-27.275084,-7.385253,10.261535
-0.431641,-0.344727,-0.919922,-24.360655,3.234863,12.046813
-0.433105,-0.298828,-0.935059,-22.727964,12.916564,18.997192
-0.472168,-0.230957,-0.871826,-23.139952,24.368284,26.954649
-0.501709,-0.162842,-0.784668,-20.103453,38.543701,32.524109
-0.456543,-0.124756,-0.763672,-12.031554,52.635189,37.910461
-0.283203,-0.125977,-0.817871,-2.487183,64.437866,46.371456
-0.104004,-0.13501,-0.857666,6.484985,76.400757,57.456966
-0.030273,-0.125732,-0.890137,14.556884,85.700981,69.404602
-0.07959,-0.114502,-1.031494,22.132872,85.975639,79.391479
-0.224365,-0.105957,-1.196777,28.732298,73.371887,82.725517
-0.415527,-0.102295,-1.247803,38.581848,49.278255,75.85144
-0.553955,-0.14209,-1.127197,57.243343,22.048948,61.309811
-0.630371,-0.22168,-0.976563,75.4776,0.091553,47.386166
-0.618164,-0.302734,-0.81665,83.06884,-21.01898,41.419979
-0.483887,-0.409912,-0.696777,81.016533,-39.207458,44.525143
-0.445313,-0.500244,-0.748291,72.341919,-44.548031,52.185055
-0.543213,-0.521729,-0.832764,60.462948,-41.114803,57.632442
-0.535156,-0.524902,-0.804932,51.826473,-39.215088,56.243893
-0.474854,-0.527588,-0.719727,46.897884,-41.839596,48.370358
-0.570068,-0.494141,-0.682373,42.839046,-53.070065,37.910461
-0.776611,-0.466309,-0.774658,39.176941,-72.944641,28.587339
-0.873047,-0.450928,-1.009033,34.614563,-80.665581,19.561768
-0.682373,-0.37793,-1.0979,35.484314,-55.351254,15.457152
-0.615479,-0.331787,-1.035645,48.866268,-3.372192,25.817869
-0.879395,-0.371582,-0.840332,71.31958,45.783993,43.853756
-1.117432,-0.464111,-0.691162,86.547844,69.755554,48.568722
-0.911133,-0.595215,-0.690674,83.618156,61.271664,31.234739
-0.566162,-0.704102,-0.788818,64.01825,42.045589,7.293701
-0.437256,-0.675049,-0.863037,40.214535,25.772093,-4.234314
-0.44458,-0.552002,-0.825195,27.770994,9.635925,-1.89209
-0.477295,-0.446533,-0.681152,29.472349,-8.239746,3.52478
-0.509766,-0.402344,-0.557373,37.025452,-25.093077,3.341675
-0.553955,-0.396729,-0.535645,40.756222,-33.187866,-2.212524
-0.60791,-0.382324,-0.549805,37.467957,-28.083799,-7.80487
-0.641113,-0.343262,-0.588135,32.806396,-13.259887,-11.71112
-0.597168,-0.29834,-0.701416,32.279968,2.792358,-13.336181
-0.527832,-0.269775,-0.796875,36.437988,12.329101,-11.070251
-0.521484,-0.24707,-0.752686,45.81451,10.581969,-7.011413
-0.558838,-0.24585,-0.60376,59.93652,-0.770569,-5.004883
-0.597656,-0.262207,-0.426025,73.493958,-12.4588,-5.622863
-0.629395,-0.265137,-0.311768,81.817619,-15.251159,-7.209777
-0.653809,-0.261719,-0.361572,83.259575,-6.629943,-10.002136
-0.613281,-0.233154,-0.379395,81.230156,8.453369,-15.48767
-0.457031,-0.200195,-0.23584,87.944023,21.987913,-24.131773
-0.256592,-0.212402,-0.143555,105.842583,26.641844,-34.591675
-0.109131,-0.224854,-0.091797,124.855034,15.640258,-44.281002
-0.190674,-0.198242,-0.155273,138.160706,-15.846251,-52.574154
-0.393555,-0.135986,-0.284668,149.879456,-78.689575,-62.438961
-0.41333,-0.095215,-0.325928,176.048264,-162.246689,-78.666687
-0.319336,-0.128418,-0.255127,218.734726,-237.121567,-95.733635
-0.26001,-0.258301,-0.083496,249.992355,-249.992355,-95.588676
-0.249512,-0.444824,0.092529,249.992355,-249.542221,-61.706539
-0.278076,-0.641846,0.052002,243.171677,-249.587997,5.294799
-0.297119,-0.856201,-0.016846,197.784409,-249.992355,74.638367
-0.227539,-1.067139,0.030762,139.73999,-249.992355,119.728081
-0.231689,-1.213623,0.031494,85.09063,-249.992355,148.597717
-0.330566,-1.304443,-0.032227,34.767151,-249.992355,165.725693
-0.469482,-1.385254,-0.132324,-6.744384,-249.992355,168.28154
-0.612305,-1.397949,-0.196777,-43.449398,-249.992355,167.045578
-0.894043,-1.314209,-0.095947,-71.678162,-249.992355,180.526718
-1.373291,-1.177002,0.032227,-82.756035,-249.992355,226.24968
-1.766846,-1.150635,0.012939,-80.604546,-249.992355,249.992355
-1.915771,-1.281006,-0.053467,-86.761467,-249.992355,239.555344
-1.99707,-1.321777,-0.104248,-97.30529,-249.992355,159.751892
-1.913086,-1.119385,-0.098145,-87.203972,-249.992355,67.054749
-1.691895,-0.88916,0.034668,-50.460812,-221.855148,13.771056
-1.481201,-0.793701,0.3479,1.724243,-158.843994,-11.001586
-1.362549,-0.734619,0.892334,62.499996,-112.792961,-32.844543
-1.23999,-0.949951,1.276123,115.646355,-81.901543,-54.191586
-1.179443,-1.272461,1.009277,97.076408,-44.204708,-55.633541
-1.226318,-1.078125,0.598389,1.213074,0.137329,-34.324646
-1.221191,-0.503418,0.452637,-71.434021,32.12738,-27.557371
-1.216064,-0.148926,0.386719,-70.930481,49.865719,-50.758358
-1.047119,-0.026611,0.563477,-25.016783,61.241146,-81.977837
-0.75708,-0.138428,0.840576,31.776426,68.107605,-95.268242
-0.574219,-0.366211,0.887939,65.444946,67.7948,-85.502617
-0.450439,-0.544434,0.837646,65.666199,64.033508,-67.214966
-0.384277,-0.624756,0.636963,42.945858,62.171932,-52.24609
-0.382324,-0.484131,0.449707,8.262634,57.632442,-45.356747
-0.410156,-0.241455,0.483154,-9.162903,44.944759,-46.531673
-0.460449,-0.05542,0.79834,2.174377,26.504515,-52.635189
-0.537109,-0.049805,1.292236,33.462524,18.104553,-56.686398
-0.612793,-0.318604,1.321777,57.899471,40.199276,-45.700069
-0.610596,-0.681396,0.804932,48.698421,96.603386,-21.697996
-0.545166,-0.901123,0.208252,13.763427,163.87175,1.182556
-0.512939,-0.796631,-0.261719,-21.667479,217.54454,9.155273
-0.520508,-0.405273,-0.159912,-20.118711,232.482895,2.861023
-0.619629,-0.103027,0.329102,31.288145,195.411667,-12.695312
-0.568115,-0.119141,0.744873,93.696587,115.379326,-35.736084
-0.352051,-0.379883,0.688232,111.999504,40.695187,-44.219967
-0.331055,-0.588867,0.34375,77.148438,10.650634,-19.081116
-0.581787,-0.586426,0.296631,40.504452,18.760681,17.051697
-0.90918,-0.53125,0.377686,43.067928,48.095699,27.038572
-0.918457,-0.560547,0.449951,66.627502,86.456291,6.561279
-0.702881,-0.564453,0.602783,78.071594,120.376579,-13.786315
-0.645752,-0.489746,0.830566,75.714111,130.683899,-12.649535
-0.68335,-0.484863,0.920166,68.42804,112.266533,-2.388
-0.553223,-0.512451,0.817383,48.889156,80.093384,2.342224
-0.357666,-0.509033,0.657715,24.017332,42.16003,5.79071
-0.480957,-0.410889,0.453369,4.875183,-3.105163,7.469177
-0.775391,-0.238525,0.357666,-0.511169,-55.221554,2.471924
-0.814453,-0.149658,0.469238,11.718749,-92.323296,-8.895874
-0.718506,-0.166992,0.61792,29.724119,-98.854057,-17.021179
-0.786377,-0.199951,0.819092,40.138245,-86.753838,-14.144897
-0.945557,-0.273193,1.022217,46.585079,-72.380066,-7.827758
-0.959473,-0.400146,0.888672,47.615047,-56.861874,-6.103515
-0.618408,-0.535889,0.528564,37.42981,-31.936644,-5.783081
-0.266113,-0.650146,0.098389,24.215696,5.203247,1.76239
-0.32666,-0.684326,-0.243652,13.488769,34.667969,14.068603
-0.767822,-0.504395,-0.030029,17.074585,17.921448,12.344359
-1.225342,-0.354248,0.584961,54.939266,-39.077759,-28.800962
-1.011963,-0.484863,0.829834,97.640984,-100.273125,-85.922234
-0.7771,-0.710938,0.611084,97.595207,-125.66375,-89.431755
-0.864502,-0.809814,0.52832,65.77301,-120.544426,-42.839046
-0.740723,-0.870117,0.543213,50.331112,-100.913994,-15.335082
-0.501465,-0.963867,0.426025,60.798641,-66.413879,-24.353025
-0.439697,-1.015381,0.344971,69.587708,-44.700619,-40.100098
-0.489258,-1.032959,0.419922,69.107056,-63.240047,-50.354
-0.652588,-1.093262,0.437012,60.050961,-106.62841,-57.838436
-0.829102,-1.152832,0.54126,41.549679,-136.34491,-63.323971
-0.916748,-1.17627,0.729736,26.756285,-129.898071,-65.124512
-0.840576,-1.209717,0.72998,19.554138,-90.583794,-59.516903
-0.725586,-1.210449,0.618896,10.772704,-31.188963,-45.433041
-0.591797,-1.138428,0.60791,3.799438,21.995543,-31.753538
-0.403076,-1.070068,0.645752,3.265381,49.507137,-23.29254
-0.241699,-1.029785,0.654785,-0.946045,55.328365,-13.84735
-0.213135,-0.974854,0.699951,-13.633727,49.392696,-1.251221
-0.299561,-0.903076,0.732422,-28.694151,31.280516,7.942199
-0.3479,-0.83374,0.734619,-40.39764,7.209777,8.972168
-0.364502,-0.768799,0.626709,-50.285336,-6.439209,8.537292
-0.381592,-0.678711,0.505615,-58.105465,-5.546569,16.067505
-0.45752,-0.564941,0.453613,-58.616634,0.892639,27.595518
-0.520508,-0.466553,0.482422,-50.193783,0.587463,32.989502
-0.517578,-0.439941,0.499023,-36.903381,-6.492614,32.676697
-0.486084,-0.457275,0.48291,-27.900694,-13.748168,35.263062
-0.44165,-0.465576,0.574219,-23.521421,-15.190124,40.626522
-0.494873,-0.482178,0.570068,-21.430967,-11.749267,44.952389
-0.515137,-0.470459,0.382324,-29.663084,-8.071899,47.279354
-0.449219,-0.373535,0.356445,-39.909363,-3.944397,47.798153
-0.479492,-0.304199,0.440918,-31.883238,-4.089355,46.218868
-0.569824,-0.317139,0.538086,-12.367248,-18.844604,40.817257
-0.625732,-0.418213,0.76416,2.6474,-45.700069,31.738279
-0.720215,-0.602783,0.785645,2.075195,-63.468929,25.283812
-0.740723,-0.677734,0.550049,-19.203186,-58.258053,27.885435
-0.783936,-0.627686,0.491943,-35.636902,-30.120848,35.980225
-0.916016,-0.553955,0.494873,-33.760071,2.349854,35.858154
-0.95752,-0.519775,0.439453,-25.733946,22.994993,21.827696
-0.886475,-0.530029,0.485107,-16.357422,25.283812,5.348205
-0.819824,-0.612793,0.520996,-4.989624,18.669128,-5.28717
-0.834229,-0.716553,0.471924,-1.213074,16.098022,-7.354736
-0.887451,-0.77832,0.443115,-5.996704,20.629881,-4.486084
-0.904297,-0.795898,0.398438,-13.153075,31.555174,-4.570007
-0.83374,-0.773926,0.335938,-20.782469,46.226498,-8.041382
-0.718506,-0.720215,0.272705,-25.413511,60.142513,-9.056091
-0.671631,-0.658691,0.250488,-23.689268,67.123413,-4.959106
-0.720459,-0.633789,0.25,-15.563964,62.026974,-0.930786
-0.781982,-0.689209,0.258057,-6.523132,49.362179,-0.267029
-0.78833,-0.78833,0.20874,-5.966186,42.678829,1.998901
-0.870361,-0.817139,0.162354,-14.747619,51.628109,9.002686
-0.999023,-0.760742,0.274414,-16.792297,74.188232,12.977599
-1.037842,-0.744141,0.372314,-4.951477,102.088921,9.124756
-0.924561,-0.755615,0.322266,3.204345,126.342766,4.936218
-0.783203,-0.72876,0.264893,1.00708,140.411377,7.888793
-0.724609,-0.677246,0.291504,-0.030518,143.196106,12.977599
-0.737549,-0.639648,0.384521,6.484985,135.093689,14.114379
-0.770996,-0.611572,0.401367,11.611938,114.57061,11.817931
-0.7229,-0.574951,0.446289,7.202148,89.74456,9.605408
-0.71167,-0.571533,0.487305,2.5177,75.98114,12.359618
-0.711182,-0.586426,0.503174,3.097534,75.637817,17.791748
-0.665771,-0.599609,0.526123,5.836486,78.559875,22.506712
-0.5896,-0.574463,0.532471,3.784179,70.884705,26.489256
-0.580566,-0.503418,0.562744,-4.096985,51.200863,24.902342
-0.609375,-0.425049,0.575684,-12.886046,25.505064,17.372131
-0.588379,-0.378418,0.550781,-17.662048,1.708984,14.114379
-0.574219,-0.390869,0.484619,-17.166138,-13.84735,21.90399
-0.681641,-0.420654,0.425537,-15.419005,-18.554688,33.233643
-0.830811,-0.439209,0.447266,-11.665343,-17.982483,34.477234
-0.860107,-0.454346,0.566162,-5.783081,-16.860962,24.703978
-0.848633,-0.435791,0.687012,-7.041931,-13.09204,17.776489
-0.900635,-0.371338,0.67334,-23.28491,-9.140015,17.845154
-0.883545,-0.2854,0.5354,-46.653744,-11.512755,18.302917
-0.759521,-0.211182,0.476807,-56.465145,-16.815186,19.874573
-0.701904,-0.193604,0.509766,-44.479366,-19.393921,25.177
-0.866211,-0.243896,0.544678,-23.551939,-17.601013,27.870176
-0.955811,-0.350342,0.584717,-5.905151,-15.670775,19.935608
-0.869385,-0.473145,0.624268,5.0354,-7.324218,11.20758
-0.783203,-0.565918,0.621582,9.666443,9.750366,13.664245
-0.702881,-0.604248,0.579834,8.247375,26.237486,25.657652
-0.637939,-0.586914,0.485107,2.166748,36.392212,40.290829
-0.679199,-0.526855,0.31958,-8.255005,34.469604,50.941463
-0.740723,-0.445557,0.164795,-23.03314,15.716552,49.934383
-0.679688,-0.357178,0.049561,-35.514832,-11.367797,42.854305
-0.590576,-0.281982,0.026611,-35.667419,-31.158445,44.692989
-0.662109,-0.260742,0.130615,-17.372131,-36.949158,56.40411
-0.755371,-0.287842,0.298828,14.85443,-33.26416,69.900513
-0.872314,-0.301514,0.266357,42.961117,-21.057127,78.102112
-0.931641,-0.253174,0.085693,51.74255,-5.523681,79.460144
-0.898926,-0.12085,-0.07373,49.293514,12.115478,81.93969
-0.797852,0.022949,-0.151367,59.196468,31.890867,93.238823
-0.797119,0.033936,-0.114746,88.49334,47.309872,108.375542
-0.802246,-0.116699,-0.026123,109.504692,40.870663,110.824577
-0.758301,-0.268066,0.093506,96.458427,17.440796,111.465446
-0.855957,-0.25,0.239746,52.612301,0.465393,119.873039
-1.086426,-0.093018,0.242432,1.785278,1.976013,119.140617
-1.307617,0.081055,0.140869,-28.335569,27.305601,115.715019
-1.430664,0.123779,0.19165,-29.869078,77.659607,113.929741
-1.307861,0.0,0.295898,-20.51544,135.604858,112.403862
-1.187988,-0.109131,0.222412,-15.197753,177.98613,119.35424
-1.132813,-0.15625,0.115234,-19.500732,177.627548,118.09539
-1.039551,-0.159668,0.038086,-33.493042,141.532898,106.742851
-1.074707,-0.12793,0.00708,-52.886959,100.425713,105.041496
-1.11084,-0.062988,0.114502,-74.165344,67.695618,111.145012
-0.991943,-0.001953,0.181885,-87.638847,54.374691,119.659416
-0.897461,0.011963,0.071289,-85.58654,56.716915,132.904053
-0.909912,-0.064941,0.011475,-72.486877,54.664608,134.643555
-0.948975,-0.188721,0.043457,-51.773067,40.435787,126.388542
-1.047852,-0.279785,0.041504,-35.713196,22.773741,116.386406
-1.020752,-0.289795,0.016846,-42.343136,-4.829407,107.574455
-0.932129,-0.219482,-0.061279,-64.163208,-36.727905,107.559196
-0.965088,-0.091064,0.008057,-74.371338,-61.363216,112.220757
-1.018066,-0.009766,0.180664,-74.653625,-73.997498,109.077446
-1.009033,-0.003418,0.197021,-66.398621,-76.530457,107.543938
-0.938232,-0.092285,0.111328,-48.21014,-77.224731,112.724297
-1.001709,-0.24585,0.044434,-30.952452,-74.226379,115.974419
-1.179932,-0.373047,-0.008545,-30.609129,-71.029663,103.98101
-1.235107,-0.406982,-0.049805,-41.732784,-72.57843,83.892815
-1.261719,-0.322266,-0.012207,-55.511471,-69.908142,67.802429
-1.320557,-0.2146,0.078613,-69.602966,-65.086365,52.429195
-1.314697,-0.11377,0.017822,-61.874386,-67.352295,12.069701
-1.398193,0.021729,0.187012,-41.694637,-63.163754,3.929138
-1.371094,0.030762,0.31665,-15.251159,-64.231873,10.864257
-1.324463,-0.050049,0.27002,14.236449,-60.760494,7.56073
-1.431885,-0.166992,0.041504,30.197142,-59.623714,18.890381
-1.520264,-0.21875,-0.088623,21.621702,-68.878174,39.283752
-1.473389,-0.174072,-0.021484,-9.292603,-84.663383,52.490231
-1.321777,-0.047607,0.073486,-49.201962,-93.109123,58.685299
-1.291504,0.121094,0.202637,-80.879204,-60.56213,64.674377
-1.290283,0.255859,0.308594,-91.323845,-7.064819,63.240047
-1.111328,0.316406,0.332764,-77.629089,22.438047,54.000851
-0.770996,0.300537,0.233154,-54.092403,13.259887,42.457577
-0.608154,0.230957,0.122314,-36.750793,-12.794494,33.477783
-0.685547,0.193115,0.068115,-31.257627,-38.047791,29.067991
-0.74707,0.201416,0.157959,-31.684874,-63.102718,27.053831
-0.666748,0.199463,0.34375,-34.866333,-84.045403,19.958496
-0.509033,0.184814,0.501709,-31.280516,-98.892204,14.671325
-0.364746,0.15625,0.607422,-24.147032,-109.65728,22.949217
-0.517578,0.108643,0.65918,-21.926878,-110.656731,38.421631
-0.835449,0.13208,0.615723,-31.059263,-114.746086,38.749695
-0.947754,0.228271,0.570068,-49.522396,-123.39782,24.261473
-0.898438,0.332031,0.563965,-61.408993,-126.403801,13.72528
-0.812988,0.383789,0.67627,-53.329464,-128.829956,14.236449
-0.745117,0.329834,0.940674,-23.994444,-128.578186,18.379211
-0.797119,0.170166,1.059082,13.374328,-117.34771,22.415159
-0.956299,0.003906,1.070557,34.286499,-89.073174,30.014036
-1.095947,-0.081787,1.147705,28.160093,-39.0625,40.428158
-1.159424,-0.081299,1.095703,4.28772,24.909971,49.041744
-1.084473,0.008789,0.911133,-20.1416,71.655273,55.90057
-0.989746,0.120117,0.790039,-31.959532,90.332024,66.749573
-0.955811,0.191406,0.660645,-32.943726,87.028496,75.622559
-0.934814,0.213379,0.482666,-31.997679,77.522278,76.751709
-0.888428,0.233643,0.539063,-33.287048,75.119019,68.93158
-0.897705,0.239746,0.710938,-30.700682,90.103142,55.816647
-1.000732,0.223389,0.605957,-24.54376,111.572258,45.097347
-1.009033,0.201172,0.424561,-20.751951,118.751518,39.779663
-0.89502,0.189453,0.38916,-19.790649,116.127007,42.556759
-0.789063,0.192383,0.409912,-20.751951,103.950493,49.72839
-0.794678,0.221191,0.509766,-30.639647,74.455261,45.158382
-0.896484,0.259521,0.457275,-43.647762,34.713745,31.822203
-0.971191,0.297363,0.319336,-45.768734,-1.38092,30.052183
-0.882813,0.320068,0.371094,-38.070679,-26.084898,31.10504
-0.758057,0.28833,0.471436,-28.434752,-38.467407,30.868528
-0.814453,0.229492,0.432861,-23.391722,-45.463558,31.806944
-1.001709,0.20752,0.37793,-26.260374,-49.72076,30.418394
-1.048096,0.242188,0.376221,-34.423828,-53.405758,22.094725
-0.959717,0.290771,0.40332,-39.733887,-55.717464,11.741637
-0.970703,0.328857,0.424805,-37.322998,-55.580135,4.234314
-0.99707,0.338623,0.458008,-27.580259,-54.13818,-2.853393
-0.944824,0.303711,0.526611,-14.205932,-45.333858,-9.368896
-0.939453,0.239014,0.497559,-3.40271,-31.372068,-13.031005
-0.95459,0.193604,0.452393,-0.389099,-26.718138,-16.731262
-0.95874,0.178955,0.421387,-2.525329,-28.419493,-21.995543
-0.941406,0.173096,0.41748,-4.272461,-30.85327,-23.460386
-0.902832,0.167725,0.456787,-3.860473,-30.4718,-22.27783
-0.906006,0.166504,0.483887,-2.510071,-27.534483,-21.537779
-0.901367,0.167236,0.501709,-1.174927,-25.779722,-23.41461
-0.867676,0.159668,0.518066,0.579834,-23.818968,-25.398252
-0.822266,0.147217,0.533447,3.013611,-21.995543,-24.307249
-0.788086,0.130127,0.554688,4.40979,-22.476194,-20.545958
-0.77832,0.119385,0.560303,3.028869,-26.931761,-15.792846
-0.793945,0.126709,0.61377,-1.64032,-34.217834,-11.260985
-0.831787,0.143066,0.743652,-7.751464,-33.203125,-6.111145
-0.943848,0.158936,0.765137,-9.841919,-11.817931,3.608703
-1.001465,0.179688,0.689697,-11.024474,11.421203,14.305114
-0.888672,0.220459,0.614502,-15.151977,19.874573,17.944336
-0.773193,0.261963,0.599365,-17.440796,14.030456,19.554138
-0.755371,0.264893,0.644287,-14.778136,-1.373291,19.622803
-0.796631,0.224854,0.652588,-11.230468,-16.708374,18.531799
-0.864502,0.182617,0.621094,-11.779784,-22.315977,19.729614
-0.943848,0.176758,0.615234,-17.845154,-18.638611,20.51544
-1.033203,0.213135,0.612793,-27.351377,-7.644653,15.892028
-1.068115,0.258301,0.511963,-31.715391,6.828308,8.995056
-0.981201,0.276855,0.379639,-24.940489,19.081116,7.041931
-0.859375,0.261963,0.341797,-12.237548,23.223875,6.91986
-0.81543,0.223877,0.372803,-1.495361,16.441345,2.708435
-0.855225,0.180664,0.427002,4.707336,5.149841,-3.219604
-0.89502,0.137695,0.484375,6.721496,-1.106262,-5.752563
-0.907715,0.120361,0.527344,4.28772,1.00708,-4.295349
-0.924805,0.139648,0.571289,-2.288818,5.317688,-3.089905
-0.929688,0.188232,0.598145,-9.361267,7.789611,-6.111145
-0.929199,0.232178,0.532227,-11.489867,7.614135,-9.857178
-0.895752,0.260986,0.439209,-7.17163,3.425598,-10.490417
-0.830322,0.275391,0.462646,-0.167847,-3.608703,-9.056091
-0.814209,0.263672,0.512207,8.651733,-11.253356,-8.277893
-0.848877,0.227539,0.572998,14.656066,-19.714355,-8.117676
-0.9021,0.200928,0.658936,13.351439,-23.223875,-9.918213
-0.916992,0.197021,0.663818,4.852295,-20.057678,-13.923644
-0.892578,0.21167,0.614502,-3.318786,-12.527465,-14.190673
-0.895996,0.228271,0.591797,-4.638672,-6.324768,-10.910033
-0.933105,0.229248,0.626709,0.114441,-5.470275,-9.338379
-0.942139,0.218506,0.62207,4.66156,-6.378173,-10.383605
-0.928223,0.211914,0.568604,5.752563,-1.304626,-8.773804
-0.958252,0.216797,0.577393,5.065917,6.690979,-8.201599
-0.940918,0.209961,0.578857,5.950927,8.781433,-12.680053
-0.928223,0.193359,0.523926,6.576538,11.322021,-14.846801
-0.91748,0.176758,0.49585,7.026672,13.687133,-15.449523
-0.90332,0.149658,0.508301,8.125305,12.550353,-15.762328
-0.909424,0.134033,0.533691,7.17926,2.380371,-16.357422
-0.873291,0.122559,0.534668,4.043579,-18.432617,-16.098022
-0.826172,0.119629,0.489014,-0.617981,-37.101746,-11.32965
-0.80542,0.127197,0.428955,-5.256652,-45.791622,-2.555847
-0.824219,0.147461,0.40625,-6.690979,-47.218319,3.944397
-0.825684,0.166016,0.464355,-5.638122,-49.560543,5.683898
-0.753174,0.1604,0.504883,-2.983093,-57.090755,2.120972
-0.706299,0.149658,0.465088,-2.716064,-64.582825,-0.717163
-0.70459,0.17041,0.432617,-5.043029,-68.214417,-1.068115
-0.721436,0.206543,0.477295,-6.690979,-67.596436,-1.724243
-0.80127,0.243164,0.598877,-5.92041,-66.482544,-3.921509
-0.853516,0.255127,0.684082,-3.303528,-70.198059,-9.468079
-0.793457,0.254639,0.663574,-0.427246,-72.19696,-12.786864
-0.831787,0.268311,0.666016,1.983642,-61.706539,-5.996704
-0.862793,0.275879,0.720459,7.957458,-45.608517,-3.158569
-0.804688,0.26709,0.742188,13.740539,-29.533384,-2.349854
-0.784424,0.238281,0.644775,13.145446,-17.578125,3.768921
-0.781982,0.249512,0.584961,6.874084,-13.34381,8.31604
-0.806885,0.282471,0.641602,2.296448,-15.663146,5.722045
-0.815674,0.283936,0.71582,2.738952,-19.538879,-1.464844
-0.848877,0.262695,0.749512,4.837036,-14.335631,-6.469726
-0.944336,0.249268,0.697266,6.500244,-3.784179,-8.117676
-0.90918,0.247314,0.67627,5.332946,1.403808,-14.22882
-0.820313,0.242676,0.685303,3.662109,6.713867,-18.547058
-0.815918,0.226074,0.658203,6.553649,16.044617,-14.656066
-0.831543,0.208252,0.643311,13.023376,29.21295,-8.346558
-0.811279,0.188232,0.628418,17.478943,46.150204,-3.234863
-0.802002,0.177734,0.606201,17.723083,61.531063,-0.663757
-0.809082,0.195557,0.669922,15.266418,72.975159,-1.63269
-0.850098,0.219971,0.729492,13.046264,83.95385,-3.593445
-0.870605,0.229248,0.635498,11.375426,95.657341,-4.806519
-0.918701,0.244873,0.463867,8.453369,103.370659,-3.814697
-0.926514,0.272461,0.367432,3.852844,100.593559,-3.173828
-0.880127,0.294189,0.38208,1.777649,94.490044,-5.973815
-0.849121,0.29126,0.430176,3.562927,87.661736,-10.421752
-0.824219,0.269043,0.450439,6.622314,74.920654,-13.740539
-0.800537,0.240967,0.463135,9.284973,58.67767,-15.724181
-0.780029,0.217529,0.467773,10.520934,41.702267,-16.098022
-0.799316,0.195801,0.450195,9.651184,25.3067,-17.036438
-0.833008,0.17749,0.41748,8.010864,9.44519,-19.821167
-0.861328,0.171387,0.353516,6.355285,-3.715515,-21.247862
-0.85791,0.178223,0.263672,4.753113,-14.274596,-19.767761
-0.836182,0.193604,0.244141,3.14331,-20.851133,-17.875671
-0.835938,0.214844,0.387939,2.01416,-25.344847,-16.88385
-0.92041,0.208496,0.574463,3.425598,-35.522461,-17.410278
-0.924561,0.165283,0.578125,4.920959,-59.486385,-23.910521
-0.855713,0.137695,0.520996,4.15802,-79.719543,-35.316467
-0.937012,0.138672,0.465332,1.556396,-82.466118,-37.559509
-1.137207,0.163574,0.509277,0.335693,-78.117371,-35.240173
-1.155029,0.187988,0.597168,0.450134,-68.443298,-36.468506
-1.035156,0.166016,0.601563,7.80487,-44.593807,-32.798767
-0.864014,0.096436,0.560059,24.688719,-24.246214,-25.993345
-0.803711,0.021973,0.592773,35.820007,-14.503478,-20.980833
-1.015381,-0.010254,0.707031,29.121397,-7.43103,-16.571045
-1.119873,0.015625,0.693359,12.908935,-5.485534,-16.242981
-0.889893,0.055664,0.604492,2.380371,0.907898,-13.702392
-0.735352,0.077881,0.615723,2.609253,14.61029,-3.77655
-0.800293,0.080811,0.659912,6.126403,15.815734,6.317138
-0.904053,0.065918,0.575439,3.814697,8.338928,11.550902
-1.075195,0.063477,0.457031,-1.25885,10.787963,15.083312
-1.142822,0.090576,0.364258,-4.096985,12.306212,17.242432
-0.999512,0.125732,0.370605,-8.773804,6.027221,23.208616
-0.941895,0.161377,0.44751,-15.640258,3.372192,34.248352
-1.037598,0.187744,0.545654,-17.837524,9.727478,35.942078
-1.083252,0.180908,0.588867,-14.083861,21.423338,24.932859
-1.077637,0.158691,0.518066,-9.216309,38.665771,13.069152
-1.062256,0.1521,0.444092,-10.910033,56.198116,15.1062
-0.959229,0.165283,0.53418,-14.083861,73.654175,21.64459
-0.827148,0.159912,0.680908,-7.102966,99.044792,25.199888
-0.900146,0.119141,0.734131,1.617432,134.010315,30.326841
-1.139893,0.116943,0.645508,-5.958557,164.00145,27.778624
-1.14209,0.16626,0.439453,-24.620054,174.156174,13.481139
-1.012939,0.249512,0.287354,-34.080505,175.308212,6.492614
-0.876953,0.307129,0.287842,-24.940489,170.051559,11.131286
-0.7854,0.27124,0.3396,-5.546569,151.306152,17.059326
-0.726807,0.189941,0.361328,8.209229,112.43438,12.908935
-0.807129,0.12915,0.374756,9.292603,68.054199,2.723694
-1.028809,0.115723,0.354004,-2.571106,35.575867,-9.017944
-1.153076,0.142334,0.325684,-17.532349,21.827696,-20.64514
-1.030273,0.170654,0.332275,-21.583555,26.580809,-25.527952
-0.979004,0.176514,0.31958,-13.076781,47.988888,-19.424438
-1.026123,0.169678,0.27832,-1.296997,73.188782,-11.863708
-0.980957,0.170166,0.327881,10.643004,96.763603,-12.21466
-0.900635,0.152588,0.410156,24.353025,120.277397,-15.632628
-0.90625,0.105957,0.362793,35.469055,143.753052,-16.052246
-0.9729,0.078613,0.22876,34.805298,169.372543,-15.769958
-1.049561,0.084473,0.088379,21.530149,199.012741,-14.785766
-1.189453,0.13208,-0.029541,3.227234,234.17662,-10.345458
-1.16333,0.206543,-0.057617,-7.270813,249.992355,-1.541138
-0.844727,0.24292,0.04126,0.427246,249.992355,7.308959
-0.682373,0.212402,0.077148,17.799377,247.558578,7.591247
-0.729492,0.155273,0.071533,30.410765,209.259018,-0.061035
-0.804688,0.064209,0.101318,34.957886,139.724731,-6.652832
-0.910156,-0.026855,0.044922,26.473997,86.97509,-8.499146
-1.059082,-0.045654,-0.105957,-1.251221,67.382813,-6.881713
-1.149658,0.031982,-0.209961,-38.551331,78.636169,-4.66156
-1.28125,0.18335,-0.122314,-61.401363,114.288322,-7.843017
-1.351563,0.338867,-0.070557,-55.297848,142.044067,-18.928528
-1.028564,0.392822,-0.189453,-18.501282,130.073547,-28.358458
-0.711914,0.320068,-0.272217,23.277281,99.754326,-29.228209
-0.671631,0.185791,-0.285645,35.041809,70.93811,-22.552488
-0.930664,0.090576,-0.272461,16.395569,58.074947,-13.687133
-1.203369,0.075195,-0.207764,-11.741637,61.477657,-9.82666
-1.235352,0.109863,-0.156494,-30.311583,79.88739,-14.129638
-1.154785,0.176758,-0.172607,-35.552979,112.899773,-25.283812
-1.162109,0.253906,-0.255127,-32.409668,148.010254,-42.724606
-1.328857,0.314453,-0.370117,-25.657652,167.106613,-65.963745
-1.414795,0.288574,-0.330566,-11.802672,160.865768,-80.54351
-1.318604,0.157227,-0.270264,6.156921,155.158997,-64.743042
-1.195801,0.022705,-0.225342,12.191772,174.07988,-28.503416
-1.124512,0.002441,-0.309326,1.89209,206.268295,-6.050109
-1.003662,0.025146,-0.312988,-4.745483,217.903122,-13.481139
-0.992676,-0.040283,-0.325195,1.731872,210.189804,-22.880552
-1.016113,-0.092773,-0.259766,3.799438,214.424118,-25.154112
-0.975342,-0.082031,-0.149658,-6.027221,227.973923,-29.815672
-0.893066,-0.026367,-0.245117,-17.39502,232.955917,-40.809628
-0.671875,0.032471,-0.453613,-17.303467,208.770737,-52.047726
-0.413086,0.071045,-0.697754,-11.344909,155.426025,-57.937618
-0.298096,0.139404,-0.909424,-12.733459,82.641594,-60.539242
-0.378418,0.163086,-0.864014,-8.155823,9.674072,-47.927853
-0.714844,0.052246,-0.781738,9.841919,-0.137329,-22.132872
-0.910645,-0.008789,-0.574707,18.630981,55.953976,-14.35089
-0.753662,0.048584,-0.56665,19.515991,108.428947,-20.614622
-0.43335,0.065186,-0.613525,30.242918,95.870964,-19.27948
-0.320313,-0.044434,-0.615967,34.141541,24.467466,-13.198852
-0.468262,-0.095459,-0.623535,19.859314,-47.225948,-7.507324
-0.761475,-0.064209,-0.556396,2.853393,-81.542961,-5.302429
-0.940918,-0.003906,-0.557129,-5.020141,-65.361023,-8.155823
-0.877441,0.058594,-0.584717,1.13678,-22.041319,-11.169433
-0.722412,0.041992,-0.66748,12.847899,0.671387,-14.839171
-0.576416,-0.059814,-0.715576,22.308348,-16.731262,-14.526366
-0.641357,-0.127441,-0.726807,24.597166,-35.430908,-5.348205
-0.701904,-0.12085,-0.654785,20.172117,-48.393246,1.846313
-0.630127,-0.119873,-0.601318,16.098022,-67.268372,5.363464
-0.602051,-0.138916,-0.638428,13.694762,-76.408386,12.023925
-0.625,-0.125244,-0.756836,3.875732,-71.380615,16.036987
-0.633789,-0.101074,-0.791748,-0.274658,-66.688538,16.76178
-0.677002,-0.129395,-0.723877,9.231567,-62.812801,17.913818
-0.779785,-0.144531,-0.58667,16.914368,-56.686398,19.989014
-0.90332,-0.093018,-0.523193,7.598876,-55.252071,22.712706
-0.873047,0.040771,-0.635498,-12.657165,-60.890194,21.934507
-0.774902,0.179688,-0.780029,-21.797178,-74.707031,17.494202
-0.779053,0.234863,-0.799316,-14.671325,-99.380486,12.634276
-0.86084,0.195313,-0.719482,-1.998901,-127.037041,9.078979
-1.023926,0.11377,-0.604736,7.56073,-141.242981,3.822326
-1.180908,0.063721,-0.561768,7.8125,-136.383057,-3.700256
-1.25415,0.089111,-0.562256,0.724792,-115.486137,-10.437011
-1.229004,0.179688,-0.522461,-1.487732,-88.699333,-15.983581
-1.150879,0.244873,-0.491943,5.142211,-64.056396,-18.409729
-1.040283,0.252441,-0.405762,15.602111,-42.854305,-15.670775
-0.942139,0.184326,-0.325928,25.062559,-26.321409,-7.469177
-0.963379,0.063965,-0.350098,28.106688,-14.564513,5.142211
-0.976074,-0.023682,-0.338379,26.023863,-7.644653,15.220641
-0.930176,-0.080811,-0.307617,23.612974,-0.556946,15.426635
-0.966064,-0.100098,-0.268799,17.478943,10.917663,7.759094
-1.074219,-0.094482,-0.273926,5.081176,21.080015,2.830505
-1.034668,-0.086182,-0.169922,-3.639221,36.567688,9.422302
-1.049805,-0.100586,-0.19458,-7.713317,85.800163,23.117064
-1.071289,-0.072754,-0.174561,-8.308411,153.030396,29.121397
-0.990723,-0.081055,-0.302246,-0.068665,193.717941,28.236387
-0.918457,-0.114014,-0.454834,10.864257,194.137558,19.607544
-0.880127,-0.166748,-0.51001,13.557433,166.412338,6.103515
-0.88501,-0.200439,-0.560547,6.942749,141.044617,-1.724243
-0.853027,-0.146729,-0.557129,-2.113342,136.627197,0.480652
-0.797363,-0.050293,-0.611328,-6.988525,153.823853,7.896423
-0.806396,0.048096,-0.751953,-9.45282,174.942001,10.810851
-0.841553,0.133545,-0.85083,-9.643555,179.61882,-0.839233
-0.758301,0.155029,-0.909424,-1.586914,166.481003,-16.891479
-0.633789,0.125732,-0.923828,7.499694,147.544861,-19.844055
-0.593506,0.097656,-0.889648,6.584167,129.364014,-7.881164
-0.659424,0.112549,-0.887695,-1.777649,116.752617,5.0354
-0.609375,0.159424,-0.815918,-6.935119,104.064934,4.219055
-0.474854,0.186035,-0.783936,-4.875183,97.396843,-2.319336
-0.489014,0.228027,-0.733398,0.732422,103.538506,-4.112244
-0.5979,0.272949,-0.782715,5.096435,113.8153,-4.478455
-0.519531,0.295654,-0.879639,17.272949,112.533562,-12.374877
-0.333252,0.261475,-0.843506,43.136593,102.287285,-19.859314
-0.323975,0.213623,-0.751709,67.871094,100.601189,-19.424438
-0.734375,0.197754,-0.845947,72.494507,110.694878,-25.337217
-0.986816,0.200928,-0.997803,65.635681,112.327568,-45.051571
-0.780273,0.101074,-1.023438,66.902161,108.184807,-47.912594
-0.571289,-0.120117,-0.816895,61.920162,96.244804,-25.993345
-0.546875,-0.267334,-0.523682,41.313168,76.171875,0.442505
-0.618164,-0.271484,-0.426758,19.90509,67.176819,9.338379
-0.672852,-0.211182,-0.553711,9.651184,70.213318,-2.677917
-0.56543,-0.151367,-0.678711,9.819031,70.175171,-19.973755
-0.545898,-0.150146,-0.688477,14.282226,69.17572,-27.969358
-0.641602,-0.169922,-0.69751,11.466979,73.913574,-28.182981
-0.55127,-0.146973,-0.722168,4.463196,82.374565,-23.727415
-0.378174,-0.112305,-0.793213,4.737854,86.84539,-17.807007
-0.236572,-0.096924,-0.875,13.137816,75.271606,-16.685486
-0.226563,0.005127,-0.966309,20.538328,56.541439,-21.888731
-0.387207,0.068848,-1.088867,24.131773,49.552914,-24.528502
-0.311523,-0.236084,-0.990479,32.745361,48.477169,-2.807617
-0.267578,-0.468994,-0.771729,30.570982,46.874996,15.571593
-0.274414,-0.225098,-0.857422,18.211365,52.612301,8.94165
-0.316162,0.11377,-1.150391,18.310547,50.621029,-5.020141
-0.182861,-0.052734,-1.080322,28.282164,28.556822,7.705688
-0.125977,-0.283447,-0.849854,27.015684,-2.502441,31.158445
-0.452881,0.03125,-1.024658,14.343261,-25.268553,16.395569
-0.483154,0.05249,-1.144287,14.701842,-42.953487,9.712219
-0.380615,-0.317383,-0.915527,17.448425,-55.549618,37.42981
-0.555908,-0.299316,-0.893066,5.622863,-49.140926,36.697388
-0.470703,-0.071045,-0.967041,3.791809,-32.470703,18.920898
-0.382813,-0.003662,-1.041992,14.152526,-21.629332,13.404845
-0.381592,0.006592,-1.063721,17.082214,-14.129638,12.695312
-0.371094,-0.020264,-1.01123,12.96997,-3.15094,18.249512
-0.371582,-0.186768,-0.835205,4.768372,0.770569,28.968809
-0.371338,-0.231201,-0.797852,1.197815,-5.79071,34.820557
-0.37085,-0.146729,-0.920166,7.102966,-17.799377,30.082701
-0.380371,-0.121094,-1.015381,11.970519,-30.761717,26.672361
-0.449707,-0.157471,-1.042725,8.31604,-36.636353,28.96118
-0.520264,-0.157715,-1.052246,-5.218505,-36.933899,33.26416
-0.549316,-0.132813,-1.026367,-16.716003,-36.659241,40.641781
-0.516602,-0.110596,-0.99707,-22.010801,-38.848877,48.370358
-0.490479,-0.111816,-0.913086,-27.153013,-44.654842,53.039547
-0.451416,-0.108154,-0.897461,-23.03314,-48.46191,57.991024
-0.49585,-0.100098,-0.918213,-18.226624,-51.704403,47.485348
-0.635986,-0.089355,-0.951904,-19.691467,-52.780148,30.563353
-0.710693,-0.080566,-0.943604,-23.330687,-48.133846,18.600464
-0.704346,-0.076416,-0.937012,-27.076719,-40.916439,10.742187
-0.685059,-0.082275,-0.933594,-26.100157,-35.552979,7.720947
-0.666504,-0.085938,-0.932861,-23.986814,-34.950256,3.463745
-0.592285,-0.054199,-0.930908,-21.881102,-32.928467,-2.487183
-0.536377,-0.015137,-0.960938,-17.379761,-25.596617,-5.592346
-0.568604,-0.030762,-0.94165,-8.003235,-21.919249,-5.798339
-0.669434,-0.061768,-0.966553,0.75531,-24.833677,-8.789063
-0.669922,-0.069824,-1.01001,5.950927,-29.953001,-15.60974
-0.624756,-0.077881,-1.035156,10.002136,-29.510496,-20.88928
-0.597168,-0.091309,-0.987549,11.672973,-23.28491,-21.957396
-0.548096,-0.11084,-0.885742,11.039733,-16.235352,-19.851685
-0.464844,-0.137451,-0.8125,10.95581,-10.551452,-17.814636
-0.369629,-0.175293,-0.78833,11.520385,-9.521484,-17.234802
-0.319092,-0.210693,-0.865967,10.505675,-12.428283,-17.723083
-0.380371,-0.192627,-0.843994,7.545471,-10.108947,-18.638611
-0.473633,-0.134033,-0.781006,1.449585,-5.455017,-19.096375
-0.507813,-0.095703,-0.733887,-1.693725,-5.973815,-19.950867
-0.445801,-0.0896,-0.614014,5.676269,-10.917663,-18.791199
-0.340332,-0.104004,-0.437012,18.859863,-15.663146,-16.944885
-0.321777,-0.144775,-0.381104,23.262022,-20.63751,-16.044617
-0.337646,-0.136475,-0.559326,11.314391,-28.808592,-11.001586
-0.306396,-0.03833,-0.83667,-4.203796,-30.2124,-4.066467
-0.394531,0.051758,-0.981689,-8.995056,-21.919249,1.121521
-0.550293,0.077881,-0.832275,-4.638672,-14.633178,5.943298
-0.542725,0.040039,-0.723877,0.190735,-15.396117,10.498046
-0.328369,0.005859,-0.781006,4.02832,-21.972654,17.715454
-0.200195,-0.034912,-0.906006,7.896423,-26.771544,28.053282
-0.317139,-0.032471,-0.924805,9.017944,-29.663084,36.224365
-0.561768,-0.006836,-0.727295,12.916564,-36.972046,33.607483
-0.730225,-0.003906,-0.85376,12.939452,-45.448299,21.072386
-0.668945,0.036621,-1.012939,9.712219,-47.386166,12.672423
-0.695313,0.040283,-0.946777,9.727478,-49.667355,12.542724
-0.849854,-0.005859,-0.856201,8.476257,-61.294552,14.442443
-0.871094,-0.035156,-0.751465,4.920959,-81.748955,10.375976
-0.717529,-0.063232,-0.691895,5.462646,-104.766838,1.319885
-0.625732,-0.103516,-0.770508,6.065368,-117.752068,-3.189087
-0.599854,-0.130127,-0.87207,5.126953,-112.853996,-0.656128
-0.677734,-0.124268,-0.815186,5.424499,-83.335869,1.846313
-0.817871,-0.11084,-0.648193,6.507873,-44.219967,-0.442505
-0.772949,-0.102539,-0.638916,6.614685,-13.427733,-5.722045
-0.627441,-0.071777,-0.654297,11.543273,10.513305,-7.102966
-0.577393,-0.058105,-0.693115,20.668028,21.751402,-3.845215
-0.571777,-0.070313,-0.778564,27.244566,12.199401,-2.380371
-0.570313,-0.096191,-0.849365,32.821655,-13.023376,-3.952026
-0.603516,-0.127197,-0.84375,39.680481,-33.973694,-4.066467
-0.678711,-0.146973,-0.875977,43.746944,-32.501221,-0.419617
-0.789063,-0.136719,-0.87085,44.151302,-5.691528,5.439758
-0.905518,-0.090088,-0.804443,41.061398,33.622742,6.652832
-0.917969,-0.065186,-0.709473,35.949707,64.491272,-0.328064
-0.765381,-0.087402,-0.683838,36.102295,78.697205,-5.371093
-0.622314,-0.14502,-0.663818,40.756222,79.940796,-2.02179
-0.605225,-0.198242,-0.75,34.667969,61.866756,1.495361
-0.601807,-0.194092,-0.875488,16.899109,24.017332,-0.091553
-0.580811,-0.140381,-0.863281,-3.257751,-17.486572,-4.127502
-0.588135,-0.093994,-0.835693,-10.871886,-49.118038,0.328064
-0.679443,-0.101807,-0.735107,-4.272461,-55.450436,5.691528
-0.833496,-0.149658,-0.747314,4.371643,-41.419979,4.592896
-0.823486,-0.165771,-0.732178,8.110046,-26.519773,-1.304626
-0.721436,-0.15625,-0.744141,10.986327,-7.255554,-7.873535
-0.685547,-0.153564,-0.755371,9.239197,5.622863,-8.590698
-0.703857,-0.14624,-0.754395,0.717163,2.502441,-3.311157
-0.670654,-0.111572,-0.736572,-8.06427,-7.751464,3.15094
-0.623779,-0.087158,-0.777344,-10.0708,-22.186277,9.529114
-0.582275,-0.095459,-0.80957,-7.354736,-38.162231,13.526916
-0.536865,-0.137451,-0.855713,-3.875732,-50.331112,13.565063
-0.681396,-0.169678,-0.815918,-1.693725,-47.988888,8.880615
-0.838135,-0.1604,-0.767578,-3.631592,-27.366636,0.656128
-0.849609,-0.125977,-0.737793,-4.150391,4.920959,-5.249023
-0.798584,-0.098145,-0.720947,-1.663208,32.653809,-6.16455
-0.658691,-0.097412,-0.674072,2.937317,43.685909,-2.952575
-0.54541,-0.133789,-0.632568,8.239746,41.114803,1.701355
-0.550537,-0.179932,-0.688232,10.688781,29.945372,4.28009
-0.640625,-0.188232,-0.74292,10.604857,14.442443,0.869751
-0.693604,-0.161621,-0.72998,8.049011,2.967834,-6.408691
-0.688721,-0.129883,-0.718262,6.973266,5.561828,-7.17926
-0.713135,-0.116699,-0.780273,5.996704,17.189026,-3.799438
-0.747803,-0.124756,-0.812012,1.777649,20.774839,-4.241943
-0.71875,-0.124268,-0.846191,0.595093,15.922545,-5.531311
-0.62915,-0.125488,-0.870117,5.126953,10.45227,-3.120422
-0.647705,-0.135254,-0.843506,7.965087,6.660461,1.373291
-0.700928,-0.144287,-0.845459,7.774353,5.226135,3.570556
-0.703369,-0.151611,-0.813477,10.559081,11.604308,2.89154
-0.67627,-0.153076,-0.772705,10.81848,21.575926,0.900268
-0.637451,-0.15332,-0.749268,8.285522,28.373716,-0.25177
-0.589111,-0.159424,-0.752686,6.034851,31.089781,-0.450134
-0.588135,-0.159912,-0.75708,3.318786,31.471251,-1.266479
-0.652832,-0.145508,-0.788818,0.396728,30.899046,-1.89209
-0.654785,-0.125732,-0.812012,0.75531,30.265806,-2.113342
-0.620605,-0.139648,-0.796143,3.425598,29.144285,-1.464844
-0.60498,-0.163818,-0.783936,3.662109,25.482176,0.228882
-0.596924,-0.158203,-0.779297,2.418518,19.393921,1.754761
-0.591064,-0.146484,-0.790527,2.471924,13.366698,2.189636
-0.606689,-0.138184,-0.813232,3.540039,10.94818,1.167297
-0.637695,-0.138428,-0.834229,3.257751,12.023925,-0.801086
-0.695313,-0.152588,-0.870117,3.532409,12.863158,-2.090454
-0.71167,-0.160645,-0.878906,5.455017,14.450072,-4.53186
-0.679688,-0.167236,-0.848145,7.774353,25.581358,-5.477905
-0.648438,-0.175293,-0.858643,5.737304,33.233643,-4.249573
-0.609863,-0.156494,-0.849854,3.845215,31.051634,-1.106262
-0.615234,-0.162109,-0.821533,4.058838,23.498533,2.380371
-0.626709,-0.179688,-0.8125,1.708984,11.512755,2.075195
-0.628174,-0.195313,-0.807129,-1.12915,-1.564026,-0.236511
-0.603027,-0.192871,-0.772705,-2.990722,-14.10675,-0.160217
-0.49585,-0.18042,-0.734619,-1.235962,-21.347044,0.274658
-0.476807,-0.176025,-0.758789,-0.198364,-21.90399,-2.601623
-0.600586,-0.1521,-0.822998,-3.265381,-22.033689,-6.088256
-0.656982,-0.108154,-0.826904,-4.829407,-18.798828,-10.032654
-0.611816,-0.091553,-0.787842,-2.037048,-8.285522,-12.435912
-0.556396,-0.103516,-0.770264,0.968933,1.113892,-10.467528
-0.525635,-0.118896,-0.815674,0.938415,4.745483,-6.080627
-0.546143,-0.135498,-0.817139,0.175476,5.081176,-4.013062
-0.627686,-0.150879,-0.807617,-1.38092,4.936218,-4.150391
-0.644775,-0.150635,-0.777832,-2.5177,5.79071,-4.203796
-0.5979,-0.154785,-0.769043,-3.845215,6.17218,-2.197266
-0.515869,-0.171387,-0.78125,-6.195068,1.075745,1.396179
-0.493164,-0.192139,-0.833496,-9.002686,-6.553649,4.402161
-0.521729,-0.185059,-0.880127,-16.25824,-15.731811,4.493713
-0.568604,-0.142822,-0.885498,-24.284361,-24.070738,2.952575
-0.65625,-0.09375,-0.840088,-27.015684,-27.435301,1.968384
-0.723633,-0.080566,-0.773926,-23.15521,-25.627134,2.052307
-0.708252,-0.115479,-0.781006,-15.464782,-21.339415,1.838684
-0.633057,-0.16626,-0.818604,-9.613037,-18.02063,-0.808716
-0.631348,-0.208984,-0.927734,-12.023925,-14.953612,-5.027771
-0.674072,-0.18335,-0.944092,-20.561216,-11.146544,-7.888793
-0.67749,-0.12793,-0.904785,-27.435301,-4.562378,-9.727478
-0.656738,-0.087646,-0.884521,-25.81024,4.005432,-8.56781
-0.586182,-0.075439,-0.836426,-16.12854,8.758545,-5.66101
-0.577881,-0.106201,-0.821045,-5.905151,8.979797,-3.852844
-0.634521,-0.142822,-0.804688,-2.243042,4.638672,-4.547119
-0.661133,-0.15918,-0.759277,-4.516602,-2.548218,-6.91986
-0.67041,-0.152588,-0.717041,-8.003235,-3.700256,-8.262634
-0.688477,-0.130615,-0.712158,-10.856627,4.310608,-8.987427
-0.648193,-0.112305,-0.736816,-12.451171,11.253356,-10.589599
-0.552979,-0.111084,-0.756104,-11.192321,8.644104,-12.443542
-0.491455,-0.122559,-0.77002,-9.216309,-0.289917,-12.680053
-0.493408,-0.121826,-0.773682,-9.239197,-10.650634,-10.06317
-0.501465,-0.114502,-0.763428,-9.69696,-22.453306,-6.759643
-0.500977,-0.116455,-0.759766,-9.010315,-36.964417,-5.722045
-0.496582,-0.122314,-0.731934,-6.111145,-58.624264,-5.126953
-0.499023,-0.136719,-0.744141,-2.990722,-88.775627,-2.700805
-0.497314,-0.14624,-0.766113,-1.937866,-126.235954,0.816345
-0.515381,-0.148193,-0.782471,-2.792358,-164.550766,5.043029
-0.598633,-0.144775,-0.812012,-5.126953,-193.649277,9.536743
-0.70874,-0.131836,-0.744873,-6.385803,-207.084641,10.162353
-0.85791,-0.120361,-0.661377,-4.493713,-204.475388,4.341125
-1.006836,-0.093018,-0.650635,-0.366211,-192.283615,-5.355834
-1.025879,-0.059326,-0.623535,7.240295,-178.688034,-14.60266
-0.972412,-0.050293,-0.616211,16.624451,-164.436325,-21.430967
-0.940186,-0.066895,-0.616699,23.841856,-147.453308,-23.223875
-0.929688,-0.101318,-0.556396,27.900694,-127.258293,-19.40155
-0.968506,-0.150879,-0.564453,27.435301,-102.394096,-13.21411
-1.020508,-0.175293,-0.580322,22.575377,-72.494507,-10.32257
-0.999512,-0.17334,-0.568848,17.311096,-43.350216,-12.008666
-0.953857,-0.150635,-0.573242,15.228271,-16.548157,-14.297484
-0.937988,-0.117676,-0.627686,14.72473,13.031005,-13.580321
-0.979492,-0.086914,-0.645264,14.183043,54.023739,-8.483887
-1.078125,-0.062988,-0.591797,12.565612,105.636589,-2.998352
-1.054199,-0.081543,-0.535889,13.412475,149.200439,-3.005981
-0.87207,-0.137695,-0.594727,18.089294,168.807968,-7.240295
-0.637695,-0.19043,-0.649902,20.919798,162.170395,-10.108947
-0.515381,-0.219971,-0.686279,15.762328,140.304565,-7.278442
-0.614746,-0.212891,-0.710205,4.798889,119.392387,0.63324
-0.84375,-0.180176,-0.649902,-3.875732,111.885063,7.141113
-0.889648,-0.167969,-0.565918,-5.439758,118.553154,5.523681
-0.68042,-0.193115,-0.569824,0.62561,124.969475,-3.517151
-0.495605,-0.224365,-0.67334,7.133483,117.897026,-12.4588
-0.465088,-0.231201,-0.759521,6.500244,93.887321,-14.518737
-0.568604,-0.217041,-0.803711,-3.784179,60.409542,-11.291503
-0.671631,-0.179199,-0.79834,-14.328002,28.739927,-5.882263
-0.68042,-0.166748,-0.738281,-14.640807,10.887145,-4.417419
-0.689453,-0.177734,-0.707031,-7.621765,11.695861,-6.370544
-0.762695,-0.175049,-0.746582,-2.830505,25.405882,-6.057739
-0.798584,-0.141113,-0.756348,-2.76947,42.388912,-4.600525
-0.751709,-0.110107,-0.736328,-3.067016,57.205196,-5.622863
-0.688477,-0.11377,-0.779785,-2.037048,66.055298,-8.628845
-0.617432,-0.128662,-0.785156,0.671387,65.116882,-9.742737
-0.565186,-0.154541,-0.751465,5.851745,56.869503,-7.545471
-0.541748,-0.183105,-0.734375,9.20105,50.201412,-3.692627
-0.537354,-0.187988,-0.724365,6.896972,44.670101,-0.183105
-0.575195,-0.167969,-0.730713,1.953125,33.973694,3.158569
-0.628174,-0.141357,-0.732666,-0.167847,20.599363,5.310058
-0.657471,-0.134521,-0.768555,-0.511169,10.871886,4.325867
-0.665771,-0.141113,-0.841797,-3.417969,3.990173,1.029968
-0.622314,-0.144531,-0.761719,-4.15802,-6.66809,-2.624511
-0.665771,-0.173828,-0.741943,-1.51062,-10.124206,-2.967834
-0.743652,-0.174072,-0.727295,-0.770569,1.953125,-0.160217
-0.758057,-0.152588,-0.735352,-3.990173,22.727964,1.167297
-0.688965,-0.115967,-0.773682,-4.692078,37.277222,-0.152588
-0.591309,-0.091797,-0.827148,0.411987,39.627075,-3.105163
-0.493164,-0.089111,-0.843018,7.469177,31.501768,-6.256103
-0.415771,-0.103027,-0.801025,15.335082,16.693115,-6.904602
-0.371338,-0.131104,-0.767578,21.850584,-2.578735,-4.394531
-0.306152,-0.14917,-0.705811,26.222227,-27.610777,-1.953125
-0.285156,-0.1521,-0.679443,27.404783,-56.091305,-3.532409
-0.396729,-0.133545,-0.64624,26.123045,-90.118401,-5.714416
-0.504395,-0.119873,-0.630127,27.511595,-133.399963,-7.751464
-0.534424,-0.133301,-0.647217,34.599304,-171.363815,-12.870788
-0.607666,-0.168945,-0.665039,42.366024,-186.485275,-15.60974
-0.699463,-0.207031,-0.668457,47.416683,-175.567612,-11.497497
-0.948486,-0.239014,-0.737061,43.937679,-138.191223,-4.806519
-1.186035,-0.266846,-0.515381,42.5415,-92.575066,-2.89917
-1.326904,-0.366455,-0.673828,37.42981,-52.11639,-3.288269
-1.220947,-0.410156,-0.738281,32.226563,-27.19879,-14.335631
-0.999512,-0.405762,-0.686279,32.409668,-12.702941,-33.409119
-0.860596,-0.365967,-0.716064,31.639097,8.140564,-43.640133
-0.756836,-0.310303,-0.713867,27.603148,28.938292,-41.175838
-0.748779,-0.270752,-0.845215,22.689817,43.533321,-35.690308
-0.674561,-0.243408,-0.928467,17.364502,42.16766,-38.124084
-0.559326,-0.240479,-0.842285,20.439146,34.0271,-35.713196
-0.604736,-0.245361,-0.805908,27.404783,30.265806,-26.100157
-0.674072,-0.247314,-0.875732,26.481627,23.910521,-22.438047
-0.671143,-0.230225,-0.90918,22.590635,17.311096,-22.979734
-0.594482,-0.212402,-0.838867,22.270201,13.099669,-21.163939
-0.568848,-0.209473,-0.749512,27.19116,13.450622,-15.075683
-0.595703,-0.230225,-0.702637,32.302856,18.089294,-9.231567
-0.688477,-0.289063,-0.727051,33.13446,26.931761,-9.262085
-0.755127,-0.332764,-0.713379,28.564451,36.567688,-13.687133
-0.725342,-0.333008,-0.666748,20.13397,42.945858,-12.748717
-0.652588,-0.324219,-0.64624,11.337279,44.509884,-6.538391
-0.616211,-0.32666,-0.638916,5.500793,42.877193,0.114441
-0.645996,-0.336914,-0.640625,1.052856,39.657593,5.203247
-0.643799,-0.348877,-0.641602,-2.738952,37.757874,5.134582
-0.57251,-0.343018,-0.616943,-6.233215,36.78894,1.525879
-0.54248,-0.334229,-0.653564,-8.796692,36.659241,-0.732422
-0.644287,-0.320801,-0.728027,-10.32257,41.679379,0.099182
-0.717529,-0.30249,-0.786133,-11.268615,46.455379,-0.114441
-0.647949,-0.304199,-0.769531,-7.17926,45.730587,-1.869202
-0.616211,-0.317871,-0.803955,-2.357483,44.662472,0.617981
-0.555908,-0.325439,-0.783447,-1.899719,37.590027,7.217407
-0.434326,-0.340332,-0.647949,4.005432,29.518126,16.120911
-0.521729,-0.367676,-0.672119,8.552551,33.432007,19.287109
-0.694336,-0.342529,-0.727051,-2.304077,34.393311,5.1651
-0.732422,-0.277832,-0.754395,-13.877868,28.785704,-10.116576
-0.686523,-0.217285,-0.74707,-15.73944,27.503965,-12.199401
-0.584717,-0.196533,-0.78418,-11.619567,29.327391,-5.241394
-0.548828,-0.236572,-0.79126,-3.02124,26.657103,2.13623
-0.530273,-0.303467,-0.851563,1.991272,17.745972,4.600525
-0.583008,-0.345459,-0.777588,3.288269,15.785216,1.51062
-0.644287,-0.35791,-0.743408,-1.144409,25.848387,-3.90625
-0.638184,-0.331055,-0.741455,-4.119873,44.250484,-6.202697
-0.60498,-0.288574,-0.74585,-2.357483,62.614437,-9.002686
-0.572266,-0.279785,-0.771729,5.378723,76.896667,-11.45935
-0.590088,-0.313232,-0.830811,13.519286,84.053032,-12.001037
-0.547119,-0.349609,-0.833496,14.739989,81.993095,-13.511657
-0.416504,-0.369629,-0.771729,10.742187,73.165894,-12.275695
-0.397217,-0.375732,-0.776611,5.722045,68.740845,-5.233764
-0.475098,-0.375244,-0.841064,1.930237,67.169189,-1.342773
-0.472168,-0.360352,-0.875,2.288818,66.551208,-5.004883
-0.403564,-0.3479,-0.838379,7.225036,71.044922,-8.377075
-0.393066,-0.344238,-0.817871,11.238097,79.627991,-7.392883
-0.442871,-0.34375,-0.859619,11.253356,84.411613,-5.401611
-0.411865,-0.338379,-0.881104,10.246276,79.727173,-5.805969
-0.346191,-0.326172,-0.849609,10.810851,73.234558,-3.738403
-0.319092,-0.325195,-0.845703,10.086059,67.649841,1.373291
-0.351563,-0.332275,-0.87793,8.918762,61.706539,4.943848
-0.371826,-0.3396,-0.870605,9.765625,55.885311,4.051208
-0.391602,-0.349121,-0.861084,10.963439,52.894588,2.197266
-0.418945,-0.345703,-0.857422,9.353638,49.97253,0.732422
-0.407227,-0.329346,-0.869385,4.997253,44.55566,-0.335693
-0.365234,-0.307373,-0.869385,-0.671387,35.308838,-0.984192
-0.317383,-0.306152,-0.870605,-2.830505,22.78137,-0.579834
-0.359131,-0.320801,-0.858643,-1.907349,10.665893,1.159668
-0.412354,-0.33252,-0.854492,-2.914428,-0.495911,-0.450134
-0.382813,-0.336426,-0.851074,-2.609253,-10.269164,-3.14331
-0.358643,-0.344727,-0.851563,-1.686096,-14.86206,-2.487183
-0.360107,-0.339844,-0.859375,-3.089905,-15.419005,-2.037048
-0.408447,-0.326904,-0.887939,-3.738403,-13.801574,-3.684997
-0.47583,-0.312744,-0.940918,-2.449036,-9.483337,-5.386352
-0.506104,-0.305908,-0.966797,-2.723694,-3.700256,-7.438659
-0.452637,-0.306152,-0.952393,-5.279541,-4.104614,-9.910583
-0.371094,-0.308838,-0.922363,-4.974365,-12.916564,-9.32312
-0.307617,-0.320557,-0.893799,-1.846313,-20.462034,-3.997802
-0.305176,-0.334473,-0.868652,0.808716,-19.180298,1.144409
-0.357666,-0.362549,-0.823975,1.296997,-12.130736,-0.144958
-0.398193,-0.378418,-0.794434,1.914978,-4.623413,-4.745483
-0.404053,-0.3479,-0.856445,-1.342773,-3.738403,-9.590149
-0.325928,-0.307617,-0.915771,-4.760742,-13.809203,-9.82666
-0.338379,-0.316406,-0.906494,-4.325867,-20.797728,-3.189087
-0.430176,-0.341309,-0.901855,-5.393981,-21.598814,0.923157
-0.458984,-0.334961,-0.897949,-4.936218,-17.471313,-2.5177
-0.437744,-0.329346,-0.882568,-1.655578,-11.528014,-8.68988
-0.394043,-0.327881,-0.873779,1.38855,-6.584167,-9.803772
-0.337646,-0.328857,-0.85376,4.554749,-2.182007,-6.912231
-0.34375,-0.343994,-0.855713,5.760192,2.174377,-5.096435
-0.37085,-0.335693,-0.865723,0.801086,1.945495,-4.440308
-0.336914,-0.321289,-0.876953,-4.394531,-5.294799,-3.311157
-0.301758,-0.324707,-0.895996,-4.486084,-12.260436,-0.75531
-0.307129,-0.338379,-0.908936,-1.907349,-16.143799,2.716064
-0.373047,-0.365967,-0.919922,2.098083,-14.846801,5.104064
-0.432617,-0.386719,-0.89209,7.17163,-11.466979,4.295349
-0.412354,-0.392822,-0.85791,9.468079,-11.344909,1.647949
-0.305176,-0.379395,-0.786377,8.94165,-19.134521,1.266479
-0.195313,-0.365234,-0.7146,8.888245,-34.439087,4.40979
-0.172852,-0.34375,-0.708008,7.347106,-55.458065,9.963989
-0.251465,-0.3125,-0.786865,2.357483,-75.72937,14.85443
-0.350586,-0.278076,-0.82666,-1.831055,-89.477531,12.115478
-0.425537,-0.262207,-0.869385,-2.006531,-101.600639,-1.281738
-0.465088,-0.256836,-0.907959,4.425049,-116.271965,-12.329101
-0.533691,-0.249756,-1.010742,12.184142,-129.722595,-12.672423
-0.465332,-0.271973,-1.050781,13.008117,-153.877258,-11.96289
-0.38916,-0.334961,-1.014893,25.80261,-186.569199,-2.5177
-0.422119,-0.410889,-0.835938,47.187801,-220.733627,5.645751
-0.562012,-0.472412,-0.635254,59.730526,-249.191269,4.91333
-0.717041,-0.509521,-0.505127,60.729977,-249.992355,-1.434326
-0.786133,-0.513672,-0.431152,53.63464,-249.603256,-10.330199
-0.720215,-0.492676,-0.348877,42.4118,-249.93132,-18.39447
-0.670166,-0.484863,-0.239258,34.53064,-249.992355,-23.941038
-0.711182,-0.502441,-0.13208,32.279968,-249.992355,-31.036375
-0.694336,-0.547119,-0.138672,34.049988,-249.992355,-40.924068
-0.56543,-0.597168,-0.182861,29.281614,-249.992355,-45.196529
-0.511719,-0.60083,-0.184814,12.565612,-249.992355,-31.761168
-0.616943,-0.559326,-0.186768,-10.353087,-249.992355,-2.532959
-0.788574,-0.549561,-0.177734,-35.797119,-249.992355,27.687071
-0.9375,-0.54834,-0.152588,-55.351254,-249.992355,46.989437
-1.033447,-0.505127,-0.139893,-68.992615,-249.992355,51.963802
-1.181152,-0.423828,-0.068359,-70.503235,-239.860519,50.079342
-1.330322,-0.349121,-0.0271,-62.843319,-151.557922,34.332275
-1.281738,-0.29248,-0.106201,-49.179073,-56.213375,11.474608
-1.107422,-0.244629,-0.263428,-38.291931,-5.271911,-4.959106
-0.909668,-0.210693,-0.286865,-39.138794,10.292052,-7.186889
-0.837158,-0.199707,-0.186279,-37.620544,2.998352,2.166748
-0.916992,-0.224854,-0.082275,-26.145933,-20.469664,10.520934
-0.993896,-0.29248,-0.007568,-13.839721,-51.040646,14.373778
-1.080566,-0.391113,0.017334,-8.705139,-71.746826,14.015197
-1.200928,-0.440674,-0.053223,-13.09204,-65.52887,12.184142
-1.34375,-0.405518,-0.116943,-22.033689,-32.592773,12.847899
-1.385254,-0.328613,-0.141357,-27.893064,8.720398,9.941101
-1.325195,-0.247559,-0.176025,-25.756834,41.961666,1.419067
-1.135254,-0.195068,-0.17627,-15.510558,57.434078,-6.439209
-0.979004,-0.18042,-0.038574,1.792908,64.361572,-5.973815
-1.076172,-0.215088,0.004883,21.202085,65.574646,0.770569
-1.167725,-0.281982,-0.095703,30.326841,55.915829,5.279541
-1.078613,-0.328369,-0.209229,28.396605,46.783443,6.065368
-0.990479,-0.327393,-0.286133,22.102354,44.723507,5.249023
-1.005615,-0.264404,-0.315186,16.685486,42.381283,1.098633
-1.000977,-0.1875,-0.250732,17.059326,31.539915,-6.820678
-0.877441,-0.135254,-0.155273,25.848387,14.076232,-12.283324
-0.761719,-0.113037,-0.09082,42.213436,7.324218,-6.095886
-0.807617,-0.144287,-0.083984,59.860226,19.599915,13.366698
-1.017822,-0.216797,-0.17749,67.832947,46.791073,35.179138
-1.178467,-0.290527,-0.239746,60.974117,78.460693,46.485897
-1.120117,-0.352051,-0.163818,51.811214,108.192436,43.251034
-0.998779,-0.381348,-0.070557,47.45483,131.202698,30.34973
-0.936035,-0.374512,0.020996,41.427608,129.920959,16.937256
-0.892334,-0.371826,0.066406,30.288694,93.826286,8.934021
-0.856201,-0.394287,0.020752,14.289855,34.584045,7.713317
-0.824951,-0.420654,-0.071533,-4.455566,-27.465818,12.802123
-0.820068,-0.428955,-0.121338,-20.820616,-70.236206,21.64459
-0.954834,-0.400635,-0.09668,-30.97534,-80.154419,26.43585
-1.212646,-0.355713,-0.107178,-34.172058,-66.337585,20.545958
-1.376221,-0.307373,-0.191895,-32.707214,-39.932251,5.867004
-1.333008,-0.262451,-0.244629,-27.038572,-1.823425,-6.301879
-1.192139,-0.237793,-0.278076,-16.12854,40.184017,-7.843017
-1.051514,-0.258789,-0.305908,-0.282288,69.93103,-2.365112
-0.966309,-0.326416,-0.290039,16.166687,79.521179,2.540588
-0.881836,-0.407715,-0.260498,25.611876,71.479797,3.417969
-0.824951,-0.47168,-0.236572,24.765013,63.446041,0.900268
-0.874023,-0.481689,-0.223633,17.01355,63.743587,-1.88446
-0.955566,-0.435791,-0.212402,6.973266,60.752865,-3.761291
-0.949219,-0.376465,-0.190918,0.747681,47.790524,-4.081726
-0.836182,-0.350098,-0.219238,1.396179,32.76825,-0.282288
-0.764893,-0.338623,-0.242188,3.662109,26.733397,8.995056
-0.833252,-0.318359,-0.250244,3.128052,22.666929,18.783569
-0.944824,-0.290771,-0.277344,-0.694275,11.016845,21.331785
-1.01001,-0.270752,-0.275879,-3.768921,-9.307861,14.823913
-0.970703,-0.266113,-0.245361,-3.288269,-34.858704,6.156921
-0.918213,-0.27417,-0.177979,1.220703,-53.413387,4.241943
-1.009766,-0.284668,-0.075928,7.476806,-56.90765,8.834839
-1.191162,-0.30835,-0.036621,9.513855,-49.385067,12.71057
-1.332764,-0.329346,-0.073242,4.356384,-31.204222,10.032654
-1.365967,-0.331055,-0.142334,-4.333496,-2.26593,2.822876
-1.279785,-0.307861,-0.217529,-9.254456,33.905029,-2.182007
-1.102295,-0.267822,-0.264404,-6.256103,67.276001,-2.952575
-0.901855,-0.241211,-0.273926,1.800537,82.81707,-2.113342
-0.762207,-0.239014,-0.260254,10.44464,74.897766,-3.013611
-0.705811,-0.25708,-0.207764,16.731262,47.935482,-5.256652
-0.760498,-0.288086,-0.136963,18.936157,14.076232,-7.568359
-0.84082,-0.318359,-0.155273,16.365051,-15.426635,-9.208679
-0.855225,-0.326416,-0.209961,10.551452,-26.855467,-8.346558
-0.803711,-0.320801,-0.196533,6.866455,-22.186277,-6.263732
-0.742432,-0.312744,-0.157715,8.781433,-13.488769,-6.393432
-0.747559,-0.307129,-0.146973,12.550353,-7.240295,-8.06427
-0.82959,-0.297363,-0.192383,13.031005,-9.063721,-9.277344
-0.914307,-0.280029,-0.291504,8.850098,-18.379211,-9.536743
-1.04834,-0.251221,-0.355225,1.159668,-25.489805,-5.195617
-1.129883,-0.232178,-0.291016,-5.020141,-28.259275,4.844666
-1.078613,-0.265137,-0.188965,0.938415,-18.310547,13.549804
-1.075439,-0.321777,-0.195801,15.304564,3.295898,15.975951
-1.084961,-0.347168,-0.303955,20.187376,13.023376,8.956909
-1.065186,-0.331787,-0.344971,12.817382,7.438659,-1.449585
-0.991455,-0.313721,-0.318359,8.003235,-4.722595,-5.867004
-0.948975,-0.307373,-0.23999,10.864257,-8.255005,-2.708435
-0.996582,-0.322021,-0.196777,16.830444,-7.766723,-1.12915
-1.018799,-0.349121,-0.28833,20.690916,-14.968871,-6.469726
-0.996582,-0.380371,-0.416992,17.501831,-25.650023,-11.627196
-0.935791,-0.393311,-0.398926,7.67517,-31.60858,-11.940001
-0.916992,-0.376953,-0.294678,-0.862122,-23.223875,-7.835388
-0.886475,-0.344482,-0.313721,-3.746032,-11.093139,-1.419067
-0.783203,-0.326172,-0.375977,-1.365662,-6.744384,3.265381
-0.714844,-0.328613,-0.356934,0.724792,-12.672423,5.256652
-0.77832,-0.330322,-0.349121,-0.617981,-24.253843,9.078979
-0.94165,-0.32959,-0.310303,-3.295898,-32.585144,14.61029
-0.985596,-0.322021,-0.252686,-6.729125,-41.923519,13.175963
-0.9729,-0.299072,-0.268066,-9.231567,-54.374691,9.544373
-1.003418,-0.278564,-0.30957,-11.901855,-66.902161,11.764525
-0.981201,-0.2771,-0.305176,-14.244079,-77.87323,15.480041
-0.949951,-0.277588,-0.286865,-13.610839,-84.274284,16.059875
-1.065186,-0.253418,-0.190918,-12.321471,-83.312981,14.625548
-1.255859,-0.229004,-0.07666,-9.70459,-71.846008,9.765625
-1.279785,-0.215332,-0.05127,-2.746582,-43.846127,5.683898
-1.199463,-0.225342,-0.032471,8.132935,-1.182556,6.904602
-1.120361,-0.273438,-0.045898,19.40918,34.095764,7.514953
-1.092041,-0.333984,-0.067139,26.80969,50.6134,3.196716
-1.069336,-0.390625,-0.035645,30.502317,51.063534,0.12207
-1.054199,-0.436768,0.024414,29.396055,50.392147,1.296997
-1.003418,-0.43335,0.006836,20.942686,50.132748,0.068665
-0.992432,-0.361328,-0.128906,8.18634,41.320797,-2.288818
-0.993896,-0.275146,-0.287598,-3.494262,28.877256,-2.586365
-0.977295,-0.206055,-0.337402,-10.383605,22.392271,0.007629
-0.925293,-0.172363,-0.266846,-9.002686,18.89801,1.899719
-0.793945,-0.186523,-0.21582,1.075745,12.687682,2.090454
-0.702881,-0.222412,-0.187744,12.123107,4.928589,2.174377
-0.705322,-0.24292,-0.204102,10.81848,-10.864257,-1.541138
-0.713379,-0.232178,-0.273926,1.190186,-29.541014,-6.195068
-0.753418,-0.221924,-0.352783,-6.645202,-33.615112,-6.04248
-0.794434,-0.226807,-0.425537,-11.146544,-22.354124,-2.227783
-0.856445,-0.234375,-0.443115,-10.902404,-1.197815,0.656128
-0.951172,-0.241211,-0.39917,-4.356384,19.798279,-1.731872
-0.966797,-0.259766,-0.301514,7.225036,23.651121,-10.215758
-0.970459,-0.271484,-0.099365,19.477844,5.0354,-20.622252
-1.161621,-0.287354,0.157227,29.937742,-34.866333,-29.998777
-1.11377,-0.381348,0.269531,38.146973,-88.378899,-31.814573
-0.957275,-0.531494,0.19165,37.17804,-100.196831,-10.665893
-1.091309,-0.631348,0.042236,17.463684,-60.615536,24.398802
-1.341553,-0.594482,-0.104492,-10.284423,-2.63977,41.397091
-1.459473,-0.414063,-0.200195,-28.411863,46.531673,28.465269
-1.327148,-0.226563,-0.11499,-27.961729,72.517395,2.975464
-1.115723,-0.153809,-0.044189,-9.689331,79.391479,-6.805419
-1.080811,-0.173584,-0.144043,13.96942,84.938042,7.057189
-1.172363,-0.232422,-0.19873,29.350279,95.5429,24.368284
-1.193848,-0.297607,-0.17334,36.003113,107.13958,26.588438
-1.132324,-0.341064,-0.201172,36.186218,117.248528,17.89093
-1.043701,-0.337891,-0.232178,30.197142,122.909538,8.209229
-0.902344,-0.313965,-0.184326,20.935057,119.171135,-0.274658
-0.824219,-0.283447,-0.142334,13.061522,109.687798,-6.828308
-0.77417,-0.262695,-0.189209,6.881713,90.682976,-8.888245
-0.702148,-0.262695,-0.254395,2.220154,65.032959,-7.469177
-0.676758,-0.262939,-0.286133,0.205994,43.434139,-4.928589
-0.770264,-0.267822,-0.303955,0.411987,32.569885,-2.548218
-0.897217,-0.2854,-0.293945,-0.694275,24.635313,-2.632141
-0.875977,-0.332031,-0.202393,-0.724792,9.178162,-7.415771
-0.862305,-0.395508,-0.091064,4.28009,-3.585815,-10.292052
-0.931152,-0.44458,-0.140869,8.361816,0.526428,-4.28772
-1.010986,-0.445313,-0.313232,3.013611,25.360106,6.828308
-1.073975,-0.389404,-0.439941,-8.720398,57.739254,14.09912
-0.996826,-0.305908,-0.424561,-16.403198,77.957153,11.054992
-0.79126,-0.256104,-0.353271,-12.7182,75.782776,2.502441
-0.619385,-0.259277,-0.32959,-2.319336,51.849361,-0.793457
-0.588623,-0.279053,-0.390137,3.822326,18.966675,3.486633
-0.655273,-0.272217,-0.4375,1.312256,-12.573241,9.078979
-0.811523,-0.233643,-0.442627,-4.646301,-38.322449,9.437561
-0.94043,-0.197754,-0.440918,-8.857727,-62.301632,3.486633
-0.977295,-0.19165,-0.395508,-8.255005,-77.857971,-5.241394
-0.965088,-0.222168,-0.302246,-2.334595,-79.26178,-9.025574
-1.072021,-0.282715,-0.261719,4.989624,-67.9245,-5.928039
-1.287842,-0.323975,-0.267334,4.997253,-56.800838,-3.280639
-1.188232,-0.352539,-0.296143,-0.007629,-51.589962,-6.820678
-0.987549,-0.352295,-0.325684,-2.555847,-24.42169,-7.644653
-0.894775,-0.32666,-0.32373,-3.562927,13.351439,1.213074
-0.889404,-0.300537,-0.360352,-3.517151,38.757324,10.681151
-0.915039,-0.283691,-0.350342,-3.501892,41.893002,13.481139
-0.852295,-0.304932,-0.288574,-2.624511,28.671263,9.269714
-0.800537,-0.337891,-0.317383,-2.365112,11.566161,4.463196
-0.806396,-0.343018,-0.387451,-5.592346,-7.92694,4.493713
-0.844238,-0.305664,-0.40918,-10.414123,-23.696898,6.454467
-0.862305,-0.25708,-0.342773,-12.390136,-29.853819,7.064819
-0.91626,-0.236084,-0.249512,-9.32312,-26.199339,6.538391
-1.052246,-0.254395,-0.183838,-5.645751,-21.797178,7.93457
-1.081543,-0.303223,-0.20874,-3.082275,-19.096375,13.168334
-1.018066,-0.347656,-0.258545,-4.295349,-2.220154,19.615173
-0.986084,-0.367432,-0.269043,-8.262634,19.828796,24.360655
-1.047363,-0.363281,-0.337891,-11.993407,27.175901,24.307249
-1.092285,-0.301758,-0.345703,-16.487122,12.031554,15.457152
-1.053955,-0.236084,-0.326416,-16.624451,-17.01355,0.38147
-1.025635,-0.199951,-0.338135,-11.070251,-44.754025,-10.086059
-1.009277,-0.198975,-0.314941,-4.051208,-61.721798,-13.710021
-0.927979,-0.232422,-0.24585,1.579285,-68.29071,-13.435363
-0.817383,-0.286377,-0.201416,4.333496,-73.158264,-13.069152
-0.749756,-0.32959,-0.156006,4.112244,-88.729851,-16.952515
-0.763672,-0.364258,-0.104736,2.5177,-119.270317,-22.888182
-0.810547,-0.38208,-0.035889,-2.822876,-154.350281,-23.66638
-0.845703,-0.380615,0.01709,-12.672423,-169.784531,-18.035889
-0.979004,-0.345947,0.029053,-26.573179,-153.747559,-7.873535
-1.103516,-0.279297,0.005615,-37.368774,-130.584717,4.737854
-1.015381,-0.233154,-0.053223,-36.216736,-116.83654,11.70349
-0.789551,-0.214111,-0.074951,-26.05438,-109.359734,13.771056
-0.621094,-0.205322,-0.05127,-13.22174,-105.560295,19.309998
-0.643311,-0.196533,0.04126,-0.656128,-106.094353,31.181334
-0.824951,-0.192139,0.190674,9.94873,-113.739006,43.823238
-0.988281,-0.201904,0.320801,16.555786,-134.078979,48.332211
-1.011475,-0.225342,0.356201,20.248411,-171.890244,35.758972
-1.009521,-0.260254,0.295166,18.859863,-221.183762,11.573791
-1.064453,-0.312988,0.048584,4.318237,-249.992355,-2.838135
-1.038574,-0.265137,-0.138672,-28.663633,-249.992355,8.19397
-1.124756,-0.147461,0.158691,-51.185604,-249.374374,29.266356
-1.436035,-0.090332,0.428955,-44.021603,-249.992355,33.248901
-1.543701,-0.110596,0.28125,-24.368284,-245.162949,10.375976
-1.286133,-0.159912,0.146484,-11.054992,-223.770126,-15.274047
-0.990234,-0.201904,0.22998,2.693176,-198.448166,-19.683838
-1.037842,-0.248291,0.279053,16.63208,-166.908249,-9.895325
-1.215088,-0.296387,0.231201,15.960692,-141.51001,-1.991272
-1.209229,-0.303955,0.192871,-2.082825,-130.775452,-2.326965
-1.152588,-0.267334,0.200439,-18.707275,-126.281731,-11.016845
-1.165527,-0.213867,0.275391,-20.462034,-129.737854,-24.353025
-1.185547,-0.180664,0.536377,-6.393432,-144.882202,-38.497925
-1.082031,-0.234375,0.861328,16.067505,-166.908249,-46.82922
-1.020264,-0.432617,0.740967,27.633665,-170.112595,-34.866333
-1.096191,-0.603516,0.431152,12.802123,-129.920959,3.921509
-1.226807,-0.612793,0.357422,-18.52417,-47.874447,34.812927
-1.276123,-0.466553,0.333008,-47.889706,46.241756,33.401489
-1.186523,-0.281494,0.260498,-56.610104,132.041931,14.892577
-0.979004,-0.138672,0.243652,-40.382381,195.091232,2.426147
-0.789551,-0.061523,0.278564,-9.048462,228.530869,5.081176
-0.676758,-0.061035,0.337646,27.633665,235.099777,18.295288
-0.627441,-0.134033,0.424805,60.638424,225.967392,34.0271
-0.628906,-0.263184,0.446533,77.232361,212.051376,48.675533
-0.725586,-0.357422,0.340332,65.689087,199.836716,57.632442
-0.841553,-0.329346,0.191162,30.731199,181.472763,55.221554
-0.902832,-0.180176,0.20459,-4.547119,148.529053,41.625973
-0.891113,-0.024414,0.345947,-19.073486,102.294914,25.947569
-0.850098,0.050537,0.371094,-14.198302,56.259151,21.583555
-0.861572,0.01709,0.226807,-3.791809,22.811888,33.355713
-1.032715,-0.086182,0.084961,6.828308,3.349304,48.141476
-1.219727,-0.194824,0.004883,16.38031,-10.513305,45.989986
-1.248291,-0.258301,-0.013672,26.268003,-18.821716,27.160643
-1.148438,-0.262451,0.017334,36.605835,-18.547058,7.339477
-1.028076,-0.231445,0.048828,42.312618,-17.127991,-3.448486
-0.970703,-0.19751,0.113525,43.838497,-20.233152,-6.584167
-1.011475,-0.187744,0.2146,42.747494,-25.222776,-5.561828
-1.085205,-0.19043,0.288086,38.17749,-29.052732,-5.15747
-1.091309,-0.19458,0.376465,31.944273,-32.066345,-9.422302
-1.024902,-0.201904,0.500244,30.387877,-31.47888,-14.579772
-1.021973,-0.206787,0.543945,29.319761,-22.003172,-16.197205
-1.082764,-0.189941,0.438721,16.471863,-13.908385,-17.318726
-1.128662,-0.127197,0.231934,-5.424499,-11.840819,-16.151428
-1.188721,-0.044922,-0.011719,-21.469114,-12.84027,-14.801024
-1.196533,0.018311,-0.116211,-20.668028,-11.543273,-16.105652
-1.127686,0.036621,0.006836,1.914978,1.937866,-16.746521
-1.099365,-0.003662,0.212646,32.188416,36.743164,-14.579772
-1.167969,-0.060059,0.385498,47.698971,90.026848,-10.498046
-1.258057,-0.111084,0.452393,42.198177,148.033142,-8.888245
-1.230957,-0.144775,0.392334,27.297972,203.018173,-12.756347
-1.122559,-0.170654,0.346436,18.90564,247.436508,-16.189575
-1.07666,-0.211426,0.366699,21.675108,249.992355,-14.816283
-1.0625,-0.276367,0.265381,27.908323,249.42778,-11.566161
-1.019775,-0.332031,0.143311,27.000425,249.862656,-11.360168
-1.011475,-0.361084,0.14502,16.227722,249.992355,-12.382506
-1.0354,-0.369629,0.149414,1.88446,246.002182,-12.313842
-1.049316,-0.377686,0.135254,-8.323669,230.995163,-6.805419
-1.00293,-0.386963,0.074707,-13.084411,222.755417,0.808716
-0.967529,-0.37085,-0.013916,-15.548705,218.597397,0.480652
-1.050293,-0.340576,-0.072754,-18.119812,207.47374,-13.076781
-1.132324,-0.320801,-0.156006,-19.981384,184.890732,-30.708311
-1.062256,-0.297119,-0.25,-18.959045,159.538269,-37.742615
-0.917236,-0.254395,-0.302246,-17.669678,147.888184,-28.717039
-0.883545,-0.212158,-0.341553,-17.654419,153.266907,-12.565612
-0.898438,-0.208496,-0.381592,-16.38031,163.322433,-2.601623
-0.887451,-0.239258,-0.403564,-11.840819,172.462448,0.717163
-0.852539,-0.260498,-0.435547,-8.995056,182.350143,0.610352
-0.793457,-0.251953,-0.398682,-9.58252,190.948471,-2.777099
-0.718262,-0.245117,-0.346436,-9.925842,194.877609,-5.989074
-0.68335,-0.23291,-0.385498,-11.001586,195.442184,-2.731323
-0.641113,-0.188965,-0.476074,-16.899109,189.079269,1.792908
-0.537842,-0.128906,-0.569824,-25.688169,175.834641,3.27301
-0.407471,-0.075195,-0.524658,-31.494139,155.281067,4.91333
-0.30835,-0.046875,-0.49292,-31.906126,131.462097,13.740539
-0.415283,0.005859,-0.668701,-34.111023,109.970085,25.93231
-0.64502,0.07666,-0.826172,-36.338806,74.935913,24.719236
-0.75708,0.048096,-0.755859,-29.556273,33.729553,14.747619
-0.836426,-0.015137,-0.663574,-23.765562,26.176451,14.022826
-0.891602,-0.027344,-0.695557,-28.465269,44.761654,21.743773
-0.907715,-0.02832,-0.732178,-34.790039,52.337643,27.06909
-0.848877,-0.027344,-0.632324,-34.759521,37.902832,25.466917
-0.748779,-0.041504,-0.475098,-32.745361,13.664245,19.828796
-0.722168,-0.057617,-0.347412,-37.948608,-9.010315,17.082214
-0.827637,-0.03125,-0.32959,-54.710384,-21.461485,16.784668
-0.933594,0.031982,-0.288574,-71.983337,-22.926329,11.528014
-0.983154,0.075439,-0.346924,-80.490105,-15.441894,4.875183
-0.893066,0.102783,-0.463867,-79.696655,-6.454467,4.356384
-0.742432,0.096436,-0.587402,-74.97406,-7.17163,10.269164
-0.677246,0.063965,-0.649902,-73.997498,-26.039122,16.822815
-0.679932,0.047607,-0.618896,-76.782227,-56.434628,22.674559
-0.703857,0.050537,-0.551025,-79.109192,-84.503166,26.199339
-0.813965,0.074463,-0.541504,-82.328789,-101.562492,25.81024
-0.935303,0.103516,-0.575928,-88.088982,-108.734123,23.170469
-0.936035,0.125977,-0.597168,-94.15435,-111.41967,21.659849
-0.89624,0.100098,-0.532715,-92.132561,-112.258904,24.383543
-0.879883,0.011963,-0.510742,-84.289543,-114.31884,27.839659
-0.88501,-0.080322,-0.522217,-78.24707,-112.884514,34.187317
-0.989502,-0.134033,-0.54541,-74.272156,-97.778313,43.189999
-1.175293,-0.121338,-0.585205,-79.833984,-65.994263,46.615597
-1.129639,-0.047852,-0.553223,-88.11187,-28.587339,40.27557
-0.984863,0.012451,-0.548828,-89.988701,8.201599,29.983519
-0.956543,0.048828,-0.541016,-84.815971,26.863096,25.360106
-1.02832,0.022705,-0.62915,-76.126099,16.395569,26.420591
-1.040039,-0.048096,-0.788574,-71.19751,-10.643004,27.099607
-1.061279,-0.074219,-0.910889,-75.6073,-29.129026,22.956846
-1.115723,-0.000732,-0.890381,-80.26886,-27.778624,19.493103
-1.136475,0.083252,-0.783691,-75.431824,-7.751464,17.26532
-1.166504,0.115234,-0.714355,-65.956116,22.201536,15.350341
-1.108398,0.125488,-0.721436,-59.410091,42.373653,14.427184
-0.962402,0.126709,-0.711426,-54.38232,49.140926,11.184691
-0.86499,0.121338,-0.676025,-49.011227,48.416134,5.996704
-0.797363,0.123535,-0.608643,-45.196529,40.466305,-0.007629
-0.697021,0.125732,-0.49585,-46.165462,27.153013,-5.676269
-0.626465,0.14917,-0.3479,-54.229733,14.678954,-8.766174
-0.678467,0.203613,-0.330078,-71.44928,9.498596,-5.058288
-0.808838,0.290771,-0.426025,-90.385429,12.123107,4.837036
-0.824707,0.373779,-0.552002,-95.993034,15.312194,10.215758
-0.742188,0.425049,-0.666504,-82.130424,12.825011,5.104064
-0.634521,0.444336,-0.743408,-52.917477,-0.411987,-3.257751
-0.585449,0.404297,-0.726074,-13.801574,-26.512144,-6.698608
-0.700439,0.320557,-0.639648,9.819031,-55.717464,-10.108947
-0.933838,0.28125,-0.601074,10.490417,-77.384949,-9.460449
-1.063965,0.301758,-0.595459,4.966736,-87.287895,-1.457214
-0.97998,0.307129,-0.572266,15.426635,-82.244865,3.059387
-0.889404,0.250732,-0.585205,34.301758,-75.294495,2.609253
-0.909424,0.165771,-0.545654,42.297359,-81.359856,5.981445
-0.99292,0.112793,-0.46875,30.235289,-94.619743,5.813598
-0.9375,0.105957,-0.404785,11.947631,-116.188042,6.622314
-0.867432,0.076172,-0.367188,-2.586365,-137.062073,15.380858
-0.898438,0.019775,-0.308838,-7.858276,-149.024963,20.553587
-0.994141,-0.031006,-0.273193,-15.579223,-151.351929,22.102354
-1.048096,-0.018555,-0.294189,-26.145933,-141.532898,21.751402
-1.040039,0.061768,-0.410889,-27.214048,-115.592949,22.102354
-0.932129,0.127197,-0.417969,-12.115478,-81.237785,24.398802
-0.780762,0.11084,-0.307861,6.439209,-46.760555,25.260923
-0.812744,-0.001709,-0.237061,16.51001,-12.21466,30.670164
-1.069336,-0.112061,-0.101318,9.887695,24.871824,46.882626
-1.242188,-0.175781,-0.122559,1.014709,72.898865,60.417171
-1.0625,-0.202148,-0.363281,1.548767,134.277344,66.207886
-0.896973,-0.109131,-0.620117,6.523132,197.296127,72.662354
-0.797607,0.07251,-0.57251,7.148742,219.848618,65.986633
-0.789063,0.229248,-0.521729,-3.936767,207.96965,49.194332
-0.797607,0.373291,-0.658691,-20.286558,183.486923,41.679379
-0.737793,0.50415,-0.740967,-28.808592,141.418457,44.113155
-0.705566,0.604492,-0.716309,-22.40753,81.542961,41.313168
-0.743408,0.653564,-0.690186,-4.554749,17.883301,30.372618
-0.758057,0.640137,-0.651611,14.289855,-36.170959,18.447876
-0.865967,0.60083,-0.562744,20.118711,-70.594788,8.621216
-0.986084,0.584961,-0.462158,12.817382,-90.400688,-0.175476
-0.972168,0.579834,-0.376465,4.272461,-108.222954,-10.421752
-0.796143,0.540527,-0.318848,1.663208,-135.154724,-19.706726
-0.696777,0.466309,-0.256104,2.815246,-161.22435,-22.460936
-0.75415,0.372314,-0.239258,1.091003,-179.290756,-20.530699
-0.811035,0.291504,-0.231201,-6.309509,-185.241684,-16.822815
-0.897949,0.243652,-0.169189,-17.448425,-174.70549,-12.321471
-0.939209,0.239258,-0.056885,-22.354124,-162.757858,-10.971068
-0.919434,0.204834,-0.075195,-17.868042,-158.027649,-8.636475
-0.962158,0.166504,-0.071289,-6.446838,-147.621155,0.640869
-1.084229,0.115234,-0.03418,1.060486,-124.992363,12.863158
-1.162598,0.071777,-0.001953,1.228333,-88.333122,18.90564
-1.213379,0.066162,-0.045654,-1.495361,-49.812313,18.783569
-1.113037,0.105713,-0.034424,-8.43811,-36.346436,12.886046
-1.023438,0.165283,0.062012,-17.036438,-42.823788,2.868652
-1.012207,0.233643,0.136963,-26.321409,-58.814999,-3.555298
-1.042236,0.283936,0.122803,-33.760071,-66.856384,-2.662658
-1.134033,0.316162,-0.018799,-39.230347,-52.986141,5.378723
-1.258057,0.368164,-0.216309,-44.921871,-21.560667,14.312743
-1.358643,0.459229,-0.302002,-48.225399,23.574827,15.403747
-1.310547,0.551758,-0.32373,-41.503902,72.319031,8.308411
-1.109619,0.604736,-0.376953,-21.499632,104.24041,2.746582
-0.920166,0.596191,-0.413574,2.838135,112.342827,5.737304
-0.882813,0.517578,-0.476563,17.585754,112.464897,17.654419
-0.923096,0.451416,-0.272217,19.241333,117.584221,27.984617
-0.898193,0.368896,-0.210449,19.317627,121.032707,25.344847
-0.754883,0.328125,-0.299561,21.39282,106.277458,16.372681
-0.660645,0.290039,-0.272705,20.271299,66.902161,8.255005
-0.782959,0.250977,-0.205811,6.79779,30.418394,10.749816
-1.028076,0.271973,-0.197754,-10.69641,22.117613,23.887632
-1.14209,0.379883,-0.258057,-23.826597,36.178589,28.19824
-1.000244,0.504395,-0.3125,-21.095274,46.56982,19.775391
-0.831543,0.524414,-0.356934,-4.600525,38.757324,13.122558
-0.833984,0.443359,-0.360596,10.108947,22.262571,15.289306
-0.959473,0.368408,-0.325684,14.640807,13.442992,17.593384
-0.999756,0.353027,-0.310059,13.191222,13.000487,12.390136
-0.930176,0.382813,-0.322021,11.650084,13.938903,4.745483
-0.853516,0.40918,-0.323242,8.674622,10.139464,2.700805
-0.865723,0.419434,-0.294922,3.356933,5.386352,5.966186
-0.910645,0.422363,-0.330811,-1.701355,3.852844,9.933472
-0.909424,0.429688,-0.378662,-2.563476,7.209777,13.72528
-0.814941,0.428955,-0.420654,1.655578,10.292052,17.799377
-0.602295,0.410156,-0.436279,10.589599,8.384705,25.856016
-0.443848,0.345459,-0.372803,18.630981,-2.6474,35.743713
-0.476563,0.264648,-0.318604,17.227173,-23.475645,41.046139
-0.69165,0.234131,-0.30542,3.570556,-42.434689,43.55621
-0.98877,0.292236,-0.324219,-15.182494,-46.524044,47.096249
-1.1604,0.420898,-0.387207,-23.483274,-35.217285,44.868465
-1.101563,0.537109,-0.354736,-13.427733,-19.294739,36.056519
-0.996338,0.564209,-0.301025,5.79071,-9.475708,29.037474
-0.935547,0.525391,-0.313232,25.703428,-12.611388,24.459837
-0.899658,0.468994,-0.345459,38.833618,-24.253843,18.280029
-0.858398,0.44873,-0.354736,39.970398,-36.590576,8.247375
-0.987793,0.45166,-0.681396,33.920288,-47.950741,-0.602722
-1.315674,0.626465,-0.630859,0.38147,-54.489132,-16.021729
-1.383545,0.848145,-0.390625,-11.520385,-24.42169,-7.865905
-1.07959,0.932129,-0.531494,20.088194,9.857178,16.998291
-0.763672,0.78418,-0.489502,59.715267,22.315977,21.179197
-0.636475,0.55542,-0.359131,79.467773,11.779784,13.893126
-0.583496,0.394531,-0.283691,78.00293,-7.446289,10.498046
-0.63208,0.328125,-0.23584,64.231873,-24.688719,10.459899
-0.785645,0.343506,-0.246094,49.47662,-41.40472,9.69696
-0.81665,0.380371,-0.381836,43.922421,-55.046078,9.605408
-0.668457,0.390869,-0.522217,45.997616,-60.653683,14.907836
-0.570801,0.394775,-0.458008,46.295162,-61.012264,21.621702
-0.641846,0.371826,-0.298584,43.525692,-60.142513,24.665831
-0.836426,0.32959,-0.230957,33.569336,-52.444454,32.287598
-1.010498,0.326416,-0.206299,16.838074,-39.970398,32.371521
-0.95166,0.356934,-0.270264,3.578186,-35.812378,17.852783
-0.77417,0.378906,-0.312988,-2.334595,-43.525692,6.408691
-0.697998,0.384521,-0.320801,-9.689331,-61.462399,4.608154
-0.727539,0.400879,-0.360352,-15.556334,-84.07592,7.492065
-0.853516,0.430664,-0.383789,-13.908385,-104.774467,10.078429
-0.919678,0.456787,-0.328613,-1.274109,-119.331352,5.355834
-0.885742,0.473145,-0.294678,21.163939,-128.952026,-4.40979
-0.850586,0.450684,-0.226563,56.045528,-139.793396,-13.000487
-0.895752,0.391602,-0.049316,77.819824,-146.652222,-18.684387
-1.055176,0.329834,0.065186,76.728821,-143.013,-20.225523
-1.131104,0.281738,0.000244,61.927792,-128.707886,-18.074036
-1.079346,0.290527,-0.067139,40.481564,-88.577263,-14.297484
-1.079346,0.360596,-0.037598,19.203186,-25.238035,-5.752563
-1.211914,0.459473,0.07666,8.537292,31.944273,-3.234863
-1.354492,0.541504,0.22876,11.680602,67.405701,-18.089294
-1.326416,0.557373,0.087646,26.19171,77.941895,-37.93335
-1.076904,0.541016,-0.209717,43.968197,69.511414,-41.41235
-0.91626,0.498047,-0.421143,55.702206,56.945797,-29.45709
-0.913086,0.44043,-0.481689,55.244442,43.998714,-20.400999
-0.958984,0.409668,-0.405029,49.957272,30.792234,-21.492002
-1.008545,0.409912,-0.263428,47.599789,21.743773,-29.075621
-1.12793,0.436035,-0.19873,48.789974,23.811338,-34.080505
-1.261963,0.510986,-0.36792,54.878231,36.5448,-35.171509
-1.202637,0.600342,-0.786377,74.829102,47.966,-39.970398
-0.961426,0.602783,-0.990967,112.716667,43.853756,-49.354549
-0.762207,0.477539,-0.9104,148.712158,26.763914,-54.191586
-0.644043,0.287598,-0.407471,156.204224,14.770507,-47.767635
-0.784424,0.165039,0.42749,125.228874,45.867916,-25.718687
-1.177246,0.151611,0.312256,69.694519,114.959709,-5.607605
-0.979736,0.227539,-0.354004,41.458126,142.204285,-0.709534
-0.720459,0.269775,-0.125244,50.98724,154.159546,0.022888
-0.858154,0.235107,-0.086426,52.207943,158.599854,0.068665
-0.912354,0.214355,-0.223633,35.324097,136.230469,-1.823425
-0.77417,0.228271,-0.233154,20.63751,93.284599,-6.286621
-0.662598,0.250977,-0.32959,14.617919,43.792721,-10.597228
-0.717529,0.281494,-0.415527,12.46643,4.020691,-11.276244
-0.751465,0.30127,-0.345703,12.649535,-16.525269,-10.971068
-0.870605,0.272949,-0.35791,10.879516,-8.522034,-14.22882
-1.199951,0.266113,-0.39209,-0.617981,19.210815,-20.51544
-1.309814,0.343262,-0.386963,-11.627196,48.164364,-28.884886
-1.102783,0.423584,-0.479004,-8.338928,68.817139,-38.208008
-0.95166,0.447021,-0.539063,1.586914,70.144653,-43.518063
-0.931885,0.416504,-0.581055,3.784179,53.665157,-41.618343
-0.968506,0.397949,-0.714844,-5.043029,40.863033,-36.079407
-0.976318,0.444336,-0.747314,-15.441894,38.146973,-33.927917
-1.019531,0.472168,-0.724365,-19.050598,40.718075,-32.157898
-1.049072,0.478027,-0.714111,-11.054992,48.095699,-26.878355
-0.949219,0.491699,-0.642334,6.553649,59.761044,-19.981384
-0.808105,0.476318,-0.706299,32.89032,69.458008,-15.533446
-0.653809,0.447998,-0.953613,60.882565,56.602474,-23.468016
-0.620117,0.413818,-1.070313,79.826355,13.603209,-35.133362
-0.768066,0.425049,-1.024658,88.462822,-42.4118,-42.648312
-0.889893,0.44043,-0.842285,95.03936,-83.633415,-49.148556
-0.905273,0.408691,-0.619629,103.065483,-89.210503,-52.467342
-0.880127,0.347168,-0.409668,110.679619,-63.308712,-45.654293
-0.881348,0.262207,-0.279053,114.128105,-24.482725,-34.461975
-0.879395,0.174561,-0.233398,109.359734,5.523681,-27.717588
-0.824463,0.114258,-0.20752,99.868767,17.951965,-28.480528
-0.782715,0.05127,-0.163574,88.005058,17.044067,-34.317017
-0.859619,-0.005371,-0.125977,70.930481,12.176513,-39.703369
-0.985107,-0.030273,-0.10376,45.181271,10.353087,-42.587276
-1.086914,-0.021973,-0.0354,17.372131,18.989563,-43.373104
-1.140625,-0.005127,0.068359,-6.446838,39.169312,-45.829769
-1.131592,0.005371,0.149658,-24.940489,67.634583,-50.422665
-1.106445,0.004395,0.15332,-40.496822,99.243156,-52.101131
-1.091797,0.024658,0.111572,-57.807919,124.39727,-49.606319
-1.075439,0.075684,0.062012,-75.828552,134.07135,-49.194332
-1.020264,0.127441,-0.018799,-90.843193,129.78363,-53.894039
-0.921387,0.164063,-0.106445,-102.584831,122.138969,-59.867855
-0.816895,0.200195,-0.1521,-110.527031,117.774956,-62.911983
-0.737305,0.251953,-0.192871,-109.008781,112.731926,-64.651489
-0.782227,0.277832,-0.374756,-104.194633,99.479668,-66.108704
-0.724121,0.295898,-0.417725,-95.901482,81.146233,-68.260193
-0.565674,0.282715,-0.463379,-86.982719,72.654724,-66.856384
-0.427734,0.262207,-0.512939,-78.727722,76.98822,-54.725643
-0.345459,0.269775,-0.531738,-72.616577,83.419792,-35.980225
-0.253662,0.300293,-0.486328,-66.444397,81.710808,-21.453856
-0.183105,0.308594,-0.449463,-59.089657,73.379517,-14.335631
-0.118652,0.306641,-0.528076,-52.902218,63.995358,-9.399414
-0.067871,0.357422,-0.670654,-48.255917,54.626461,-8.31604
-0.26123,0.451416,-0.783691,-47.561642,27.290342,-17.585754
-0.495605,0.515625,-0.809814,-50.003048,-26.847837,-33.309937
-0.661377,0.467041,-0.666992,-46.752926,-59.539791,-33.500671
-0.792969,0.395508,-0.597168,-46.32568,-29.701231,-10.734557
-0.942383,0.445068,-0.674561,-47.683712,38.154602,16.624451
-0.997803,0.489502,-0.755127,-28.381346,93.376152,27.038572
-0.874512,0.37915,-0.783936,12.21466,116.882317,16.75415
-0.709473,0.205566,-0.766602,49.903866,114.257805,1.609802
-0.562012,0.008057,-0.799072,73.524475,88.317863,-6.774902
-0.328125,-0.175049,-0.890137,78.933716,43.05267,-9.902954
-0.019043,-0.264648,-0.942383,71.121216,-6.813049,-8.19397
0.160645,-0.33252,-0.925293,56.541439,-48.789974,2.76947
0.055908,-0.359863,-0.814453,34.843445,-83.808891,25.93231
-0.333984,-0.29541,-0.681396,2.738952,-113.349907,56.457516
-0.81543,-0.178467,-0.627686,-32.829285,-136.46698,79.063416
-1.283691,-0.06665,-0.72998,-59.43298,-154.541016,80.688469
-1.572754,0.035645,-0.899414,-71.258545,-168.869003,57.579037
-1.507813,0.085938,-0.980957,-61.340328,-171.066269,20.26367
-1.357666,0.074707,-0.986572,-43.05267,-150.482178,-7.347106
-1.376709,0.064941,-1.075928,-37.483215,-112.800591,-8.209229
-1.318848,0.109619,-1.099121,-39.260864,-73.112488,3.364563
-1.140381,0.116211,-1.022705,-30.036924,-48.645016,-0.061035
-1.001221,0.077393,-0.991211,-19.386292,-48.759457,-17.044067
-0.871094,0.08667,-0.971191,-20.584105,-62.965389,-27.580259
-0.72998,0.133057,-0.81543,-21.01898,-70.411682,-23.696898
-0.69458,0.134521,-0.713135,-19.004822,-58.105465,-9.803772
-0.718262,0.123291,-0.655518,-17.311096,-36.140442,6.050109
-0.726318,0.124268,-0.631348,-14.587401,-24.307249,16.082764
-0.74292,0.084961,-0.570068,-10.002136,-26.19171,18.531799
-0.766602,0.036133,-0.554932,-9.407043,-37.216187,17.585754
-0.705811,0.004883,-0.529297,-10.047912,-56.190487,16.464233
-0.695313,-0.030273,-0.463379,-10.345458,-83.808891,15.312194
-0.741943,-0.046143,-0.41748,-12.908935,-126.6632,10.848998
-0.737549,-0.045898,-0.469482,-23.818968,-186.904892,-0.648498
-0.695801,-0.02124,-0.506836,-39.344788,-246.017441,-13.076781
-0.852783,0.017334,-0.464844,-49.34692,-249.992355,-14.808654
-1.32251,0.064453,-0.333496,-50.6134,-249.244675,-0.068665
-1.773682,0.092773,-0.252441,-44.242855,-248.329147,18.806458
-1.967529,0.067871,-0.250977,-30.014036,-191.429123,20.935057
-1.925537,0.015625,-0.274414,-12.664794,-62.271114,5.256652
-1.650391,-0.023926,-0.121582,-3.707886,49.270626,-11.695861
-1.353271,-0.039551,0.013428,-9.086609,109.436028,-21.255491
-1.111084,-0.060547,-0.011963,-18.669128,119.445793,-22.346495
-0.935059,-0.072998,-0.104248,-28.587339,97.923271,-20.545958
-0.953125,-0.031982,-0.210693,-41.847225,61.325069,-26.161192
-0.927979,0.022705,-0.175781,-55.419918,22.209166,-33.439636
-0.815186,0.076172,-0.116211,-69.030762,7.957458,-30.776976
-0.834473,0.17334,-0.213135,-80.688469,10.765075,-23.651121
-0.918701,0.279785,-0.275635,-79.963684,0.808716,-28.877256
-0.997314,0.321045,-0.160889,-68.489075,-21.507261,-43.228146
-1.041992,0.275635,0.006836,-59.700008,-34.942627,-48.255917
-1.111572,0.169434,0.092041,-56.861874,-25.55084,-38.05542
-1.221436,0.089844,0.036377,-59.791561,1.281738,-26.481627
-1.205078,0.100098,-0.035889,-65.414429,40.893551,-23.620604
-1.092285,0.136475,-0.115723,-68.260193,85.58654,-22.377012
-0.94165,0.158691,-0.146484,-67.771912,115.509026,-21.64459
-0.789795,0.156494,-0.085205,-67.832947,121.238701,-21.667479
-0.724854,0.14209,-0.05542,-69.725037,107.64312,-21.469114
-0.726563,0.130615,-0.040283,-72.937012,82.336418,-20.996092
-0.623779,0.127197,-0.089844,-79.017639,61.157223,-20.484922
-0.532471,0.148682,-0.232666,-87.35656,61.958309,-13.664245
-0.652344,0.169922,-0.43457,-94.192497,79.521179,2.685547
-0.781006,0.174316,-0.379395,-103.553764,89.767448,10.429381
-0.684082,0.173828,-0.216797,-113.616936,91.323845,3.295898
-0.53833,0.182129,-0.213135,-113.273613,98.1903,3.578186
-0.392334,0.196533,-0.217773,-107.13195,100.158684,17.707825
-0.285156,0.218506,-0.296875,-109.382622,95.909111,35.682678
-0.307861,0.267334,-0.366455,-116.386406,93.620293,51.818844
-0.446045,0.310059,-0.337891,-118.721001,92.971794,59.570309
-0.473389,0.380371,-0.371826,-119.140617,101.303093,58.761593
-0.265869,0.463379,-0.218994,-106.872551,128.295898,60.920712
-0.074219,0.450684,-0.202637,-82.168571,164.077744,74.798584
-0.125244,0.394043,-0.227539,-59.104916,184.585556,93.948357
-0.49707,0.356445,-0.261963,-58.151241,170.539841,103.385918
-1.286377,0.449463,-0.355225,-92.552177,128.059387,81.573479
-1.985596,0.771729,-0.67041,-130.981445,49.430843,12.977599
-1.962158,1.057861,-0.844727,-111.518852,-30.067442,-66.856384
-1.611572,0.913086,-0.741211,-57.098385,-28.663633,-83.091728
-1.237061,0.667236,-0.463379,-32.165527,43.846127,-28.747557
-0.890625,0.513184,-0.324707,-31.425474,132.492065,19.195557
-0.612305,0.448486,-0.394531,-28.678892,203.552231,21.591185
-0.42749,0.440674,-0.551025,-25.215147,214.416489,-0.740051
-0.320557,0.443848,-0.634766,-29.151915,157.12738,-21.728514
-0.35083,0.52002,-0.818604,-47.973629,66.78772,-19.927979
-0.427979,0.566895,-0.817139,-64.979553,-27.397154,-2.883911
-0.397217,0.616211,-0.695313,-74.562073,-99.174492,10.620116
-0.273438,0.72876,-0.725586,-85.639946,-138.717651,42.129513
-0.346436,0.825928,-0.72583,-97.625725,-139.068604,76.850891
-0.575195,0.861084,-0.793213,-103.828423,-121.582024,78.041077
-0.554932,0.966797,-0.673096,-91.247551,-108.688347,67.245483
-0.458496,1.046143,-0.685059,-70.266724,-90.774529,80.986015
-0.750244,1.023193,-0.669678,-53.016659,-63.453671,100.9674
-0.671143,0.840576,-0.550537,-43.106075,-70.281982,89.797966
-0.448242,0.779053,-0.473389,-36.582947,-113.418571,66.116333
-0.348877,0.897217,-0.611328,-32.234192,-161.193832,61.56921
-0.32666,1.099609,-0.776611,-28.404234,-183.921799,78.765869
-0.499756,1.143799,-0.752441,-16.281128,-179.199203,98.396294
-0.619873,0.986328,-0.666992,-9.773254,-169.876083,97.702019
-0.544189,0.888184,-0.696777,-14.785766,-180.183395,86.303703
-0.46875,0.866699,-0.720947,-17.311096,-193.35173,90.873711
-0.526123,0.845947,-0.696289,-14.007567,-186.668381,107.696526
-0.587158,0.834717,-0.690918,-5.691528,-162.979111,118.324272
-0.52417,0.795898,-0.683105,7.095336,-136.108398,121.597282
-0.420166,0.747314,-0.648438,16.319275,-116.096489,125.213615
-0.38208,0.72998,-0.599121,21.354673,-105.941765,131.813049
-0.388916,0.746338,-0.533936,28.091429,-103.118889,138.778687
-0.339844,0.760498,-0.471191,36.079407,-106.742851,144.950867
-0.266602,0.783936,-0.395752,40.916439,-117.988579,150.848389
-0.239014,0.827393,-0.292236,38.742065,-130.409241,157.516479
-0.21582,0.883789,-0.200195,30.59387,-148.216248,166.381821
-0.166504,0.916504,-0.100098,24.536131,-171.775803,174.598679
-0.128906,0.924561,0.018311,23.117064,-198.15062,180.610641
-0.10498,0.935059,0.102295,21.186827,-224.113449,183.692917
-0.033203,0.96167,0.135986,16.120911,-247.520432,183.90654
0.05542,1.015625,0.189697,9.95636,-249.992355,183.914169
0.073975,1.098877,0.193848,1.251221,-249.755844,185.096725
-0.042725,1.20166,0.23584,-11.283874,-249.900803,184.143051
-0.199463,1.289551,0.356445,-25.421141,-249.992355,170.577988
-0.350098,1.326172,0.440186,-34.072876,-249.992355,138.923645
-0.489258,1.295166,0.470215,-32.936096,-249.992355,103.782646
-0.570557,1.231201,0.477051,-27.008055,-249.992355,81.222527
-0.530029,1.140137,0.493164,-16.326904,-249.992355,70.861816
-0.488037,1.038818,0.51123,-7.820129,-249.992355,65.177917
-0.533691,0.964355,0.511963,-8.506775,-249.992355,60.760494
-0.565674,0.904297,0.504883,-16.227722,-249.80925,59.356686
-0.580078,0.853027,0.493164,-24.871824,-237.594589,61.538692
-0.611084,0.826904,0.469482,-30.937193,-207.229599,65.223694
-0.629639,0.809326,0.473633,-33.889771,-174.438461,68.069458
-0.63916,0.791748,0.497314,-36.308289,-140.655518,70.06073
-0.624023,0.792725,0.546631,-41.061398,-107.330315,73.028564
-0.556396,0.826904,0.574219,-49.819942,-78.178406,78.231812
-0.505615,0.902588,0.533203,-59.906002,-54.924007,86.814873
-0.474609,0.997314,0.482422,-66.246033,-40.664669,93.521111
-0.45166,1.069336,0.460693,-63.095089,-32.676697,92.803947
-0.437256,1.103027,0.461914,-48.873898,-26.718138,86.433403
-0.420898,1.080322,0.453613,-29.418943,-25.100706,77.781677
-0.383789,1.025391,0.421631,-13.656615,-33.096313,69.816589
-0.380371,0.950195,0.473877,-9.391785,-46.70715,62.660213
-0.391846,0.877441,0.520996,-17.303467,-58.28857,53.192135
-0.404053,0.833008,0.526611,-27.893064,-64.201355,47.019955
-0.401855,0.844482,0.520508,-37.834167,-67.245483,43.647762
-0.416992,0.889404,0.499756,-45.936581,-71.83075,37.712097
-0.426758,0.937744,0.509033,-47.027584,-77.987671,27.015684
-0.401367,0.955078,0.562256,-40.748592,-82.748405,15.663146
-0.32959,0.932861,0.607666,-31.890867,-92.216484,3.784179
-0.308838,0.918701,0.611572,-25.611876,-116.5924,-16.960144
-0.355225,0.95166,0.559814,-22.094725,-156.829834,-42.854305
-0.435791,1.013428,0.494629,-22.758482,-192.504868,-57.731625
-0.470459,1.077393,0.4729,-26.123045,-212.074265,-59.631344
-0.529297,1.13623,0.405029,-20.294188,-209.365829,-59.440609
-0.620361,1.191895,0.191406,-8.773804,-189.735397,-62.866207
-0.756836,1.256836,-0.119873,0.839233,-166.755661,-64.537048
-0.875,1.273438,-0.224365,18.074036,-143.562317,-65.414429
-0.570313,1.240967,-0.199707,24.032591,-119.087212,-68.840027
-0.351807,1.184814,-0.101563,22.377012,-101.356499,-59.944149
-0.393311,1.140381,0.060547,29.373167,-93.475334,-50.155636
-0.465576,1.06958,0.237061,40.634151,-74.005127,-42.358395
-0.393799,0.977539,0.38501,49.461361,-43.838497,-37.338257
-0.255127,0.896729,0.442627,49.049374,-15.48767,-29.220579
-0.118652,0.849609,0.454102,42.076107,1.13678,-21.110533
0.001465,0.833252,0.462646,33.241272,3.540039,-16.815186
0.076172,0.83374,0.436768,24.742125,-7.865905,-16.281128
0.052246,0.830322,0.394531,18.951416,-28.816221,-19.813538
-0.030518,0.809814,0.412842,17.478943,-52.818295,-26.130674
-0.109863,0.774902,0.472656,15.678405,-72.761536,-33.256531
-0.145508,0.762695,0.487305,9.521484,-86.036674,-37.666321
-0.167236,0.801514,0.476318,1.708984,-94.604485,-38.459778
-0.217285,0.876709,0.454346,-3.868103,-101.936333,-38.68866
-0.272949,0.945801,0.407959,-3.303528,-106.63604,-41.091915
-0.34375,0.98999,0.321533,1.731872,-107.070915,-43.724056
-0.454834,0.999512,0.23999,7.987976,-102.081291,-44.387814
-0.572754,0.985596,0.207275,11.611938,-86.151115,-40.855404
-0.639404,0.993164,0.237549,7.369995,-54.51965,-31.433104
-0.558838,1.040771,0.275635,-3.456115,-14.083861,-19.744873
-0.372559,1.107422,0.306885,-7.965087,20.790098,-10.757445
-0.247559,1.125,0.328857,1.76239,41.839596,-5.264282
-0.221191,1.068604,0.334473,16.639709,50.73547,-3.494262
-0.161621,0.995117,0.325684,26.611326,53.947445,-4.318237
-0.001221,0.934326,0.334229,29.96826,51.033016,-6.011962
0.134766,0.903809,0.319824,27.70233,37.055969,-6.79779
0.149658,0.899902,0.279297,24.383543,14.160155,-7.659912
0.100098,0.902344,0.252441,22.003172,-8.293152,-9.124756
0.040527,0.890869,0.245361,19.706726,-25.878904,-11.062621
0.020996,0.871338,0.249023,16.960144,-41.130062,-12.771605
-0.013428,0.851807,0.287598,12.992858,-53.970333,-12.054442
-0.0625,0.844727,0.394043,6.584167,-64.376831,-11.032104
-0.08252,0.852295,0.4729,2.098083,-68.443298,-11.283874
-0.103516,0.860107,0.483643,2.326965,-66.15448,-8.682251
-0.108643,0.87085,0.450928,1.51062,-63.224789,-4.425049
-0.130127,0.896973,0.385742,-2.906799,-62.95013,-2.250671
-0.258301,0.939209,0.378418,-9.162903,-67.962646,-1.396179
-0.428223,1.000732,0.375,-16.418457,-69.587708,-3.64685
-0.473145,1.054932,0.338135,-19.271851,-58.79974,-6.378173
-0.377686,1.0896,0.27002,-15.075683,-39.474487,-3.364563
-0.328369,1.102295,0.219727,-6.843566,-21.52252,1.525879
-0.339111,1.098633,0.208496,1.121521,-7.400512,1.823425
-0.365723,0.99585,0.211426,6.942749,9.086609,-0.076294
-0.291748,0.992432,0.199463,3.372192,28.480528,1.480102
-0.213867,1.021729,0.218018,7.514953,44.471737,5.798339
-0.127197,0.984375,0.266357,17.677307,53.581234,6.439209
-0.057129,0.945801,0.332031,23.269651,58.41827,7.186889
-0.058594,0.929932,0.362305,24.070738,58.891293,9.82666
-0.076416,0.921631,0.349609,21.888731,57.929989,13.946532
-0.022949,0.918701,0.309326,18.936157,57.929989,17.807007
0.074219,0.907715,0.257813,16.708374,56.686398,20.614622
0.089844,0.909912,0.233398,10.589599,48.988338,21.217344
0.025879,0.94165,0.280029,3.173828,35.423279,17.700195
-0.03125,0.965332,0.342773,0.358582,25.566099,14.579772
-0.032715,0.950439,0.344238,1.228333,20.545958,14.22882
-0.01709,0.939209,0.316406,0.205994,14.73236,14.686584
-0.035645,0.943604,0.263184,-3.173828,5.050659,13.732909
-0.054932,0.961182,0.211182,-4.669189,-6.370544,11.337279
-0.097412,0.972656,0.154297,-3.692627,-13.786315,10.017395
-0.169678,0.993652,0.123779,-3.074646,-16.769409,8.422852
-0.19043,1.029541,0.141113,-3.044128,-17.776489,6.561279
-0.186035,1.059326,0.158447,-1.373291,-18.379211,4.226685
-0.211182,1.064453,0.210449,2.998352,-20.317076,0.518799
-0.237793,1.03125,0.260498,8.605957,-20.332335,-2.883911
-0.252441,0.976807,0.276123,12.344359,-15.808105,-3.807068
-0.232422,0.936035,0.277588,11.901855,-8.895874,-2.609253
-0.206543,0.929443,0.294678,8.216858,-3.036499,-0.770569
-0.188721,0.955078,0.294678,3.860473,2.388,1.663208
-0.1604,0.976074,0.281494,2.5177,7.186889,4.257202
-0.137695,0.978027,0.294922,5.638122,10.353087,5.096435
-0.106689,0.952881,0.317627,7.743835,12.092589,4.79126
-0.11792,0.927002,0.312256,6.401062,13.275146,5.264282
-0.131348,0.935791,0.274658,1.785278,14.144897,6.103515
-0.11499,0.960205,0.232178,-1.701355,14.465331,6.904602
-0.100342,0.975586,0.213135,-2.044678,12.626647,7.164001
-0.101074,0.979248,0.214111,-1.663208,8.270264,5.386352
-0.099365,0.98291,0.226807,-2.037048,3.372192,3.128052
-0.094727,0.993164,0.22583,-2.593994,-0.427246,1.815796
-0.100586,1.007568,0.218506,-2.388,-2.731323,0.648498
-0.109131,1.007324,0.229736,-0.114441,-3.227234,-0.63324
-0.115234,1.003174,0.232422,1.831055,-1.693725,-0.442505
-0.115967,1.012939,0.20752,0.747681,0.236511,1.998901
-0.107666,1.029541,0.20459,0.434875,0.862122,3.517151
-0.091797,1.026611,0.219971,3.547668,0.091553,2.830505
-0.093262,0.994141,0.22998,8.026123,-1.808166,1.106262
-0.096436,0.963867,0.237061,9.857178,-4.058838,-0.686645
-0.105469,0.950928,0.226807,8.781433,-5.706787,-0.556946
-0.125732,0.94751,0.217285,7.102966,-6.958007,-0.457764
-0.137207,0.949707,0.227783,4.905701,-7.209777,-0.648498
-0.10791,0.956543,0.236084,2.632141,-7.087707,-0.213623
-0.093994,0.95874,0.231934,1.937866,-8.537292,-0.320435
-0.111572,0.959717,0.227539,1.945495,-11.413573,-1.091003
-0.137451,0.960693,0.217529,1.670837,-13.679503,-1.754761
-0.151367,0.957764,0.207031,1.274109,-15.205382,-2.555847
-0.162354,0.951172,0.213867,0.022888,-16.990662,-3.822326
-0.160889,0.954346,0.229492,-2.792358,-18.39447,-4.676819
-0.117432,0.974121,0.24292,-6.408691,-19.859314,-5.073547
-0.067871,0.995605,0.246094,-7.316589,-23.986814,-7.057189
-0.065186,0.996094,0.248535,-4.272461,-31.005857,-10.810851
-0.086914,0.973633,0.252686,-1.220703,-37.857056,-14.808654
-0.101074,0.944336,0.255615,-0.587463,-42.259212,-17.593384
-0.106934,0.918945,0.250732,-2.288818,-44.715878,-19.569397
-0.119141,0.900391,0.239746,-6.095886,-47.019955,-21.263121
-0.151611,0.892822,0.222412,-10.82611,-49.72839,-23.521421
-0.217041,0.889893,0.181396,-15.731811,-53.0014,-26.092527
-0.300537,0.889648,0.135742,-21.301268,-57.334896,-30.914305
-0.356934,0.847168,0.1521,-28.686522,-57.167049,-40.351864
-0.402344,0.834961,0.253906,-40.771481,-46.180721,-50.041195
-0.436035,0.879639,0.29541,-57.113644,-30.693052,-53.466793
-0.442139,0.922607,0.249756,-61.027523,-16.784668,-62.171932
-0.463135,1.054688,0.166504,-59.837337,-8.117676,-82.130424
-0.576416,1.312256,0.099854,-53.932186,-2.952575,-109.291069
-0.840332,1.633789,-0.018066,-25.962828,-3.417969,-156.181335
-1.069336,1.938477,-0.209961,32.302856,-20.927427,-229.026779
-0.99292,2.098389,-0.287109,117.950432,-60.134884,-249.992355
-0.97583,1.98999,-0.222412,209.686264,-111.869804,-249.855026
-1.055664,1.795898,-0.10498,249.992355,-165.977463,-249.404892
-1.379395,1.525879,-0.04541,249.992355,-212.348923,-249.992355
-1.570801,1.347656,-0.093506,249.038681,-249.992355,-249.992355
-1.777588,1.329346,-0.0896,247.955307,-247.009262,-249.984726
-1.980469,1.356689,-0.139404,212.173447,-204.132065,-249.992355
-2.0,1.341309,-0.263916,173.263535,-146.499634,-249.992355
-1.915039,1.243652,-0.331299,161.903366,-80.352776,-249.992355
-1.80249,1.10791,-0.300537,161.163315,-12.489318,-249.992355
-1.660156,1.031494,-0.236816,161.407455,35.446167,-249.992355
-1.573486,0.991699,-0.205078,159.584045,54.969784,-249.992355
-1.444336,0.956299,-0.163574,153.770447,50.109859,-249.992355
-1.29834,0.907959,-0.058838,141.838074,39.154053,-249.992355
-1.184326,0.86084,0.034912,126.91497,28.442381,-249.992355
-1.094482,0.797363,0.081299,120.674126,18.287659,-249.992355
-1.073242,0.70459,0.119141,126.403801,10.093688,-249.992355
-1.092773,0.631836,0.147949,133.453369,2.845764,-249.992355
-1.094482,0.592529,0.17334,135.528564,-1.861572,-249.992355
-1.050293,0.587402,0.186035,131.599426,-2.090454,-249.992355
-0.947998,0.577881,0.196045,124.313347,0.350952,-249.992355
-0.862061,0.544678,0.228271,117.607109,1.121521,-249.992355
-0.809326,0.501221,0.314941,113.044731,-7.186889,-249.992355
-0.73999,0.462891,0.39624,108.360283,-24.765013,-249.992355
-0.746826,0.439209,0.428223,103.347771,-37.467957,-249.992355
-0.831543,0.407471,0.391846,97.129814,-37.93335,-249.992355
-0.84668,0.357422,0.355713,89.378349,-28.427122,-249.992355
-0.794189,0.313965,0.369141,81.520073,-15.312194,-249.992355
-0.715088,0.27124,0.42334,75.218201,-9.140015,-249.992355
-0.692871,0.233643,0.502686,70.556641,-13.099669,-249.992355
-0.694092,0.203613,0.58667,65.032959,-27.412413,-249.992355
-0.631836,0.160645,0.596924,60.241695,-46.585079,-249.992355
-0.568359,0.091553,0.568359,58.1665,-61.958309,-249.420151
-0.588623,0.004395,0.571289,56.137081,-68.740845,-243.568405
-0.601074,-0.07666,0.589355,50.712582,-66.879272,-237.07579
-0.553223,-0.139893,0.614746,45.028683,-56.983944,-231.552109
-0.538574,-0.17749,0.660645,42.175289,-44.975277,-225.006088
-0.560547,-0.195801,0.709717,37.986755,-44.158932,-216.827377
-0.589844,-0.234619,0.775146,26.893614,-63.08746,-205.406174
-0.578857,-0.270508,0.773682,8.750916,-101.127617,-193.679794
-0.383789,-0.333008,0.754883,-5.043029,-141.967773,-184.79155
-0.223877,-0.438477,0.778809,-10.795592,-156.845093,-176.162704
-0.151123,-0.519775,0.786865,-19.973755,-154.212952,-166.595444
-0.172852,-0.540527,0.80542,-37.93335,-148.574829,-156.234741
-0.234619,-0.50708,0.797363,-60.8139,-147.81189,-142.189026
-0.312988,-0.464111,0.760254,-83.984367,-150.863647,-118.881218
-0.450928,-0.448242,0.793213,-107.353203,-154.830933,-92.567436
-0.45459,-0.44873,0.852539,-128.234863,-163.719162,-76.858521
-0.313721,-0.462158,0.979736,-141.853333,-166.26738,-69.885254
-0.175781,-0.513916,1.060059,-155.761719,-164.337143,-63.674923
-0.084229,-0.554443,0.984619,-180.526718,-172.386154,-54.901119
-0.105225,-0.52832,0.884033,-211.860641,-191.680893,-40.534969
-0.231934,-0.46875,0.805908,-239.608749,-217.643723,-21.492002
-0.423828,-0.412109,0.780029,-249.992355,-242.263779,-0.686645
-0.651367,-0.358154,0.850342,-249.992355,-249.992355,19.760132
-0.824707,-0.317627,0.898438,-249.748215,-249.992355,35.209656
-0.842773,-0.266113,0.875977,-249.992355,-249.80162,40.725704
-0.753662,-0.175781,0.893311,-249.992355,-249.992355,39.306641
-0.648193,-0.080322,0.828857,-249.992355,-249.992355,42.427059
-0.695313,0.009521,0.617188,-249.992355,-249.992355,58.349606
-0.874512,0.134766,0.34082,-249.992355,-249.992355,84.83123
-0.86792,0.305664,0.032471,-249.992355,-249.992355,112.205498
-0.643311,0.470215,-0.156494,-249.992355,-245.65123,135.292053
-0.45459,0.531982,-0.174316,-249.992355,-214.759811,154.190063
-2.491455,2.182129,-2.279297,-249.992355,-167.65593,143.936157
-3.014404,5.566406,-6.892822,33.279419,-199.035629,-174.560532
0.151367,-0.770996,-1.505615,249.992355,-249.992355,33.828735
-1.461182,-1.478516,0.20752,81.146233,-151.123047,249.992355
-2.276611,-0.643311,-0.858887,-188.842758,70.922852,249.992355
-1.875732,-1.560303,-1.505127,-53.665157,158.683777,236.663803
-0.800049,-2.335938,-0.43335,161.117538,179.87059,116.020195
-0.236816,-2.295166,-0.078125,201.362595,185.707077,-87.684624
0.021973,-1.636963,-0.233398,60.989376,148.292542,-206.054672
0.352783,-0.955811,-0.184326,-91.690056,87.509148,-160.789474
0.431885,-0.533447,-0.400879,-168.800339,12.725829,-42.579647
0.059814,-0.269287,-0.859131,-185.501083,-54.756161,72.463989
-0.433594,-0.101563,-0.994141,-146.232605,-88.951103,130.073547
-0.780518,-0.146484,-0.895508,-57.479855,-93.91021,127.891533
-0.894775,-0.447021,-0.745605,36.888123,-88.23394,86.09008
-0.84375,-0.840332,-0.536377,94.024651,-91.041557,35.224915
-0.830078,-1.146729,-0.330811,107.803337,-102.584831,-2.944946
-0.89502,-1.237793,-0.158447,88.447563,-117.286674,-20.858763
-0.949951,-1.093262,-0.043945,48.271175,-123.39782,-22.6593
-1.00708,-0.858154,-0.069824,9.925842,-108.27636,-20.195005
-1.062988,-0.611816,-0.230469,-11.589049,-74.256897,-19.790649
-1.064453,-0.401123,-0.448242,-10.437011,-26.107786,-23.872374
-1.04248,-0.234375,-0.708008,10.2005,28.221128,-28.747557
-1.06665,-0.097168,-1.054443,43.846127,76.118469,-30.4718
-1.101318,-0.0354,-1.299072,88.577263,96.443169,-36.178589
-1.002197,-0.12793,-1.24292,139.656067,86.982719,-44.921871
-0.863525,-0.265137,-1.126221,181.663498,72.471619,-48.942562
-0.817627,-0.356934,-1.119141,201.583847,68.664551,-50.2243
-0.867188,-0.354492,-1.099121,202.529892,79.467773,-48.316952
-0.934326,-0.239258,-1.043457,198.822006,105.148308,-42.282101
-0.942383,-0.081055,-0.986816,203.582748,137.908936,-39.382935
-0.834473,0.022949,-0.890869,221.397385,166.358932,-40.603634
-0.685547,0.051514,-0.734863,245.498642,185.134872,-37.216187
-0.576416,0.005615,-0.607666,249.992355,193.664536,-26.206968
-0.527588,-0.073975,-0.556152,249.832138,192.924484,-10.505675
-0.519775,-0.13208,-0.480225,249.855026,185.424789,5.935668
-0.579346,-0.150391,-0.407471,249.992355,175.994858,19.599915
-0.662109,-0.14209,-0.310059,249.992355,166.160568,29.411314
-0.719482,-0.149902,-0.161133,249.992355,159.622192,35.095215
-0.735107,-0.207275,-0.013672,249.992355,155.647278,37.246704
-0.754395,-0.299316,0.083496,249.992355,152.023315,39.909363
-0.799561,-0.398438,0.170898,249.992355,146.934509,46.279903
-0.842285,-0.483643,0.218018,249.992355,140.24353,54.435726
-0.864014,-0.533936,0.236572,249.992355,138.671875,60.852047
-0.90625,-0.524902,0.320313,249.992355,153.465271,64.76593
-0.988037,-0.459717,0.518066,249.992355,180.717453,68.534851
-1.074219,-0.409912,0.785156,249.992355,209.899887,70.632935
-1.172852,-0.394043,1.095215,249.992355,229.309067,71.395874
-1.268311,-0.399414,1.39624,249.610886,232.437119,70.320129
-1.247803,-0.445068,1.626953,244.880661,225.143417,64.163208
-1.141113,-0.53418,1.743164,234.458908,219.06279,53.321835
-1.015869,-0.66333,1.749756,222.297653,208.251938,39.558411
-0.908203,-0.795166,1.786621,208.97673,185.691818,21.232603
-0.853516,-0.875977,1.830566,192.573532,148.284912,2.677917
-0.796875,-0.982178,1.875977,176.856979,99.365227,-10.772704
-0.752441,-1.139648,1.966309,152.168274,44.502254,-21.476744
-0.709229,-1.220703,1.908203,101.730339,-11.184691,-29.58679
-0.656738,-1.17627,1.799561,34.484863,-54.824825,-31.814573
-0.615479,-1.049805,1.705811,-24.475096,-82.389824,-27.381895
-0.558594,-0.919922,1.542969,-64.628601,-101.638786,-23.437498
-0.484131,-0.838867,1.423096,-91.316216,-115.982048,-24.887083
-0.414795,-0.814941,1.367188,-112.289421,-126.090996,-26.649473
-0.427979,-0.812744,1.322754,-132.43103,-132.873535,-20.523069
-0.528564,-0.794434,1.306641,-154.289246,-136.917114,-8.575439
-0.622314,-0.748535,1.239014,-178.61174,-141.975403,0.061035
-0.647217,-0.674561,1.110596,-202.995285,-149.291992,3.509521
-0.614014,-0.584229,0.97168,-225.135788,-159.408569,6.713867
-0.580078,-0.494385,0.894531,-243.560776,-172.56926,11.985778
-0.613281,-0.417725,0.89624,-249.992355,-186.027512,19.493103
-0.727539,-0.362793,0.906982,-249.992355,-199.676498,27.923582
-0.875,-0.324707,0.926514,-249.839767,-210.754379,35.346985
-0.974854,-0.27832,0.914795,-249.992355,-213.272079,40.252682
-0.993164,-0.209229,0.907471,-249.992355,-206.71843,40.977474
-0.949219,-0.133545,0.905762,-249.992355,-198.982224,37.628174
