ax,ay,az,gx,gy,gz
0.172119,0.439697,0.571045,-11.985778,53.047176,100.387566
-0.223389,-0.110107,0.647949,-116.661064,182.151779,158.081055
0.240234,-0.580811,1.304932,-75.286865,82.420341,98.724358
0.253906,0.129395,0.884766,4.28009,-45.509335,63.255306
0.143311,0.276123,0.767334,30.899046,-61.69128,57.754513
0.4021,0.336182,1.046143,62.263485,-73.646545,47.241207
0.378174,0.326904,1.059082,72.463989,-64.720154,49.293514
0.317383,0.348633,0.908691,90.072624,-66.978455,25.070189
0.426514,0.485107,0.818848,95.66497,-59.135433,-12.33673
0.636963,0.535889,0.957764,87.005608,-50.674435,-32.38678
0.701904,0.466797,1.119629,72.906494,-33.920288,-22.53723
0.512939,0.4104,0.972168,50.445553,-12.184142,4.478455
0.437012,0.483643,0.77002,34.767151,-9.048462,20.912169
0.486572,0.68457,0.618652,15.907287,-1.533508,32.440186
0.247314,0.695557,0.380859,11.825561,11.573791,43.182369
0.013916,0.742188,0.188721,31.22711,29.914854,42.243954
-0.181885,0.609863,0.118896,63.446041,37.963867,23.986814
0.100586,0.289307,0.562012,96.763603,19.004822,-9.83429
0.964844,1.021484,0.781494,102.821342,-17.448425,-19.40918
-0.111328,0.585205,0.553711,79.734802,54.00848,81.565849
0.480225,-0.240234,1.335205,174.736008,-19.004822,-0.205994
0.55835,0.654053,0.761963,161.033615,-9.246826,-96.626274
0.446045,0.972168,0.460693,134.002686,34.324646,-70.465088
0.436523,0.60498,0.588379,143.013,25.970457,-66.253662
0.709717,0.515381,0.818359,147.438049,24.238585,-75.737
0.660645,0.740967,0.672363,129.486084,48.454281,-66.520691
0.523926,0.865967,0.522705,128.700256,63.781734,-61.744686
0.708984,0.770264,0.804199,141.853333,55.175777,-55.809017
0.653809,0.634277,0.967529,127.899162,41.069027,-34.77478
0.426514,0.693848,0.669678,84.770195,39.588928,-6.088256
0.472168,0.839355,0.558594,67.489624,35.255432,22.499083
0.507568,0.831543,0.658691,70.343018,29.777525,33.554077
0.508789,0.936523,0.687256,73.410034,32.173157,36.888123
0.382568,0.898438,0.733643,68.367004,49.819942,39.291382
0.398193,0.675781,0.957031,73.371887,32.394409,18.90564
0.385742,0.633301,0.961182,72.860718,-0.190735,-6.263732
-0.04126,0.574463,0.421875,58.303829,14.48059,-14.518737
-0.111572,0.634033,0.246094,98.617546,18.615723,-38.30719
0.17041,0.626465,0.587158,148.918152,29.113768,-68.244934
0.26709,0.387451,0.804932,159.645081,43.838497,-91.659538
0.281982,0.437744,0.869141,141.456604,32.745361,-100.654594
0.266113,0.741943,0.845947,109.321587,25.779722,-90.034477
0.317627,1.169922,0.776855,84.251396,41.740414,-75.3479
0.37085,1.210205,0.86792,51.910397,60.554501,-71.342468
0.556152,1.045898,0.959717,4.318237,55.152889,-60.424801
0.381104,1.19458,0.898682,-10.513305,89.469902,7.850646
0.131104,0.795654,0.816895,-19.729614,96.611015,37.948608
0.139404,0.821045,0.644531,-37.42218,81.977837,37.620544
0.118652,1.095459,0.477295,-44.265743,51.704403,59.944149
0.232666,1.236084,0.457031,-22.819517,26.031492,71.95282
0.227539,0.988037,0.460693,17.082214,25.352476,73.150635
0.189453,0.897217,0.418213,62.782284,31.394957,58.197018
0.115479,0.937256,0.471436,131.637573,30.4718,6.134033
0.186768,0.283936,0.648438,140.220642,34.378052,-18.211365
0.151123,0.053955,0.536621,37.780762,20.843504,13.427733
0.122314,0.348389,0.268311,-64.529419,5.310058,32.936096
0.156982,0.645508,0.215576,-61.477657,-13.450622,35.980225
0.173096,0.583984,0.273438,-33.325195,-31.806944,38.505554
0.11792,0.654297,0.32666,-18.867493,-30.578611,38.253784
0.181396,0.83374,0.527588,-25.482176,-34.080505,44.082638
0.370361,0.86499,0.718018,-45.478817,-56.373592,69.236755
0.298828,0.871338,0.577393,-76.080322,-49.316402,100.044243
0.142578,0.711914,0.462891,-72.761536,-35.972595,100.402824
0.132568,0.421143,0.591797,-54.084774,-32.279968,73.326111
0.084229,0.690186,0.594727,-74.050903,-21.324156,47.065731
0.361816,0.927002,0.652344,-94.40612,-11.917113,11.863708
0.444824,1.210205,0.63623,-80.032349,16.372681,-21.453856
0.056152,1.052002,0.503662,-22.491453,73.448181,-64.926147
-0.073975,0.983154,0.117432,0.045776,95.634453,-194.305405
0.115967,1.010498,0.39917,82.68737,72.273254,-217.1707
0.288574,0.486328,0.7229,95.29113,65.444946,-244.194016
0.635986,0.844238,0.927246,12.451171,67.878723,-182.044968
0.341309,1.270996,0.792725,-44.006344,59.791561,-80.00946
0.143311,1.227539,0.582764,-46.432491,47.500607,-30.34973
0.266113,1.118896,0.896729,-37.04834,53.840633,-20.942686
0.368164,0.931641,0.935059,-55.351254,90.026848,-3.135681
0.090332,0.871338,0.535889,-76.171875,119.155876,25.482176
-0.065674,0.776855,0.35498,-64.071655,101.554863,30.944822
-0.104492,0.758789,0.384766,-28.388975,72.952271,15.327453
-0.008545,0.783203,0.441162,7.835388,51.422115,1.13678
0.027344,0.666504,0.620361,45.890804,29.136656,1.960754
0.016113,0.64502,0.738281,54.748531,21.751402,1.914978
0.057617,0.873779,0.716064,28.816221,31.036375,-0.419617
0.115234,1.10498,0.760742,16.471863,33.493042,2.204895
0.046875,0.971191,0.665771,23.15521,30.754087,5.584716
-0.016846,0.849121,0.463135,44.982906,23.452757,-1.419067
0.033691,0.834717,0.442383,76.423645,10.2005,-11.96289
0.104736,0.922852,0.605957,87.379448,-2.27356,-11.489867
0.031006,1.062256,0.663086,61.042782,1.068115,0.045776
-0.066162,1.165283,0.614502,45.608517,10.177611,4.493713
0.032715,1.096191,0.693115,60.615536,16.464233,-5.996704
0.143799,0.952881,0.700439,86.708061,8.293152,-7.522583
0.160645,0.841064,0.638184,117.416374,-19.477844,5.577087
-0.004639,0.739746,0.442627,139.122009,-55.786129,24.54376
-0.086182,0.667725,0.479492,141.815186,-80.512993,22.605894
-0.035889,0.640625,0.629883,92.033379,-69.602966,-0.953674
0.044678,0.826416,0.602539,14.961242,-42.587276,-12.008666
0.084473,1.023193,0.586914,1.457214,-15.243529,-23.109434
0.193848,1.121582,0.786377,31.959532,4.653931,-39.405823
0.131592,1.122803,0.716064,26.100157,12.428283,-28.549192
-0.083008,1.16333,0.403076,31.265257,5.020141,-21.202085
-0.232666,0.92749,0.121338,76.766968,-27.313231,-38.406372
-0.103027,0.5979,0.214844,113.822929,-38.68103,-53.100582
0.024902,0.535156,0.23291,94.398491,-21.102903,-41.015621
0.03833,0.651367,0.359863,55.671688,-14.495849,-22.445677
0.09375,0.787109,0.503906,26.596067,-11.474608,-11.672973
0.053955,1.078125,0.53125,12.123107,-0.434875,-0.228882
0.034424,1.052979,0.561279,14.320373,22.750853,-9.635925
0.061279,0.928955,0.479004,16.082764,53.413387,-38.093567
-0.015381,0.925293,0.328613,10.864257,67.276001,-46.844479
-0.056641,0.945313,0.264404,8.232117,56.968685,-44.616695
0.020508,1.10791,0.40918,16.693115,22.827147,-27.976988
0.023193,1.057373,0.409668,12.306212,-11.306762,8.087158
0.010986,1.058838,0.365479,10.749816,-24.131773,33.813477
0.053711,1.186523,0.354736,31.158445,-16.105652,36.193848
0.047363,1.214844,0.371582,69.824219,-11.878966,21.65222
0.040771,1.132324,0.40918,101.135246,-9.277344,-7.911682
0.078369,0.933838,0.390381,104.217522,-18.264771,-28.984068
-0.037109,0.740967,0.18335,65.979004,-31.806944,-18.39447
-0.092529,0.741455,0.145752,13.839721,-29.411314,1.731872
0.042969,0.768066,0.32666,-37.612915,-9.391785,10.765075
0.129883,1.017578,0.480713,-94.627373,11.009215,21.682737
0.061768,1.15625,0.414307,-121.917717,16.708374,37.80365
0.039795,1.077393,0.312256,-109.184258,18.264771,42.350765
0.026611,0.985596,0.18457,-70.014954,20.431517,32.272339
0.042236,0.901611,0.189941,-23.651121,20.26367,16.075134
0.027832,0.895264,0.376953,-17.288208,17.066956,9.040833
0.063232,0.944092,0.528809,-83.892815,8.19397,20.790098
-0.062744,0.936035,0.393311,-163.604721,0.900268,43.876644
-0.179199,0.958252,0.159912,-217.285141,18.104553,54.748531
-0.091064,1.081055,0.135742,-205.337509,36.308289,47.775265
-0.041504,1.131592,0.196289,-164.451584,48.355099,47.401424
0.027588,0.841064,0.257813,-137.85553,48.675533,53.672787
0.248291,0.528809,0.423584,-113.746635,34.309387,52.032467
0.467041,0.482178,0.747314,-69.381714,2.868652,39.077759
0.339111,0.68457,0.677979,-29.830931,-25.154112,27.847288
0.205078,0.880371,0.546387,4.310608,-26.046751,28.495787
0.213623,0.947754,0.562012,36.735535,-20.812986,35.346985
0.120605,0.997803,0.539307,62.32452,-16.189575,41.28265
0.073242,0.935059,0.492676,82.046501,-3.52478,35.873413
0.123535,0.872314,0.515137,66.978455,7.728576,38.345337
0.180908,0.672852,0.429199,4.364014,7.141113,61.042782
0.103027,0.688232,0.289063,-66.040039,11.650084,76.820374
-0.027832,1.106689,0.209229,-112.518303,33.638,86.227409
-0.345215,1.778809,-0.083984,-122.474663,87.089531,127.655022
-0.43335,1.776367,0.067139,-144.866943,161.933884,209.465012
-0.011719,1.718018,0.424316,-161.09465,185.661301,249.992355
0.095947,1.321533,0.883301,-140.563965,168.418869,249.992355
0.256836,0.7771,1.126465,-119.499199,113.342278,249.443039
0.624268,0.627441,1.204834,-77.575684,35.583496,239.98259
0.554688,0.58374,1.223389,-49.293514,14.366149,238.304123
0.657471,0.002686,0.986572,-60.607906,-32.730103,218.254074
0.620605,0.202393,0.810547,-64.575195,-6.881713,217.658981
0.52832,0.364746,1.231445,-120.208733,9.70459,249.992355
0.643555,0.223633,1.068604,-211.906418,-25.283812,249.992355
0.598877,0.307373,1.186768,-239.433273,-33.699036,249.30571
0.496094,-0.119385,1.267334,-249.992355,-73.944092,249.992355
0.49585,-0.417969,0.900879,-221.603378,-128.364563,227.973923
0.551025,0.103516,0.948975,-198.440536,-95.222466,230.819687
0.330078,-0.173096,0.718506,-160.751328,-134.658813,219.306931
0.406738,-0.201416,0.778564,-89.218132,-186.614975,146.522522
1.322754,-0.869141,0.764893,-99.472038,-148.880005,164.718613
0.924805,0.343262,0.727783,-69.42749,-181.198105,249.992355
0.55249,0.730469,1.693359,-48.561092,-177.970871,249.992355
0.393066,0.317627,1.155273,-249.992355,-88.86718,248.146042
0.647461,0.302246,0.450928,-249.992355,-44.448849,249.992355
0.618164,0.263672,0.350098,-246.65831,-96.084587,249.992355
0.418213,0.234863,0.486328,-244.956955,-114.509575,247.650131
0.301514,0.332764,0.277588,-203.170761,-109.870903,204.925522
0.229248,0.24707,0.098145,-121.101372,-108.856194,134.086609
0.280762,-0.186768,0.213623,-23.872374,-103.919975,71.525574
0.426025,-0.59375,0.486816,50.567623,-105.735771,3.364563
0.722412,-0.714844,0.722412,91.102592,-67.871094,-54.908749
0.981689,0.544678,0.734131,113.639824,25.726316,-84.747307
1.495605,0.599609,0.633789,123.634331,78.117371,-38.208008
0.532715,-0.359863,0.525146,151.016235,53.985592,45.81451
0.592773,-0.014893,0.661133,121.063225,7.469177,29.998777
0.63623,0.059082,0.604492,132.888794,-65.254211,-35.148621
0.664551,-0.032715,0.62915,91.270439,-57.075497,-35.308838
0.80127,-0.003418,0.669434,50.73547,-19.004822,-12.939452
0.82959,-0.356445,0.580322,73.547363,-46.943661,-19.889832
0.908936,-0.561523,0.713867,130.599976,-76.782227,-14.236449
0.583984,-0.537842,0.810547,140.777588,-81.474297,10.734557
0.355469,-0.558838,0.606445,120.033257,-64.323425,-26.763914
0.510742,-0.366455,0.475098,118.286125,-47.096249,-78.269958
0.676514,-0.170898,0.39917,116.935722,-57.189938,-83.45031
0.697021,-0.08252,0.35791,132.919312,-62.286373,-61.981197
0.807129,0.163574,0.526367,170.486435,-52.978512,-56.076046
0.766113,0.162842,0.389648,161.025986,-28.335569,-53.092953
0.681885,0.008057,0.549316,157.76062,15.136718,-48.698421
0.919189,0.005859,0.780029,107.681267,29.754637,-33.866882
0.814209,-0.029785,0.594238,45.295712,32.226563,-15.548705
0.654053,-0.576172,0.672119,-24.230955,-17.38739,4.219055
0.550537,-0.407227,0.265869,-235.237106,-65.818787,41.740414
1.222412,0.230225,0.154297,-249.992355,-195.060715,91.812126
1.028564,0.025635,0.761475,-151.763916,-249.992355,139.091492
1.001221,-0.471436,0.501953,-69.107056,-249.992355,164.314255
0.54834,-0.119141,0.255615,35.522461,-243.88884,249.992355
0.337402,0.157471,0.22998,68.901062,-180.862411,192.878708
0.716064,-0.134033,0.313477,19.943237,-158.866882,54.51202
1.653564,-0.477539,0.516846,-35.987854,-158.378601,-64.224243
1.17627,-0.422852,0.400391,-44.593807,-81.825249,-80.787651
0.867676,-0.212646,0.367432,-9.521484,28.350828,-68.04657
1.050293,-0.142578,0.313477,13.687133,117.09594,-34.469604
1.046875,0.005615,0.245361,25.901793,103.454582,16.624451
1.177979,-0.072021,0.43335,80.131531,-49.087521,88.851921
0.999756,0.125244,0.507813,166.824326,-144.393921,234.771713
0.977051,0.067871,0.427246,188.781723,-171.646103,249.992355
0.807129,0.044922,0.634277,122.222893,-156.494141,248.138412
0.918945,-0.26416,0.553711,-70.457458,-130.783081,249.359116
1.259033,-0.57251,0.633789,-168.90715,-175.498947,249.992355
1.1604,-0.547119,0.604492,-202.941879,-198.181137,249.984726
0.86377,-0.621826,0.405762,-212.562546,-137.962341,249.977097
0.763672,-0.806641,0.240967,-185.096725,-95.779411,249.992355
0.612061,-0.875732,0.06958,-150.802612,-150.596619,249.992355
0.395996,-0.485352,0.177002,-97.473137,-225.830063,246.070847
0.337158,-0.191162,0.14917,-33.882141,-149.963379,194.656357
0.283203,-0.376953,-0.041748,39.825439,-26.229856,113.43383
0.275146,-0.649902,-0.106689,93.269341,87.722771,-29.541014
0.386475,-0.606445,-0.020996,139.312744,132.400513,-115.570061
0.460205,-0.575928,0.074219,170.066818,95.703117,-122.047417
0.365234,-0.664551,0.040771,124.633781,68.939209,-89.050285
0.273682,-0.972656,0.124268,81.817619,77.194214,-75.767517
0.501465,-1.20874,0.138184,76.705933,37.101746,-99.037163
0.740234,-0.932373,0.23999,62.011715,-11.642455,-106.117241
0.588135,-0.543213,0.340576,43.42651,-16.098022,-85.868828
0.622559,-0.530762,0.463135,61.378475,51.177975,-100.936882
0.399658,-0.759521,0.062256,59.150692,106.109612,-89.462273
0.484131,-0.617676,-0.13208,59.066769,74.859619,-68.481445
0.586182,-0.73291,-0.038818,60.325619,40.115356,-49.484249
0.754395,-0.886963,0.262451,44.723507,25.375364,-21.316526
0.691895,-0.669922,0.310791,29.296873,10.520934,-6.378173
0.58374,-0.487793,0.318604,41.061398,0.160217,-4.981995
0.53833,-0.412842,0.342773,73.21167,15.342711,-7.972717
0.519043,-0.553955,0.310547,106.315605,59.387203,-12.031554
0.50708,-0.627686,0.228516,84.060661,65.26947,-6.973266
0.531738,-0.574951,0.205566,68.878174,47.615047,-15.86914
0.509766,-0.480713,0.1875,84.800713,41.53442,-36.964417
0.332764,-0.395752,0.092529,120.201103,56.327816,-51.712032
0.418945,-0.397461,0.146973,148.902893,55.328365,-67.077637
0.450439,-0.450684,0.235107,191.459641,82.572929,-83.496086
0.457764,-0.431885,0.345215,205.306992,109.191887,-93.261711
0.55957,-0.524658,0.44873,164.25322,111.900322,-101.516716
0.64917,-0.808105,0.355469,107.284538,89.11895,-104.164116
0.621582,-0.700195,0.281738,63.995358,64.300537,-86.631767
0.570313,-0.381348,0.412354,54.290768,57.929989,-69.229126
0.630371,-0.325439,0.565186,68.992615,57.182308,-70.030212
0.596436,-0.422607,0.516846,71.281433,47.653194,-78.330994
0.534424,-0.554688,0.435547,53.108212,36.567688,-84.983818
0.602783,-0.594482,0.472412,49.613949,42.610165,-89.965813
0.72583,-0.551758,0.620361,66.482544,48.347469,-93.39904
0.736572,-0.531494,0.722656,66.932678,37.063599,-89.309685
0.768066,-0.574463,0.781494,46.005245,18.470764,-75.531006
0.740234,-0.352051,0.785889,45.425411,28.305052,-56.396481
0.784668,-0.37085,0.735352,42.053219,23.750303,-48.355099
0.766357,-0.373291,0.689697,56.762691,12.878417,-57.449337
0.793701,-0.53418,0.749268,67.840576,0.671387,-62.545773
0.770996,-0.641602,0.891602,38.787842,-13.832091,-45.898434
0.852051,-0.586426,1.05249,-0.701904,-16.555786,-24.261473
0.885498,-0.439941,1.052002,-20.759581,-11.619567,-17.700195
0.8479,-0.24292,0.868164,-27.809141,-15.731811,-22.621153
0.856934,-0.157959,0.593018,-35.28595,-51.177975,-21.980284
0.761963,-0.26416,0.397217,-42.732235,-83.282463,-9.643555
0.672119,-0.328125,0.387695,-39.94751,-90.980522,14.686584
0.526611,-0.162842,0.380615,-13.351439,-74.737549,39.69574
0.525146,0.023926,0.488281,34.385681,-37.528992,49.926754
0.777344,-0.073486,0.699951,79.910278,-1.838684,38.238525
1.007324,-0.2854,0.713135,108.6502,12.512206,47.401424
0.89209,-0.38208,0.434082,73.402405,-9.017944,80.451958
0.733643,-0.398193,0.29126,10.94818,-39.787292,108.131401
0.75,-0.407715,0.412842,-29.479979,-53.665157,108.810417
0.740479,-0.423096,0.537842,-60.93597,-67.91687,100.746147
0.77002,-0.518799,0.599854,-78.994751,-66.772461,94.879143
0.798096,-0.464355,0.580811,-82.740776,-61.94305,96.04644
0.741943,-0.407959,0.470215,-79.429626,-58.830257,113.723747
0.570557,-0.227295,0.251465,-75.172424,-61.06567,152.030945
0.419678,-0.176758,0.023438,-44.250484,-67.832947,177.47496
0.337891,-0.180908,-0.103516,42.213436,-61.202999,153.97644
0.535156,-0.305176,0.137695,144.973755,-15.266418,108.848564
0.820801,-0.391602,0.440186,218.337997,30.082701,101.21917
0.865967,-0.537109,0.571777,248.344406,43.724056,122.459404
0.655273,-0.48999,0.466309,249.992355,35.217285,175.277695
0.491211,0.155762,1.364502,249.710068,-37.17804,249.992355
1.127686,1.369629,5.038574,249.916061,-237.419113,249.992355
4.680664,-2.355713,2.864014,-81.611626,-249.992355,248.657211
3.572998,3.136475,1.504395,-249.992355,-246.955856,249.908432
1.892334,1.888428,-0.606689,-249.992355,97.724907,249.992355
0.916016,-4.065674,-1.852295,22.644041,249.992355,173.583969
2.147949,3.372314,2.056152,-101.905815,249.420151,228.836044
1.293701,-0.95459,-4.341309,-22.766111,245.712265,196.960434
1.245117,-1.439453,-4.694824,-49.362179,249.992355,215.690598
2.126709,0.946777,-2.445801,113.380424,249.992355,249.992355
2.446533,1.058838,-2.020264,249.992355,249.893173,249.992355
1.966797,2.918945,-4.844727,249.992355,249.992355,249.092087
2.357666,3.61377,-5.873047,124.4049,223.480209,249.992355
0.239014,0.063232,0.142578,240.379318,42.121883,224.121078
-2.1604,-0.758301,0.839355,227.394089,-242.729172,241.538986
-1.759521,-0.297607,0.306396,185.249313,-249.992355,249.282822
-3.682617,0.175293,1.618896,183.097824,-245.552048,175.529465
-2.353027,-0.614014,1.532715,162.521347,-249.267563,-24.566648
-0.077881,-1.874023,4.035889,249.992355,-249.992355,13.931273
-0.063477,-1.104492,4.623779,249.992355,-249.93895,131.68335
-0.378906,-0.374756,4.657715,242.935165,-180.343613,83.213799
-0.322754,0.200684,2.998291,156.204224,144.561768,-69.450378
0.415039,0.112793,1.380127,61.69891,249.992355,-239.47142
1.155273,0.043457,0.540039,78.475952,249.946579,-249.992355
1.497803,-0.534912,0.637207,159.469604,247.070297,-247.779831
1.655762,-0.815918,0.76123,61.653133,249.992355,-244.117722
1.179932,-0.222656,0.113281,-166.404709,249.992355,-178.634628
0.741455,0.460693,-0.859131,-229.988083,227.104172,-156.112671
0.769531,0.260986,-1.143555,-113.647453,-53.222652,-230.52977
0.898438,-0.273926,-0.782227,-7.324218,-249.992355,-249.992355
0.586426,-0.723633,-0.113525,18.981934,-249.992355,-244.51445
0.47876,-1.045654,0.735352,8.781433,-245.39183,-197.26561
0.966064,-0.890625,1.185547,13.328551,-249.992355,-146.362305
0.806885,-0.721436,1.380859,78.086853,-249.992355,-100.746147
0.277832,-0.543701,1.756836,192.550644,-249.900803,-73.768616
0.0,-0.735596,1.558105,249.992355,-189.567551,-95.336906
0.365967,-1.165771,1.539307,249.992355,-46.180721,-81.275932
0.193359,-0.696045,0.921387,248.611435,69.068909,-8.56781
0.435059,-0.344238,0.872559,249.969467,127.326958,3.02124
0.384033,-0.337891,0.587402,244.728073,151.000977,-5.264282
0.32251,-0.223145,0.508789,213.165268,114.372246,-1.098633
0.365967,-0.196533,0.585205,181.564316,52.650448,-13.694762
0.461426,-0.267822,0.539307,128.128052,7.202148,-6.866455
0.509521,-0.11499,0.630371,96.687309,-35.202026,26.901243
0.536133,-0.302246,0.887451,75.027466,-77.217102,2.426147
0.549561,-0.509521,0.814209,33.714294,-159.423828,-14.381408
0.712402,-0.662598,0.918457,1.785278,-211.051926,36.155701
0.668213,-0.507324,0.978516,-32.913208,-212.074265,104.62188
0.613525,-0.255127,0.716553,-51.437374,-196.327194,130.813599
0.41626,0.30127,0.213623,-48.294064,-225.799545,107.086174
0.496826,0.23584,0.42041,-9.841919,-249.992355,-5.554199
0.321777,-0.69873,1.260742,41.816708,-249.992355,-29.319761
0.239746,-0.531982,1.146729,5.554199,-216.674789,-18.501282
0.479736,-0.345215,0.898193,6.034851,-104.225151,-29.853819
1.012695,-0.054199,0.129639,53.428646,-30.960081,-21.881102
0.908936,0.036377,0.547119,124.65667,-88.317863,1.319885
0.73877,-0.104736,0.922119,74.989319,-125.122063,9.19342
0.666016,-0.443359,0.626709,-3.540039,-133.308411,9.414673
0.752197,-0.60083,0.725342,-58.937069,-167.236313,25.276182
0.545166,-0.503662,0.815674,-151.062012,-189.598068,43.434139
0.30957,-0.071777,1.054688,-202.499374,-239.47142,55.038448
0.70752,0.219238,1.121338,-135.612488,-189.392075,16.174316
1.020264,0.051025,0.826416,-63.20953,-6.79779,-30.693052
1.188721,-0.163086,0.97168,-11.306762,20.858763,-17.76886
0.960205,0.002686,1.032227,2.212524,7.522583,-5.027771
0.802002,-0.254883,0.759766,-4.104614,21.423338,-11.779784
0.705566,-0.648193,0.702881,-12.702941,37.574768,-7.80487
0.594482,-0.639404,0.57373,-36.682129,39.611816,-8.010864
0.556885,-0.456787,0.702148,-79.109192,31.86035,-11.634826
0.534912,-0.242676,0.626465,-92.39196,57.975765,-20.332335
0.626953,-0.418213,0.334229,-67.78717,48.835751,-39.459229
0.85791,-0.506592,0.47583,-70.014954,-17.562866,-34.187317
0.891602,-0.438721,0.589355,-52.978512,-52.8717,-4.760742
0.649414,-0.251465,0.446533,0.160217,-57.106014,10.360717
0.533447,-0.265869,0.247314,44.792171,-38.238525,17.738342
0.426758,-0.495117,0.091797,61.981197,-5.66864,33.805847
0.333984,-0.47168,0.064697,55.335995,5.516052,44.097897
0.473877,-0.393799,0.029297,16.426086,-13.236999,40.840145
0.625,-0.17334,0.050537,-27.183531,122.489922,63.629147
0.676758,-0.572754,0.897705,-25.138853,90.927116,121.368401
0.657715,-0.24707,0.4021,37.063599,-30.563353,70.533752
0.594727,-0.274414,0.403564,45.379635,-17.707825,53.939816
0.754883,-0.244873,0.711426,54.733273,-35.606384,25.352476
0.94043,-0.205322,0.909912,70.495605,-65.078735,-6.67572
0.971436,-0.401611,0.901611,72.029114,-58.090206,-12.657165
1.125,-0.69458,1.021729,54.405209,-57.929989,18.249512
1.0354,-0.577637,1.055908,5.546569,-88.73748,49.957272
0.83252,-0.541992,0.94043,-49.140926,-125.274651,54.649349
0.909424,-0.625732,0.987305,-81.390373,-140.777588,41.946407
0.93042,-0.442383,1.037598,-92.994682,-146.209717,28.930662
0.95459,-0.395752,0.964111,-91.079704,-126.686089,15.686034
0.891113,-0.411865,0.686523,-89.263908,-102.317802,9.986877
0.810059,-0.447021,0.418457,-95.603935,-78.201294,7.591247
0.674316,-0.426025,0.178955,-115.83709,-67.871094,5.439758
0.702148,-0.471924,0.149902,-136.711121,-66.947937,8.659363
0.705322,-0.532471,0.172119,-159.53064,-67.321777,17.883301
0.641602,-0.539551,0.167236,-197.532639,-65.628052,28.480528
0.584717,-0.608154,0.119873,-243.392929,-64.498901,40.801998
0.475586,-0.626953,0.020508,-249.992355,-70.518494,53.855892
0.378662,-0.548096,-0.063232,-249.580368,-78.918457,55.053707
0.393066,-0.44165,-0.074463,-249.771103,-84.465019,46.127316
0.422119,-0.378906,-0.123047,-249.992355,-82.305901,38.375854
0.568359,-0.331299,-0.088135,-249.992355,-89.859001,39.497375
0.588623,-0.143555,-0.189941,-249.992355,-87.7304,51.376339
0.612793,-0.123291,-0.218262,-233.80278,-45.761105,94.749443
0.548584,-1.07959,-0.426758,-159.469604,-1.205444,83.122246
0.689697,-0.446045,-0.197754,-106.689445,35.255432,62.637325
0.255127,-0.772217,-0.068359,-27.488707,49.140926,136.726379
1.185303,-1.244141,0.390137,-2.403259,41.397091,57.78503
1.144775,-0.63916,0.611328,-71.090698,-11.650084,43.998714
1.227539,-0.066895,0.780273,-96.42028,-67.390442,95.512383
1.38623,-0.651855,0.748535,-151.954651,-135.658264,214.607224
0.934082,-0.822021,0.445068,-205.95549,-221.000656,249.992355
0.50293,-0.651367,-0.099609,-242.538437,-249.992355,249.992355
0.355469,-0.473145,-0.430664,-249.992355,-249.992355,249.145493
0.154541,-0.535889,-0.672119,-248.855576,-246.856674,249.992355
0.011475,-0.811279,-0.640625,-237.419113,-212.608322,249.992355
0.347168,-0.969971,-0.510254,-249.404892,-120.681755,245.674118
0.494873,-0.781982,-0.47998,-249.992355,-33.454895,209.815964
0.348145,-0.608398,-0.232422,-249.786362,-11.901855,144.836426
0.470703,-0.509033,-0.19165,-249.961838,-32.432556,132.896423
0.391846,-0.649902,-0.361328,-249.992355,-138.038635,138.565063
0.298584,-0.496094,-0.47998,-249.992355,-249.992355,97.160332
0.263184,-0.189697,-0.471191,-249.992355,-249.992355,52.307125
-0.0979,0.117432,-1.010254,-249.992355,-247.909531,40.168758
-0.383789,0.354736,-1.428711,-249.992355,-249.93132,95.367424
-0.269287,0.116455,-1.648193,-249.992355,-248.916611,122.375481
-0.094238,-0.097412,-1.361816,-249.992355,-196.174606,164.886459
-1.080811,0.395264,-1.412354,-249.992355,-155.090332,146.774292
-0.560791,0.861328,-1.39624,-249.992355,-203.735336,9.490967
-0.249268,0.813965,-1.739502,-249.992355,-157.997131,4.730225
-0.604492,0.212158,-1.626709,-219.047531,-38.848877,-41.671749
-0.209717,0.247314,-1.408203,-109.565727,52.658077,-142.593384
-0.035645,0.253906,-1.222168,-2.27356,49.09515,-202.819809
-0.050293,0.303223,-1.071777,52.154537,7.354736,-231.544479
-0.141357,0.375732,-1.093506,93.688957,-7.621765,-240.592941
-0.32959,0.374023,-1.056152,136.032104,8.033752,-247.489914
0.029053,0.243652,-1.167725,158.576965,-1.068115,-249.992355
0.369141,0.134277,-1.361328,151.855469,-47.569271,-209.320053
0.245605,-0.002197,-1.151367,131.744385,-85.762016,-135.650635
-0.1521,0.150879,-0.887695,123.199455,-41.519161,-97.358696
-0.690186,0.770996,-0.700684,134.963989,31.570433,-123.817436
-0.661621,0.87793,-0.699707,174.32402,60.920712,-182.739243
-0.481689,0.491455,-0.737793,217.613205,34.645081,-179.084763
-0.322754,0.174805,-0.763672,221.641525,-11.856078,-225.784286
-0.150146,0.298096,-0.966064,194.770798,-21.881102,-249.992355
-0.073975,0.07959,-0.96582,186.393723,11.924743,-249.359116
0.288818,-0.141113,-0.598145,175.147995,65.200806,-247.436508
0.24585,0.085205,-0.133789,174.499496,70.251465,-249.992355
-0.13501,0.339355,-0.111572,209.648117,-33.447266,-249.992355
-0.520508,0.265381,-0.384277,249.992355,-161.384567,-249.93895
-0.968994,0.291504,-0.94043,249.992355,-212.593063,-249.992355
-1.411133,0.258545,-1.518066,249.328598,-161.460861,-238.227829
-1.498047,-0.128174,-1.801514,249.93895,-34.202576,-174.697861
-0.801758,-0.715088,-1.628174,249.992355,117.84362,-77.606201
-0.008057,-1.096191,-1.085449,216.400131,217.628464,32.875061
0.153564,-0.785889,-0.414307,99.739067,220.931992,138.221741
0.307617,-0.357422,0.193359,1.13678,157.318115,192.649826
0.39502,-0.244141,0.380371,-62.919613,49.644466,216.850266
-0.153076,-0.046387,0.221191,-83.44268,-14.678954,165.206894
-0.163574,-0.357178,-0.641357,-100.410454,-34.873962,100.898735
-0.167236,-0.452881,-0.441895,-93.086235,-44.967648,56.724545
-0.191406,-0.288574,-0.631592,-105.644218,-9.109497,-14.755248
-0.57251,-0.549316,-0.923584,-80.741875,54.38232,-56.137081
-0.568848,-0.647705,-1.140625,-96.603386,63.194271,-105.400078
-0.587646,-0.529297,-1.349365,-134.95636,102.439873,-96.229546
-0.450195,-0.817871,-1.39624,-181.976303,202.484116,-112.892143
-0.354004,-1.093994,-1.050049,-240.035995,249.992355,-150.398254
-0.226074,-0.764893,-0.802002,-249.992355,249.992355,-163.36821
0.184326,0.220459,-0.306885,-249.511703,248.817429,-191.322311
0.215576,0.289795,-0.048828,-249.664291,240.615829,-91.621391
0.342529,-0.057861,-0.215332,-249.992355,116.401665,2.090454
0.491699,0.37915,-0.75293,-245.452866,-26.588438,60.516354
-0.154297,0.280029,-1.178955,-159.973145,-32.562256,172.06572
-0.399902,0.235107,-1.141602,-33.210754,47.241207,187.355026
-0.300049,0.211426,-1.0896,60.424801,134.056091,155.639648
-0.228027,-0.04126,-1.105713,140.701294,173.797592,144.721985
0.055176,-0.407227,-1.128662,173.149094,125.564568,111.93084
0.44873,-0.582031,-0.910156,169.776901,41.778561,73.364258
0.546875,-0.521729,-0.692871,121.780388,-11.154174,20.660398
0.348389,-0.250977,-0.708008,74.882507,-1.029968,-3.64685
0.339355,-0.090332,-0.593018,36.621094,11.604308,-9.933472
0.28125,0.102539,-0.552979,15.457152,-13.656615,-7.225036
-0.071777,0.032959,-0.722656,-1.76239,-80.757133,29.556273
0.28125,-0.199951,-0.793457,-41.046139,-134.140015,70.091248
0.46582,-0.400146,-0.987549,-90.118401,-138.572693,106.040947
0.010986,-0.227539,-1.015869,-137.039185,-128.631592,102.439873
0.005859,0.102051,-0.775635,-117.012016,-96.618645,101.638786
-0.122314,-0.033691,-0.918457,-87.974541,-66.864014,67.7948
0.088379,-0.102295,-0.806396,-28.70178,-84.976189,10.44464
0.4375,-0.393311,-0.714355,40.313717,-93.78051,-76.530457
0.513916,-0.4729,-0.924316,91.13311,-112.693779,-176.460251
0.253418,-0.429199,-1.106934,116.012566,-135.787964,-229.927048
-0.744873,-0.132813,-1.350342,122.459404,-164.298996,-249.992355
-1.525635,0.004639,-1.48877,111.968987,-192.558273,-249.992355
-0.550537,0.044922,-1.147705,64.979553,-163.192734,-249.519333
0.36792,0.238281,-0.664551,10.261535,-118.309013,-249.992355
0.181152,0.326172,-0.534668,-32.806396,-139.373779,-249.992355
-0.109863,0.246094,-0.699951,-63.903805,-194.808945,-249.992355
-0.333008,0.112793,-0.851563,-85.807793,-213.447556,-249.992355
-0.428467,0.20166,-0.921875,-99.266045,-216.896042,-249.992355
-0.568115,0.28418,-0.873291,-82.916252,-204.528793,-249.992355
-0.342773,0.293213,-0.889404,-67.085266,-202.42308,-249.992355
-0.751953,0.08252,-1.126953,-46.82159,-192.382797,-249.992355
-0.60791,-0.059814,-1.094482,-44.120785,-236.389145,-249.992355
-0.330078,0.267822,-1.26123,-53.344723,-249.992355,-249.992355
-0.388428,0.388184,-1.149414,-37.879944,-239.135727,-249.992355
-0.566895,0.411377,-1.084961,-23.780821,-198.02092,-249.992355
0.302002,1.056396,-0.881836,-20.278929,-138.832092,-249.992355
0.668701,0.828125,-1.175293,-58.273312,4.615784,-116.653435
-0.69751,-0.518555,-0.638184,-116.172783,138.130188,-67.642212
-0.282959,0.00415,-0.429932,-224.380478,140.708923,-36.582947
-0.291504,0.290283,-0.413574,-249.992355,92.315666,111.442558
-1.08374,0.020996,-1.036621,-249.450668,7.324218,126.014702
-0.336426,-0.513672,-0.617676,-238.34227,-137.886047,35.736084
-0.463867,-0.21167,-1.283203,-218.017563,-89.424126,-14.137267
-0.498047,-0.142822,-1.398438,-160.40802,78.834534,-28.694151
-0.519043,-0.119141,-0.954102,-121.788017,249.992355,1.678467
-0.483643,-0.061768,-0.794922,-24.261473,224.243149,44.403072
-0.120605,0.032471,-0.767578,45.074459,77.819824,81.764214
0.094971,0.161621,-1.273438,71.929932,3.074646,131.874084
-0.02832,0.01416,-1.316406,71.907043,26.496885,130.775452
-0.159668,0.053223,-1.14502,32.295227,45.0592,118.721001
-0.218994,0.277344,-0.997314,1.800537,39.916992,113.677971
-0.446289,0.344727,-0.921387,-30.570982,39.138794,105.827324
-0.524658,0.166748,-0.891113,-69.458008,43.327328,96.405022
-0.280029,-0.065674,-0.885254,-105.094902,25.947569,98.136894
0.00415,-0.125,-0.919678,-154.014587,-0.473022,93.994133
0.175781,-0.010498,-0.963867,-194.267258,-32.684326,96.93145
0.118408,0.147705,-0.933105,-204.215988,-60.707088,98.533623
0.102539,0.299316,-0.942871,-193.916306,-65.353394,87.547295
-0.025879,0.293945,-0.885986,-165.321335,-31.143187,72.349548
-0.27002,0.072754,-0.646729,-127.92205,4.470825,54.481503
-0.28833,-0.100342,-0.466797,-88.935844,22.90344,43.42651
-0.341553,-0.208252,-0.572266,-39.131165,34.378052,46.005245
-0.512207,-0.392822,-0.730225,26.985167,48.133846,55.328365
-0.534668,-0.362305,-0.953369,97.221367,56.65588,68.885803
-0.412842,-0.150879,-1.303223,190.223679,41.564938,95.16906
-0.541992,-0.023926,-1.825439,249.992355,-99.273674,133.346558
-0.322998,-0.150635,-1.648682,249.992355,-249.992355,129.722595
-0.005371,-0.763184,-1.139404,248.657211,-249.992355,147.163391
-0.09082,-0.779785,-1.293213,249.992355,-245.27739,146.018982
-0.43042,-0.541748,-0.864258,249.992355,-240.547165,112.960808
-0.497559,-0.394043,-0.640381,249.969467,-249.992355,107.055656
-0.74292,-0.361816,-1.147217,249.992355,-249.992355,130.142212
-0.731689,-0.498047,-1.474121,207.496628,-160.865768,139.24408
-0.635742,-0.087646,-1.030273,87.654106,90.766899,170.127853
-0.457031,-0.225098,-0.421631,-26.977537,188.224777,215.423569
-0.272949,-0.292969,-0.611084,-145.446777,143.157959,186.614975
0.124512,0.068848,-0.824707,-218.711838,19.447327,97.373955
0.439697,0.475342,-0.943848,-249.343857,-103.950493,-7.186889
0.350098,0.460938,-0.947998,-249.992355,-73.84491,-3.52478
0.006592,0.394287,-1.022461,-249.580368,52.223202,25.283812
-1.130127,0.22168,-1.072266,-249.93132,216.049179,68.901062
-2.236816,-0.312256,-1.347656,-249.992355,247.749313,169.013962
-0.981934,-0.097168,-0.825928,-249.992355,6.942749,203.025803
-0.179199,0.470459,-1.627686,-249.992355,-76.858521,242.385849
-0.499268,0.570068,-1.567627,-249.992355,38.398743,249.992355
-0.975098,0.151123,-0.915283,-205.612167,117.72155,247.871384
-0.420166,0.225098,-1.121826,-89.317314,133.300781,204.620346
-0.353516,0.355225,-1.103271,13.961791,155.563354,139.99939
-0.279053,0.260986,-0.992432,82.19146,152.626038,38.604736
-0.245361,0.306152,-1.172363,114.097588,155.540466,-55.763241
-0.194336,0.260254,-1.19751,151.489258,168.975815,-120.552055
-0.160156,0.299072,-1.065186,177.444443,153.930664,-160.781845
-0.182129,0.268311,-0.946289,194.007858,101.234428,-191.604599
-0.215576,0.240723,-0.959961,218.765244,49.369808,-202.041611
-0.202393,0.241211,-1.103516,238.204941,8.857727,-188.850388
-0.174805,0.210449,-1.227051,249.504074,-24.459837,-166.984543
-0.200439,0.149658,-1.286621,249.992355,-33.782959,-143.188477
-0.223877,0.097412,-1.177979,246.055588,-15.701293,-109.619133
-0.203857,0.057617,-0.93457,231.216415,-5.973815,-74.996948
-0.131348,0.04248,-0.770508,206.83287,-34.889221,-46.760555
-0.05957,0.006348,-0.738525,181.457504,-88.912956,-20.362852
-0.088867,-0.052246,-0.742676,152.587891,-144.073486,1.068115
-0.174805,-0.131592,-0.761475,118.240349,-192.59642,22.27783
-0.301514,-0.197754,-0.762451,78.048706,-220.390305,46.57745
-0.446045,-0.231934,-0.734131,32.981873,-217.277512,72.158813
-0.565918,-0.245117,-0.705566,-14.427184,-193.992599,100.631706
-0.618164,-0.216064,-0.697754,-62.522884,-156.745911,125.617973
-0.63501,-0.151123,-0.720703,-108.512871,-112.167351,147.270203
-0.622559,-0.06665,-0.767578,-150.375366,-74.134827,163.917526
-0.672607,0.02832,-0.846924,-186.447128,-48.690792,173.507675
-0.8125,0.135254,-0.964355,-214.233383,-50.056454,164.947495
-0.682373,0.152344,-0.992432,-227.432236,-74.386597,144.004822
-0.614014,0.136719,-0.990967,-231.513962,-70.159912,127.243034
-0.614502,0.175293,-0.994141,-230.278,-40.878292,89.942924
-0.589111,0.215088,-0.987305,-217.67424,-7.194519,52.299496
-0.556396,0.219482,-0.912598,-193.809494,20.378111,25.283812
-0.466064,0.21875,-0.786377,-164.817795,38.475037,-1.296997
-0.393555,0.255615,-0.710693,-132.774353,55.923458,-27.534483
-0.357666,0.311279,-0.69873,-95.352165,65.52887,-45.196529
-0.338379,0.319824,-0.686279,-53.359982,61.813351,-56.373592
-0.309082,0.296387,-0.657227,-12.062072,48.545834,-68.313599
-0.301758,0.263184,-0.639404,26.908873,32.447815,-74.302673
-0.337158,0.236328,-0.654785,63.003536,20.362852,-79.078674
-0.377197,0.248047,-0.684082,96.954338,10.414123,-82.954399
-0.413818,0.293701,-0.73291,130.836487,1.228333,-83.862297
-0.434814,0.33374,-0.799072,165.275558,3.051758,-84.930412
-0.444336,0.318848,-0.838135,197.151169,18.89801,-85.2127
-0.437012,0.280029,-0.88916,221.397385,39.054871,-81.970207
-0.450439,0.246338,-0.96582,235.031113,53.550716,-76.805115
-0.423828,0.237305,-0.965576,236.648544,56.03027,-70.808411
-0.403076,0.230957,-0.904541,230.232224,56.465145,-65.834045
-0.374268,0.234863,-0.856689,216.850266,59.661861,-62.393185
-0.349854,0.277344,-0.846436,201.011642,66.90979,-57.304379
0.017822,0.164063,-1.086182,187.095627,32.684326,-38.322449
-0.11377,0.262939,-0.631104,110.183708,-7.751464,-63.07983
-0.4646,0.371826,-0.581787,91.606133,51.559444,-113.533012
-0.912598,0.370361,-0.581543,105.049126,-35.835266,-21.14105
-0.52832,0.405273,-1.507568,96.824638,-157.63855,-19.111633
-1.089355,0.444092,-2.309082,63.690182,85.319511,57.083126
-0.581787,0.135254,-0.69751,85.762016,249.992355,77.438354
0.020752,0.161377,-0.064941,53.512569,181.175217,33.958435
-0.13208,0.342529,-0.970459,41.999813,168.342575,201.499924
-0.778564,0.206055,-1.364746,61.492916,194.900497,249.992355
-0.657715,0.109619,-1.210449,77.827454,47.515865,248.825058
-0.602295,0.167969,-1.094971,129.646301,-79.421997,248.519882
-0.390381,-0.021729,-0.989014,212.63884,-214.378342,241.36351
0.598145,-0.336182,-0.689453,243.682846,-125.610344,128.883362
0.841064,-0.402832,-0.094727,185.211166,72.151184,95.359795
0.076904,-0.432617,-0.265381,56.755062,109.359734,213.531479
-0.418213,-0.188721,-0.688477,-21.209715,128.662109,201.721176
-0.612549,0.082275,-0.842285,-45.410152,135.932922,193.199142
-1.134521,0.586426,-1.328613,-71.289063,87.486259,165.321335
-1.200684,0.734131,-1.635254,-4.920959,-1.182556,31.34918
-0.427002,0.216309,-1.366455,92.086784,-36.766052,-25.482176
0.217773,0.116699,-0.904053,125.724785,3.089905,-49.530025
0.085693,0.193848,-1.03833,138.237,67.893982,-9.849548
-0.176514,-0.27832,-1.068359,125.801079,59.17358,38.162231
-0.21167,-0.711426,-0.837646,53.459164,-50.148006,29.914854
-0.212646,-0.54834,-0.728516,-29.060362,-127.014153,-14.526366
-0.266602,-0.316895,-0.71875,-104.87365,-134.910583,-46.401974
-0.695313,-0.135986,-0.792969,-188.247665,-113.6856,-65.26947
-0.910156,0.116943,-0.836426,-211.921677,-89.668266,-136.688232
-0.572998,0.307861,-0.627686,-193.809494,-48.553463,-208.793625
-0.454834,0.492432,-0.632324,-200.294479,15.60974,-162.475571
-0.443115,0.140869,-1.327148,-185.264572,50.544735,8.277893
-0.665527,-0.023926,-1.631836,-190.399155,102.180473,125.076286
-0.462158,0.328613,-1.01709,-211.494431,123.580925,78.88031
-0.199463,0.342529,-0.676758,-202.04924,95.764153,36.29303
-0.153809,0.259521,-0.712402,-196.540817,74.97406,35.812378
-0.358154,0.240479,-0.903564,-189.44548,66.062927,28.656004
-0.36377,0.270508,-0.981689,-171.707138,48.431393,-12.130736
-0.304199,0.301758,-0.951904,-153.686523,48.599239,-42.701717
-0.282471,0.297119,-0.895996,-137.672424,49.392696,-45.783993
-0.255615,0.291992,-0.797119,-118.179314,38.482666,-55.198666
-0.227295,0.324707,-0.824219,-101.72271,27.687071,-68.031311
-0.274658,0.345947,-0.943115,-78.674316,22.773741,-64.254761
-0.264648,0.320801,-0.96167,-56.205746,23.239134,-64.39209
-0.375977,0.291504,-0.963623,-36.613464,38.30719,-58.303829
-0.031982,0.308105,-0.740234,-18.447876,34.492493,-52.154537
-0.203369,0.307129,-0.733887,-1.838684,71.228027,-52.482601
-0.224854,0.238037,-0.85376,8.087158,52.688595,-45.82214
-0.304443,0.187988,-0.905518,11.222838,51.734921,-34.431458
-0.269775,0.15332,-0.942627,9.971619,40.420528,-25.924681
-0.187744,0.147217,-0.952148,3.334045,33.294678,-9.269714
-0.177002,0.16626,-0.99292,-1.350403,52.314754,4.844666
-0.257568,0.190918,-0.92627,-3.135681,81.695549,13.748168
-0.210449,0.204346,-0.885498,-2.120972,77.079773,21.52252
-0.145264,0.227783,-0.88916,1.274109,59.623714,16.983032
-0.10083,0.222656,-0.925781,7.43103,40.176388,13.496398
-0.113281,0.248291,-0.959961,11.360168,32.12738,5.714416
-0.204346,0.29541,-1.014648,17.692566,32.203674,-4.936218
-0.294189,0.30835,-1.053955,27.45056,29.144285,-16.944885
-0.317139,0.284668,-1.028809,35.499573,25.93231,-26.000975
-0.349854,0.274414,-1.018311,40.283199,30.883787,-27.305601
-0.399414,0.273926,-1.042725,45.097347,41.328426,-29.846189
-0.367188,0.253906,-1.041992,49.987789,48.942562,-30.891417
-0.287354,0.257813,-0.9646,51.628109,52.177425,-21.087645
-0.15625,0.520508,-0.92749,4.379272,47.630306,38.360596
-0.274658,0.199707,-0.845703,-58.731075,15.769958,159.614563
-0.470215,0.047852,-0.904053,-149.002075,-33.607483,154.502869
-0.311523,0.130859,-1.049316,-249.992355,-16.288757,-17.173767
-0.372314,0.487793,-1.197266,-249.992355,73.364258,-78.178406
-0.44165,0.443848,-0.847412,-199.348434,78.346252,0.427246
-0.082031,0.544678,-0.706055,-182.296738,34.324646,-19.287109
-0.105225,0.605713,-1.11792,-177.322372,-12.924193,18.859863
-0.268555,0.486084,-1.061279,-149.57428,-37.078857,40.634151
-0.170166,0.439209,-0.88501,-137.245178,-17.51709,-8.216858
-0.281738,0.454834,-0.607178,-117.698662,35.240173,-23.79608
-0.353271,0.591797,-0.700928,-108.39843,60.676571,-27.290342
-0.497314,0.661865,-0.976807,-94.009392,73.974609,-4.943848
-0.535889,0.618652,-1.039551,-71.998596,63.491817,0.25177
-0.239502,0.591064,-0.801025,-65.666199,46.005245,-46.905514
-0.126221,0.455322,-0.807617,-47.370907,120.414726,-112.075798
-0.405762,0.549072,-0.992676,-27.580259,143.173218,-130.462646
-0.372559,0.840088,-1.027832,-29.006956,98.403923,-166.51152
-0.208496,0.814453,-0.799072,-27.862547,51.48315,-177.993759
-0.151123,0.577637,-0.448486,-29.884336,31.60095,-131.454468
-0.001221,0.784424,-0.726563,-32.50885,52.993771,-115.341179
0.02417,0.991699,-0.883789,-16.929626,47.027584,-102.943413
-0.13623,1.001221,-0.84375,9.651184,31.951902,-61.752316
-0.327148,1.14624,-0.844482,51.910397,40.466305,-49.201962
-0.101563,0.998047,-0.815918,99.296562,43.823238,-48.484798
0.196289,1.096924,-0.99292,149.673462,55.892941,-43.754574
0.556152,1.209961,-0.911377,220.687851,19.966125,-52.818295
0.372559,1.084961,-0.617432,249.992355,-15.724181,-42.16766
-0.121582,0.915039,-0.690674,249.992355,-23.391722,-40.740963
-0.635742,0.701904,-0.552002,249.275192,-11.474608,-20.095823
-0.905273,0.527344,-0.478516,249.992355,36.201477,-34.667969
-0.630859,0.630371,-0.8479,249.992355,80.642693,-84.190361
0.072754,0.574707,-0.809326,249.984726,116.630547,-91.720573
0.223389,0.226074,-0.381836,249.992355,129.249573,-22.338865
-0.004883,-0.450928,-0.267578,249.992355,103.500359,6.782531
-0.053711,-2.222168,-0.427734,249.992355,82.153313,-6.561279
0.279297,-2.671631,-0.344971,224.037155,92.254631,-21.484373
0.045166,-1.386475,-0.342285,-7.537841,106.811516,-42.030331
-0.045166,-0.430908,-0.741211,-170.104965,91.018669,-139.816284
0.001465,0.07666,-1.078369,-193.298325,92.300407,-145.210266
-0.045654,0.508301,-1.091309,-148.262024,123.939507,-99.060051
0.014648,0.531982,-0.811035,-60.93597,152.282715,-53.680416
0.096924,0.259033,-0.778564,-0.480652,147.834778,-22.605894
0.409424,0.022461,-0.974854,42.129513,89.813225,-30.204771
0.515381,-0.099854,-0.818359,74.508667,16.586304,-20.03479
0.132568,-0.16626,-0.58252,82.077019,-9.674072,-21.423338
-0.075928,-0.23999,-0.579834,83.312981,-7.186889,-51.017757
-0.190918,-0.22876,-0.479736,79.963684,34.996033,-64.979553
-0.168457,-0.243652,-0.228271,73.33374,80.917351,-66.772461
0.139893,-0.247803,-0.309326,71.640015,74.699402,-55.572506
0.071045,-0.195801,-0.512695,72.731018,83.053581,-44.731136
-0.049072,-0.234619,-0.318115,66.734314,131.233215,-92.102043
0.16626,-0.098389,-0.370605,20.782469,151.679993,-139.030457
0.327148,0.114258,-0.268311,1.556396,166.366562,-147.377014
0.418457,0.272217,-0.231201,-12.657165,176.673874,-157.737732
0.358887,0.067139,-0.281982,-0.732422,202.05687,-169.639572
0.118652,-0.044434,-0.273682,-7.034301,240.806564,-178.405746
0.312988,0.131836,-0.35791,-5.172729,249.992355,-182.380661
0.50415,0.187012,-0.354004,32.310486,249.93132,-151.100159
0.602783,0.051758,-0.271973,65.307617,249.732956,-132.316589
0.866211,0.055176,-0.302002,51.162716,249.992355,-146.911621
1.088135,0.19043,-0.367188,45.364376,249.992355,-158.050537
1.078613,0.298096,-0.277344,54.023739,238.807663,-159.057617
0.716553,0.368652,-0.035156,61.523434,229.171738,-152.282715
0.563721,0.391357,0.19458,67.115784,243.904099,-161.72789
0.623047,0.366699,0.003174,65.803528,249.992355,-170.80687
0.693115,0.342773,-0.063721,56.365963,249.992355,-186.43187
0.847168,0.361816,0.015137,39.878845,249.832138,-214.454636
0.96167,0.440918,0.119141,29.190062,249.992355,-242.225632
0.983643,0.672607,0.553223,20.38574,249.992355,-246.383652
0.785156,0.799805,0.623291,24.826048,249.992355,-244.88829
0.511963,0.695313,0.541748,19.996643,249.992355,-249.992355
0.812988,0.661621,0.421875,-15.213012,249.992355,-247.91716
1.238037,0.605957,0.493896,-7.67517,249.992355,-213.706955
1.491699,0.402588,0.479736,0.274658,249.992355,-202.545151
1.789063,0.295166,0.552979,-15.159606,249.992355,-198.211655
1.733887,0.378418,0.455078,-30.891417,249.992355,-170.120224
1.453369,0.435303,0.558594,-21.095274,249.992355,-124.824516
1.185059,0.34668,0.602051,-7.362365,249.992355,-121.231071
1.144531,0.278809,0.541016,-3.631592,248.138412,-146.652222
1.248291,0.219482,0.452148,11.550902,242.530807,-166.107162
1.394775,0.13916,0.533936,41.687008,231.758102,-198.638901
1.403809,0.146484,0.474854,42.366024,217.971786,-208.755478
1.279541,0.031494,0.730225,53.237911,203.025803,-220.329269
1.096191,0.116211,0.646973,30.540464,196.243271,-249.992355
0.95752,0.546387,0.668701,-0.671387,207.252487,-249.992355
0.900879,0.786865,0.383057,-28.656004,214.820847,-206.268295
1.053467,0.451416,0.494629,54.374691,208.48082,-213.073715
1.895752,0.53125,0.818359,-8.728027,171.234116,-226.585373
1.871826,0.875244,0.595459,-82.786552,133.918762,-94.28405
1.374023,0.668701,0.7229,1.701355,107.803337,-51.696774
0.850098,0.476563,0.914307,19.859314,111.846916,-67.153931
0.74292,0.553955,0.772705,-4.005432,128.90625,-119.049065
0.787842,0.735596,0.562256,-9.300232,138.893127,-153.755188
0.672363,0.806641,0.515381,-12.702941,144.721985,-157.669067
0.729492,0.771729,0.572754,-16.227722,127.220146,-136.123657
0.519287,0.751709,0.767334,-21.881102,109.825127,-82.740776
0.234863,0.631348,0.959961,-41.572567,94.635002,-46.127316
-0.000977,0.693848,0.667236,-71.44165,118.423454,-38.757324
-0.04248,0.783691,0.727051,-69.05365,201.301559,-59.494015
0.282715,0.867188,1.127197,-63.362118,231.643661,-82.412712
0.631348,0.978027,1.36792,-80.718987,157.501221,-54.428097
0.515869,0.910645,0.686279,-80.467216,71.289063,-3.189087
0.131836,0.744629,0.28125,-54.924007,79.88739,15.502929
-0.048828,0.673584,0.529297,-28.190611,145.080566,1.113892
-0.013916,0.432373,0.78125,-8.026123,170.463547,-25.878904
0.063965,0.540283,0.581787,-46.142574,206.268295,-35.652161
0.052002,0.885742,0.739746,-74.302673,237.480148,-14.633178
0.122803,1.008057,0.812256,-54.428097,225.013718,22.109983
0.130615,0.82959,0.693604,-20.63751,208.267197,45.433041
0.02832,0.650879,0.912109,-8.247375,204.467758,48.690792
0.022705,0.6521,1.143066,-12.878417,163.169846,37.384033
0.062744,0.604248,1.405029,-1.022339,75.820923,19.187927
0.175537,0.765625,1.261963,-14.839171,-33.790588,17.227173
-0.001465,0.787842,0.605957,-24.986265,-93.330376,51.338192
-0.288086,0.60376,0.408203,-1.251221,-64.186096,59.921261
-0.196777,0.525635,0.773438,35.118103,-29.884336,18.02063
-0.129883,0.627197,0.798828,40.580746,-20.919798,-14.625548
-0.095215,0.73877,0.77124,38.391113,-5.264282,-24.230955
0.010986,0.706299,0.829102,27.145384,13.290404,-15.922545
0.06665,0.663086,0.720215,12.08496,45.326229,-6.484985
0.032227,0.709473,0.76001,6.591796,55.915829,0.37384
-0.006592,0.701416,0.544922,-5.928039,81.527702,15.274047
-0.041992,0.719971,0.702881,-4.989624,101.600639,23.048399
-0.04541,0.684082,0.931396,-9.185791,84.228508,30.784605
-0.002441,0.662109,0.459473,-15.411376,58.326717,25.321959
0.080078,0.928467,0.686768,-32.211304,93.086235,38.284302
-0.05249,0.775879,0.891357,-19.622803,77.880859,64.811707
-0.000732,0.573975,0.814941,-14.801024,55.915829,58.616634
0.012207,0.562988,0.897949,-10.467528,42.068478,25.192259
0.042725,0.789795,0.921387,-17.63916,25.360106,1.655578
-0.035156,0.891602,0.667969,-20.88928,27.130125,11.718749
-0.187256,0.687744,0.421631,3.547668,66.001892,15.159606
-0.224609,0.519043,0.749023,35.987854,109.420769,-18.676758
0.015869,0.769531,1.123779,27.763365,101.959221,-45.669552
0.150146,0.952393,0.977539,6.309509,62.20245,-13.023376
0.059814,0.764893,0.922852,9.44519,28.518675,22.842405
-0.003662,0.711426,0.956543,1.464844,4.432678,36.727905
0.050049,0.726318,0.963867,-9.117126,-20.233152,43.685909
0.058594,0.760254,0.797852,-22.476194,-30.731199,59.417721
-0.072754,0.604004,0.830078,-15.380858,-30.151365,67.733765
-0.061279,0.546143,0.836914,-22.117613,-28.816221,59.898373
-0.014893,0.565674,0.821289,-23.66638,-31.73065,50.933834
-0.031738,0.57666,0.783447,-21.636961,-37.437439,46.592709
-0.075684,0.554199,0.749268,-16.609192,-41.564938,40.306087
-0.054199,0.560791,0.750732,-9.643555,-42.274471,26.893614
0.02124,0.627686,0.712891,-6.477355,-38.658142,15.502929
0.068115,0.735596,0.652344,-12.275695,-24.810789,20.332335
0.020996,0.795166,0.760254,-27.70233,-3.067016,45.219418
-0.114746,0.691162,0.730225,-21.64459,6.217956,67.367554
-0.213867,0.467285,0.763916,4.676819,20.324705,47.760006
-0.097168,0.514648,0.782471,17.089844,17.547607,7.148742
-0.119873,0.708984,0.734619,26.832579,7.736206,-20.759581
-0.252686,0.880615,0.761475,28.282164,19.119263,-17.01355
-0.156006,0.813965,0.976318,26.56555,33.325195,-4.737854
-0.010254,0.729492,0.99292,13.534545,28.060911,2.220154
-0.021973,0.712402,0.824463,-0.808716,26.138304,10.223388
-0.060547,0.677246,0.769287,-4.684448,37.826538,16.822815
-0.016357,0.62915,0.833496,-3.448486,43.540951,18.173218
0.037842,0.572021,0.906738,-0.984192,31.768797,14.488219
0.082031,0.521729,0.926514,2.342224,4.646301,1.808166
0.042725,0.63916,0.803467,-1.449585,-13.610839,-6.629943
0.05542,0.685791,0.786133,-2.922058,-6.370544,2.128601
0.085449,0.626465,0.818115,-6.568908,10.437011,16.937256
0.104736,0.580811,0.825684,-13.641356,17.25769,28.976439
0.086914,0.578125,0.773193,-16.014099,19.187927,35.453796
0.07373,0.592285,0.784424,-14.533996,21.072386,40.06958
-0.086426,0.55127,0.627441,-6.500244,29.518126,40.65704
-0.174561,0.401123,0.767334,19.432068,51.017757,14.335631
-0.058105,0.37915,1.008789,35.072327,50.6134,-33.325195
0.131836,0.706299,1.141602,26.123045,11.390685,-63.2019
0.031494,0.897217,0.881836,12.092589,-26.81732,-36.491394
-0.131104,0.79541,0.764893,15.335082,-30.34973,-3.89862
-0.134277,0.701904,0.807617,13.038634,-24.597166,10.57434
-0.191162,0.641602,0.786133,11.039733,-17.662048,5.783081
-0.20874,0.64917,0.840332,9.536743,-11.306762,-7.568359
-0.140381,0.655518,0.854492,6.782531,-14.526366,-18.218994
-0.05249,0.682617,0.877686,1.350403,-22.071836,-21.957396
0.048096,0.686035,0.91333,-1.419067,-38.475037,-18.318176
0.038818,0.730469,0.848389,-6.576538,-54.916378,-7.30133
-0.075195,0.700684,0.685547,-4.318237,-57.052608,6.187438
-0.114746,0.592285,0.69458,6.813049,-40.412899,5.371093
-0.03125,0.619873,0.869141,4.646301,-23.101805,-5.622863
0.030273,0.695801,0.892822,-6.782531,-34.90448,0.709534
-0.013916,0.581787,0.70459,-3.387451,-43.632504,7.766723
-0.036865,0.567383,0.76001,-1.655578,-28.022764,4.837036
0.0271,0.573242,0.766602,-1.777649,-19.294739,1.846313
0.006348,0.573975,0.724854,-0.350952,-9.025574,0.183105
-0.028076,0.549072,0.720947,6.713867,1.930237,-6.912231
-0.05249,0.550781,0.732422,13.46588,13.435363,-19.309998
-0.058105,0.564697,0.7771,18.936157,23.590086,-31.86035
-0.061523,0.531494,0.86084,22.735594,26.618956,-44.029232
-0.023438,0.588135,0.9104,15.556334,19.630432,-55.427547
-0.010254,0.720215,0.945313,6.828308,2.319336,-51.002499
0.012695,0.749756,0.868652,1.88446,-17.982483,-32.180786
-0.04834,0.661621,0.754395,1.960754,-20.874022,-16.853333
-0.059082,0.621338,0.81665,0.961304,-9.986877,-19.134521
-0.034912,0.769775,0.854248,-9.613037,-1.731872,-13.023376
-0.032715,0.706299,0.876709,-5.645751,-1.708984,5.233764
-0.102539,0.526855,0.804932,3.65448,-4.15802,5.058288
-0.14209,0.504639,0.732422,9.658813,3.883362,-20.568846
-0.129883,0.635986,0.637939,9.056091,30.776976,-40.145874
-0.063232,0.696045,0.716553,14.091491,56.53381,-44.647213
-0.045654,0.741211,0.70874,13.496398,73.478699,-36.445618
-0.149902,0.629639,0.82666,20.698545,84.655754,-27.763365
0.008301,0.557129,1.096191,17.654419,64.64386,-37.017822
0.088379,0.702393,1.084717,2.983093,13.145446,-36.621094
0.005859,0.790039,0.922852,-5.546569,-34.736633,-18.890381
-0.16626,0.759766,0.685791,-11.474608,-41.175838,7.659912
-0.179199,0.61499,0.694092,-6.317138,-18.302917,15.090941
-0.115723,0.583496,0.759521,-5.40924,-0.320435,3.65448
-0.102539,0.647705,0.821533,-5.065917,3.578186,-5.638122
-0.113525,0.66333,0.783447,-2.708435,1.045227,-5.119323
-0.159668,0.648438,0.791748,-2.128601,11.283874,-2.449036
-0.089111,0.646973,0.86084,-4.165649,15.510558,-0.549316
-0.130859,0.646729,0.83374,-2.761841,13.282775,0.823975
-0.170654,0.640869,0.844727,1.342773,14.892577,-0.923157
-0.152344,0.684326,0.790039,0.244141,18.859863,-4.699707
-0.11499,0.714355,0.714844,-3.547668,29.937742,-2.479553
-0.088135,0.719727,0.773682,-6.912231,40.435787,6.91986
-0.064941,0.68335,0.889404,-10.665893,35.453796,20.904539
-0.020996,0.587158,1.009766,-9.048462,5.15747,27.603148
-0.083496,0.564209,0.878174,-12.374877,-31.280516,21.575926
-0.166016,0.628906,0.739258,-13.618468,-38.68866,13.099669
-0.165283,0.621582,0.7771,-5.043029,-28.343199,7.30133
-0.151611,0.578613,0.822754,0.480652,-21.125792,-3.173828
-0.140381,0.625977,0.759521,-1.716614,-14.045714,-14.282226
-0.132813,0.724609,0.779541,-9.902954,5.630493,-11.71112
-0.041992,0.733398,0.927734,-13.504027,9.590149,1.831055
-0.032959,0.722168,1.091309,-6.942749,-24.826048,16.50238
-0.020264,0.767578,1.03418,-15.960692,-75.294495,33.966064
-0.073242,0.701172,0.734375,-28.930662,-98.983757,51.727291
-0.201416,0.506836,0.723145,-17.974854,-88.088982,45.967098
-0.141602,0.417969,0.852539,-13.023376,-71.861267,14.778136
-0.020264,0.552246,0.823242,-22.171019,-62.713619,-15.350341
0.037598,0.687256,0.827881,-20.790098,-63.735958,-21.179197
0.086426,0.719238,0.966553,-19.584656,-73.799133,-8.68988
0.113037,0.601074,1.028809,-15.159606,-112.861626,1.800537
-0.006836,0.499023,0.697998,-8.468628,-137.489319,-5.28717
-0.00708,0.504639,0.710449,-0.465393,-110.008232,-23.185728
0.103516,0.608887,0.834229,-0.465393,-97.694389,-31.85272
0.067383,0.616211,0.756836,-0.137329,-96.725456,-23.590086
0.105469,0.597412,0.834473,1.945495,-85.601799,-17.25769
0.127441,0.573975,0.811035,2.182007,-87.005608,-9.460449
0.068359,0.549561,0.656006,11.375426,-76.812744,-12.222289
0.024658,0.568848,0.536865,25.93231,-29.579161,-21.90399
0.033691,0.571777,0.754883,34.912109,18.554688,-32.737732
0.023193,0.636475,0.709473,27.992247,31.890867,-32.035828
0.08374,0.661865,0.751465,25.024412,48.706051,-26.298521
0.09082,0.696777,0.855225,16.929626,58.280941,-15.258788
0.119141,0.667969,0.927246,11.19995,48.698421,-2.296448
0.125977,0.628174,0.905762,12.557982,26.985167,-2.243042
0.068359,0.724121,0.820557,10.780334,18.318176,-3.471374
0.045166,0.719727,0.813477,14.839171,13.923644,4.356384
-0.024658,0.625,0.712646,21.881102,16.12854,3.921509
-0.026611,0.561768,0.697998,32.531738,31.135557,-10.887145
0.013916,0.558838,0.840332,36.636353,41.961666,-28.244017
0.071289,0.575928,0.871582,36.483765,30.616758,-46.272274
0.030273,0.696045,0.854492,32.447815,27.641294,-55.084225
0.011719,0.768066,0.97168,29.08325,24.29962,-46.623226
0.088379,0.763672,1.036377,26.237486,-5.744934,-30.242918
0.117432,0.750244,0.981689,20.538328,-45.967098,-12.008666
0.062012,0.69165,0.888184,12.481688,-70.228577,5.279541
0.051758,0.647217,0.783691,7.957458,-73.890686,8.583069
0.050781,0.682373,0.717041,9.300232,-54.016109,5.981445
0.059326,0.678467,0.75708,14.923095,-30.59387,1.296997
0.006836,0.696045,0.630859,16.052246,-0.679016,-6.301879
-0.065918,0.711182,0.696289,26.657103,44.403072,-19.607544
-0.04248,0.678223,0.831543,35.987854,76.461792,-32.958984
0.179443,0.679688,0.931641,35.003662,83.915703,-47.401424
0.161621,0.73877,0.588623,26.092527,89.859001,-48.667904
-0.024902,0.735352,0.53833,49.613949,127.983086,-58.776852
0.152344,0.664551,0.873291,79.231262,120.300285,-77.934265
0.016602,0.640137,0.672852,74.684143,96.466057,-82.344048
-0.382813,0.57959,0.676514,81.886284,88.600151,-92.254631
-0.074707,0.753418,1.29834,54.336544,61.866756,-99.32708
0.250977,1.140625,0.914063,-39.855957,24.871824,-17.906189
0.202637,1.232666,0.603516,-20.057678,12.390136,41.923519
0.19458,1.006348,0.581787,43.006893,0.549316,73.951721
0.242432,0.748047,0.589111,74.394226,-20.690916,84.800713
0.299561,0.729004,0.623047,80.284119,-54.183956,84.617607
0.22583,0.799316,0.610596,76.301575,-73.760986,91.896049
0.10791,0.809814,0.719727,62.858578,-72.975159,104.476921
0.02417,0.648438,0.871582,46.401974,-63.613888,104.057304
-0.060303,0.536377,0.852783,10.124206,-36.682129,93.078606
0.106689,0.667969,0.7854,-41.488644,-38.414001,84.060661
0.268799,0.932617,0.51416,-68.687439,-62.751766,92.071526
0.231201,1.063232,0.518311,-43.243404,-97.869865,108.345024
0.152344,0.942627,0.579346,-4.585266,-136.367798,126.205437
0.053711,0.769775,0.60498,16.120911,-147.567749,126.678459
-0.116699,0.755859,0.431396,10.589599,-110.54229,106.468193
-0.176758,0.95166,0.647949,-5.081176,-3.829956,99.83062
0.62085,0.476074,1.370605,-41.931149,-15.434264,108.619682
0.943359,0.400879,0.766602,-119.956963,-117.820732,115.211479
0.295654,0.958496,0.48877,-105.987541,-175.758347,124.160759
-0.504883,1.212402,-0.068848,-23.54431,-119.445793,131.637573
-0.022949,0.683594,1.185791,10.131835,9.429932,129.493713
0.892334,0.154297,1.056152,-69.80896,-31.547544,115.745537
0.798584,0.695068,0.783203,-67.604065,-141.159058,100.509636
0.220703,0.806641,0.966309,-11.71112,-203.773483,124.588005
0.252441,0.641357,1.033691,-4.364014,-198.257431,112.915031
0.394287,0.664307,0.972656,-13.793944,-177.35289,98.800652
0.14502,0.766113,0.583984,-19.78302,-141.784668,96.076958
0.153564,0.866943,0.452881,-24.955748,-3.509521,88.577263
0.441162,0.540771,0.963135,-74.60022,69.000244,91.88842
1.134766,0.586914,0.80957,-96.862785,28.289793,81.642143
0.792969,0.720459,0.884766,-38.818359,-68.534851,96.015923
0.480469,0.644287,0.933594,-4.554749,-116.638176,103.057854
0.546387,0.614258,0.862061,-9.513855,-124.816887,90.332024
0.656982,0.618652,0.775635,-16.166687,-133.003235,86.524956
0.642822,0.593994,0.63623,-24.200438,-153.419495,88.874809
0.646729,0.578369,0.493652,-36.346436,-172.973618,90.782158
0.634766,0.541748,0.446289,-34.698486,-184.600815,93.879692
0.578369,0.490479,0.435059,-26.832579,-188.858017,100.685112
0.506104,0.479004,0.267334,-10.627746,-189.155563,104.164116
0.384033,0.378418,0.446777,1.701355,-177.787766,94.810478
0.497559,0.358154,0.453369,-7.133483,-151.855469,80.436699
0.673584,0.273193,0.509033,8.529663,-149.07074,60.600277
0.635986,0.293945,0.48999,8.712769,-155.342102,36.239624
0.592285,0.376465,0.465576,13.519286,-145.019531,7.965087
0.553467,0.599854,0.545898,26.245115,-132.843018,-15.014647
0.779053,0.74292,0.585205,22.453306,-123.191826,7.781982
0.91626,0.546143,0.525635,41.969296,-136.84845,34.950256
0.811523,0.425293,0.490723,59.692379,-167.701706,48.034664
0.666016,0.349854,0.411865,76.873779,-194.503769,46.165462
0.570313,0.305908,0.334717,97.358696,-188.636765,37.033081
0.539551,0.28418,0.403076,100.189201,-162.422165,32.707214
0.528809,0.387451,0.351318,63.84277,-139.587402,22.598265
0.587891,0.52124,0.289307,42.816158,-128.593445,6.736755
0.661377,0.592285,0.220459,43.846127,-117.324821,-1.235962
0.704834,0.586182,0.115479,54.985043,-95.199577,-0.366211
0.728516,0.547607,0.064697,68.809509,-76.446533,1.00708
0.70752,0.494141,0.059814,78.819275,-61.859127,-3.14331
0.73584,0.432129,0.075439,80.93261,-59.516903,-5.561828
0.793213,0.398438,0.190674,77.308655,-64.758301,0.328064
0.802734,0.383789,0.369629,64.064026,-72.151184,10.078429
0.746582,0.393799,0.12793,50.270077,-66.719055,4.669189
0.769287,0.446777,-0.077148,61.309811,-59.761044,2.685547
0.866699,0.451904,-0.040039,90.797417,-60.012814,21.911619
0.834717,0.430176,0.107178,99.418633,-59.196468,54.710384
0.702637,0.44043,0.035156,80.215454,-38.047791,48.225399
0.870117,0.375,0.158936,81.657402,-33.493042,15.319823
1.051514,0.251465,0.15625,61.882015,-40.65704,18.768311
0.958252,0.226563,0.078125,39.505005,-25.459288,38.475037
0.918457,0.270508,0.304443,24.597166,-41.267391,45.791622
0.950684,0.27832,0.18457,4.226685,-66.902161,30.029295
0.930176,0.377441,0.063477,-2.63977,-69.68689,9.712219
0.953857,0.412598,0.041504,14.411925,-83.923332,8.026123
0.878906,0.382324,-0.031006,27.847288,-87.791435,20.606993
0.748535,0.340088,-0.088867,37.391663,-68.748474,27.893064
0.66748,0.268555,-0.02002,35.751343,-30.670164,26.077269
0.760742,0.199219,0.042236,16.029358,2.998352,13.282775
0.843018,0.237305,-0.029785,-14.122008,30.838011,0.602722
0.931641,0.344238,-0.12207,-18.684387,39.855957,-10.81848
0.944092,0.343018,-0.080322,-8.369446,30.487059,-2.777099
0.919922,0.270752,-0.059082,-20.51544,13.732909,15.892028
0.897705,0.422852,-0.614746,-19.096375,-26.466368,11.825561
0.872803,0.488037,-0.600342,36.270142,-51.925655,19.836426
0.693115,0.410645,-0.473389,67.733765,-27.404783,50.048824
0.510742,0.244385,-0.178223,65.475464,18.791199,54.023739
0.526855,0.098633,-0.069336,29.884336,53.573605,16.662598
0.423828,0.073975,-0.187012,2.548218,115.264885,-12.191772
0.131104,0.08252,-0.024902,-23.490904,224.205002,-30.456541
0.259277,0.220947,0.218018,-124.328606,249.992355,-93.536369
0.936523,0.413818,0.284912,-155.37262,249.519333,-132.888794
1.67627,0.273682,0.504883,-160.148621,249.229416,-96.015923
1.620605,0.416992,0.354492,-196.990952,245.101913,-33.836365
1.171387,0.631104,0.240723,-138.282776,175.621017,-10.307311
0.781982,0.586182,0.290039,-74.60022,108.413689,0.259399
0.682129,0.405762,0.353516,-54.931637,97.846977,7.980346
0.738281,0.313232,0.326904,-52.558895,93.727104,11.436461
0.862061,0.330566,0.307617,-49.98016,78.384399,11.772155
0.927246,0.328369,0.297852,-43.853756,59.455868,16.586304
0.905518,0.297363,0.299561,-33.065796,45.738216,26.649473
0.842529,0.313477,0.282227,-32.707214,45.036312,33.531189
0.623535,0.353516,0.092285,-39.558411,59.066769,37.574768
0.205322,0.376709,-0.350342,-24.475096,186.996445,37.239075
0.94458,0.29834,0.480469,-32.844543,249.992355,34.53064
1.173096,0.487549,0.73999,-74.638367,225.143417,54.946896
0.366211,0.217529,0.671143,-31.585691,136.184692,77.064514
0.038574,0.171387,0.14209,-9.979248,178.527817,52.429195
0.777344,0.200439,0.444092,20.080564,249.992355,17.01355
1.424561,0.600586,1.097168,-35.018921,249.992355,37.071228
0.448486,0.246338,0.806396,-6.42395,223.892197,77.75116
0.28125,0.056396,0.756592,34.576416,242.828354,32.546997
1.133301,0.407959,1.373047,-11.543273,249.992355,20.858763
1.027588,0.250488,1.354736,-6.29425,185.745224,60.638424
0.545654,0.087646,1.150391,13.015746,40.695187,49.667355
0.672363,0.230713,0.862793,3.639221,4.646301,26.283262
0.714111,0.30835,0.674316,-1.068115,34.011841,22.232054
0.612549,0.313721,0.665771,-5.905151,104.721062,23.643492
0.760254,0.334473,0.97998,-15.434264,168.800339,21.286009
0.71582,0.334717,1.254395,-25.848387,133.850098,42.594906
0.46582,0.103027,1.311523,-13.298034,15.792846,61.416622
0.386963,0.10083,1.165771,-16.334534,-42.228695,54.00848
0.479248,0.139648,1.010986,-20.957945,-47.096249,48.645016
0.543701,0.144775,0.910156,-17.63916,-53.352352,45.028683
0.555664,0.164551,0.844238,-10.772704,-67.779541,40.763851
0.575195,0.156006,0.792236,-2.487183,-86.410515,37.460327
0.549561,0.155518,0.79248,3.303528,-104.911797,36.506653
0.560791,0.16748,0.72876,4.005432,-112.075798,33.920288
0.544922,0.133789,0.81958,11.817931,-120.414726,39.001465
0.499268,0.174805,0.875977,5.41687,-119.598381,30.738829
0.544678,0.195557,0.857666,-0.404358,-112.022392,23.117064
0.57373,0.238281,0.806396,-4.234314,-109.466545,18.760681
0.612305,0.262451,0.748291,-5.516052,-107.39135,12.664794
0.594971,0.204102,0.70166,-3.662109,-104.392998,12.504577
0.649658,0.198486,0.585693,-1.472473,-110.16082,9.994507
1.033936,0.223877,0.395996,10.31494,-143.424988,1.434326
0.856201,0.039795,0.67749,25.070189,-238.037094,17.478943
0.499756,0.0625,0.702637,-2.182007,-249.992355,15.48767
0.515381,0.127686,0.704834,-11.268615,-232.612595,11.741637
0.657715,0.199951,0.612793,-10.520934,-206.96257,19.91272
0.77124,0.212646,0.572021,-7.034301,-197.860703,22.735594
0.743164,0.160156,0.562012,-6.698608,-183.753952,26.908873
0.747559,0.100586,0.552734,-9.216309,-160.362244,29.441832
0.745605,0.046143,0.521484,-16.387939,-138.847351,34.576416
0.672852,0.110107,0.535156,-32.12738,-122.428886,32.897949
0.731201,0.149902,0.328613,-35.766602,-108.741753,20.019531
0.842529,0.10498,0.341797,-25.352476,-127.708427,16.052246
0.778076,0.109863,0.351074,-32.852173,-136.878967,4.66156
0.779297,0.12793,0.265625,-34.225464,-135.543823,-5.210876
0.754395,0.086182,0.197998,-20.606993,-120.101921,-3.417969
0.839111,0.063477,0.16626,-11.016845,-103.149406,-0.686645
0.833984,0.08252,0.218506,-10.803222,-81.657402,-5.760192
0.747559,0.051758,0.271729,-6.698608,-30.586241,-3.517151
0.736084,0.055908,0.234619,-6.462097,37.757874,-0.862122
0.977051,0.100342,0.196533,-7.141113,69.30542,-0.808716
1.072754,0.101563,0.24585,-4.600525,49.102779,5.004883
1.069824,0.13501,0.210205,-12.130736,-1.243591,-0.328064
0.897217,0.13623,0.19873,-4.882813,-49.499508,-5.241394
0.624023,0.083008,0.253174,1.64032,-41.725155,-3.364563
0.631836,0.080078,0.307861,-9.918213,16.914368,-10.360717
0.94458,0.104736,0.240234,-15.449523,55.084225,-4.852295
1.095459,0.082764,0.263184,-1.647949,35.125732,14.549254
0.648682,-0.093506,0.418213,35.003662,51.712032,62.126156
0.668945,0.048096,0.366211,-12.21466,70.297241,47.615047
0.959961,0.28833,0.271484,-45.448299,52.848812,-4.341125
0.79126,0.130615,0.356201,-19.943237,40.809628,6.286621
0.689209,0.063232,0.316406,-14.427184,39.901733,7.949829
0.748535,0.08667,0.324463,-10.81848,49.705502,6.515502
0.77124,0.078613,0.366211,-10.429381,65.055847,11.985778
0.731689,0.071533,0.422852,-21.659849,84.312431,10.292052
0.759521,0.113525,0.443848,-40.954586,102.203362,-1.533508
0.826416,0.198975,0.412598,-53.37524,111.373894,-11.917113
0.898926,0.220459,0.41333,-55.7785,85.060112,-27.008055
0.63208,0.058594,0.509033,-46.401974,99.082939,-14.671325
0.735352,0.004395,0.542725,-39.459229,135.635376,4.730225
0.872803,0.021484,0.585938,-32.447815,149.223328,24.108885
0.885742,0.061279,0.587402,-26.962278,130.2948,31.242369
0.835449,0.071045,0.55957,-23.071287,94.627373,21.820066
0.800049,0.030518,0.529785,-15.220641,68.214417,14.488219
0.723145,-0.018555,0.512695,-5.752563,65.864563,14.961242
0.849121,0.004639,0.518555,-1.533508,75.637817,16.662598
0.880859,0.070068,0.48291,-3.913879,61.561581,10.353087
0.80835,0.019043,0.518555,2.067566,40.801998,6.004333
0.752441,-0.011719,0.547119,2.555847,28.480528,5.058288
0.757813,0.018311,0.538086,-0.846863,20.774839,2.456665
0.770996,0.031006,0.539063,-2.578735,11.802672,-5.1651
0.724854,0.008057,0.568604,-5.676269,17.051697,-9.185791
0.703369,-0.023926,0.637695,-8.979797,33.172607,-8.666992
0.670654,-0.060547,0.676025,-13.282775,68.199158,2.76947
0.874512,0.053223,0.634521,-12.199401,59.715267,1.434326
0.752441,0.003174,0.672119,-7.850646,37.208557,-2.235413
0.746338,-0.003174,0.649658,-6.805419,36.422729,-3.40271
0.80542,0.027832,0.617188,-1.655578,23.506163,-3.799438
0.797852,0.018311,0.590576,4.249573,10.078429,-2.464294
0.7854,0.017334,0.58252,8.293152,-3.463745,-1.281738
0.662354,-0.004395,0.635498,8.06427,-6.141662,0.541687
0.606934,-0.001953,0.644043,1.235962,15.892028,2.876281
0.760742,0.063477,0.624512,-7.041931,27.923582,-0.87738
0.801758,0.048096,0.63208,-9.162903,19.515991,-2.128601
0.768799,0.025146,0.644775,-8.43811,8.209229,-1.220703
0.726074,0.012695,0.663086,-4.631042,4.127502,1.068115
0.666748,0.008789,0.688965,-2.159119,9.437561,2.5177
0.62793,-0.001221,0.717041,-2.922058,26.19171,2.655029
0.657715,0.005615,0.72998,-6.767272,46.356197,2.861023
0.731201,0.011475,0.703857,-6.629943,44.151302,2.815246
0.709473,0.003174,0.663574,-4.547119,26.535032,1.815796
0.675537,-0.002686,0.647705,-3.433227,19.226074,-0.442505
0.672119,0.014404,0.652588,-7.057189,22.392271,-3.265381
0.698242,0.028076,0.628662,-10.604857,13.870238,-7.385253
0.671875,0.008545,0.626221,-10.337829,4.943848,-8.674622
0.655029,0.001709,0.639404,-8.483887,7.591247,-6.652832
0.692627,0.020264,0.658936,-7.606506,14.190673,-5.218505
0.707031,0.018799,0.681396,-5.065917,15.571593,-3.509521
0.696289,0.01416,0.695557,-2.632141,12.924193,-2.5177
0.693848,0.008301,0.708008,-1.342773,14.274596,-2.632141
0.716797,0.021484,0.708008,-1.174927,16.082764,-2.624511
0.697021,0.025635,0.708008,-2.372742,14.526366,-3.578186
0.738525,0.024902,0.679932,-3.807068,9.307861,-5.935668
0.710205,0.002686,0.693115,-1.197815,-1.373291,-2.578735
0.681641,0.011719,0.704834,-0.419617,-3.494262,1.564026
0.717041,0.015625,0.709961,0.991821,-9.017944,2.998352
0.719727,0.010254,0.710693,2.075195,-17.997742,3.440857
0.673828,0.006348,0.724365,1.663208,-23.063658,2.433777
0.779785,0.028564,0.661133,-1.113892,-20.225523,-1.968384
0.75708,-0.005615,0.694092,7.545471,-49.59869,1.449585
0.621094,0.014893,0.656982,-0.068665,-45.56274,0.495911
0.720459,0.008301,0.651367,0.335693,-37.498474,-1.907349
0.733887,0.003906,0.663086,2.784729,-38.871765,2.532959
0.709229,0.006348,0.66748,3.501892,-41.061398,1.937866
0.740723,0.01709,0.652344,4.142761,-35.095215,1.495361
0.747559,0.013916,0.651611,6.629943,-35.957336,2.27356
0.703857,0.001465,0.656006,7.408142,-32.501221,4.722595
0.739014,0.027832,0.635254,5.607605,-27.877806,1.678467
0.749756,0.018555,0.624023,6.515502,-30.937193,-1.167297
0.729248,0.01123,0.655518,7.728576,-33.370972,-0.846863
0.663086,0.008301,0.705566,2.090454,-31.997679,-3.768921
0.726318,0.011963,0.689697,-6.813049,-19.676208,-7.362365
0.82959,0.010986,0.662109,-8.041382,-23.16284,-5.493164
0.85498,0.015381,0.644043,-7.736206,-42.785641,-3.27301
0.822266,0.003662,0.62793,-8.308411,-60.69183,-3.135681
0.79541,-0.009277,0.619385,-9.109497,-66.169739,-1.63269
0.750977,-0.006348,0.608154,-11.474608,-63.827511,1.663208
0.75708,0.00708,0.581299,-14.312743,-60.333248,1.411438
0.76416,0.006592,0.556641,-14.282226,-62.240597,0.892639
0.76001,-0.007568,0.532715,-13.244628,-65.002441,-0.816345
0.766602,-0.012207,0.513916,-11.810302,-67.260742,-4.264832
0.818359,-0.022217,0.481689,-9.979248,-69.145203,-9.147644
0.863525,-0.033203,0.469971,-6.347656,-78.50647,-8.300781
0.757324,-0.007813,0.472168,-7.507324,-90.217583,-6.973266
0.705322,0.03418,0.456055,-12.802123,-89.881889,-12.596129
0.678467,0.045898,0.442627,-17.463684,-77.522278,-14.328002
0.692383,0.023193,0.447754,-15.624999,-60.302731,-12.947082
0.760498,0.016113,0.450439,-9.83429,-45.639034,-8.422852
0.816162,0.010742,0.445801,-5.821228,-43.685909,-6.011962
0.769531,0.029785,0.439209,-6.072998,-51.879879,-7.400512
0.705322,0.086914,0.405518,-14.579772,-53.688046,-21.842955
0.749023,0.070068,0.372314,-20.423887,-41.435238,-35.591125
0.753174,0.024902,0.384766,-18.760681,-23.29254,-32.073975
0.765869,0.019043,0.416992,-15.762328,2.334595,-21.324156
0.860596,0.033936,0.433594,-13.34381,23.239134,-12.916564
0.916504,0.013184,0.436768,-10.810851,22.308348,-9.712219
0.876953,-0.02002,0.429688,-10.185241,13.610839,-10.223388
0.855713,-0.032227,0.41333,-11.70349,11.58142,-14.160155
0.883301,-0.02417,0.418213,-14.366149,11.596679,-19.706726
0.846191,-0.005615,0.441406,-18.440247,10.902404,-24.16992
0.866455,0.000977,0.466797,-20.652769,14.297484,-26.824949
0.932617,0.012451,0.492188,-18.768311,17.463684,-22.735594
0.988281,0.056396,0.500488,-14.907836,17.105103,-13.984679
0.967041,0.109131,0.493652,-11.810302,14.175414,-7.019042
0.928467,0.109619,0.476074,-7.713317,12.062072,-4.379272
0.898926,0.071533,0.465576,-0.38147,15.388488,1.670837
0.910889,0.056396,0.436523,7.438659,23.15521,9.643555
0.928223,0.034668,0.427734,16.723633,27.084349,18.882751
0.861816,0.024414,0.44873,25.253294,24.185179,28.45001
0.745605,0.028564,0.485596,28.167723,21.080015,31.997679
0.687012,0.04126,0.512451,25.688169,26.94702,28.434752
0.69458,0.027832,0.537109,24.101255,44.593807,27.290342
0.745361,0.029053,0.55835,23.239134,73.455811,31.791685
0.785645,0.029053,0.580811,23.200987,104.812614,37.29248
0.825439,0.032715,0.599121,23.391722,128.120422,41.923519
0.811523,0.018799,0.702881,18.302917,135.108948,42.373653
0.825439,0.008057,0.650146,7.278442,126.968376,39.413452
0.898682,-0.014893,0.654053,12.100219,90.026848,37.078857
0.863525,-0.034424,0.658691,6.347656,50.86517,31.143187
0.860107,-0.029053,0.599365,-2.02179,21.598814,25.29907
0.885498,-0.049072,0.609619,1.167297,-1.533508,28.877256
0.921143,0.013428,0.580322,-3.158569,-23.101805,30.517576
0.969727,0.052734,0.588623,-9.368896,-68.977356,18.470764
0.808594,-0.026123,0.601318,-18.90564,-105.239861,11.07788
0.747559,-0.073486,0.600098,-30.242918,-118.431084,3.837585
0.697998,-0.079102,0.56665,-38.757324,-116.531364,0.801086
0.751953,-0.045654,0.512939,-43.350216,-113.594048,-3.608703
0.806152,-0.053467,0.488525,-41.427608,-119.056694,-3.295898
0.816406,-0.080566,0.48291,-36.697388,-131.80542,2.655029
0.720947,-0.085205,0.494873,-33.828735,-139.99939,9.559631
0.702148,-0.038574,0.453369,-36.682129,-127.845757,5.455017
0.812988,-0.063477,0.414795,-32.577515,-109.359734,0.701904
0.830322,-0.072754,0.40918,-26.80969,-91.918938,6.965637
0.896729,-0.016113,0.377441,-26.30615,-83.610527,3.219604
0.890137,-0.016846,0.349609,-24.826048,-89.99633,-1.876831
0.809814,-0.037354,0.321777,-25.337217,-98.69384,-6.874084
0.780762,-0.080566,0.291992,-23.338316,-98.304741,-6.980896
0.822754,-0.115967,0.281494,-16.151428,-89.630119,1.13678
0.900146,-0.101074,0.281738,-11.322021,-80.818169,8.209229
0.88623,-0.077637,0.292236,-12.756347,-76.225281,9.216309
0.822266,-0.064453,0.294678,-16.151428,-69.160461,6.996154
0.857178,-0.034424,0.278076,-18.348694,-62.355038,1.785278
0.950928,-0.043945,0.262695,-14.900207,-67.771912,0.335693
0.948975,-0.07373,0.249756,-7.530212,-77.36969,8.262634
0.964844,-0.059326,0.22583,-3.303528,-79.269409,14.869689
0.967041,-0.056641,0.209717,-0.205994,-81.001274,18.013
0.942627,-0.075684,0.198975,2.922058,-82.397453,20.713804
0.947998,-0.075684,0.198242,4.447937,-81.741325,22.430418
1.024902,-0.053955,0.239502,3.799438,-86.364738,24.147032
1.0271,-0.015869,0.282959,-2.532959,-110.076897,24.841307
0.941162,-0.020752,0.276367,-4.348755,-136.611938,23.330687
0.920166,-0.057861,0.238281,-2.304077,-153.717041,24.92523
0.927246,-0.069092,0.162354,-5.981445,-160.705551,24.940489
0.924561,-0.082764,0.080078,-11.993407,-157.493591,22.377012
0.958252,-0.074707,-0.006348,-15.121459,-144.088745,19.859314
0.997314,-0.076904,-0.06665,-13.061522,-122.550957,23.139952
1.015625,-0.066406,-0.112305,-7.621765,-98.274223,31.448362
0.972168,-0.093262,-0.142334,0.228882,-71.578979,39.962769
0.898682,-0.138184,-0.16748,6.54602,-35.247803,46.974178
0.835449,-0.148682,-0.175537,9.422302,16.624451,50.453182
0.849854,-0.164307,-0.177734,13.038634,78.811646,47.447201
0.858398,-0.212402,-0.1604,21.339415,137.9776,46.279903
0.875244,-0.271973,-0.123047,35.591125,196.655258,53.306576
0.965332,-0.337402,-0.052979,51.681515,243.850693,73.692322
1.095459,-0.341064,0.104492,55.587765,240.646347,93.14727
0.535645,-0.357178,0.298828,18.608093,241.027817,102.539055
0.640869,-0.284668,0.377197,8.842468,249.992355,98.533623
0.751465,-0.176025,0.481689,-6.439209,249.992355,82.969658
0.893799,-0.102783,0.395508,-21.888731,242.996201,44.166561
0.786133,-0.189941,0.404785,-20.111082,184.745773,17.990112
0.676025,-0.304688,0.453125,-23.178099,169.006332,12.542724
0.719238,-0.200684,0.476318,-33.065796,158.081055,5.821228
0.661865,-0.262695,0.542236,-37.940979,172.286972,6.500244
0.863281,-0.193604,0.485107,-41.870113,172.180161,15.396117
0.833252,-0.154541,0.448486,-37.54425,117.706291,6.103515
0.755371,-0.237549,0.421143,-27.244566,77.880859,0.427246
0.694336,-0.290039,0.419189,-17.089844,59.150692,2.716064
0.704346,-0.305176,0.421631,-10.95581,56.831356,7.293701
0.726074,-0.291992,0.423584,-11.062621,56.198116,8.140564
0.733398,-0.310059,0.440918,-11.108397,58.372494,10.711669
0.722656,-0.320313,0.477051,-11.680602,62.568661,17.738342
0.730713,-0.320801,0.484619,-12.382506,65.261841,25.611876
0.766357,-0.299072,0.473633,-11.337279,51.643368,29.70886
0.751465,-0.298828,0.45874,-10.581969,25.184629,23.574827
0.687988,-0.321289,0.455078,-11.466979,4.554749,15.762328
0.660156,-0.323975,0.453369,-13.862609,-3.334045,8.201599
0.685791,-0.328857,0.465332,-14.175414,-6.332397,2.967834
0.695801,-0.325684,0.478027,-13.519286,-10.57434,1.029968
0.73584,-0.304932,0.478516,-12.023925,-17.440796,-2.662658
0.713379,-0.307373,0.512451,-12.908935,-16.242981,-4.341125
0.726807,-0.306885,0.530518,-12.321471,-10.169982,-2.456665
0.713867,-0.30249,0.547119,-11.95526,-10.81848,-3.501892
0.729492,-0.300537,0.523193,-11.894225,-16.975403,-8.621216
0.708496,-0.331299,0.518799,-8.720398,-25.138853,-10.604857
0.698486,-0.335205,0.496582,-5.294799,-17.471313,-5.348205
0.886719,-0.305908,0.523438,3.501892,-15.022277,2.777099
0.713623,-0.366699,0.579834,4.974365,-19.340515,14.083861
0.744385,-0.331055,0.55542,-1.304626,-10.536193,16.044617
0.803467,-0.288818,0.530762,-7.858276,-26.481627,8.323669
0.843018,-0.298584,0.457031,-14.923095,-47.592159,-5.805969
0.805664,-0.352051,0.455322,-14.61029,-58.975216,-4.478455
0.7854,-0.341309,0.463623,-16.578674,-58.174129,-1.152039
0.746094,-0.370605,0.499512,-14.328002,-49.423214,8.781433
0.812256,-0.289551,0.458984,-19.256592,-49.072262,6.401062
0.832764,-0.325928,0.449219,-18.081665,-61.180111,1.441955
0.730225,-0.334473,0.433105,-20.095823,-64.300537,2.693176
0.698242,-0.331299,0.431396,-24.414061,-56.365963,-0.221252
0.705078,-0.343262,0.429443,-28.434752,-40.801998,0.549316
0.75,-0.345947,0.42041,-29.121397,-27.587889,4.081726
0.802979,-0.34082,0.412109,-27.877806,-24.726866,6.988525
0.808838,-0.318359,0.38916,-26.344297,-34.843445,4.974365
0.782471,-0.328125,0.35498,-24.505613,-44.212337,-1.098633
0.765869,-0.343262,0.327881,-21.186827,-45.341488,-3.433227
0.765625,-0.343506,0.313232,-18.455505,-41.91589,-2.685547
0.738281,-0.348145,0.31543,-17.593384,-36.239624,-2.548218
0.713379,-0.364258,0.324219,-17.14325,-26.985167,-2.433777
0.730225,-0.379395,0.325684,-14.961242,-18.424988,-1.319885
0.781006,-0.365234,0.309814,-11.268615,-15.899657,-0.1297
0.790039,-0.356934,0.295898,-6.980896,-19.523621,0.976562
0.769043,-0.352783,0.284912,-4.463196,-21.224974,1.274109
0.775635,-0.354004,0.28833,-2.510071,-20.355223,2.441406
0.790283,-0.346191,0.284668,-1.502991,-20.286558,2.319336
0.780518,-0.352539,0.287354,-0.198364,-19.439697,2.830505
0.787598,-0.352539,0.292969,0.030518,-16.586304,2.342224
0.817627,-0.348389,0.312744,0.404358,-15.838622,1.983642
0.820313,-0.339844,0.343262,0.991821,-18.737793,2.815246
0.761963,-0.333008,0.347412,0.946045,-24.627684,2.89917
0.767822,-0.327393,0.338867,0.320435,-25.756834,0.411987
0.824219,-0.325928,0.339355,0.976562,-29.785154,-0.648498
0.82251,-0.337402,0.33252,3.27301,-38.658142,0.953674
0.810303,-0.337158,0.320801,4.585266,-43.891903,0.785828
0.844238,-0.325439,0.321533,3.051758,-41.16058,-0.953674
0.863037,-0.321777,0.329834,1.251221,-39.665222,-0.671387
0.826172,-0.32666,0.330322,-0.38147,-36.323547,0.915527
0.844238,-0.336426,0.327881,-0.808716,-32.279968,2.349854
0.847412,-0.339844,0.294189,-0.328064,-36.209106,1.838684
0.827148,-0.371094,0.250488,1.335144,-40.367123,1.647949
0.835449,-0.391357,0.248779,2.418518,-34.080505,4.615784
0.861084,-0.396484,0.326904,2.006531,-22.811888,8.613586
0.895264,-0.376953,0.374023,-0.015259,-19.142151,10.169982
0.871582,-0.36084,0.265137,1.396179,-43.121334,5.142211
0.797607,-0.363525,0.2229,0.572205,-44.364925,6.446838
0.868896,-0.37085,0.239014,-0.473022,-42.259212,7.873535
0.893066,-0.382324,0.243896,-0.534058,-50.773617,10.795592
0.80542,-0.39209,0.217773,-0.526428,-63.613888,11.634826
0.770996,-0.388428,0.185547,-3.723144,-63.652035,6.629943
0.825928,-0.391602,0.162109,-6.301879,-54.985043,2.738952
0.839355,-0.392822,0.147949,-5.500793,-46.386715,4.402161
0.822266,-0.391357,0.140137,-4.646301,-34.355164,6.187438
0.860352,-0.384277,0.138672,-4.188538,-22.994993,7.133483
0.843018,-0.376221,0.116699,-3.738403,-21.957396,5.828857
0.790039,-0.379395,0.109131,-3.112793,-24.131773,3.715515
0.755127,-0.369141,0.109863,-2.975464,-25.131224,1.327515
0.752686,-0.381836,0.122803,-1.747131,-24.246214,-0.083923
0.775391,-0.393799,0.126953,0.87738,-21.39282,-1.296997
0.796631,-0.401123,0.101074,4.417419,-19.386292,-3.349304
0.803467,-0.415283,0.072266,9.223938,-13.946532,-4.043579
0.749268,-0.419922,0.077637,13.72528,1.983642,-2.075195
0.738281,-0.389893,0.174316,14.968871,32.073975,-4.562378
0.783447,-0.396484,0.254395,16.105652,51.559444,-8.171082
0.759766,-0.382324,0.285889,18.882751,59.715267,-5.279541
0.680908,-0.338623,0.297363,19.767761,70.159912,-6.813049
0.73999,-0.275635,0.231445,18.753052,77.445984,-16.983032
0.870361,-0.161133,0.09082,18.081665,57.678219,-37.078857
0.973877,-0.2854,0.034424,34.965515,23.834227,-33.721924
0.758789,-0.388428,0.054443,55.557247,-13.572692,2.037048
0.455078,-0.428467,0.104004,56.678768,-6.752014,5.523681
0.542725,-0.296631,-0.011719,51.61285,35.163879,-17.166138
0.812256,-0.224121,0.076904,61.729427,59.913631,-31.761168
0.852783,-0.354736,0.241699,66.192627,86.204521,-25.642393
0.747803,-0.502686,0.319824,44.601437,136.367798,-17.578125
0.802734,-0.639893,0.473145,10.787963,174.873337,-13.542174
0.668945,-0.375488,0.202393,-70.625305,193.870529,-26.779173
1.017334,-0.125488,0.120605,-73.83728,161.010727,-45.433041
0.825195,-0.172119,0.112549,-17.105103,112.80822,-4.432678
0.619385,-0.12085,0.316162,46.623226,116.218559,17.295837
0.748291,-0.22876,0.740234,90.591423,129.79126,26.252745
0.881836,-0.344727,0.760254,93.704216,122.322075,20.065308
0.854248,-0.488525,0.745361,80.085754,93.963615,26.473997
0.641602,-0.571777,0.802246,38.734436,81.863396,41.679379
0.592773,-0.472656,0.69165,-14.213561,86.47155,30.509947
0.783447,-0.307373,0.575195,-17.936707,81.29882,20.706175
0.958984,-0.32666,0.608154,3.669739,79.528809,38.909912
0.907471,-0.461914,0.588135,-0.823975,47.897335,50.903316
0.871094,-0.382324,0.59375,-21.408079,32.814026,43.273922
0.829102,-0.3479,0.491943,-2.601623,30.754087,39.573669
0.838867,-0.43042,0.572021,0.328064,28.45001,42.633053
0.758789,-0.414795,0.517334,-12.252807,32.455444,41.03088
0.74585,-0.387451,0.523438,-11.566161,38.05542,38.703918
0.768799,-0.347656,0.495361,-5.386352,43.594357,36.270142
0.828613,-0.324707,0.516113,11.123656,32.928467,32.653809
0.84082,-0.366211,0.595703,25.955198,13.137816,33.073425
0.838135,-0.468994,0.625732,24.261473,-8.31604,36.407471
0.899414,-0.716064,0.79248,-37.269592,-50.86517,40.855404
0.735107,-0.467041,0.575928,-113.037102,-62.484737,39.413452
0.796143,-0.193604,0.411377,-78.773499,-71.44165,37.818909
1.0354,-0.214355,0.462402,-37.597656,-115.356438,45.669552
1.046875,-0.31543,0.538574,-18.608093,-175.224289,62.477108
0.780273,-0.358643,0.561279,-8.903503,-212.120041,70.137024
0.617432,-0.366455,0.45459,-1.907349,-208.900436,61.080929
0.729248,-0.371094,0.378174,8.460999,-196.166977,51.62048
0.779785,-0.401123,0.420654,9.597778,-176.46788,49.644466
0.811768,-0.425049,0.385498,9.70459,-153.862,50.369259
0.749512,-0.392334,0.405518,4.837036,-122.581474,53.894039
0.681396,-0.352783,0.401123,14.877318,-73.013306,51.902767
0.69873,-0.489258,0.434814,33.477783,-31.60095,59.066769
0.701904,-0.618408,0.452148,23.803709,-17.974854,69.671631
0.57251,-0.611328,0.548584,5.043029,-18.64624,73.0896
0.343018,-0.545654,0.520996,-14.923095,7.720947,64.628601
0.566895,-0.471436,0.285889,-26.840208,29.350279,47.683712
0.664307,-0.498779,0.336426,-28.266905,-24.993895,38.505554
0.477051,-0.580811,0.336426,-34.057617,-65.475464,28.251646
0.551025,-0.544678,0.291992,-40.39764,-64.750671,21.453856
0.600586,-0.497314,0.241943,-40.626522,-47.164913,18.531799
0.609863,-0.493408,0.199951,-34.996033,-23.384092,15.388488
0.585938,-0.548584,0.18457,-27.19116,-6.17218,10.437011
0.560547,-0.584473,0.170654,-24.032591,7.240295,5.180358
0.532715,-0.572266,0.174805,-22.605894,19.851685,-1.602173
0.428711,-0.531982,0.204102,-18.90564,41.198727,-6.706237
0.462646,-0.584229,0.252686,-7.774353,68.183899,-16.38031
0.548828,-0.625977,0.314697,-2.39563,84.83886,-6.896972
0.5896,-0.556396,0.308105,-0.152588,81.237785,-8.995056
0.587646,-0.540283,0.299805,6.385803,72.425842,-12.08496
0.597168,-0.54126,0.29248,12.687682,71.418762,-12.359618
0.639404,-0.539551,0.318848,15.693664,65.200806,-13.710021
0.702637,-0.550781,0.363281,16.51001,48.637386,-15.129088
0.773682,-0.52417,0.385254,14.297484,12.847899,-16.517639
0.793701,-0.512451,0.410156,13.96942,-22.003172,-19.309998
0.822998,-0.493164,0.407227,11.856078,-36.643982,-18.798828
0.802246,-0.480225,0.362305,9.300232,-33.843994,-17.38739
0.786133,-0.509033,0.339355,8.903503,-33.950806,-14.60266
0.756592,-0.532227,0.335938,8.598328,-37.269592,-11.024474
0.73291,-0.549561,0.341797,9.498596,-34.347534,-7.827758
0.751221,-0.589355,0.334961,10.69641,-31.036375,-2.960205
0.774414,-0.608154,0.32373,8.842468,-36.987305,0.442505
0.706543,-0.592773,0.334229,3.90625,-45.394894,2.052307
0.679688,-0.531006,0.310791,-2.624511,-48.988338,-1.777649
0.713867,-0.510986,0.284424,-2.571106,-42.686459,-5.28717
0.740479,-0.50415,0.257813,-0.045776,-27.519224,-3.814697
0.746826,-0.520264,0.254883,5.096435,-8.468628,-1.419067
0.75,-0.550293,0.262207,10.459899,8.224487,1.533508
0.726318,-0.559082,0.26709,13.145446,12.535094,3.784179
0.687744,-0.553711,0.287842,14.808654,8.888245,5.508422
0.669678,-0.536377,0.286377,15.274047,5.706787,6.370544
0.691406,-0.529053,0.280518,15.922545,3.829956,5.386352
0.675293,-0.536621,0.311768,16.654968,7.415771,4.096985
0.655762,-0.528809,0.336914,15.724181,19.096375,1.426697
0.65918,-0.543457,0.381836,15.830993,32.844543,1.678467
0.648438,-0.495117,0.398926,10.688781,43.159481,0.923157
0.688721,-0.466797,0.374268,6.950378,41.473385,-2.815246
0.747314,-0.483643,0.334717,5.393981,19.081116,-6.256103
0.748535,-0.494629,0.287842,3.837585,-18.470764,-8.117676
0.648682,-0.508057,0.286133,5.752563,-38.040161,-6.706237
0.647949,-0.506836,0.312744,6.92749,-29.304502,-6.805419
0.642334,-0.515869,0.35083,3.860473,-12.779235,-9.315491
0.67749,-0.517578,0.330566,-0.175476,-4.722595,-9.712219
0.721191,-0.491455,0.326416,0.587463,-6.904602,-8.232117
0.740967,-0.486816,0.32666,3.952026,2.235413,-4.753113
0.760254,-0.508057,0.321045,6.614685,12.680053,-0.961304
0.757813,-0.536865,0.306885,6.41632,15.808105,-1.25885
0.78418,-0.533447,0.268555,5.332946,8.735657,-5.195617
0.781494,-0.524658,0.262451,5.310058,-1.953125,-9.101868
0.771973,-0.541504,0.281494,6.66809,-2.319336,-8.926392
0.753906,-0.522949,0.292725,5.340576,-1.937866,-6.256103
0.731201,-0.500977,0.289063,2.098083,-7.537841,-7.003784
0.693604,-0.523926,0.297607,-0.350952,-15.2359,-7.789611
0.628906,-0.541016,0.293457,-3.440857,-24.627684,-6.660461
0.638916,-0.515869,0.29541,-5.424499,-33.340454,-7.217407
0.697021,-0.518555,0.298096,-4.760742,-35.385132,-8.781433
0.774902,-0.500244,0.300293,-4.219055,-39.93988,-10.650634
0.762939,-0.511475,0.298584,-4.875183,-51.467892,-16.494751
0.73999,-0.520752,0.295654,0.511169,-46.920773,-13.946532
0.739746,-0.486816,0.303223,1.266479,-31.066893,-13.084411
0.725586,-0.518555,0.31958,1.63269,-22.880552,-13.397216
0.660156,-0.508789,0.314697,-0.366211,-27.938841,-13.633727
0.67627,-0.501465,0.293945,0.152588,-26.672361,-16.50238
0.720215,-0.523926,0.289551,4.508972,-21.484373,-12.557982
0.716797,-0.534912,0.299316,8.102417,-21.209715,-9.017944
0.710205,-0.554443,0.321777,8.857727,-24.696348,-10.108947
0.644287,-0.549072,0.334473,5.935668,-28.381346,-10.269164
0.684082,-0.490723,0.317627,2.906799,-28.686522,-11.878966
0.790039,-0.47876,0.304443,4.341125,-26.489256,-12.504577
0.844482,-0.484619,0.272217,4.226685,-28.083799,-10.421752
0.856689,-0.467529,0.224609,2.960205,-37.811279,-11.901855
0.84668,-0.474121,0.18457,3.730774,-46.302792,-14.762877
0.842285,-0.493408,0.139893,6.996154,-47.302242,-14.045714
0.784912,-0.497559,0.132813,11.222838,-33.988953,-10.612487
0.817627,-0.525391,0.098633,16.189575,-0.801086,-7.247924
0.881104,-0.531738,0.077148,21.621702,11.657714,-1.068115
0.842773,-0.561035,0.185059,30.2124,-3.784179,5.180358
0.748779,-0.543213,0.189697,22.78137,-10.559081,6.072998
0.766846,-0.500488,0.222168,16.532898,-16.624451,2.380371
0.616211,-0.490967,0.316162,10.154723,-9.490967,0.595093
0.556641,-0.472656,0.310547,4.425049,7.5531,-4.516602
0.545166,-0.472656,0.354004,6.362915,25.093077,-2.586365
0.687256,-0.443604,0.346924,-0.25177,29.090879,-8.583069
0.816162,-0.531738,0.43042,4.219055,0.900268,-0.007629
0.734619,-0.399658,0.363525,-16.403198,-40.809628,-1.12915
0.79248,-0.350342,0.292725,-14.09912,-63.629147,-21.354673
0.763916,-0.348145,0.291016,-12.611388,-72.425842,-20.652769
0.669678,-0.356445,0.270996,-12.168883,-62.171932,-21.194456
0.737061,-0.357666,0.250977,-11.100768,-44.68536,-20.942686
0.991455,-0.344238,0.219971,-5.111694,-41.465755,-14.816283
0.997314,-0.377197,0.211426,5.928039,-65.063477,0.213623
0.887939,-0.435303,0.21875,11.657714,-89.324944,5.119323
0.886719,-0.481934,0.250488,7.308959,-106.521599,1.029968
0.873779,-0.505127,0.210449,-0.595093,-124.755852,-1.76239
0.882568,-0.499023,0.169678,-6.767272,-137.962341,-1.144409
0.883545,-0.478516,0.105225,-13.275146,-136.451721,-1.411438
0.895264,-0.493896,0.025879,-13.946532,-123.725883,0.831604
0.901611,-0.528564,-0.039551,-12.283324,-108.932487,7.720947
0.911133,-0.539063,-0.108643,-11.611938,-94.90966,14.266967
0.892578,-0.560303,-0.057861,-5.462646,-80.047607,18.974304
0.731934,-0.614746,0.134033,-1.243591,-60.951229,19.523621
0.629883,-0.584473,0.204102,-7.156372,-49.385067,14.572143
0.717773,-0.517334,0.192871,-10.246276,-48.034664,9.69696
0.800781,-0.498779,0.161621,-11.146544,-56.983944,9.841919
0.772949,-0.485352,0.083496,-12.916564,-73.303223,12.603759
0.702637,-0.456787,-0.009521,-16.822815,-83.793633,10.673522
0.664307,-0.448975,-0.074219,-20.591734,-85.121147,6.111145
0.658203,-0.461182,-0.111816,-25.161741,-84.625237,1.548767
0.673584,-0.453857,-0.152832,-28.167723,-80.062866,-2.853393
0.723877,-0.450928,-0.176514,-23.345945,-68.656921,-4.631042
0.712402,-0.472412,-0.180664,-12.580871,-52.299496,-2.380371
0.66748,-0.479004,-0.190918,-1.38092,-28.648375,-0.022888
0.668945,-0.468506,-0.224121,6.446838,1.243591,-2.525329
0.694336,-0.463623,-0.218506,12.855529,28.95355,-6.790161
0.731201,-0.459961,-0.14209,15.899657,49.949642,-12.306212
0.741211,-0.448242,-0.005859,16.75415,61.050411,-18.989563
0.659912,-0.446777,0.100586,17.066956,67.749023,-23.361204
0.666504,-0.409912,0.050781,7.446289,75.485229,-30.319212
0.791504,-0.403809,-0.014404,-1.304626,60.752865,-31.631468
0.787109,-0.400879,-0.046387,-5.447387,40.565487,-25.726316
0.794434,-0.360352,-0.057861,-9.719849,32.592773,-20.210264
0.800049,-0.33252,-0.043701,-11.734008,33.866882,-17.814636
0.844238,-0.365234,-0.002441,-12.435912,30.647276,-20.13397
0.843994,-0.43042,0.087158,-11.306762,22.171019,-21.797178
0.86084,-0.476807,0.114502,-10.932921,13.153075,-23.994444
0.901855,-0.49707,0.074707,-11.917113,-3.440857,-21.301268
0.897949,-0.478027,0.009033,-17.76886,-21.545408,-18.814087
0.833984,-0.436523,-0.054443,-22.186277,-30.3421,-20.118711
0.79834,-0.402344,-0.132568,-19.180298,-19.729614,-19.470215
1.044678,-0.425293,-0.166504,-12.054442,-20.812986,-11.665343
1.205566,-0.472656,-0.115234,-8.293152,-48.71368,4.203796
1.023926,-0.498535,-0.006836,-11.734008,-81.993095,14.518737
0.796875,-0.499756,0.02417,-16.25824,-103.309624,14.831542
0.5896,-0.437744,-0.025879,-20.950315,-94.40612,8.750916
0.517334,-0.365723,-0.122314,-19.691467,-53.474422,-4.203796
0.717773,-0.407471,-0.173584,-13.107299,-8.81958,-9.513855
0.86084,-0.496338,-0.15918,-12.893676,13.832091,-6.095886
0.788574,-0.494629,-0.157227,-20.271299,23.468016,-2.952575
0.687988,-0.44043,-0.16626,-24.841307,41.633602,-3.829956
0.622314,-0.406006,-0.166748,-20.774839,79.742432,-6.835937
0.661865,-0.414795,-0.150635,-3.288269,121.978752,-10.681151
0.814209,-0.518066,-0.092529,12.359618,139.533997,-12.115478
0.991455,-0.608887,0.009277,4.356384,115.798943,-12.33673
0.960938,-0.557129,0.01001,-19.058228,74.241638,-15.129088
0.809082,-0.402344,-0.038086,-36.628723,44.441219,-23.223875
0.784424,-0.294189,-0.080322,-37.437439,24.734495,-28.861998
0.928223,-0.282959,-0.072998,-23.056028,5.332946,-26.31378
1.154297,-0.319336,-0.046631,-3.14331,-33.51593,-10.902404
1.254639,-0.380859,-0.0354,15.350341,-89.637749,9.590149
1.277344,-0.445801,0.018799,37.30011,-155.670166,31.295774
1.02417,-0.522705,0.108887,55.984493,-207.328781,52.154537
0.573242,-0.54541,0.114014,62.07275,-206.306442,52.940365
0.443848,-0.449463,-0.001465,66.337585,-158.416748,37.017822
0.755859,-0.298828,-0.102783,60.401913,-119.48394,24.063108
0.854248,-0.281982,-0.127686,41.091915,-105.49926,26.374815
0.797119,-0.220215,-0.200684,-12.397765,-108.3908,12.496947
0.668457,-0.259766,-0.261719,-31.623838,-85.807793,-3.738403
0.561523,-0.408936,-0.241943,-12.527465,-39.56604,-6.134033
0.546387,-0.498291,-0.185303,5.477905,3.90625,-15.197753
0.567383,-0.562012,-0.167969,21.415709,17.951965,-21.621702
0.571045,-0.567139,-0.213135,27.000425,18.890381,-25.314329
0.572021,-0.481689,-0.244873,22.65167,30.319212,-29.502867
0.55835,-0.409668,-0.262695,18.363953,50.582882,-43.220516
0.590576,-0.376953,-0.314453,18.554688,79.360962,-59.234615
0.706543,-0.43457,-0.205322,35.591125,113.571159,-51.49078
0.616699,-0.523682,-0.01416,45.974728,160.02655,-17.066956
0.270264,-0.479492,-0.121094,46.897884,206.71843,1.869202
0.379883,-0.318115,-0.106934,56.78558,248.786911,-54.817196
0.85376,-0.285889,-0.062744,49.995419,249.992355,-89.027397
1.101563,-0.265625,-0.003906,10.833739,248.329147,-61.31744
1.191895,-0.248047,0.124023,-13.71765,229.309067,-25.451658
1.240479,-0.282227,0.240723,-21.812437,186.973557,-0.831604
1.2854,-0.310547,0.272949,-20.179747,125.274651,12.138366
1.3396,-0.355225,0.280518,-9.33075,45.097347,17.623901
1.363037,-0.408691,0.305664,-2.723694,-47.554012,26.397703
1.182129,-0.453125,0.408447,-3.120422,-136.276245,35.919189
1.150635,-0.520508,0.335693,-8.758545,-211.189255,45.234676
1.428955,-0.565918,0.450684,-32.287598,-249.992355,62.652584
0.973877,-0.532959,0.344727,-48.553463,-249.992355,69.549561
0.34375,-0.366211,0.061768,-51.712032,-249.061569,53.672787
0.30127,-0.234863,-0.085449,-48.629757,-249.992355,42.831417
0.594482,-0.343262,-0.150879,-41.252132,-227.363571,42.259212
0.717285,-0.459961,-0.217773,-49.369808,-181.518539,45.776363
0.69751,-0.469971,-0.28833,-56.358334,-143.203735,48.309322
0.713135,-0.484375,-0.338135,-51.063534,-102.47802,48.767086
0.689941,-0.501953,-0.343506,-38.665771,-66.192627,47.401424
0.622559,-0.493164,-0.315186,-28.320311,-29.327391,42.297359
0.636963,-0.495605,-0.334961,-18.661499,4.005432,34.828186
0.606689,-0.539063,-0.258545,-2.372742,12.062072,37.788391
0.471191,-0.534668,-0.229492,7.789611,23.941038,31.837461
0.501953,-0.516846,-0.249512,13.763427,36.560059,14.976501
0.538086,-0.489014,-0.260254,19.309998,40.100098,-1.403808
0.44165,-0.483887,-0.28418,29.731749,33.004761,-10.963439
0.42627,-0.45752,-0.315918,40.832516,40.016174,-19.882202
0.474121,-0.428223,-0.385742,50.659176,61.56921,-31.692503
0.563477,-0.388916,-0.37085,54.51202,80.307007,-44.097897
0.540039,-0.343262,-0.2771,32.333374,104.99572,-69.061279
0.613525,-0.262939,-0.412598,10.650634,118.400566,-114.150993
0.540771,-0.41333,-0.24292,74.409485,152.946472,-91.75872
0.586182,-0.401123,-0.169678,81.748955,194.267258,-76.805115
0.672119,-0.291504,-0.142578,65.795898,218.605026,-92.26989
0.737549,-0.302979,-0.031738,59.791561,224.014267,-97.145073
0.778564,-0.341553,0.06958,52.154537,214.843735,-98.335258
0.817383,-0.325439,0.111328,41.267391,195.732101,-102.035515
0.917969,-0.328125,0.061768,40.27557,162.826523,-102.149956
0.866211,-0.432617,0.342773,6.66809,137.573242,-88.966362
1.010986,-0.022705,0.020508,-60.867306,119.209282,-122.817986
1.125244,-0.018555,0.104492,31.09741,70.56427,-90.187065
0.945557,-0.330811,0.370605,71.472168,40.306087,-42.16003
0.78833,-0.37207,0.430176,36.781311,36.834717,-52.902218
0.78418,-0.212402,0.406982,14.183043,46.150204,-71.929932
0.852295,-0.168457,0.396729,20.774839,56.03027,-70.594788
0.908691,-0.227295,0.37793,25.505064,54.946896,-63.270565
0.933594,-0.256348,0.313721,18.188477,42.083736,-60.356136
0.95752,-0.250977,0.253906,11.642455,26.290892,-57.899471
0.965576,-0.245605,0.246338,10.375976,14.022826,-52.032467
0.966309,-0.259033,0.259766,9.841919,7.141113,-47.225948
0.932861,-0.270508,0.259521,6.965637,6.515502,-45.173641
0.891846,-0.266602,0.244385,3.39508,11.993407,-44.471737
0.877197,-0.249756,0.250977,0.831604,25.093077,-42.892452
0.892334,-0.217529,0.265137,0.701904,45.3186,-41.076656
0.89624,-0.193359,0.330566,3.27301,65.887451,-43.533321
0.881592,-0.188721,0.412598,3.662109,74.768066,-49.911495
0.873291,-0.162354,0.404053,-3.814697,72.227478,-55.236813
0.895264,-0.125488,0.336914,-15.022277,68.107605,-57.91473
0.919678,-0.055176,0.236816,-23.864744,71.70105,-56.541439
0.691162,0.015625,0.002197,-27.832029,113.838188,-38.894653
0.792969,-0.180908,-0.022217,-17.745972,166.374191,-25.604246
1.307617,-0.19043,0.183105,-13.09204,99.44915,-45.272823
1.03125,-0.124268,0.192871,0.656128,31.639097,-57.876583
0.64624,-0.031006,0.121094,3.425598,-7.354736,-53.37524
0.494385,0.019043,0.207275,12.20703,-5.462646,-61.470028
0.442627,0.033447,0.280029,17.76886,17.982483,-75.202942
0.50708,0.170166,0.338623,12.374877,35.484314,-91.484062
0.553467,0.251221,0.410645,5.233764,51.841732,-102.615349
0.605957,0.302002,0.382813,-4.776001,69.221497,-113.69323
0.669678,0.34082,0.367432,-6.568908,112.266533,-111.434929
0.834473,0.254883,0.38623,0.25177,144.607544,-108.932487
0.886475,0.246826,0.409424,2.120972,139.99176,-111.808769
0.682617,0.2771,0.505615,2.853393,125.190727,-119.140617
0.572754,0.30127,0.590576,7.629394,128.372192,-124.046318
0.577393,0.355469,0.640869,7.507324,127.143852,-124.725334
0.553711,0.398926,0.698486,5.104064,113.067619,-124.870293
0.544189,0.431641,0.697754,3.90625,106.895439,-125.610344
0.694824,0.442383,0.641113,4.364014,102.424614,-122.497551
0.667236,0.396484,0.615479,3.677368,79.566956,-118.972771
0.536865,0.405029,0.645996,-10.139464,72.776794,-125.846855
0.60376,0.494629,0.604736,-16.365051,80.070496,-141.799927
0.558838,0.275391,0.710938,8.277893,77.178955,-128.616333
0.546875,0.274902,0.741455,0.434875,77.949524,-134.788513
0.626709,0.306641,0.64917,0.450134,108.26873,-143.821716
0.912598,0.278809,0.589844,8.583069,131.004333,-139.137268
1.007813,0.232666,0.623047,20.080564,122.299187,-135.787964
0.878174,0.353271,0.629395,12.474059,107.238762,-131.17218
0.76123,0.331055,0.75708,10.2005,93.612663,-122.108452
0.775635,0.311035,0.907715,13.359069,76.271057,-119.842522
0.786377,0.349609,0.916748,11.604308,57.243343,-118.965141
0.835693,0.347412,0.852783,3.929138,42.823788,-117.050163
0.906738,0.363037,0.71167,0.740051,24.681089,-115.234367
0.887939,0.359619,0.658691,0.518799,6.324768,-107.070915
0.838379,0.439453,0.67749,-0.038147,8.239746,-102.737419
0.824463,0.42749,0.73291,9.155273,31.036375,-96.542351
0.692383,0.429688,0.880859,11.764525,27.229307,-95.260612
0.528564,0.399902,0.9729,14.389037,22.674559,-104.713432
0.572998,0.404297,0.994629,6.553649,10.505675,-108.833305
0.609619,0.474854,1.0,-5.859375,-16.876221,-113.006584
0.560547,0.525146,1.019043,-16.960144,-47.653194,-112.564079
0.323486,0.534668,0.92627,-18.295288,-11.299132,-114.265434
0.678955,0.536377,0.789551,-11.421203,56.808468,-103.546135
0.862305,0.495605,0.792969,-7.583618,82.267754,-87.966911
0.734131,0.483398,0.871338,-8.995056,85.708611,-84.70916
0.752441,0.465088,0.873291,-11.024474,98.075859,-89.363091
0.797607,0.503906,0.800537,-18.058777,103.652946,-91.835014
0.891357,0.533447,0.725342,-21.759031,108.619682,-93.414299
0.911865,0.526367,0.72876,-22.40753,109.619133,-82.656853
1.032471,0.515869,0.758301,-19.775391,95.619194,-78.895569
1.001465,0.469971,0.758301,-17.059326,60.447689,-69.023132
0.875977,0.452637,0.676514,-18.943787,15.35797,-54.176327
0.825195,0.413086,0.599365,-19.416809,-22.90344,-38.917542
0.804443,0.368408,0.593506,-21.171568,-51.658627,-30.387877
0.712646,0.342529,0.506348,-25.794981,-74.920654,-26.542662
0.645996,0.281006,0.353271,-28.480528,-84.899895,-27.153013
0.62207,0.236328,0.261475,-31.196592,-80.734245,-27.709959
0.589844,0.247803,0.268311,-39.016724,-68.29071,-20.561216
0.533936,0.220215,0.362305,-45.043941,-58.364864,-11.32965
0.522217,0.236328,0.433838,-51.689144,-47.653194,-11.444091
0.560547,0.189697,0.501465,-47.821041,-34.202576,-15.281676
0.580811,0.13916,0.560547,-34.40094,-31.867979,-31.753538
0.640625,0.306396,0.637451,-26.840208,-29.891966,-57.868954
0.681396,0.558838,0.85791,-50.86517,-21.537779,-20.095823
0.19165,0.609131,0.547852,-54.237362,-40.969845,11.573791
0.411377,0.641113,0.740967,12.908935,-23.147581,34.248352
0.859131,0.638672,0.872803,66.307068,-113.922112,60.447689
0.195068,0.543213,1.094238,83.908073,-158.042908,67.91687
0.290771,0.682861,1.115234,62.255856,-130.523682,46.82922
0.470215,0.756592,1.109375,51.933285,-101.333611,45.799252
0.401367,0.74292,1.073242,43.502804,-87.379448,41.16058
0.32251,0.739258,1.045898,22.331236,-82.145683,40.496822
0.304443,0.804199,0.974121,-2.655029,-68.489075,36.094666
0.343506,0.875488,0.829346,-19.508362,-43.533321,28.213499
0.40332,0.876221,0.682129,-24.093626,-13.771056,18.333435
0.444336,0.864502,0.607422,-18.920898,6.378173,7.80487
0.429688,0.839355,0.55127,-9.254456,20.03479,2.525329
0.404297,0.730469,0.607422,-7.369995,28.388975,-0.091553
0.331543,0.704834,0.685059,-12.977599,39.611816,-10.726928
0.270264,0.650146,0.777832,-17.181396,45.532223,-15.983581
0.240479,0.58667,0.863525,-21.972654,46.615597,-26.336668
0.247803,0.605713,0.870605,-28.053282,52.093502,-32.493591
0.340332,0.645508,0.797852,-36.972046,54.306026,-38.391113
0.481934,0.646973,0.78833,-37.80365,18.39447,-44.31152
0.356201,0.56958,0.875244,-31.921385,-37.948608,-48.789974
0.195313,0.522705,0.898193,-19.699097,-55.938717,-53.939816
0.231201,0.570068,0.805176,3.997802,-39.382935,-52.795406
0.340088,0.461182,0.701172,32.524109,-18.676758,-39.176941
0.429443,0.282959,0.678223,10.19287,-10.597228,-31.082151
0.421143,0.381348,0.622559,-38.154602,5.752563,-34.690857
0.508789,0.455566,0.613281,-54.733273,15.640258,-32.478333
0.612305,0.433838,0.648926,-52.291866,3.791809,-33.843994
0.585205,0.451172,0.589844,-54.336544,-15.892028,-36.300659
0.478516,0.523926,0.531006,-64.193726,-22.857664,-31.959532
0.422119,0.555908,0.580322,-62.614437,-17.425537,-22.918699
0.330811,0.527832,0.628906,-57.563778,-3.555298,-13.97705
0.331543,0.487305,0.661133,-45.745846,17.074585,-7.263183
0.388428,0.436035,0.692383,-29.96063,32.348633,-3.982544
0.421143,0.458984,0.741943,-23.262022,39.329529,-4.325867
0.246094,0.832031,0.609619,-11.062621,66.047668,-11.909484
0.342773,0.49292,0.645752,58.120724,111.412041,6.126403
0.561035,0.191162,0.878418,30.708311,86.34185,3.662109
0.328369,0.466309,0.933594,-11.917113,50.468441,-11.436461
0.259766,0.623535,0.868408,-3.707886,40.855404,-16.616821
0.466553,0.503662,0.830811,21.118162,23.635862,-18.196106
0.512939,0.47998,0.851563,24.04022,2.525329,-24.04022
0.494873,0.533447,0.843018,14.22119,9.925842,-32.287598
0.520264,0.546143,0.794189,4.600525,27.252195,-37.155151
0.477539,0.5,0.792969,0.015259,37.063599,-37.521362
0.420654,0.456299,0.853027,-6.958007,38.963318,-38.002014
0.505371,0.486816,0.912598,-20.256041,37.078857,-36.300659
0.647461,0.568848,0.899414,-28.648375,31.73065,-33.905029
0.767822,0.590576,0.84082,-27.793882,21.659849,-29.235838
0.792236,0.567139,0.751709,-27.076719,3.356933,-22.483824
0.661621,0.530762,0.73999,-19.798279,-16.769409,-17.875671
0.517578,0.490967,0.771729,-12.863158,-29.418943,-12.405395
0.463867,0.448486,0.811768,-7.995605,-36.903381,-5.836486
0.477783,0.367188,0.800537,-2.799988,-44.670101,-1.625061
0.483398,0.269775,0.803955,3.39508,-49.125668,-2.761841
0.479248,0.25293,0.856689,4.02832,-52.12402,-10.19287
0.468506,0.355469,0.900146,-1.068115,-53.527828,-17.364502
0.489014,0.510498,0.99585,-5.432128,-56.28204,-18.241882
0.465332,0.557373,1.141113,-1.014709,-71.31958,-13.839721
0.448242,0.44458,1.219727,-1.045227,-82.389824,-5.973815
0.415527,0.270752,1.19043,-12.542724,-94.91729,-0.37384
0.644775,0.204834,1.056152,-39.703369,-138.015747,0.030518
0.596191,0.323486,0.872803,-75.637817,-203.659042,5.081176
0.306396,0.538574,0.750977,-98.144524,-231.529221,0.0
-0.435791,0.513428,0.135742,-83.70208,-126.754753,-9.109497
0.73999,0.469238,0.057129,-109.130852,-23.300169,17.25769
0.39502,0.678223,0.38208,-114.036552,-14.045714,11.276244
-0.013184,0.515381,0.70752,-59.242245,8.178711,-17.677307
0.223633,0.455322,0.844971,-43.830868,28.861998,-15.258788
0.280518,0.489502,0.775146,-42.396542,27.648924,-20.729063
0.280273,0.520508,0.660156,-34.065247,27.206419,-28.648375
0.39624,0.536133,0.67749,-19.439697,38.345337,-31.059263
0.34668,0.453369,0.773438,10.673522,62.69836,-39.054871
0.415771,0.367188,0.9104,19.042969,54.161068,-40.473934
0.370117,0.469727,0.802002,6.767272,48.96545,-41.038509
0.548828,0.55249,0.697021,0.534058,54.023739,-32.112122
0.60791,0.499512,0.625,7.514953,50.544735,-20.057678
0.699707,0.389893,0.67041,10.398864,38.642883,-9.95636
0.763184,0.312012,0.766602,-1.029968,11.95526,-3.326416
0.674316,0.335205,0.78418,-15.655517,-14.289855,-5.66101
0.626709,0.411377,0.783447,-25.009153,-22.422789,-3.952026
0.697266,0.389648,0.817871,-25.146482,-33.508301,0.099182
0.702637,0.349365,0.867188,-25.466917,-58.341976,1.808166
0.66748,0.336182,0.879395,-26.161192,-83.541862,1.747131
0.628662,0.338135,0.889893,-25.856016,-99.334709,2.02179
0.617188,0.332764,0.886475,-27.221678,-106.414787,2.838135
0.586426,0.345947,0.87085,-26.626585,-106.155388,1.853943
0.592773,0.386719,0.869873,-27.481077,-97.755424,2.670288
0.632568,0.423584,0.849854,-26.504515,-90.827934,4.180908
0.70459,0.458984,0.769287,-20.576475,-93.261711,1.045227
0.661865,0.470459,0.637939,-10.299682,-100.143425,-4.53186
0.563477,0.482422,0.531738,-9.719849,-88.600151,-2.502441
0.509033,0.5354,0.423828,-17.547607,-56.236263,12.580871
0.520508,0.498291,0.441895,-13.71765,-7.080078,27.740477
0.534424,0.326416,0.697754,-10.375976,44.113155,27.496336
0.458496,0.26416,0.815918,-41.671749,88.027946,14.289855
0.458252,0.391846,0.847168,-64.453125,102.043144,-10.131835
0.669434,0.616211,0.729492,-61.431881,80.032349,-27.275084
0.78833,0.736572,0.656006,-23.826597,24.093626,-21.064756
0.664795,0.55127,0.678467,21.781919,-36.03363,-11.161803
0.564941,0.273193,0.725098,43.785091,-83.816521,-28.32794
0.833984,0.227539,0.815918,56.983944,-184.677109,-63.278194
0.578857,0.298828,0.814697,49.987789,-249.992355,-59.768673
0.292725,0.560303,0.509521,15.792846,-240.188583,-58.685299
-0.343506,0.574707,-0.036621,13.435363,-128.639221,-54.38232
0.508301,0.210693,0.275146,-1.480102,78.788757,-82.672112
1.340332,0.315186,0.350342,3.829956,102.783195,-120.895378
1.189941,0.525391,1.332275,57.052608,58.845516,-133.758545
1.289795,0.972656,0.733643,-3.547668,-32.279968,-36.262512
0.888672,0.772949,0.653809,63.758846,-149.642944,-1.235962
0.481201,0.418457,0.723389,112.030022,-198.623642,7.064819
0.48584,0.454834,0.646729,106.285088,-206.230148,1.991272
0.502686,0.501953,0.568359,97.274773,-202.232346,14.274596
0.524658,0.493896,0.513184,89.37072,-190.887436,28.175352
0.644043,0.507324,0.543213,78.422546,-185.874924,36.270142
0.656494,0.569336,0.768311,73.013306,-195.510849,46.95129
0.529785,0.52002,0.936768,70.69397,-200.080856,70.167542
0.61499,0.376709,0.925537,67.184448,-205.512985,76.36261
0.770508,0.433838,0.774658,45.448299,-214.828476,68.687439
0.877441,0.59668,0.514893,19.317627,-212.028488,69.999695
1.059814,0.669922,0.436768,2.227783,-217.3004,76.255798
1.132568,0.653076,0.390137,-3.456115,-245.582565,79.246521
1.155518,0.672852,0.388672,-3.135681,-249.992355,84.922783
1.108643,0.686035,0.343018,0.106812,-249.702438,105.392448
1.052734,0.588867,0.300781,7.247924,-249.839767,119.880669
0.963135,0.479004,0.226563,10.627746,-249.992355,116.645805
1.183105,0.46167,0.423828,9.681702,-249.992355,112.29705
1.27124,0.478516,0.485596,-4.798889,-249.992355,164.550766
1.095703,0.22998,0.458496,31.036375,-249.992355,106.315605
1.024414,0.492432,-0.015625,88.851921,-249.992355,0.701904
0.887207,0.609863,0.099854,148.048401,-249.992355,36.224365
0.765869,0.433594,-0.303955,155.403137,-249.992355,69.602966
0.020996,0.280762,-0.557861,127.784721,-249.992355,85.372917
-0.428711,0.161621,-0.73877,76.698303,-249.992355,93.765251
-0.088135,0.077148,-0.93042,45.829769,-249.992355,67.848206
0.14624,0.05542,-1.064697,34.225464,-249.992355,36.758423
-0.027588,0.120605,-1.099121,20.935057,-249.992355,30.120848
-0.119629,0.125244,-1.033447,17.791748,-248.558029,38.215637
0.023682,0.062744,-0.96875,22.102354,-209.197983,38.467407
0.206299,0.056152,-0.906006,19.195557,-147.04895,34.484863
0.27832,0.125732,-0.867188,11.96289,-99.891655,35.942078
0.305176,0.199219,-0.811768,5.760192,-69.122314,43.327328
0.344727,0.239014,-0.75415,5.180358,-58.860775,48.637386
0.341309,0.239014,-0.710205,8.224487,-60.699459,49.377438
0.267578,0.212891,-0.688721,9.086609,-65.849304,48.400875
0.197754,0.193359,-0.675049,4.890442,-75.256348,46.340939
0.206787,0.19873,-0.654297,-2.14386,-88.73748,41.923519
0.25,0.224121,-0.603027,-9.773254,-102.371208,37.643433
0.239746,0.260986,-0.576172,-17.501831,-115.066521,38.040161
0.146484,0.294922,-0.586426,-22.872923,-129.02832,40.580746
0.046143,0.318848,-0.661621,-23.361204,-143.058777,40.000916
-0.015869,0.330078,-0.722168,-21.453856,-150.680542,37.261963
-0.061523,0.334717,-0.744629,-22.468565,-147.30835,37.17804
-0.074219,0.359375,-0.771973,-27.366636,-133.392334,40.473934
-0.139648,0.380615,-0.789063,-30.685423,-113.44146,44.448849
-0.270752,0.388184,-0.766357,-30.029295,-92.498772,45.661922
-0.556885,0.691406,-0.602539,-31.196592,-60.394283,31.143187
-0.894287,1.443848,-0.420166,34.179688,-28.427122,18.936157
-0.400391,-0.177002,-0.640625,105.62896,-46.165462,106.37664
-0.311035,-0.250488,-0.568604,13.580321,11.19995,104.62188
-0.222168,-0.063232,-0.613525,-73.051453,49.46899,67.817688
0.050537,-0.087646,-0.454834,-111.564629,38.627625,38.299561
-0.015869,0.014404,-0.511475,-152.328491,-55.755611,-32.836914
-0.294189,0.068359,-0.711914,-173.309311,-152.72522,-120.460503
-0.298828,0.153076,-0.803711,-154.808044,-185.523972,-177.619919
-0.484375,0.317627,-0.908203,-128.921509,-174.163803,-185.691818
-0.885986,0.426025,-0.974121,-117.820732,-145.751953,-161.827072
-0.765137,0.442383,-0.966064,-141.212463,-107.849113,-130.828857
-0.743896,0.387451,-0.849609,-180.00029,-50.308224,-89.157097
-0.885498,0.230713,-0.732422,-222.885117,20.942686,-55.992123
-0.617676,0.40625,-0.91626,-249.992355,98.838799,-15.319823
-0.476563,0.698486,-1.163086,-244.51445,183.39537,52.711483
-0.419189,0.915527,-1.174561,-199.340805,249.069199,116.065971
-0.539551,0.810791,-0.977051,-159.942627,249.992355,150.245667
-0.52002,0.910156,-0.907959,-127.830498,249.04631,130.203247
-0.249512,0.921875,-0.888672,-77.606201,249.519333,89.523308
-0.263428,0.778809,-0.892578,-35.293579,232.551559,63.865658
-0.306885,0.676514,-0.81958,-16.296387,199.928268,39.375305
-0.315918,0.693848,-0.752441,-14.190673,168.647751,10.879516
-0.346924,0.677246,-0.797363,-16.288757,145.271301,-10.57434
-0.40332,0.656494,-0.839111,-27.961729,164.474472,-13.885497
-0.394775,0.582031,-0.841553,-52.597042,207.351669,-7.949829
-0.349365,0.55249,-0.818848,-80.581657,244.148239,-3.379822
-0.308105,0.54126,-0.770752,-96.343987,249.992355,-8.132935
-0.316162,0.497314,-0.711914,-110.145561,249.755844,-20.03479
-0.280762,0.626953,-0.606201,-122.222893,249.80925,-37.04071
-0.182129,0.744141,-0.56665,-109.199516,249.992355,-39.94751
-0.087891,0.737305,-0.489502,-79.681396,249.992355,-27.542112
0.102783,0.67627,-0.369873,-61.286922,249.992355,-21.041868
0.545654,0.788574,-0.317139,-57.502743,249.992355,-29.747007
0.782227,0.809326,-0.289551,-33.615112,249.992355,-41.328426
0.929199,0.839844,-0.307617,3.166198,211.578354,-90.072624
0.976074,0.925781,-0.368164,20.240782,126.243584,-125.946037
0.616699,0.871582,-0.508057,10.681151,66.604614,-117.309563
0.428955,0.749268,-0.517822,-29.58679,24.444578,-124.580376
0.362305,0.860352,-0.476807,-69.046021,-3.64685,-130.66864
0.436279,0.956543,-0.673828,-58.944698,-47.286983,-115.760796
0.677734,0.819092,-1.020996,-5.714416,-173.141464,-112.960808
1.355225,0.592285,-0.897461,15.853881,-249.992355,-77.75116
0.656738,0.738281,-0.580322,15.624999,-249.992355,3.64685
-0.031982,0.771484,-0.45459,33.52356,-248.191818,69.847107
-0.225098,0.724609,-0.69751,30.288694,-249.992355,119.796745
0.128906,0.987549,-0.727783,74.478149,-249.992355,158.096313
-0.172852,0.954346,-0.275146,131.309509,-249.961838,214.309677
-0.697998,0.807373,-0.045166,116.096489,-249.992355,227.340683
-0.795166,0.978516,-0.266602,42.701717,-202.751144,169.372543
-0.5,1.191162,-0.577393,17.028809,-102.691643,108.177177
-0.229004,1.140869,-0.772949,90.545647,-50.041195,94.024651
-0.218994,0.835938,-0.583496,190.605148,-14.61029,91.056816
0.002197,0.562012,-0.293701,213.165268,-1.159668,86.883537
0.217285,0.689697,-0.521729,148.704529,-8.735657,77.926636
0.077881,0.374268,-0.558838,127.79998,-53.108212,85.273735
-0.025146,0.075684,-0.590332,87.921135,-92.620842,170.051559
0.196777,0.228271,-0.705078,15.3656,-111.076347,194.595322
0.07959,0.252441,-0.742432,-16.815186,-117.980949,235.473618
-0.320801,0.564697,-0.622803,-13.015746,-133.338928,240.135178
-0.336914,0.498047,-0.620117,-46.714779,-168.724045,83.038322
-0.063721,0.432129,-0.704834,-102.279655,-151.2146,-34.309387
-0.212158,-0.241699,-0.747803,-144.424438,-86.616508,-90.438835
-0.356201,-0.255859,-0.350342,-231.903061,-11.024474,-246.162399
-0.762451,0.806641,-0.230713,-249.992355,-24.787901,-249.992355
-0.628418,1.449463,-0.452393,-249.191269,-23.368834,-247.322067
-0.245117,1.844727,-0.713135,-223.762497,22.682188,-217.80394
-0.194092,1.862549,-0.809814,-115.875237,91.629021,-108.413689
0.212158,1.88501,-0.521484,15.563964,149.932861,-84.083549
0.719482,0.694824,0.277588,126.396172,138.687134,-168.983444
-0.591064,-0.466553,0.062988,104.850761,2.586365,-220.260605
-0.085693,0.539063,-0.86792,42.480465,-121.887199,-208.106979
-0.290283,1.044189,-1.180664,-22.171019,-9.368896,-124.717705
-0.146484,1.003662,-0.87207,-76.431274,184.364304,-47.8363
0.236816,1.385742,-0.812256,-139.686584,249.992355,17.51709
0.491211,1.417725,-0.501709,-146.781921,249.206528,74.264526
0.045166,0.688477,-0.213623,-53.436275,133.674622,47.996517
0.108643,0.657471,-0.5271,-18.074036,-14.808654,-33.248901
0.317627,1.057129,-0.300293,-62.240597,-14.778136,-51.986691
0.257324,0.98877,-0.377197,-93.795769,-1.609802,-58.280941
0.036377,0.853271,-0.556152,-61.256405,-10.375976,-85.952751
-0.077393,0.789551,-0.501221,-38.30719,-0.282288,-107.39135
-0.054443,0.791016,-0.418213,-60.699459,15.724181,-108.734123
-0.05542,0.748779,-0.430176,-95.504753,24.978636,-104.820244
-0.196045,0.719971,-0.41748,-128.189087,27.580259,-101.867668
-0.199463,0.733154,-0.297852,-154.61731,33.790588,-86.067192
-0.424805,0.884033,-0.298096,-129.310608,83.648674,-65.345764
-1.053223,1.036133,-0.242188,-74.714661,169.570908,-76.950073
-0.867188,1.070313,-0.248535,-5.943298,249.992355,-48.118587
-0.437012,1.003174,-0.207031,-15.61737,249.992355,82.801811
-0.278564,1.229004,-0.217285,-94.40612,248.382553,153.884888
-1.604004,2.304688,-0.140381,-43.083187,249.992355,163.330063
-0.628906,-0.399414,-0.331055,157.402039,249.992355,129.867554
-0.106934,-0.217773,-0.285156,-15.922545,249.969467,2.464294
-0.921875,2.496826,0.167725,-173.118576,249.992355,54.252621
-1.58667,2.399414,0.444336,-27.244566,249.992355,121.170036
-1.209473,1.978516,0.546143,149.368286,249.992355,23.178099
0.111816,1.532471,0.582275,218.18541,249.992355,-13.427733
0.376953,0.092773,0.840576,177.932724,249.992355,2.01416
0.73877,0.232422,0.819336,84.877007,249.992355,-105.781548
0.849121,0.753418,0.321533,-32.669067,249.992355,-87.020866
0.063477,1.022949,-0.116455,-88.409416,249.992355,-24.147032
-0.168945,1.186035,0.719238,-92.758171,249.992355,-26.527403
0.667236,1.397461,1.047852,-54.969784,249.992355,-22.888182
1.211182,1.714111,0.792969,51.422115,249.992355,-29.815672
0.925537,1.659912,0.423096,190.734848,249.992355,-52.398678
0.714355,1.280273,0.659912,249.992355,249.992355,-112.152092
1.12793,0.984131,0.79126,249.992355,248.161301,-157.073975
1.4729,0.890625,0.638428,248.558029,183.929428,-167.6483
1.305664,0.929688,0.483154,249.992355,75.325012,-165.565475
1.018311,0.969727,0.533203,248.001083,-3.463745,-163.719162
0.887451,0.947021,0.625,203.132614,-57.189938,-157.997131
0.763184,0.9104,0.668945,130.699158,-80.986015,-156.791687
0.843018,0.989014,0.568604,75.584412,-96.015923,-159.942627
1.157227,1.100586,0.483643,33.988953,-114.685051,-151.145935
1.329834,1.133301,0.534668,-1.487732,-142.753601,-129.837036
1.225586,1.093506,0.676025,-29.388426,-174.903854,-105.522148
0.997803,1.047363,0.861328,-46.257015,-194.48851,-75.775146
0.78833,1.02417,0.958008,-64.712524,-182.64769,-38.261414
0.653076,1.02124,0.850098,-92.559807,-135.017395,-12.504577
0.649902,1.005127,0.692383,-114.967339,-64.849854,-3.250122
0.76001,0.9646,0.685303,-120.979301,5.859375,9.971619
0.829834,0.910889,0.777344,-119.689934,66.970825,31.806944
0.810791,0.843994,0.830566,-119.262688,110.984795,51.208492
0.751465,0.777344,0.775635,-116.798393,135.742188,61.653133
0.703369,0.711182,0.699951,-110.557549,144.508362,62.248226
0.736084,0.64624,0.658203,-107.711784,138.618469,58.509823
0.758057,0.597412,0.647705,-111.564629,123.466484,60.69183
0.749756,0.582275,0.636963,-120.643608,101.951591,65.26947
0.70166,0.627441,0.566406,-133.43811,77.331543,62.736507
0.607666,0.738037,0.478027,-138.198853,49.97253,56.259151
0.487061,0.849121,0.431641,-136.825562,24.314878,48.393246
0.414551,0.93457,0.386963,-130.447388,2.151489,40.550228
0.317627,0.986572,0.380859,-115.19622,-12.634276,36.437988
0.223633,1.002197,0.365234,-98.548882,-16.120911,30.792234
0.196045,0.995361,0.341797,-78.651428,-9.552002,24.54376
0.221924,0.958252,0.340088,-59.875484,1.197815,17.738342
0.295166,0.907471,0.316406,-47.882076,6.050109,9.735107
0.324951,0.862549,0.294434,-39.512634,3.677368,5.66864
0.243652,0.826172,0.260254,-36.026001,-2.761841,1.289368
0.125244,0.796631,0.218506,-38.757324,-11.306762,-7.888793
0.194824,0.804688,0.215088,-45.799252,-21.736143,-15.571593
0.196777,0.888184,0.233154,-64.735413,-37.559509,-18.806458
0.098389,1.078125,-0.091064,-79.917908,-76.835632,-37.902832
0.192871,1.616943,-1.227295,-89.431755,-173.835739,-98.014824
0.785645,2.54541,-1.456299,-122.901909,-249.992355,-187.950119
-0.498047,2.407471,-0.67041,74.760437,-243.194565,-50.872799
-1.252441,1.565186,-0.412598,172.218307,-126.655571,-12.649535
-0.539063,0.991943,-0.092041,137.458801,39.413452,-46.554562
0.107666,0.781006,0.205322,84.030144,165.184006,5.455017
0.330566,0.794678,0.35376,28.915403,218.627914,69.313049
0.429932,0.870361,0.410645,-11.436461,215.698227,78.216553
0.57373,0.948486,0.414551,-36.468506,187.110886,60.882565
0.716797,1.023438,0.383301,-47.33276,142.463684,43.655392
0.738281,1.078369,0.354736,-43.189999,82.023613,30.113218
0.591309,1.080811,0.332764,-28.251646,15.777587,15.205382
0.390381,1.008057,0.302734,-7.530212,-39.649963,-4.699707
0.229004,0.880859,0.28125,12.062072,-74.234009,-25.978086
0.17627,0.758545,0.255371,21.766661,-89.920036,-41.976925
0.182861,0.689941,0.219238,18.508911,-93.1549,-53.344723
0.174805,0.678711,0.212891,8.880615,-90.408318,-60.798641
0.10376,0.705322,0.211914,-0.747681,-80.314629,-59.883114
0.02832,0.740234,0.249268,-6.736755,-59.005733,-54.664608
0.015137,0.758301,0.329102,-10.078429,-30.883787,-50.323483
0.094727,0.76416,0.375732,-13.412475,-10.993957,-47.599789
0.204834,0.758301,0.349365,-17.501831,-5.508422,-47.286983
0.27417,0.763184,0.285645,-24.284361,-19.294739,-48.629757
0.256592,0.807617,0.184814,-30.815123,-37.353516,-44.853207
0.196289,0.880127,0.096436,-34.980774,-35.15625,-38.742065
0.249756,0.967773,0.072754,-42.098995,-20.309446,-35.652161
0.370605,1.071289,0.10083,-54.344173,-17.074585,-33.14209
0.341309,1.193359,0.133545,-62.728878,-32.402039,-36.590576
0.20874,1.281494,0.194092,-53.25317,-54.855343,-51.925655
0.159668,1.31665,0.258545,-34.957886,-73.440552,-70.999146
0.118408,1.32666,0.304688,-20.507811,-82.702629,-77.781677
0.051025,1.314453,0.376953,-9.475708,-86.112968,-69.351196
0.007568,1.24292,0.457031,4.135132,-86.585991,-56.015011
-0.018799,1.108643,0.488281,17.929077,-85.014336,-46.06628
-0.067871,0.964111,0.482178,24.559019,-84.411613,-38.154602
-0.14917,0.876465,0.467041,22.064207,-82.900993,-31.501768
-0.202637,0.843506,0.456787,14.381408,-78.460693,-27.275084
-0.220215,0.864502,0.421875,3.730774,-68.824768,-24.490355
-0.213135,0.91626,0.361328,-2.502441,-55.908199,-21.842955
-0.181641,0.955566,0.310547,0.907898,-41.831966,-19.599915
-0.157959,0.953125,0.308594,10.993957,-26.268003,-17.051697
-0.12915,0.915039,0.341309,18.035889,-10.093688,-11.871337
-0.072021,0.878174,0.372559,16.998291,5.462646,-4.081726
