t,ax,ay,az,gx,gy,gz,acc_mag
0 days 00:00:53.790000,0.323486,-1.076416,-0.26416,162.261948,159.736633,-66.398621,1.1545973769466134
0 days 00:00:53.800000,0.399902,-0.992676,-0.391602,122.161858,156.684875,-34.690857,1.139596146441361
0 days 00:00:53.810000,0.513672,-0.974854,-0.498779,72.128296,143.760681,-9.841919,1.209536992299533
0 days 00:00:53.820000,0.530762,-0.925781,-0.541504,35.545349,121.025078,1.525879,1.1966642564316023
0 days 00:00:53.830000,0.496826,-0.868164,-0.515625,15.197753,101.226799,11.238097,1.125350587948929
0 days 00:00:53.840000,0.467773,-0.820557,-0.509277,4.669189,87.875359,23.986814,1.0730742903019344
0 days 00:00:53.850000,0.408203,-0.796387,-0.537842,0.953674,78.681946,33.782959,1.0440957618638245
0 days 00:00:53.860000,0.338135,-0.789307,-0.52002,-3.067016,71.929932,38.879395,1.0038733081788758
0 days 00:00:53.870000,0.310547,-0.773682,-0.497314,-7.102966,66.223145,42.16003,0.9707442973971054
0 days 00:00:53.880000,0.927734,-0.697754,-0.536377,58.082577,-88.417046,-61.737057,1.278769449666749
0 days 00:00:53.890000,0.304932,-0.723389,-0.500488,-4.165649,60.8139,47.157284,0.9310012932799825
0 days 00:00:53.900000,0.325439,-0.647461,-0.537109,11.695861,52.612301,40.885921,0.9019990948570846
0 days 00:00:53.910000,1.383545,-0.852539,-0.546143,19.462585,86.944572,249.992355,1.7144362601143852
0 days 00:00:53.920000,0.339844,-0.724365,-0.57666,12.031554,36.224365,27.717588,0.9862734677365097
0 days 00:00:53.930000,0.391113,-0.757324,-0.578857,6.713867,26.206968,27.305601,1.0303322018620984
0 days 00:00:53.940000,0.393311,-0.760742,-0.556641,-4.142761,20.339964,24.154661,1.021406450031524
0 days 00:00:53.950000,0.424072,-0.717041,-0.565186,-9.498596,17.822266,25.901793,1.0066876732437922
0 days 00:00:53.960000,0.491943,-0.647461,-0.607666,-10.711669,9.597778,25.344847,1.015121485008568
0 days 00:00:53.970000,0.538574,-0.514404,-0.606689,-3.02124,-7.057189,12.275695,0.9605961541735424
0 days 00:00:53.980000,0.573975,-0.378662,-0.575928,19.004822,-29.281614,-11.680602,0.8969533276893508
0 days 00:00:53.990000,0.636963,-0.34375,-0.568359,46.56982,-50.636288,-33.409119,0.9202814128026274
0 days 00:00:54,0.30835,-0.659424,-0.502686,5.92041,56.365963,49.705502,0.8846541408211459
0 days 00:00:54.010000,1.82251,-1.380371,-0.39209,-49.049374,-26.283262,249.992355,2.3196338861641506
0 days 00:00:54.020000,1.235107,-0.901611,0.0354,-104.675285,-166.343674,241.905197,1.529589767476888
0 days 00:00:54.030000,2.38208,-1.309326,-0.463135,-100.662224,-144.874573,249.992355,2.7573780533145977
0 days 00:00:54.040000,0.495361,0.762939,0.366943,6.54602,60.554501,23.208616,0.9808698197472486
0 days 00:00:54.050000,0.424561,0.760986,0.44458,7.713317,61.325069,23.857115,0.9782653583343326
0 days 00:00:54.060000,0.314209,0.786377,0.521484,8.918762,69.564819,26.153563,0.9945157837188909
0 days 00:00:54.070000,0.232178,0.843994,0.531982,11.215209,80.085754,26.802061,1.0243228709952736
0 days 00:00:54.080000,0.234375,0.882324,0.491211,10.841369,89.332573,24.177549,1.0366848740682966
0 days 00:00:54.090000,0.335205,0.899414,0.426514,6.080627,89.24865,20.38574,1.0503438140042527
0 days 00:00:54.100000,0.57373,0.909424,0.369385,-0.114441,80.444328,20.416258,1.1369535623326927
0 days 00:00:54.110000,0.73584,0.898926,0.318604,-1.815796,68.687439,24.29962,1.204589958405764
0 days 00:00:54.120000,0.696533,0.871338,0.2854,1.327515,49.896236,24.475096,1.151451818502624
0 days 00:00:54.130000,0.461914,0.803467,0.353516,4.486084,8.247375,19.935608,0.9919159872393427
0 days 00:00:54.140000,0.505127,0.77417,0.342285,4.096985,69.740295,25.085447,0.9857238438092081
0 days 00:00:54.150000,0.466064,0.793945,0.443848,2.586365,-5.15747,18.196106,1.0220398046186852
0 days 00:00:54.160000,0.426758,0.811523,0.540039,3.204345,-24.513243,14.717101,1.0641118792749191
0 days 00:00:54.170000,0.44751,0.814209,0.471436,5.187988,-30.929564,13.275146,1.0418509480136782
0 days 00:00:54.180000,0.5,0.807129,0.409424,3.15094,-35.797119,12.527465,1.0339657800996123
0 days 00:00:54.190000,0.506104,0.8125,0.38916,-1.548767,-39.382935,12.199401,1.0333165122149166
0 days 00:00:54.200000,0.439941,0.854248,0.359619,-3.540039,-46.371456,13.786315,1.0259695678459475
0 days 00:00:54.210000,0.389404,0.905762,0.357422,-1.358032,-58.403011,16.868591,1.0487090930968417
0 days 00:00:54.220000,0.35498,0.928711,0.359619,3.791809,-74.59259,19.973755,1.0572798811487902
0 days 00:00:54.230000,0.299805,0.928467,0.363525,8.888245,-85.693352,17.799377,1.0411937541778669
0 days 00:00:54.240000,0.224121,0.903809,0.38623,11.482238,-83.221428,13.633727,1.0081044311091982
0 days 00:00:54.250000,2.407227,-0.774658,-0.710205,-90.698235,-207.374557,249.992355,2.6266381533279377
0 days 00:00:54.260000,0.458496,0.795654,0.521973,1.770019,-16.143799,16.822815,1.0562857958246905
0 days 00:00:54.270000,0.469727,0.751953,0.32666,0.862122,86.685173,29.495237,0.9448722264613348
0 days 00:00:54.280000,0.546387,0.836426,0.296875,4.737854,27.45056,21.560667,1.0422485178065737
0 days 00:00:54.290000,0.403564,0.694824,0.305176,-6.561279,134.681702,45.661922,0.8595211946473456
0 days 00:00:54.300000,0.437256,0.728271,0.300781,-0.915527,109.046928,37.284851,0.9011329918153036
0 days 00:00:54.310000,0.702881,-0.521729,-0.09082,-10.726928,-249.992355,249.992355,0.8800517723418322
0 days 00:00:54.320000,0.403564,-0.593506,0.154297,13.778686,-249.992355,249.992355,0.7341122791106275
0 days 00:00:54.330000,0.307373,-0.619873,0.244873,23.765562,-249.908432,249.992355,0.7339506000998978
0 days 00:00:54.340000,0.324219,-0.662842,0.186279,20.629881,-249.771103,249.992355,0.7610370179997817
0 days 00:00:54.350000,0.281982,-0.678223,0.066406,5.760192,-249.992355,249.992355,0.7375025714456865
0 days 00:00:54.360000,0.166748,-0.658691,-0.00708,-20.1416,-247.711166,249.992355,0.6795063321154557
0 days 00:00:54.370000,0.049805,-0.580811,0.004883,-39.710999,-226.058945,249.992355,0.5829629485953631
0 days 00:00:54.380000,-0.07666,-0.471924,0.04541,-53.62701,-204.040512,249.771103,0.48026147615231435
0 days 00:00:54.390000,-0.195068,-0.334473,0.088867,-68.405151,-181.823715,249.992355,0.3972669833273337
0 days 00:00:54.400000,-0.292725,-0.180176,0.150635,-77.224731,-152.648926,249.992355,0.37528951467633626
0 days 00:00:54.410000,-0.35376,-0.026123,0.248535,-73.051453,-125.350945,237.342819,0.43312607281714177
0 days 00:00:54.420000,1.45459,-0.465088,-0.535889,-48.507687,-244.247421,249.992355,1.6184300838049817
0 days 00:00:54.430000,0.325195,0.641602,0.302002,-14.587401,158.77533,54.847713,0.7801346822395476
0 days 00:00:54.440000,-0.301514,0.202637,0.334229,-60.211178,-68.283081,179.229721,0.49364103395686226
0 days 00:00:54.450000,-0.282959,0.276855,0.334717,-59.982296,-27.19879,157.806396,0.5184109921625891
0 days 00:00:54.460000,-0.264648,0.337158,0.297119,-60.874935,25.0473,146.179199,0.5215302302158524
0 days 00:00:54.470000,-0.231445,0.396484,0.286377,-58.303829,82.633965,139.73999,0.5410897674231143
0 days 00:00:54.480000,-0.20752,0.439209,0.287598,-53.260799,132.774353,132.568359,0.5645190038298091
0 days 00:00:54.490000,-0.148926,0.466797,0.294922,-46.508785,168.693527,120.094292,0.57188930639504
0 days 00:00:54.500000,-0.03833,0.488281,0.300049,-39.703369,190.567001,102.874748,0.5743839536947389
0 days 00:00:54.510000,0.105713,0.516846,0.302734,-33.035278,195.701584,86.692802,0.6082375365274656
0 days 00:00:54.520000,0.226318,0.57373,0.29834,-24.505613,182.14415,69.740295,0.6851224019282978
0 days 00:00:54.530000,-0.333008,0.114014,0.311279,-63.980099,-99.525444,209.075912,0.4698809807823679
0 days 00:00:54.540000,-0.064453,1.014893,0.016602,-25.329588,-36.712646,-25.611876,1.0170730637776226
0 days 00:00:54.550000,-0.025879,1.016357,0.080811,-18.768311,-45.1889,-20.729063,1.0198929805675692
0 days 00:00:54.560000,0.005615,1.023438,0.077637,-27.015684,-52.360531,-16.838074,1.0263938677905282
0 days 00:00:54.570000,0.052002,0.958984,-0.026855,-34.65271,-59.844967,-19.081116,0.9607682921938046
0 days 00:00:54.580000,0.020508,1.119385,-0.209229,-3.913879,-78.552246,-10.108947,1.1389557193894766
0 days 00:00:54.590000,0.064941,1.067383,-0.077393,-5.966186,-58.578487,-9.361267,1.0721536637157008
0 days 00:00:54.600000,0.039307,1.116455,-0.132324,-6.553649,-62.736507,-10.223388,1.1249561983695187
0 days 00:00:54.610000,0.026611,1.128662,-0.177979,-6.683349,-70.167542,-11.764525,1.1429184485369024
0 days 00:00:54.620000,-0.088623,1.045166,0.040771,-19.981384,-27.70233,-27.160643,1.0497086634519124
0 days 00:00:54.630000,0.089355,0.986084,-0.067627,-15.99121,-59.867855,-16.937256,0.9924310465770405
0 days 00:00:54.640000,-0.098877,1.026123,0.088867,-13.671874,-14.122008,-24.322508,1.0346991910439478
0 days 00:00:54.650000,-0.138916,0.938477,0.114258,25.688169,22.727964,-58.319088,0.9555582793053493
0 days 00:00:54.660000,-0.03418,0.952881,0.111816,-8.117676,4.806519,-27.732847,0.9600277550243014
0 days 00:00:54.670000,-0.037842,0.933838,0.14209,-2.067566,6.774902,-30.181883,0.945343850304216
0 days 00:00:54.680000,-0.04541,0.918945,0.154297,5.966186,11.146544,-37.208557,0.9329145434250663
0 days 00:00:54.690000,-0.082275,0.922363,0.131836,15.029906,16.693115,-46.928402,0.9353627158968868
0 days 00:00:54.700000,-0.181152,0.932373,0.070068,37.590027,32.463074,-68.115234,0.9523890921556168
0 days 00:00:54.710000,-0.207031,0.912354,-0.02417,48.095699,43.731686,-75.500488,0.9358610180881561
0 days 00:00:54.720000,-0.203125,0.870117,-0.095459,54.862972,54.946896,-80.757133,0.8985965613082436
0 days 00:00:54.730000,-0.13916,0.800537,-0.094482,58.258053,60.012814,-85.952751,0.818017018339472
0 days 00:00:54.740000,-0.02832,0.766113,-0.054688,63.148495,55.7785,-92.224113,0.7685843665551623
0 days 00:00:54.750000,0.098633,0.754883,-0.027344,70.556641,46.783443,-101.638786,0.7617903298900557
0 days 00:00:54.760000,-0.064697,0.989014,0.103027,-11.20758,-1.235962,-26.008604,0.9964682417086858
0 days 00:00:54.770000,0.005127,1.105225,-0.251953,-0.076294,-87.425224,-6.034851,1.1335911524720892
0 days 00:00:54.780000,0.137939,0.758545,0.00708,81.268303,29.785154,-113.250725,0.7710173870581648
0 days 00:00:54.790000,0.056641,1.03833,-0.271973,1.991272,-99.014275,-0.900268,1.0748519453906198
0 days 00:00:54.800000,0.339355,0.812744,-0.333984,-249.862656,-249.710068,54.107662,0.9419447636761935
0 days 00:00:54.810000,0.439209,0.793701,-0.409424,-249.992355,-249.992355,47.386166,0.9952355675205744
0 days 00:00:54.820000,0.416016,0.809326,-0.43335,-240.577682,-246.719345,46.646114,1.0079038193359522
0 days 00:00:54.830000,0.286865,0.869141,-0.481934,-200.653061,-218.803391,48.599239,1.0343877350693984
0 days 00:00:54.840000,0.181641,0.92627,-0.560303,-164.726242,-189.407333,47.981258,1.0976834778705564
0 days 00:00:54.850000,0.139404,0.980957,-0.571045,-134.246826,-161.651596,46.684261,1.143591930318678
0 days 00:00:54.860000,0.101563,0.989502,-0.494141,-107.13958,-139.86969,45.120235,1.110677531443758
0 days 00:00:54.870000,0.09668,0.986572,-0.446533,-80.566399,-119.468681,42.572018,1.087227231848522
0 days 00:00:54.880000,0.109863,0.949219,-0.43457,-57.273861,-104.011528,38.032532,1.049732191385022
0 days 00:00:54.890000,0.125977,0.92041,-0.432861,-40.771481,-96.084587,31.341551,1.0248870269205284
0 days 00:00:54.900000,0.010498,1.072754,-0.277344,1.853943,-93.948357,-2.304077,1.108075379591118
0 days 00:00:54.910000,0.148682,0.9104,-0.434082,-31.066893,-92.658989,24.887083,1.0194908924791823
0 days 00:00:54.920000,0.101807,0.927002,-0.386963,-22.5296,-92.201225,15.151977,1.0096720936135652
0 days 00:00:54.930000,0.05249,0.938965,-0.348389,-19.821167,-91.911308,11.611938,1.0028885115734452
0 days 00:00:54.940000,0.016113,0.960693,-0.332275,-16.777039,-92.52166,8.560181,1.0166598962499702
0 days 00:00:54.950000,0.014648,0.987793,-0.302979,-12.435912,-94.436638,7.003784,1.0333178839031094
0 days 00:00:54.960000,0.019043,1.012207,-0.237549,-6.095886,-98.82354,6.523132,1.0398822885783758
0 days 00:00:54.970000,0.02124,1.004639,-0.196533,-1.922607,-104.721062,5.187988,1.0239022795218302
0 days 00:00:54.980000,0.043213,0.987549,-0.206543,-0.564575,-109.115593,2.700805,1.0098417705853724
0 days 00:00:54.990000,0.070557,0.980957,-0.234619,-0.404358,-110.79406,0.602722,1.0110890174752172
0 days 00:00:55,0.091309,0.986084,-0.254395,0.053406,-109.443657,-0.335693,1.0224557714453961
0 days 00:00:55.010000,0.0896,0.996338,-0.26123,0.75531,-104.820244,-0.564575,1.0339045812568972
0 days 00:00:55.020000,0.143066,0.915527,-0.421631,-25.749205,-92.216484,19.096375,1.0180521932818571
0 days 00:00:55.030000,0.136963,0.769531,-0.259766,-249.725327,-249.877914,59.700008,0.8236596372810798
0 days 00:00:55.040000,0.086426,0.755615,0.041504,92.51403,8.163452,-127.281181,0.76167320007796
0 days 00:00:55.050000,0.010742,0.746338,-0.040039,120.574944,-3.608703,-156.913757,0.7474884094947559
0 days 00:00:55.060000,0.820801,-0.234375,-0.141846,43.258663,197.776779,-249.992355,0.8653127815662959
0 days 00:00:55.070000,0.777588,-0.293457,-0.135986,49.163815,176.689133,-249.992355,0.8421711825923516
0 days 00:00:55.080000,0.768799,-0.404297,-0.156494,52.87933,138.320923,-249.992355,0.8826088253841563
0 days 00:00:55.090000,0.825684,-0.497314,-0.152344,55.213924,92.620842,-249.992355,0.9758503864773533
0 days 00:00:55.100000,0.983398,-0.549805,-0.141357,56.625362,43.006893,-249.992355,1.1354906278248182
0 days 00:00:55.110000,1.172119,-0.529053,-0.076416,61.996456,-14.961242,-249.992355,1.2882544127717939
0 days 00:00:55.120000,1.230225,-0.470703,0.040283,80.192566,-76.591492,-249.992355,1.317815459358024
0 days 00:00:55.130000,1.120361,-0.494385,0.123047,105.613701,-135.83374,-249.992355,1.2307582470798233
0 days 00:00:55.140000,1.070313,-0.552246,0.21875,136.734009,-191.024765,-249.992355,1.2240903255009412
0 days 00:00:55.150000,1.171387,-0.549805,0.229736,185.592636,-238.937363,-249.992355,1.3142342528978614
0 days 00:00:55.160000,0.858643,-0.247559,-0.181152,41.191097,197.479233,-249.992355,0.9117945530841912
0 days 00:00:55.170000,1.333252,-0.500488,0.180664,237.998947,-249.992355,-249.992355,1.4355098796399837
0 days 00:00:55.180000,1.361816,-0.786133,0.225098,249.992355,-249.992355,-249.984726,1.5884637298814852
0 days 00:00:55.190000,1.283691,-1.017822,0.178467,249.992355,-249.725327,-249.992355,1.64793042245539
0 days 00:00:55.200000,1.190674,-1.297119,0.053955,249.992355,-248.832687,-249.992355,1.7615712919044746
0 days 00:00:55.210000,1.050049,-1.492188,0.029785,249.984726,-249.992355,-249.54985,1.824860289438619
0 days 00:00:55.220000,0.832031,-1.337402,0.279053,249.992355,-245.010361,-249.43541,1.5996219151330728
0 days 00:00:55.230000,0.633301,-1.400391,0.200439,249.992355,-156.188965,-249.992355,1.5499486772803155
0 days 00:00:55.240000,0.387695,-2.250732,-0.23584,249.473557,-63.682552,-236.030563,2.2960231824720325
0 days 00:00:55.250000,0.371338,-2.512451,-0.248291,249.992355,9.727478,-157.432556,2.5518523386602916
0 days 00:00:55.260000,0.474121,-2.303223,-0.107178,249.992355,71.517944,-101.547234,2.3539571011498914
0 days 00:00:55.270000,0.486572,-1.804443,-0.080811,226.516708,117.675774,-89.050285,1.8706408712401215
0 days 00:00:55.280000,1.399414,-0.570557,0.233154,249.992355,-249.984726,-249.992355,1.5291355797838855
0 days 00:00:55.290000,0.753418,-0.269531,-0.202393,50.926205,173.690781,-249.992355,0.8253778341668743
0 days 00:00:55.300000,0.04248,0.750488,0.03125,105.75103,-4.40979,-142.837524,0.7523385880333403
0 days 00:00:55.310000,0.823242,-0.099854,-0.070313,65.231323,139.198303,-249.992355,0.8322512420231044
0 days 00:00:55.320000,-0.034668,0.724365,-0.12085,130.2948,1.457214,-167.877182,0.7351946993477306
0 days 00:00:55.330000,-0.0354,0.686768,-0.145752,133.682251,7.011413,-177.894577,0.7029559668485644
0 days 00:00:55.340000,0.054199,0.627686,-0.125977,133.033752,12.96234,-187.797531,0.642493152279462
0 days 00:00:55.350000,0.199463,0.564697,-0.089355,128.936768,20.080564,-197.204575,0.6055183780885598
0 days 00:00:55.360000,0.319336,0.532959,-0.044434,125.137321,28.95355,-204.078659,0.6228925725460209
0 days 00:00:55.370000,0.330811,0.532715,-0.032227,123.924248,33.39386,-209.587082,0.6279010817596989
0 days 00:00:55.380000,0.670654,-0.210205,-0.151611,63.919064,147.911072,-249.992355,0.7189915333729597
0 days 00:00:55.390000,0.305664,0.533691,-0.013428,125.457756,30.113218,-222.2061,0.6151722324365755
0 days 00:00:55.400000,0.324219,0.479248,0.005127,119.392387,29.762266,-229.202255,0.5786388265524532
0 days 00:00:55.410000,0.324951,0.406006,0.033691,110.931389,29.342649,-238.853439,0.5211229297565019
0 days 00:00:55.420000,0.361084,0.324951,0.071777,103.47747,32.173157,-248.29863,0.49104658148285685
0 days 00:00:55.430000,0.304688,0.544922,-0.029297,125.549309,32.493591,-215.957626,0.6250064620761933
0 days 00:00:55.440000,0.59668,0.178223,0.099609,88.577263,67.672729,-249.992355,0.6306444426219896
0 days 00:00:55.450000,0.671387,0.130127,0.065918,82.054131,84.381096,-249.992355,0.6870507423924378
0 days 00:00:55.460000,0.707764,0.114014,0.022217,77.613831,98.274223,-249.992355,0.7172326449493218
0 days 00:00:55.470000,0.674316,0.103516,-0.034912,74.058533,105.613701,-249.992355,0.6831079547597144
0 days 00:00:55.480000,0.670166,0.086182,-0.090576,72.540283,116.722099,-249.992355,0.6817285504187133
0 days 00:00:55.490000,0.659912,0.009521,-0.149414,65.612793,127.822868,-249.992355,0.6766823779152226
0 days 00:00:55.500000,0.723145,-0.064697,-0.111084,52.177425,141.075134,-249.992355,0.734482163084986
0 days 00:00:55.510000,0.859375,-0.089844,-0.081299,41.481014,152.954102,-249.992355,0.8678749117021415
0 days 00:00:55.520000,0.924805,-0.090088,-0.10791,39.810181,148.605347,-249.992355,0.935427551373702
0 days 00:00:55.530000,0.955566,-0.062988,-0.056396,51.895138,142.166138,-249.992355,0.9592988988401895
0 days 00:00:55.540000,0.480225,0.24585,0.110596,95.939629,47.760006,-249.992355,0.5507174850510922
0 days 00:00:55.550000,-0.028076,0.889648,-0.530762,-249.992355,-249.992355,63.346859,1.0363252994711651
0 days 00:00:55.560000,0.957764,0.157227,2.22168,-249.992355,-245.910629,102.828972,2.424436889594159
0 days 00:00:55.570000,3.482178,-4.545654,7.024414,-154.304504,74.920654,196.151718,9.062611431303672
0 days 00:00:55.580000,3.268799,3.379639,0.820068,199.386581,-140.991211,-119.087212,4.7727893518723405
0 days 00:00:55.590000,0.855469,1.104004,0.451904,73.21167,-102.645866,-32.470703,1.467947297144213
0 days 00:00:55.600000,-0.337646,0.981689,-1.923584,-40.931698,23.551939,-51.330563,2.1858393168513097
0 days 00:00:55.610000,-1.244629,1.031738,0.852051,60.775753,35.522461,123.092644,1.827450561543595
0 days 00:00:55.620000,-0.623779,0.937988,0.845459,48.667904,-93.429558,-11.138915,1.4084468927389489
0 days 00:00:55.630000,-0.177246,2.674072,-2.557129,-108.711235,-249.992355,-220.115646,3.704184920915936
0 days 00:00:55.640000,-0.048096,0.9104,-0.629395,-249.992355,-249.992355,51.849361,1.1078264535751978
0 days 00:00:55.650000,0.022949,1.033447,-0.635254,-20.912169,-29.472349,2.02179,1.2132959255375417
0 days 00:00:55.660000,0.125488,0.837891,-0.682129,-249.992355,-249.992355,45.577999,1.0877079289340499
0 days 00:00:55.670000,0.22876,0.838623,-0.73999,-249.992355,-249.992355,39.56604,1.14157999011414
0 days 00:00:55.680000,0.296387,0.905518,-0.804199,-236.213669,-233.703598,32.081604,1.2468135921997323
0 days 00:00:55.690000,0.318604,0.991455,-0.874512,-192.703232,-207.435593,23.841856,1.3598760105189738
0 days 00:00:55.700000,0.2771,1.062256,-0.929443,-151.908875,-177.909836,17.280579,1.4384145820259888
0 days 00:00:55.710000,0.193848,1.101074,-0.843018,-118.072502,-147.491455,14.137267,1.4002215356521268
0 days 00:00:55.720000,0.117188,1.087891,-0.703613,-94.711296,-121.429436,16.563416,1.3008885843891473
0 days 00:00:55.730000,0.052979,1.047852,-0.592285,-74.783325,-104.064934,18.600464,1.2048245140143854
0 days 00:00:55.740000,0.015625,1.003418,-0.576904,-57.006832,-86.906425,16.487122,1.1575448365247023
0 days 00:00:55.750000,0.007324,0.989746,-0.60083,-41.366573,-61.874386,10.95581,1.1578633228460085
0 days 00:00:55.760000,1.349609,1.067871,0.417725,51.49078,-101.097099,11.20758,1.7709565497625854
0 days 00:00:55.770000,0.021973,0.862305,-0.668945,-249.633774,-249.702438,48.286434,1.0915769046562867
0 days 00:00:55.780000,1.31958,1.003174,0.60791,27.786253,4.554749,6.530761,1.7655605395386476
0 days 00:00:55.790000,0.626465,0.866211,0.255127,31.814573,-75.996399,-12.008666,1.0990312456318065
0 days 00:00:55.800000,0.438721,0.686768,0.371826,-3.059387,96.961967,-19.577026,0.895757208143479
0 days 00:00:55.810000,0.040527,1.092773,-0.662354,4.310608,4.821777,-6.736755,1.27847881819528
0 days 00:00:55.820000,0.554199,0.769531,0.388916,103.561394,137.60376,-33.813477,1.0249732419034168
0 days 00:00:55.830000,0.561035,0.86084,0.479248,99.800102,131.17218,-36.03363,1.133792054271417
0 days 00:00:55.840000,0.560303,0.974609,0.517822,96.313469,122.38311,-37.773132,1.2377163561874749
0 days 00:00:55.850000,0.645508,1.048828,0.451904,95.001213,104.637138,-38.169861,1.3118452564475735
0 days 00:00:55.860000,0.817383,1.01123,0.431152,92.567436,78.117371,-35.705566,1.3698879985944108
0 days 00:00:55.870000,0.940186,0.826172,0.544434,68.092346,45.639034,-28.770445,1.3648876395278844
0 days 00:00:55.880000,0.934814,0.634277,0.678223,26.496885,15.716552,-19.042969,1.3176384045154423
0 days 00:00:55.890000,0.80249,0.593262,0.622803,-4.440308,15.998839,-2.662658,1.1763645597998098
0 days 00:00:55.900000,0.750732,0.752686,0.649414,12.817382,11.177062,-5.233764,1.2457420655239992
0 days 00:00:55.910000,0.856445,0.815186,0.513428,3.562927,66.184998,-11.795043,1.2890440503741523
0 days 00:00:55.920000,0.668945,0.806152,0.491211,32.600403,-15.022277,-6.065368,1.1570033304403233
0 days 00:00:55.930000,0.635986,0.872559,0.381836,25.657652,-48.84338,-7.17163,1.1452668385895926
0 days 00:00:55.940000,0.626709,0.8396,0.265381,26.336668,-92.620842,-6.652832,1.0807957280827862
0 days 00:00:55.950000,0.583496,0.837646,0.318359,21.026609,-101.570122,4.058838,1.069331967264142
0 days 00:00:55.960000,0.473389,0.81665,0.346924,15.457152,-98.525993,18.196106,1.0056692446311561
0 days 00:00:55.970000,0.317627,0.787354,0.353027,8.056641,-80.635063,30.72357,0.9194788171426246
0 days 00:00:55.980000,0.147461,0.817139,0.337646,1.686096,-47.843929,35.461426,0.8963624898209428
0 days 00:00:55.990000,-0.057373,0.888428,0.35083,0.297546,-2.494812,32.623291,0.9569104771152838
0 days 00:00:56,-0.226807,0.919678,0.323242,0.816345,43.983456,27.038572,1.0008668390435362
0 days 00:00:56.010000,-0.168945,0.894043,0.28418,2.799988,81.04705,15.335082,0.9532122383152664
0 days 00:00:56.020000,0.09375,0.774658,0.334961,0.595093,101.638786,-4.318237,0.8491660326373165
0 days 00:00:56.030000,0.58252,0.754639,0.324463,17.082214,-28.70941,4.234314,1.0070182764428857
0 days 00:00:56.040000,0.513916,0.698486,0.322021,109.214775,142.227173,-31.883238,0.9250350651153717
0 days 00:00:56.050000,0.045898,1.126465,-0.61792,27.618406,34.950256,-10.910033,1.2856341427595177
0 days 00:00:56.060000,0.029785,1.069824,-0.492432,54.611202,69.976807,-10.383605,1.1780915973832427
0 days 00:00:56.070000,0.626465,0.773438,0.459473,19.78302,-44.914242,12.916564,1.0962573483439004
0 days 00:00:56.080000,0.427734,0.848633,0.395508,23.345945,-28.038023,25.230406,1.0293497566468843
0 days 00:00:56.090000,0.248291,0.890381,0.324219,27.885435,3.791809,33.714294,0.9795635282119277
0 days 00:00:56.100000,0.152832,0.915039,0.283936,29.655455,46.600338,31.036375,0.9701925808008429
0 days 00:00:56.110000,0.140137,0.899902,0.20166,23.017881,85.365288,25.123594,0.9328069167694888
0 days 00:00:56.120000,0.224121,0.916748,0.213135,21.026609,104.698174,23.269651,0.9675141582271548
0 days 00:00:56.130000,0.405273,0.885742,0.210449,23.223875,110.519402,25.947569,0.9965309210927678
0 days 00:00:56.140000,0.678467,0.785889,0.229248,18.562317,103.60717,16.860962,1.0632467427243781
0 days 00:00:56.150000,0.958984,0.874023,0.412109,28.823851,78.132629,9.757996,1.3613964685814344
0 days 00:00:56.160000,1.460449,1.283691,0.649658,121.986382,-65.956116,28.106688,2.050080335510294
0 days 00:00:56.170000,0.756592,0.816895,0.508545,33.630371,-50.315853,1.678467,1.2240779846537557
0 days 00:00:56.180000,1.229492,1.126465,0.372803,158.599854,-72.532654,6.690979,1.7086708434037259
0 days 00:00:56.190000,-1.178223,0.404053,0.166748,91.339104,-7.019042,77.301025,1.2566913543277045
0 days 00:00:56.200000,-0.403809,0.670654,-1.4021,-34.416199,18.325806,-15.731811,1.605840249276683
0 days 00:00:56.210000,0.507813,2.647217,-1.384521,-76.560974,-217.04863,-124.2752,3.030269012397909
0 days 00:00:56.220000,3.272949,5.65918,1.549072,228.065475,-164.695724,-51.177975,6.718492203626123
0 days 00:00:56.230000,2.730225,-3.441406,4.929688,-107.421867,48.004147,211.830124,6.602971117974469
0 days 00:00:56.240000,1.336426,-1.636719,3.072998,-249.992355,-246.498093,130.661011,3.7293699530136455
0 days 00:00:56.250000,-0.2229,0.756104,-0.226807,-249.992355,-249.992355,77.018738,0.8202554992592247
0 days 00:00:56.260000,-0.151123,0.823242,-0.159424,-249.992355,-249.992355,59.860226,0.8520455172518662
0 days 00:00:56.270000,-0.037842,0.789063,-0.18042,-249.992355,-249.992355,55.694576,0.8103109349706444
0 days 00:00:56.280000,0.041504,1.110596,-0.562744,43.960567,55.816647,-10.69641,1.245723431090545
0 days 00:00:56.290000,-0.224121,0.653076,0.397217,148.002625,-55.191036,23.841856,0.7965675297838847
0 days 00:00:56.300000,0.800537,0.882324,0.526855,50.392147,-49.736019,-18.600464,1.3026631645863025
0 days 00:00:56.310000,1.246582,1.171387,0.764648,69.290161,24.497984,23.963926,1.8737130918038118
0 days 00:00:56.320000,0.880371,0.818604,0.598389,60.874935,-8.575439,-40.161129,1.3428458592772292
0 days 00:00:56.330000,0.861328,0.897217,0.541016,60.195919,-32.302856,-34.797668,1.3563121251868981
0 days 00:00:56.340000,0.037842,1.043945,-0.419922,79.208374,102.21862,-20.13397,1.1258719581164636
0 days 00:00:56.350000,0.050293,1.053711,-0.420166,95.626823,122.039787,-24.80316,1.1355068141257454
0 days 00:00:56.360000,0.091309,1.05127,-0.418213,110.733025,141.571045,-26.80969,1.1350806401969862
0 days 00:00:56.370000,0.136963,1.017578,-0.373779,120.376579,158.157349,-25.817869,1.0926731397330127
0 days 00:00:56.380000,0.14624,0.950928,-0.311768,125.518791,168.319687,-25.527952,1.0113602150608854
0 days 00:00:56.390000,0.144287,0.885742,-0.266357,129.852295,174.659714,-28.488157,0.9361109338011174
0 days 00:00:56.400000,0.169189,0.84668,-0.223389,134.544373,181.579575,-33.332825,0.891848970085182
0 days 00:00:56.410000,0.208984,0.833496,-0.166504,139.381409,187.316879,-38.230896,0.8752790847998141
0 days 00:00:56.420000,0.264893,0.842529,-0.093262,145.172119,190.765366,-43.334957,0.8880997792669469
0 days 00:00:56.430000,0.324463,0.843506,-0.030762,147.964478,191.421494,-48.027035,0.9042814335421246
0 days 00:00:56.440000,0.031494,1.04248,-0.43457,65.475464,84.236137,-14.09912,1.1298705710549328
0 days 00:00:56.450000,0.429932,0.825439,0.093994,139.213562,175.910934,-52.665707,0.9354282117730894
0 days 00:00:56.460000,0.37085,0.837646,0.022949,145.111084,186.027512,-51.422115,0.9163553898008131
0 days 00:00:56.470000,0.779053,0.713867,0.741943,88.74511,37.109375,-45.722958,1.2911270602644034
0 days 00:00:56.480000,0.724121,0.731934,0.617188,101.448051,53.932186,-49.339291,1.2004164403826698
0 days 00:00:56.490000,0.643311,0.824463,0.542725,117.195122,67.443848,-54.679867,1.1781929836469915
0 days 00:00:56.500000,0.590332,0.89209,0.53125,127.441399,82.580559,-56.594845,1.1943797556991662
0 days 00:00:56.510000,0.811768,0.745361,0.725342,75.386047,14.923095,-41.16058,1.3193374561153792
0 days 00:00:56.520000,0.572998,0.889404,0.371582,130.516052,124.961845,-51.300045,1.1213560388850634
0 days 00:00:56.530000,0.576904,0.852051,0.27002,129.753113,148.5672,-50.415035,1.0638232617389978
0 days 00:00:56.540000,0.519775,0.818604,0.177979,132.6828,164.520248,-51.696774,0.985877824013706
0 days 00:00:56.550000,0.56665,0.903076,0.476563,130.683899,100.990288,-54.214474,1.1677974041951797
0 days 00:00:56.560000,0.279297,0.133789,0.260986,-56.854244,-37.483215,119.651787,0.40499383072585193
0 days 00:00:56.570000,0.367676,-0.34668,0.017822,-36.590576,55.610653,241.523727,0.5056582710289628
0 days 00:00:56.580000,0.443848,-0.308105,0.123047,-32.119751,56.549068,227.416977,0.5541392445387712
0 days 00:00:56.590000,0.482666,-0.252197,0.252197,-18.173218,58.662411,215.805038,0.6001442503048746
0 days 00:00:56.600000,0.435547,-0.197266,0.343262,-10.56671,50.97961,207.237228,0.5885948221051558
0 days 00:00:56.610000,0.383789,-0.148193,0.375,-12.5885,32.409668,191.383347,0.5566688079729275
0 days 00:00:56.620000,0.389893,-0.06958,0.346436,-19.882202,12.275695,165.824875,0.5261899181331775
0 days 00:00:56.630000,0.30957,-0.385254,-0.002686,-24.581907,53.573605,249.992355,0.49422812952319906
0 days 00:00:56.640000,0.388916,-0.006836,0.260742,-38.856506,-10.154723,144.767761,0.4682827954516373
0 days 00:00:56.650000,0.328613,0.069336,0.216309,-52.848812,-28.984068,131.30188,0.39947912103888483
0 days 00:00:56.660000,0.318848,0.190918,0.362793,-54.206844,-35.690308,110.244743,0.5193577675138786
0 days 00:00:56.670000,0.753662,0.395752,0.251709,-58.311459,-60.760494,86.624138,0.8876843337746815
0 days 00:00:56.680000,0.480225,0.300537,0.378662,-53.535458,-22.300718,107.940666,0.6814128331914509
0 days 00:00:56.690000,0.574463,0.355469,0.299072,-53.527828,-23.925779,105.400078,0.7387895569876445
0 days 00:00:56.700000,0.6604,0.384521,0.264404,-54.862972,-36.384583,98.518364,0.8086371464736207
0 days 00:00:56.710000,0.875244,0.408447,0.250977,-61.889645,-95.809929,69.023132,0.9979330968927727
0 days 00:00:56.720000,0.970459,0.438965,0.310791,-65.65094,-135.543823,53.276058,1.109536834713927
0 days 00:00:56.730000,0.974609,0.49292,0.426025,-70.281982,-170.600876,43.937679,1.1723182715909533
0 days 00:00:56.740000,0.848633,0.557373,0.433105,-65.719604,-192.649826,37.04834,1.1038218021234225
0 days 00:00:56.750000,0.665771,0.59668,0.373047,-48.988338,-200.41655,27.267454,0.9687322184432601
0 days 00:00:56.760000,0.570801,0.661621,0.347168,-32.516479,-194.786057,17.974854,0.9402562147978604
0 days 00:00:56.770000,0.294189,-0.413818,0.033691,-17.715454,43.846127,249.992355,0.5088492785943594
0 days 00:00:56.780000,0.392822,0.235352,0.419434,-52.986141,-28.167723,107.421867,0.6209867695402214
0 days 00:00:56.790000,0.259766,-0.477295,0.000732,-31.433104,26.977537,249.824509,0.5434053989472317
0 days 00:00:56.800000,0.545654,0.661377,0.231201,-21.003721,-184.646591,5.615234,0.8880381333287439
0 days 00:00:56.810000,0.161865,-0.641602,-0.457031,-43.029781,-26.69525,249.992355,0.8041957097560269
0 days 00:00:56.820000,0.875732,-1.540527,-0.511719,-113.410942,-23.071287,213.737473,1.8444474263350528
0 days 00:00:56.830000,0.884766,-1.618896,-0.519531,-120.483391,-19.325256,233.894333,1.9166500967920566
0 days 00:00:56.840000,0.876465,-1.698975,-0.546631,-133.071899,-16.525269,248.504623,1.9883441344523336
0 days 00:00:56.850000,0.852295,-1.743408,-0.596191,-147.712708,-19.966125,249.992355,2.030103920977939
0 days 00:00:56.860000,0.819824,-1.717041,-0.633301,-158.721924,-27.870176,249.992355,2.005345691709537
0 days 00:00:56.870000,0.750488,-1.581299,-0.62207,-152.137756,-36.895752,249.992355,1.8576086375889298
0 days 00:00:56.880000,0.700928,-1.465576,-0.585449,-130.1651,-42.373653,249.992355,1.7268362992944641
0 days 00:00:56.890000,0.692871,-1.430908,-0.529297,-95.832817,-41.328426,249.992355,1.6756262236292436
0 days 00:00:56.900000,0.707764,-1.572266,-0.646484,-68.145752,-40.550228,249.992355,1.8414374322001819
0 days 00:00:56.910000,0.747314,-1.745117,-0.828857,-69.343567,-42.556759,249.992355,2.0714525060290425
0 days 00:00:56.920000,0.166504,-0.553467,-0.191895,-42.755123,4.501343,249.992355,0.6089934261796264
0 days 00:00:56.930000,0.894043,-1.948975,-0.845947,-99.243156,-52.146908,249.992355,2.3050906193212883
0 days 00:00:56.940000,1.419678,-1.741943,-0.446533,-117.622368,-62.171932,249.992355,2.291122597990339
0 days 00:00:56.950000,1.05542,-1.38916,-0.319336,-76.713562,-76.911926,249.992355,1.7735987040184709
0 days 00:00:56.960000,0.665039,-1.208252,-0.157471,-32.958984,-112.960808,249.992355,1.3881451231287025
0 days 00:00:56.970000,0.557373,-1.132568,-0.072754,3.105163,-143.623352,249.992355,1.264384466951805
0 days 00:00:56.980000,0.529785,-1.11084,-0.154053,28.717039,-166.603073,249.992355,1.2403104363964692
0 days 00:00:56.990000,0.533203,-1.065186,-0.322266,38.673401,-179.603561,249.992355,1.2340105463734903
0 days 00:00:57,0.5979,-1.056885,-0.474609,27.343748,-176.544174,249.992355,1.3037423120026441
0 days 00:00:57.010000,0.669922,-1.001709,-0.558105,4.585266,-148.696899,249.992355,1.3280427695635408
0 days 00:00:57.020000,0.564941,-0.912109,-0.573975,-17.021179,-104.148857,249.992355,1.2167779016677611
0 days 00:00:57.030000,0.320068,-0.774414,-0.578369,-34.515381,-62.896725,249.992355,1.0181705496531512
0 days 00:00:57.040000,1.262695,-1.97876,-0.64624,-125.801079,-61.882015,249.992355,2.434649037998085
0 days 00:00:57.050000,0.490234,0.583008,0.245361,-27.435301,-156.478882,2.13623,0.8002685318947633
0 days 00:00:57.060000,0.350342,1.033691,-0.673828,-217.842087,-249.153122,35.78949,1.2826927824030974
0 days 00:00:57.070000,0.510254,0.622803,0.28833,-44.219967,-109.359734,13.954162,0.8552057706920598
0 days 00:00:57.080000,0.292236,1.084961,-0.637451,-130.432129,-174.240097,37.376404,1.2918537179642282
0 days 00:00:57.090000,0.273682,1.109131,-0.659668,-95.825188,-146.217346,36.270142,1.3191797764175284
0 days 00:00:57.100000,0.234863,1.141846,-0.698486,-58.204647,-112.777702,32.157898,1.3589906580550877
0 days 00:00:57.110000,0.170654,1.158447,-0.712402,-22.254942,-74.462891,28.732298,1.3706344695537902
0 days 00:00:57.120000,0.127686,1.125244,-0.67627,5.477905,-37.338257,25.482176,1.3190219433474182
0 days 00:00:57.130000,0.125732,1.075928,-0.621582,25.878904,-1.464844,20.996092,1.248917042774259
0 days 00:00:57.140000,0.160645,1.030762,-0.562256,43.075558,35.308838,18.249512,1.1850776034526178
0 days 00:00:57.150000,0.187256,1.011475,-0.48584,60.325619,68.656921,17.524719,1.137623395839326
0 days 00:00:57.160000,0.201416,0.996582,-0.428955,77.407837,92.14782,15.632628,1.1035155095443834
0 days 00:00:57.170000,0.221436,0.974854,-0.36792,91.590874,106.910698,11.665343,1.0652414514146546
0 days 00:00:57.180000,0.292725,1.074707,-0.586182,-161.910995,-201.065048,35.163879,1.258686775412374
0 days 00:00:57.190000,0.236816,0.964844,-0.309814,105.712883,117.424004,4.394531,1.0406682837427113
0 days 00:00:57.200000,0.237061,0.907227,-0.270752,123.954765,127.861015,-11.230468,0.9759945659449135
0 days 00:00:57.210000,0.257813,0.871094,-0.196289,125.205986,132.194519,-15.899657,0.9294093131263534
0 days 00:00:57.220000,0.263428,0.86377,-0.106934,127.433769,137.031555,-19.477844,0.9093557084221774
0 days 00:00:57.230000,0.247803,0.869873,-0.041016,132.713318,140.197754,-22.491453,0.9054102248119358
0 days 00:00:57.240000,0.234863,0.886963,0.006836,141.746521,144.561768,-25.360106,0.9175569317671792
0 days 00:00:57.250000,0.228027,0.870117,0.014893,147.468567,149.711609,-26.390074,0.899623092115248
0 days 00:00:57.260000,0.244629,0.839111,0.046631,146.16394,150.535583,-27.19116,0.8752857065684325
0 days 00:00:57.270000,0.301025,0.768311,0.101563,138.664246,148.040771,-30.158995,0.8314041654424158
0 days 00:00:57.280000,0.376953,0.69458,0.172607,128.540039,145.973206,-32.440186,0.8089055056420372
0 days 00:00:57.290000,0.443115,0.671387,0.250977,118.240349,144.508362,-32.348633,0.842674825494983
0 days 00:00:57.300000,0.234375,0.943848,-0.293457,118.286125,124.595634,-4.478455,1.015823655256167
0 days 00:00:57.310000,0.306396,1.071533,-0.595703,-191.268906,-226.692184,34.477234,1.2636944025807821
0 days 00:00:57.320000,0.525879,0.585693,0.262695,-38.818359,-128.570557,7.003784,0.8298154469006949
0 days 00:00:57.330000,0.418945,0.988281,-0.708496,-242.225632,-249.992355,38.009644,1.2861496141592548
0 days 00:00:57.340000,0.177002,0.824219,0.321533,-32.875061,-40.367123,22.308348,0.9022472710149919
0 days 00:00:57.350000,-0.096436,0.864746,0.256836,-17.150879,18.165588,21.369932,0.9072211844462187
0 days 00:00:57.360000,-0.176758,0.782959,0.180664,-7.766723,78.811646,15.350341,0.8227439863900556
0 days 00:00:57.370000,-0.031982,0.616455,0.114746,-13.244628,124.984734,-3.196716,0.6278584712058921
0 days 00:00:57.380000,0.35498,0.490479,0.099609,-30.052183,153.411865,-29.884336,0.6135979161649753
0 days 00:00:57.390000,0.797363,0.489502,0.257324,-45.967098,158.653259,-42.449947,0.9703687972874024
0 days 00:00:57.400000,1.172363,0.622559,0.591797,-44.80743,122.161858,-26.985167,1.4533541899547404
0 days 00:00:57.410000,1.467529,0.743164,0.637207,-36.659241,49.011227,-12.039184,1.764076772021558
0 days 00:00:57.420000,1.249268,0.981201,0.441406,-1.029968,42.251583,-13.931273,1.6487162263594666
0 days 00:00:57.430000,-0.213867,1.104004,0.490234,55.534359,6.141662,30.914305,1.2267409263821762
0 days 00:00:57.440000,-0.920654,0.915039,0.301025,88.592522,9.902954,117.294304,1.3324849754732697
0 days 00:00:57.450000,0.407471,0.703125,0.323486,-44.387814,-81.756584,21.255491,0.8746774111991232
0 days 00:00:57.460000,0.530762,2.324219,-1.357666,-70.732117,-239.692673,-218.215927,2.743530431426085
0 days 00:00:57.470000,4.377197,2.429443,0.580811,164.672836,-207.984909,-109.931938,5.039780579031095
0 days 00:00:57.480000,2.911621,-5.068359,5.222412,-153.999329,-106.849663,202.55278,7.838328067787542
0 days 00:00:57.490000,1.048096,-0.667969,2.346924,-249.992355,-249.992355,119.10247,2.655699544743908
0 days 00:00:57.500000,0.334961,0.562012,-0.405029,-249.992355,-249.992355,77.331543,0.7694834959282753
0 days 00:00:57.510000,0.345459,0.622314,-0.451904,-249.992355,-249.992355,68.855286,0.8431096372910228
0 days 00:00:57.520000,0.402344,0.6875,-0.549316,-249.992355,-249.992355,62.370296,0.9676182161327886
0 days 00:00:57.530000,0.473877,0.758301,-0.598389,-249.793991,-249.992355,56.571957,1.075941082518462
0 days 00:00:57.540000,0.483154,0.845459,-0.62207,-249.992355,-249.93895,50.926205,1.1555127837012449
0 days 00:00:57.550000,0.463867,0.944336,-0.666748,-249.992355,-249.67955,44.502254,1.2455906109508854
0 days 00:00:57.560000,-0.20459,0.909668,-1.333008,2.258301,-20.874022,-43.258663,1.62673392611945
0 days 00:00:57.570000,0.016113,-0.760498,-0.4729,-6.011962,23.101805,10.337829,0.895684792085363
0 days 00:00:57.580000,0.0271,-0.774414,-0.471191,-8.117676,27.626036,12.374877,0.9069026474087503
0 days 00:00:57.590000,0.025391,-0.799561,-0.475586,-9.613037,32.852173,14.175414,0.9306581214377275
0 days 00:00:57.600000,-0.010742,-0.837158,-0.505371,-11.367797,37.384033,14.85443,0.9779308539815073
0 days 00:00:57.610000,-0.075928,-0.861328,-0.526855,5.943298,31.34918,18.39447,1.0125350244771782
0 days 00:00:57.620000,-0.065918,-0.929199,-0.549561,-9.025574,36.888123,13.801574,1.0815605655930693
0 days 00:00:57.630000,-0.097412,-0.91333,-0.54248,-2.281189,34.996033,15.037536,1.0667452071811712
0 days 00:00:57.640000,-0.093506,-0.895996,-0.535889,1.701355,32.371521,16.769409,1.048202854591133
0 days 00:00:57.650000,-0.02417,-0.745605,-0.481201,-3.387451,21.888731,10.353087,0.8877304812419139
0 days 00:00:57.660000,-0.048828,-0.897461,-0.53418,-13.198852,37.948608,14.419555,1.045547078091178
0 days 00:00:57.670000,-0.018555,-0.765625,-0.501953,-2.02179,22.636412,10.993957,0.91568703324826
0 days 00:00:57.680000,-0.137695,-0.827637,-0.554932,-14.526366,21.072386,5.088806,1.00592864628561
0 days 00:00:57.690000,-0.033691,-0.845703,-0.52002,-9.132385,20.088194,6.881713,0.9933626971504417
0 days 00:00:57.700000,-0.047119,-0.834717,-0.534912,-8.987427,18.287659,4.707336,0.9925238123057805
0 days 00:00:57.710000,-0.09375,-0.851807,-0.549561,-12.817382,17.959595,3.555298,1.01802825131231
0 days 00:00:57.720000,-0.173096,-0.755127,-0.541504,-6.698608,26.992796,8.842468,0.9452013506978287
0 days 00:00:57.730000,-0.195557,-0.739502,-0.520264,6.408691,33.859253,12.802123,0.9250839842679149
0 days 00:00:57.740000,-0.216064,-0.833984,-0.498535,12.596129,41.503902,14.091491,0.9953643104798363
0 days 00:00:57.750000,-0.268066,-0.946045,-0.452637,12.397765,53.291317,13.916015,1.0824697576145026
0 days 00:00:57.760000,-0.307617,-0.983643,-0.418213,12.680053,69.297791,11.848449,1.1122427268842894
0 days 00:00:57.770000,-0.281006,-0.988525,-0.467529,12.96234,85.693352,9.475708,1.1290391549906496
0 days 00:00:57.780000,-0.053955,-0.809082,-0.511963,7.667541,32.844543,19.447327,0.9589738985592882
0 days 00:00:57.790000,-0.020508,-0.867188,-0.513916,-9.017944,20.942686,8.422852,1.0082386922073563
0 days 00:00:57.800000,-0.028076,-0.785645,-0.493408,3.929138,37.734985,20.1416,0.9281582743611135
0 days 00:00:57.810000,0.065186,-0.901855,-0.393799,-6.91986,14.892577,10.368346,0.986239985004664
0 days 00:00:57.820000,-0.037109,-0.843018,-0.473389,-7.987976,47.416683,19.805908,0.967550294055043
0 days 00:00:57.830000,0.247803,-0.875977,-0.322998,16.799927,37.567139,-7.202148,0.9659553505944258
0 days 00:00:57.840000,0.274658,-0.893066,-0.302734,18.989563,26.985167,-15.60974,0.9821668758800615
0 days 00:00:57.850000,0.286621,-0.903564,-0.280518,21.52252,18.4021,-21.347044,0.9885695969738296
0 days 00:00:57.860000,0.306152,-0.938721,-0.276367,20.668028,10.597228,-25.520323,1.0253315959405522
0 days 00:00:57.870000,0.311768,-0.983398,-0.280762,16.357422,2.929687,-28.747557,1.069157711879777
0 days 00:00:57.880000,0.297607,-1.016113,-0.285156,10.154723,-4.241943,-29.060362,1.0965261052770245
0 days 00:00:57.890000,0.281494,-1.035889,-0.285645,4.104614,-9.33075,-26.618956,1.11080959591732
0 days 00:00:57.900000,0.246338,-1.02124,-0.283203,-0.1297,-10.940551,-21.957396,1.0880337710995003
0 days 00:00:57.910000,0.208496,-0.992188,-0.28833,-3.27301,-9.132385,-16.548157,1.054059674904604
0 days 00:00:57.920000,0.168457,-0.973389,-0.309814,-5.508422,-4.676819,-10.139464,1.035301222237277
0 days 00:00:57.930000,-0.026611,-0.807129,-0.47998,-2.883911,42.716976,20.271299,0.939439284021059
0 days 00:00:57.940000,0.116699,-0.953613,-0.331543,-7.347106,2.586365,-3.234863,1.016325327451304
0 days 00:00:57.950000,-0.251465,-1.009277,-0.463867,6.156921,98.686211,9.780884,1.1388798455688818
0 days 00:00:57.960000,0.035645,-0.900146,-0.402588,-4.310608,18.890381,15.380858,0.9867170238143255
0 days 00:00:57.970000,0.009277,-0.931885,-0.402344,-5.126953,22.804258,18.211365,1.0150745836095
0 days 00:00:57.980000,-0.038086,-0.955811,-0.390869,-8.506775,28.129576,18.058777,1.0333459180148727
0 days 00:00:57.990000,-0.068359,-0.949463,-0.394043,-11.360168,35.545349,14.312743,1.030253768301286
0 days 00:00:58,-0.052246,-0.908447,-0.404785,-9.750366,40.77911,12.908935,0.9959199227598573
0 days 00:00:58.010000,-0.026855,-0.856445,-0.447998,-4.623413,43.869015,10.078429,0.9669133555050318
0 days 00:00:58.020000,-0.058838,-0.848877,-0.474854,-3.501892,48.33984,11.779784,0.974443632381576
0 days 00:00:58.030000,-0.063965,-0.860596,-0.476074,-6.16455,50.285336,15.045165,0.9855777239350533
0 days 00:00:58.040000,-0.057373,-0.864258,-0.479248,-9.07135,49.575802,17.486572,0.9899051455553709
0 days 00:00:58.050000,0.0896,-0.927002,-0.366699,-8.720398,10.086059,3.631592,1.0009140945181059
0 days 00:00:58.060000,-0.230713,-0.969238,-0.453369,-0.434875,108.222954,11.20758,1.0946205914260887
0 days 00:00:58.070000,-0.009033,-0.825928,-0.513916,-4.753113,21.77429,10.208129,0.9728043540861646
0 days 00:00:58.080000,-0.100586,-0.802002,-0.511963,-6.835937,107.13958,15.701293,0.9567815136011982
0 days 00:00:58.090000,0.338623,-0.783691,-0.30127,-45.738216,-249.992355,-103.767387,0.9053180283800826
0 days 00:00:58.100000,0.417725,-0.772217,-0.429932,-61.19537,-249.992355,-113.609306,0.9775759793172089
0 days 00:00:58.110000,0.412354,-0.712646,-0.45459,-71.968079,-249.992355,-112.800591,0.9405063586877018
0 days 00:00:58.120000,0.376709,-0.660645,-0.508301,-72.135925,-249.992355,-118.217461,0.9147302297983816
0 days 00:00:58.130000,0.385742,-0.706543,-0.547363,-76.927185,-249.992355,-139.549255,0.973450643423692
0 days 00:00:58.140000,0.449219,-0.73584,-0.505127,-90.675346,-249.992355,-160.85051,0.9992054351783721
0 days 00:00:58.150000,0.469482,-0.685791,-0.435791,-98.129265,-249.832138,-164.932236,0.9384223141453959
0 days 00:00:58.160000,0.399414,-0.589111,-0.367432,-78.826904,-249.93895,-157.775879,0.8009928765856785
0 days 00:00:58.170000,0.396729,-0.586426,-0.337158,-48.812862,-249.992355,-143.89801,0.7841969586022378
0 days 00:00:58.180000,0.39917,-0.716553,-0.398926,-41.007992,-244.163498,-148.292542,0.9121002380138928
0 days 00:00:58.190000,-0.001221,-0.784668,-0.057861,-43.617245,-249.992355,-108.695976,0.7867993749273064
0 days 00:00:58.200000,0.236084,-0.835205,-0.364746,-49.262997,-213.714584,-141.036987,0.941457748174075
0 days 00:00:58.210000,0.270508,-0.98291,-0.317871,-59.387203,-105.155937,-63.987728,1.0678617039696667
0 days 00:00:58.220000,0.257568,-1.033203,-0.397217,-66.688538,-65.948486,-24.009703,1.1364994759884406
0 days 00:00:58.230000,0.318115,-1.044922,-0.480957,-67.840576,-39.43634,8.964539,1.193473407813513
0 days 00:00:58.240000,0.437988,-1.031494,-0.53833,-60.806271,-25.085447,36.872864,1.2432266684237432
0 days 00:00:58.250000,0.611084,-1.023926,-0.567871,-51.734921,-15.60974,52.253719,1.32072918540214
0 days 00:00:58.260000,0.717773,-1.084961,-0.543945,-47.225948,-11.96289,69.862366,1.410040642703252
0 days 00:00:58.270000,0.805908,-1.224121,-0.517578,-56.236263,-12.901305,92.109673,1.5542994927583937
0 days 00:00:58.280000,0.852783,-1.361084,-0.499023,-74.897766,-18.745422,117.515556,1.6819073858789015
0 days 00:00:58.290000,0.848389,-1.446533,-0.470703,-92.636101,-25.703428,149.421692,1.7417757977475172
0 days 00:00:58.300000,-0.191162,-0.886963,-0.50415,-3.90625,112.533562,13.305663,1.037985306308813
0 days 00:00:58.310000,0.233154,-0.887695,-0.238281,-52.009579,-156.1203,-102.943413,0.9482304760457765
0 days 00:00:58.320000,-0.081055,-0.950928,-0.030029,-63.84277,-249.992355,-134.124756,0.9548485298988526
0 days 00:00:58.330000,0.858643,-1.499756,-0.476318,-106.201164,-25.291441,183.944687,1.792599982737086
0 days 00:00:58.340000,0.577148,-1.435303,-0.054932,-30.3421,-203.666672,-71.517944,1.5479702969815021
0 days 00:00:58.350000,0.404297,-1.219238,-0.147217,-58.403011,-243.103012,-120.445244,1.292930860464704
0 days 00:00:58.360000,0.087158,-0.643311,-0.51709,3.341675,76.019287,8.583069,0.8299564011350236
0 days 00:00:58.370000,0.128662,-0.634521,-0.535645,7.614135,54.458614,0.007629,0.8402894594781015
0 days 00:00:58.380000,0.116455,-0.633057,-0.574219,9.742737,35.78186,-7.598876,0.8625835566685699
0 days 00:00:58.390000,0.117188,-0.634521,-0.61377,9.346008,21.446226,-15.129088,0.8905411499111089
0 days 00:00:58.400000,0.077637,-0.622803,-0.660889,8.666992,15.457152,-19.485474,0.9114194154718233
0 days 00:00:58.410000,0.094971,-0.62793,-0.675537,9.674072,13.374328,-23.139952,0.9271816510856975
0 days 00:00:58.420000,0.134521,-0.670898,-0.661133,10.986327,11.260985,-26.672361,0.9514708978912597
0 days 00:00:58.430000,0.070801,-0.729248,-0.612549,10.780334,18.287659,-26.390074,0.9550035102061144
0 days 00:00:58.440000,-0.04126,-0.757813,-0.586426,8.895874,38.299561,-13.34381,0.959102905868291
0 days 00:00:58.450000,-0.080322,-0.793213,-0.599609,4.600525,57.53326,2.227783,0.997581796111978
0 days 00:00:58.460000,-0.016357,-0.706299,-0.50415,-3.677368,94.505302,13.549804,0.8679245654721383
0 days 00:00:58.470000,-0.023926,-0.837646,-0.53125,0.236511,67.314148,13.900756,0.992194455382613
0 days 00:00:58.480000,0.022949,-0.839111,-0.479736,1.480102,69.068909,22.293089,0.9668405021605166
0 days 00:00:58.490000,-0.018799,-0.83374,-0.455811,7.980346,70.259094,30.204771,0.9503891085876354
0 days 00:00:58.500000,0.00293,-0.853027,-0.397461,16.662598,70.579529,35.514832,0.9410838932581941
0 days 00:00:58.510000,0.069824,-0.872314,-0.297607,28.045652,64.758301,37.559509,0.9243251765590939
0 days 00:00:58.520000,0.054688,-0.904297,-0.21167,43.762203,52.604671,35.53772,0.9303483382330513
0 days 00:00:58.530000,0.062744,-0.949707,-0.168701,60.93597,34.858704,26.657103,0.9666127574090877
0 days 00:00:58.540000,0.336914,-1.07959,-0.102051,70.671082,5.126953,6.408691,1.1355351241141773
0 days 00:00:58.550000,0.465332,-1.287598,-0.069092,63.064571,-42.701717,-21.934507,1.370845062102935
0 days 00:00:58.560000,0.371826,-1.415771,-0.045166,38.833618,-90.400688,-39.398193,1.4644801351582069
0 days 00:00:58.570000,0.488525,-1.477051,-0.034424,3.944397,-142.547607,-49.621578,1.5561238202668835
0 days 00:00:58.580000,0.154541,-0.904541,-0.457031,-8.911133,82.550041,38.627625,1.0251608051047407
0 days 00:00:58.590000,0.140381,-0.918945,-0.47998,-9.880066,89.355461,41.137691,1.046206260058694
0 days 00:00:58.600000,0.101318,-0.934326,-0.473389,-8.81958,95.718376,43.586727,1.0522963255286033
0 days 00:00:58.610000,0.070068,-0.926758,-0.449707,-5.813598,101.173393,46.607967,1.0324854967683565
0 days 00:00:58.620000,-0.034668,-0.918945,-0.365967,-7.598876,72.380066,37.376404,0.9897442236951929
0 days 00:00:58.630000,-0.033447,-0.889648,-0.402344,-2.235413,104.202263,49.324032,0.9769713199725978
0 days 00:00:58.640000,-0.101807,-0.879639,-0.399902,-3.501892,95.191948,45.585629,0.9716228924711479
0 days 00:00:58.650000,-0.090088,-0.893799,-0.37207,-6.599426,82.420341,40.969845,0.9723315201334368
0 days 00:00:58.660000,0.043701,-0.904541,-0.420654,-3.166198,104.927055,49.209591,0.9985259064230633
0 days 00:00:58.670000,0.121826,-0.886963,-0.395508,-5.172729,75.111389,36.064148,0.9787601931571389
0 days 00:00:58.680000,0.056885,-0.899414,-0.372803,2.540588,69.587708,34.27124,0.9752761267610318
0 days 00:00:58.690000,0.063477,-0.799561,-0.389893,12.565612,69.702148,32.63092,0.8918204268231358
0 days 00:00:58.700000,0.048828,-0.831787,-0.39502,10.772704,72.021484,34.706116,0.9221141943127218
0 days 00:00:58.710000,0.053467,-0.87085,-0.386963,7.118225,72.929382,35.652161,0.9544520972568503
0 days 00:00:58.720000,0.020752,-0.818359,-0.471924,7.469177,91.049187,37.971497,0.944909710057527
0 days 00:00:58.730000,0.056885,-0.888184,-0.373047,0.465393,64.926147,33.081055,0.9650237226565987
0 days 00:00:58.740000,0.043701,-0.859375,-0.396973,1.686096,63.140865,32.63855,0.9476406126559794
0 days 00:00:58.750000,0.016357,-0.846924,-0.418945,1.991272,64.193726,33.737183,0.9450199607680253
0 days 00:00:58.760000,0.007324,-0.848633,-0.417725,0.38147,67.565918,35.40802,0.9458994583411072
0 days 00:00:58.770000,-0.036865,-0.827881,-0.43042,0.968933,74.47052,37.307739,0.9338133404412253
0 days 00:00:58.780000,-0.052979,-0.795898,-0.454346,5.203247,83.152763,37.666321,0.9179818563354071
0 days 00:00:58.790000,0.006104,-0.908203,-0.366699,-5.050659,69.274902,36.911011,0.9794580668032705
0 days 00:00:58.800000,0.095459,-0.854004,-0.346191,1.327515,69.534302,33.157349,0.9264358915640089
0 days 00:00:58.810000,0.012695,-0.88916,-0.358398,-2.235413,72.090149,39.451599,0.9587574224114251
0 days 00:00:58.820000,-0.019287,-0.807373,-0.454102,5.691528,57.464596,26.832579,0.9265159339709166
0 days 00:00:58.830000,-0.086182,-0.874268,-0.359375,1.441955,76.591492,40.824886,0.9491692491716112
0 days 00:00:58.840000,0.098877,-0.876221,-0.428955,7.064819,95.230095,41.397091,0.9805826298660404
0 days 00:00:58.850000,-0.072998,-0.929443,-0.383789,-0.740051,-16.937256,-15.480041,1.00820979700358
0 days 00:00:58.860000,-0.075195,-0.894287,-0.420898,-3.761291,-14.068603,-16.143799,0.9912409660612298
0 days 00:00:58.870000,-0.077881,-0.854736,-0.43335,-3.974914,-10.353087,-15.335082,0.961473505800862
0 days 00:00:58.880000,-0.090332,-0.834229,-0.424805,-2.670288,-5.180358,-12.71057,0.9405090019186418
0 days 00:00:58.890000,-0.106934,-0.822998,-0.420166,-1.663208,1.213074,-9.338379,0.9302150589600235
0 days 00:00:58.900000,-0.088623,-0.812744,-0.433838,-0.022888,6.91986,-5.569458,0.9255389002678386
0 days 00:00:58.910000,-0.030273,-0.819824,-0.442871,2.27356,10.910033,-2.655029,0.9322888866365404
0 days 00:00:58.920000,0.015869,-0.839111,-0.441895,2.586365,13.504027,-0.892639,0.9484884219151017
0 days 00:00:58.930000,0.016113,-0.855469,-0.450684,1.052856,17.677307,1.426697,0.9670588950968808
0 days 00:00:58.940000,-0.035645,-0.894531,-0.356445,-0.587463,75.744629,41.748043,0.9635918814576012
0 days 00:00:58.950000,-0.012451,-0.850098,-0.467529,-0.144958,25.611876,4.920959,0.9702602758260281
0 days 00:00:58.960000,-0.010254,-0.810791,-0.461426,3.166198,47.859188,19.325256,0.9329529161072386
0 days 00:00:58.970000,-0.029541,-0.82251,-0.439697,6.843566,65.704346,34.004211,0.9331285134374578
0 days 00:00:58.980000,0.005615,-0.836426,-0.42749,7.17163,70.358276,39.352417,0.9393549285552293
0 days 00:00:58.990000,0.032715,-0.846436,-0.443848,6.149292,71.94519,40.565487,0.956308120024608
0 days 00:00:59,0.017822,-0.858887,-0.464111,3.852844,73.944092,40.039063,0.976423843816813
0 days 00:00:59.010000,-0.00293,-0.866943,-0.455078,1.76239,76.454163,39.94751,0.9791295809202172
0 days 00:00:59.020000,-0.034668,-0.868164,-0.442139,0.450134,78.033447,39.131165,0.9748833245270944
0 days 00:00:59.030000,-0.052246,-0.86377,-0.421631,0.511169,77.339172,39.024353,0.9626011414791694
0 days 00:00:59.040000,-0.033447,-0.858887,-0.396973,1.747131,76.042175,39.360046,0.9467804092327851
0 days 00:00:59.050000,-0.063965,-0.864746,-0.377441,1.831055,75.683594,39.459229,0.9456949160389941
0 days 00:00:59.060000,-0.030518,-0.828857,-0.470215,0.534058,36.422729,11.070251,0.9534345394404379
0 days 00:00:59.070000,0.076172,-0.908447,-0.376221,7.850646,93.070976,44.647213,0.9862151723807538
0 days 00:00:59.080000,0.084961,-0.802002,-0.362793,8.865356,68.54248,31.379698,0.884332709094264
0 days 00:00:59.090000,0.077393,-0.906982,-0.378418,7.019042,78.483582,39.558411,0.9858023166421348
0 days 00:00:59.100000,-0.079102,-0.938477,-0.426758,-6.881713,-4.829407,20.118711,1.0339819130415193
0 days 00:00:59.110000,-0.144775,-0.957031,-0.429932,-11.20758,5.53894,28.816221,1.059107954936606
0 days 00:00:59.120000,-0.196045,-0.94043,-0.433838,-14.175414,16.723633,37.010193,1.0540671881663901
0 days 00:00:59.130000,-0.202393,-0.914551,-0.438721,-16.998291,25.588987,44.837948,1.0343319456978015
0 days 00:00:59.140000,-0.177979,-0.881836,-0.453125,-18.440247,32.50885,49.057003,1.0072901870672621
0 days 00:00:59.150000,-0.164063,-0.862061,-0.463867,-19.355774,38.230896,48.942562,0.9925917737816488
0 days 00:00:59.160000,-0.132568,-0.833984,-0.452148,-18.218994,42.137142,47.309872,0.95788381382295
0 days 00:00:59.170000,-0.072021,-0.804443,-0.44751,-14.801024,41.244503,43.022152,0.9233530011810218
0 days 00:00:59.180000,-0.036621,-0.779785,-0.447021,-8.605957,38.55896,40.290829,0.8995740760532175
0 days 00:00:59.190000,-0.019287,-0.784424,-0.457764,-2.388,36.5448,36.880493,0.9084276965400163
0 days 00:00:59.200000,-0.001709,-0.903809,-0.445557,-5.012512,-11.184691,12.115478,1.007667936083609
0 days 00:00:59.210000,-0.053223,-0.843506,-0.462891,-0.938415,36.468506,34.172058,0.963640564549874
0 days 00:00:59.220000,-0.133057,-0.901367,-0.443359,-3.875732,43.243404,33.52356,1.013278755732597
0 days 00:00:59.230000,-0.131592,-0.848145,-0.447998,0.045776,53.184505,35.552979,0.9681779813097383
0 days 00:00:59.240000,-0.093994,-0.833984,-0.452148,1.350403,62.911983,37.750244,0.9533110710549835
0 days 00:00:59.250000,-0.105713,-0.823975,-0.445068,0.62561,70.129395,36.811829,0.9424412786046672
0 days 00:00:59.260000,-0.109375,-0.807861,-0.4375,1.190186,77.857971,34.507751,0.9252072935002189
0 days 00:00:59.270000,-0.048828,-0.79541,-0.422119,3.334045,82.885735,32.852173,0.901801359416252
0 days 00:00:59.280000,0.041504,-0.779541,-0.403809,6.973266,81.314079,29.876707,0.8789018495702464
0 days 00:00:59.290000,0.078125,-0.782227,-0.387207,9.643555,75.233459,24.894712,0.8763058005074484
0 days 00:00:59.300000,0.12207,-0.789307,-0.371094,11.985778,68.161011,18.424988,0.8806914226816337
0 days 00:00:59.310000,0.180908,-0.804199,-0.35791,14.122008,59.127804,10.688781,0.898645260469892
0 days 00:00:59.320000,-0.091309,-0.898193,-0.45459,-2.540588,39.024353,33.683777,1.0108115881953472
0 days 00:00:59.330000,0.062256,-0.881592,-0.460693,-6.752014,-12.100219,6.729125,0.9966535527699684
0 days 00:00:59.340000,0.215088,-0.837891,-0.344238,15.914916,48.820492,2.059937,0.9310338212272421
0 days 00:00:59.350000,0.10083,-0.886719,-0.459473,-11.047362,-6.004333,3.028869,1.003769252164062
0 days 00:00:59.360000,0.101807,-0.878418,-0.466064,-9.803772,-10.108947,3.028869,0.9995991697020361
0 days 00:00:59.370000,0.122559,-0.842773,-0.428955,12.992858,72.662354,33.13446,0.9535666888241221
0 days 00:00:59.380000,0.101807,-0.821289,-0.45459,16.967773,64.537048,25.878904,0.9442099103853974
0 days 00:00:59.390000,0.064697,-0.841553,-0.451904,17.547607,55.877682,18.707275,0.9573998009368918
0 days 00:00:59.400000,0.076172,-0.871094,-0.445313,17.700195,45.478817,13.710021,0.9812800815205617
0 days 00:00:59.410000,0.156494,-0.917236,-0.416992,15.342711,28.465269,6.988525,1.0196541471479437
0 days 00:00:59.420000,0.199951,-0.938965,-0.372559,11.306762,6.774902,-4.15802,1.0297746754057415
0 days 00:00:59.430000,0.151123,-0.920166,-0.3479,7.751464,-12.5885,-15.846251,0.9952778700870426
0 days 00:00:59.440000,0.083984,-0.872559,-0.33667,8.460999,-26.679991,-26.321409,0.9390203456991759
0 days 00:00:59.450000,0.060303,-0.841064,-0.329102,11.520385,-34.881592,-32.455444,0.9051702769694772
0 days 00:00:59.460000,0.075928,-0.858398,-0.300293,11.070251,-40.008545,-34.90448,0.9125722291616154
0 days 00:00:59.470000,0.042725,-0.928711,-0.35376,6.217956,85.540764,43.945309,0.9947239238834059
0 days 00:00:59.480000,0.062256,-0.883545,-0.315186,2.082825,-43.785091,-30.151365,0.9401434949820161
0 days 00:00:59.490000,0.055908,-0.871094,-0.337158,-1.25885,-43.319698,-22.186277,0.9357381996391939
0 days 00:00:59.500000,0.041504,-0.858643,-0.384277,-4.386902,-40.496822,-14.663695,0.9416258260020272
0 days 00:00:59.510000,0.021973,-0.850098,-0.421875,-7.522583,-35.057068,-8.743286,0.9492775874094995
0 days 00:00:59.520000,0.045654,-0.8125,-0.436768,-5.844116,-27.351377,-2.655029,0.9235836851850513
0 days 00:00:59.530000,0.071289,-0.764648,-0.46167,0.350952,-21.339415,-0.312805,0.8960512676878483
0 days 00:00:59.540000,0.0625,-0.767334,-0.476318,4.203796,-18.310547,-0.083923,0.9053101980426378
0 days 00:00:59.550000,0.033447,-0.813232,-0.49292,2.258301,-13.900756,-0.259399,0.951543542899115
0 days 00:00:59.560000,0.029297,-0.878418,-0.500244,-3.326416,-6.896972,0.25177,1.0112964730824487
0 days 00:00:59.570000,0.055176,-0.90332,-0.478271,-9.284973,-3.303528,4.03595,1.0236085984481569
0 days 00:00:59.580000,0.078613,-0.883057,-0.293701,6.912231,-42.861935,-34.27887,0.9339325170583792
0 days 00:00:59.590000,0.102295,-0.942871,-0.193848,-0.274658,-53.512569,-22.766111,0.9680118990849235
0 days 00:00:59.600000,0.120361,-0.96582,-0.270264,11.367797,-102.905266,-34.790039,1.010117652759816
0 days 00:00:59.610000,0.131836,-0.966553,-0.261963,13.603209,-99.517815,-32.020569,1.01006437719286
0 days 00:00:59.620000,0.140381,-0.963623,-0.241699,15.350341,-94.612114,-29.563902,1.0033416755477667
0 days 00:00:59.630000,0.13916,-0.859131,-0.197021,18.722534,-64.13269,-19.775391,0.8923501864189866
0 days 00:00:59.640000,0.154297,-0.932861,-0.223633,18.493652,-81.199638,-21.987913,0.971621803079264
0 days 00:00:59.650000,0.157471,-0.89502,-0.221191,19.500732,-74.653625,-19.645691,0.9352985484442923
0 days 00:00:59.660000,0.155518,-0.870605,-0.2146,18.951416,-69.213867,-20.797728,0.9100505888954745
0 days 00:00:59.670000,0.145996,-0.959473,-0.2229,16.540527,-88.500969,-26.229856,0.995784956576971
0 days 00:00:59.680000,0.101563,-0.95752,-0.268066,11.360168,-105.163567,-36.811829,0.9995093665018854
0 days 00:00:59.690000,0.010498,-0.928223,-0.288086,12.504577,-96.885674,-37.399292,0.9719576580947341
0 days 00:00:59.700000,0.082764,-0.949219,-0.2229,12.634276,-107.185356,-38.68103,0.978545348799431
0 days 00:00:59.710000,0.058838,-0.947266,-0.235107,12.283324,-106.399529,-38.764954,0.9777781376411522
0 days 00:00:59.720000,0.023682,-0.936279,-0.26001,12.329101,-103.042595,-38.375854,0.9720002073379409
0 days 00:00:59.730000,0.139893,-0.869629,-0.189697,15.800475,-58.639523,-19.111633,0.9010047729612757
0 days 00:00:59.740000,0.009766,-0.930176,-0.314453,11.390685,-88.340752,-34.797668,0.9819386207604831
0 days 00:00:59.750000,-0.028564,-0.922852,-0.313965,11.810302,-79.399109,-30.014036,0.9752157388111617
0 days 00:00:59.760000,-0.049561,-0.908691,-0.307617,14.411925,-70.549011,-25.367735,0.9606267979246675
0 days 00:00:59.770000,-0.060547,-0.904785,-0.309326,16.960144,-61.775204,-21.690367,0.95811502947715
0 days 00:00:59.780000,-0.055908,-0.919678,-0.309082,17.204285,-53.421017,-18.135071,0.9718358970896269
0 days 00:00:59.790000,-0.031006,-0.939941,-0.3125,15.731811,-47.042843,-15.388488,0.9910129693989883
0 days 00:00:59.800000,-0.014404,-0.944336,-0.326904,13.496398,-41.801449,-14.205932,0.999421923577825
0 days 00:00:59.810000,0.084961,-0.949951,-0.242676,12.268065,-106.826775,-38.314819,0.9841325697780762
0 days 00:00:59.820000,0.137695,-0.886719,-0.184814,12.756347,-53.1311,-17.234802,0.9161805021839311
0 days 00:00:59.830000,0.082764,-0.98291,-0.211182,13.923644,-47.058102,-7.720947,1.0087416839409384
0 days 00:00:59.840000,0.102539,-0.931885,-0.195068,9.254456,-43.624874,-10.330199,0.9575883376326175
0 days 00:00:59.850000,-0.005371,-0.931885,-0.34082,12.222289,-36.04126,-13.34381,0.9922684985758643
0 days 00:00:59.860000,0.097168,-0.934326,-0.205078,0.312805,-51.895138,-22.994993,0.9614903434689295
0 days 00:00:59.870000,0.097168,-0.927002,-0.208984,1.457214,-51.11694,-22.636412,0.9552217755495317
0 days 00:00:59.880000,0.10791,-0.918213,-0.212891,3.852844,-52.108761,-22.65167,0.9487266515440578
0 days 00:00:59.890000,0.125977,-0.914551,-0.226563,6.576538,-55.191036,-23.91815,0.9505811533472563
0 days 00:00:59.900000,0.126465,-0.92334,-0.238525,8.796692,-59.143063,-24.703978,0.9620001701922927
0 days 00:00:59.910000,0.110352,-0.938477,-0.229004,9.765625,-60.272213,-23.03314,0.9722959814012397
0 days 00:00:59.920000,0.087158,-0.943359,-0.231689,9.490967,-57.716366,-19.462585,0.9752961153239563
0 days 00:00:59.930000,0.085693,-0.938232,-0.241699,9.750366,-53.436275,-14.556884,0.9726463811036362
0 days 00:00:59.940000,0.108887,-0.931641,-0.250732,10.604857,-50.437923,-11.054992,0.9709159940355294
0 days 00:00:59.950000,0.123047,-0.913818,-0.1875,10.681151,-47.378536,-13.282775,0.9409357849146774
0 days 00:00:59.960000,0.101318,-0.928467,-0.244141,11.947631,-49.499508,-8.674622,0.9653606243751607
0 days 00:00:59.970000,0.071045,-0.927002,-0.211426,16.067505,-46.562191,-4.150391,0.953457420918732
0 days 00:00:59.980000,0.069824,-0.938232,-0.221924,17.112732,-43.083187,-3.364563,0.9666462323808023
0 days 00:00:59.990000,0.057373,-0.940186,-0.220703,17.585754,-41.191097,-2.723694,0.9674457038686977
0 days 00:01:00,0.057129,-0.941406,-0.222412,18.829346,-40.756222,-1.556396,0.9690077797525672
0 days 00:01:00.010000,0.07251,-0.943604,-0.224609,20.63751,-41.114803,-1.869202,0.9726743606145892
0 days 00:01:00.020000,0.093262,-0.964844,-0.227783,19.454956,-42.114254,-4.310608,0.9957443648191037
0 days 00:01:00.030000,0.0896,-0.981445,-0.211426,16.586304,-44.853207,-6.523132,1.0079500987157053
0 days 00:01:00.040000,0.084229,-0.970947,-0.228027,11.421203,-46.653744,-9.346008,1.0009140392556195
0 days 00:01:00.050000,0.085938,-0.95874,-0.231934,8.758545,-43.739315,-10.185241,0.9901318638444074
0 days 00:01:00.060000,0.086182,-0.946777,-0.214111,8.148193,-42.526241,-9.841919,0.9745037430271882
0 days 00:01:00.070000,0.077148,-0.925537,-0.224854,14.137267,-48.660275,-5.851745,0.9555782927573231
0 days 00:01:00.080000,0.078613,-0.935547,-0.212646,16.937256,-44.715878,-4.310608,0.9626248045287427
0 days 00:01:00.090000,-0.006348,-0.910645,-0.344482,11.71112,-29.58679,-11.695861,0.9736439089590198
0 days 00:01:00.100000,-0.040039,-0.850586,-0.336426,15.434264,-14.274596,-5.386352,0.9155774780940168
0 days 00:01:00.110000,0.02832,-0.94043,-0.351807,7.736206,24.398802,-3.257751,1.0044793539685124
0 days 00:01:00.120000,0.046143,-0.90918,-0.342041,9.292603,22.636412,-3.555298,0.9724862438770021
0 days 00:01:00.130000,0.050293,-0.885742,-0.34082,11.940001,21.163939,-3.532409,0.9503823171824064
0 days 00:01:00.140000,0.05957,-0.890625,-0.335938,13.626098,20.156858,-2.746582,0.9537378126974939
0 days 00:01:00.150000,0.076904,-0.916504,-0.342773,13.351439,18.920898,-2.082825,0.9815228661427099
0 days 00:01:00.160000,0.082275,-0.964844,-0.350342,10.44464,17.76886,-2.349854,1.0297730997287704
0 days 00:01:00.170000,0.066895,-0.993652,-0.342773,5.775451,17.089844,-3.288269,1.053239083806711
0 days 00:01:00.180000,0.0625,-0.976318,-0.352295,2.952575,14.846801,-4.737854,1.0398148172386275
0 days 00:01:00.190000,0.067627,-0.94043,-0.349121,2.876281,10.57434,-6.79779,1.0054190512766306
0 days 00:01:00.200000,0.081543,-0.869141,-0.303711,11.95526,-4.173279,-12.992858,0.9242811857064926
0 days 00:01:00.210000,0.009521,-0.970459,-0.365967,7.759094,25.466917,-2.716064,1.037214136623195
0 days 00:01:00.220000,0.084473,-0.875488,-0.292236,12.985229,-13.298034,-16.197205,0.9268315950424867
0 days 00:01:00.230000,0.049316,-0.904785,-0.315918,8.69751,-26.290892,-20.217894,0.959620834916062
0 days 00:01:00.240000,0.027588,-0.894043,-0.325928,7.4234,-29.678343,-21.232603,0.9519994983071157
0 days 00:01:00.250000,0.018311,-0.887207,-0.328613,7.583618,-31.723021,-21.888731,0.9462864562800208
0 days 00:01:00.260000,0.00415,-0.880371,-0.321045,9.651184,-32.814026,-21.957396,0.9370913574278658
0 days 00:01:00.270000,-0.021729,-0.888916,-0.293701,12.062072,-32.646179,-21.347044,0.9364315681874464
0 days 00:01:00.280000,-0.059326,-0.89624,-0.277588,13.496398,-29.861448,-19.645691,0.9401174445887067
0 days 00:01:00.290000,-0.07666,-0.903076,-0.311768,13.656615,-25.711058,-17.570496,0.9584478614927365
0 days 00:01:00.300000,-0.074219,-0.920654,-0.339355,9.918213,-22.132872,-15.563964,0.9840091786675569
0 days 00:01:00.310000,-0.070313,-0.93042,-0.355225,4.516602,-19.294739,-14.968871,0.9984037735275243
0 days 00:01:00.320000,-0.024658,-0.887695,-0.339111,12.115478,-22.377012,-9.056091,0.9505822953905675
0 days 00:01:00.330000,0.073242,-0.896729,-0.305908,11.245727,-21.118162,-18.211365,0.9502983712860924
0 days 00:01:00.340000,-0.015625,-0.987549,-0.363525,9.475708,25.154112,-2.151489,1.0524483805161182
0 days 00:01:00.350000,0.075928,-0.891113,-0.332031,7.041931,4.165649,-9.742737,0.9539874343585455
0 days 00:01:00.360000,0.018799,-0.936035,-0.334961,14.831542,24.963377,-0.869751,0.9943408847809688
0 days 00:01:00.370000,-0.003174,-0.9729,-0.352539,12.374877,24.963377,-1.533508,1.0348083063046025
0 days 00:01:00.380000,-0.006348,-0.840332,-0.310547,26.06201,-3.318786,2.815246,0.8959004445455979
0 days 00:01:00.390000,0.033447,-0.872803,-0.301025,27.435301,-1.89209,5.218505,0.9238613690608565
0 days 00:01:00.400000,0.06543,-0.901855,-0.3125,25.985716,-2.578735,4.226685,0.956702553526957
0 days 00:01:00.410000,0.072998,-0.924561,-0.337891,22.735594,-4.91333,1.274109,0.987072478902132
0 days 00:01:00.420000,0.067383,-0.93335,-0.352539,18.684387,-6.736755,-1.106262,0.9999832187141943
0 days 00:01:00.430000,0.056152,-0.920654,-0.355225,16.464233,-7.446289,-3.059387,0.9884035792352232
0 days 00:01:00.440000,0.048584,-0.901855,-0.350586,17.059326,-8.010864,-4.302979,0.9688206178013554
0 days 00:01:00.450000,0.043213,-0.888184,-0.336182,18.157959,-7.369995,-4.79126,0.9506610954220226
0 days 00:01:00.460000,0.021973,-0.886719,-0.314209,19.569397,-5.615234,-4.570007,0.9409998370727809
0 days 00:01:00.470000,0.006836,-0.889893,-0.298584,20.973204,-3.051758,-3.540039,0.9386738983273158
0 days 00:01:00.480000,-0.029297,-0.825439,-0.331055,21.369932,-7.125854,-1.037598,0.8898344059177528
0 days 00:01:00.490000,0.019531,-0.923584,-0.292236,23.353575,3.608703,-0.144958,0.9689121449920007
0 days 00:01:00.500000,0.01416,-0.899902,-0.297119,22.705076,0.114441,-1.945495,0.9477889086526599
0 days 00:01:00.510000,-0.001221,-0.883301,-0.334717,11.680602,28.053282,-0.366211,0.9445938902676642
0 days 00:01:00.520000,-0.013428,-0.896729,-0.351318,7.064819,26.016233,-0.144958,0.9631861438730315
0 days 00:01:00.530000,-0.009033,-0.934814,-0.361084,3.64685,22.750853,0.228882,1.0021678825132045
0 days 00:01:00.540000,0.004395,-0.962158,-0.362305,4.776001,20.622252,1.045227,1.0281207351347408
0 days 00:01:00.550000,0.018311,-0.897461,-0.328369,14.877318,26.893614,-0.419617,0.9558230690891488
0 days 00:01:00.560000,-0.003174,-0.969971,-0.342529,14.114379,14.60266,1.304626,1.028678730682228
0 days 00:01:00.570000,0.011475,-0.958252,-0.314209,18.424988,10.688781,0.534058,1.008516666600012
0 days 00:01:00.580000,0.016357,-0.942871,-0.292725,21.667479,7.019042,0.701904,0.9874012354230676
0 days 00:01:00.590000,-0.000244,-0.97583,-0.356934,8.789063,17.929077,1.564026,1.0390602142282228
0 days 00:01:00.600000,0.098389,-0.983398,-0.187256,16.799927,13.084411,10.055541,1.0058910633169975
0 days 00:01:00.610000,0.257568,-0.894775,-0.099121,47.195431,-119.911186,-87.913506,0.9363698777139299
0 days 00:01:00.620000,0.213867,-0.929443,-0.124268,45.867916,-112.098686,-80.642693,0.9617930753348144
0 days 00:01:00.630000,0.167236,-0.968018,-0.141113,40.496822,-99.555962,-71.266174,0.9924412359374233
0 days 00:01:00.640000,0.116699,-0.990723,-0.144287,35.232544,-80.26123,-59.387203,1.007953102926421
0 days 00:01:00.650000,0.077637,-0.994873,-0.138916,32.142639,-56.991573,-48.095699,1.0075204439384842
0 days 00:01:00.660000,0.035645,-0.988525,-0.150879,27.70233,-31.509398,-31.723021,1.0006081722087823
0 days 00:01:00.670000,0.298096,-0.870117,-0.089355,46.485897,-123.313896,-92.254631,0.924093682983495
0 days 00:01:00.680000,0.011719,-0.976318,-0.195068,23.635862,-8.590698,-9.536743,0.9956835324082648
0 days 00:01:00.690000,0.060059,-0.968018,-0.20874,20.469664,3.715515,2.6474,0.9920878587126244
0 days 00:01:00.700000,0.125244,-1.02417,-0.196045,9.506226,21.957396,13.374328,1.0502589635232826
0 days 00:01:00.710000,0.112793,-0.909668,-0.232178,-1.800537,38.551331,27.252195,0.9455817017883754
0 days 00:01:00.720000,0.156006,-1.048584,-0.181641,-10.45227,27.618406,18.089294,1.0755741396914487
0 days 00:01:00.730000,0.183105,-0.983887,-0.19458,-10.551452,30.761717,21.987913,1.01952069434318
0 days 00:01:00.740000,0.165283,-0.928223,-0.22168,-5.455017,34.538269,25.123594,0.9685341657463613
0 days 00:01:00.750000,0.102051,-0.914551,-0.23999,-1.823425,39.726257,30.326841,0.9510063818408371
0 days 00:01:00.760000,0.137207,-0.909668,-0.230713,-2.182007,38.505554,32.752991,0.9484461605394373
0 days 00:01:00.770000,0.14502,-0.9021,-0.239258,-2.380371,34.591675,31.196592,0.9444890687371665
0 days 00:01:00.780000,0.123291,-0.894531,-0.241699,-2.311707,30.914305,28.762815,0.9347752602861288
0 days 00:01:00.790000,0.117432,-0.883545,-0.234375,-0.434875,29.869078,27.969358,0.9216147146579203
0 days 00:01:00.800000,0.115479,-0.882813,-0.232178,1.472473,30.158995,26.786802,0.9201091327087239
0 days 00:01:00.810000,0.331543,-0.843018,-0.104736,44.067379,-121.299736,-93.01757,0.9119044570946016
0 days 00:01:00.820000,0.130859,-1.060059,-0.200684,-2.052307,25.749205,15.281676,1.086794934299015
0 days 00:01:00.830000,0.35791,-0.820557,-0.116943,39.916992,-114.868156,-91.690056,0.9028228085277863
0 days 00:01:00.840000,0.105957,-0.88623,-0.223877,2.235413,31.295774,25.3067,0.9201909638102299
0 days 00:01:00.850000,0.352295,-0.778564,-0.1521,34.515381,-97.534172,-81.970207,0.8679908289383017
0 days 00:01:00.860000,0.290527,-0.829834,-0.277832,-19.966125,28.625486,-23.986814,0.9220743058501305
0 days 00:01:00.870000,0.283447,-0.833496,-0.261963,-19.40155,30.72357,-22.575377,0.9185218544999351
0 days 00:01:00.880000,0.285645,-0.83667,-0.253906,-16.410828,34.500122,-21.461485,0.9198249897458756
0 days 00:01:00.890000,0.281982,-0.856934,-0.234619,-13.870238,37.940979,-20.423887,0.9321458061059975
0 days 00:01:00.900000,0.300537,-0.864014,-0.219971,-10.772704,40.344234,-20.065308,0.9408665800239692
0 days 00:01:00.910000,0.316895,-0.84668,-0.214844,-4.379272,41.427608,-19.294739,0.9292187082495702
0 days 00:01:00.920000,0.317383,-0.857178,-0.211182,0.923157,41.519161,-17.51709,0.9381278854703126
0 days 00:01:00.930000,0.312012,-0.88916,-0.209961,2.830505,41.90826,-15.724181,0.9654225060899502
0 days 00:01:00.940000,0.307861,-0.921875,-0.216309,1.342773,42.594906,-14.312743,0.9957015086997709
0 days 00:01:00.950000,0.313477,-0.924561,-0.228516,-0.068665,43.151852,-14.045714,1.0026467147036386
0 days 00:01:00.960000,0.360352,-0.802979,-0.131104,36.819458,-106.246941,-88.348381,0.8898410516271993
0 days 00:01:00.970000,0.351318,-0.888428,-0.231445,2.685547,41.900631,-17.311096,0.9830032738160134
0 days 00:01:00.980000,0.382324,-0.790283,-0.217773,17.349243,30.624388,-22.506712,0.9045130958664999
0 days 00:01:00.990000,0.366943,-0.772217,-0.215576,25.138853,22.064207,-24.528502,0.8817251681300698
0 days 00:01:01,0.378174,-0.799072,-0.212891,29.571531,12.779235,-28.564451,0.909315244203571
0 days 00:01:01.010000,0.396973,-0.853271,-0.224609,27.748106,2.044678,-34.812927,0.9675268291117306
0 days 00:01:01.020000,0.424316,-0.90918,-0.249512,19.950867,-9.391785,-43.54858,1.0338803501372875
0 days 00:01:01.030000,0.459961,-0.929199,-0.24585,10.131835,-22.010801,-54.122921,1.0655595364042312
0 days 00:01:01.040000,0.488281,-0.887207,-0.203125,6.187438,-37.490845,-64.048767,1.0328670589359503
0 days 00:01:01.050000,0.497559,-0.814453,-0.161865,11.642455,-54.222103,-70.373535,0.9680387006287506
0 days 00:01:01.060000,0.466553,-0.761963,-0.142578,21.90399,-71.937561,-72.395325,0.9047584214927208
0 days 00:01:01.070000,0.387207,-0.758057,-0.155762,30.105589,-88.264458,-75.080872,0.8653562715679595
0 days 00:01:01.080000,0.38501,-0.836182,-0.222412,8.880615,37.42218,-20.698545,0.9470481165009517
0 days 00:01:01.090000,0.106934,-0.897217,-0.231445,2.89917,32.241821,23.803709,0.9327379125295595
0 days 00:01:01.100000,0.059814,-0.975586,-0.180176,14.663695,-96.160881,-72.410583,0.9938858832723202
0 days 00:01:01.110000,0.138672,-0.945313,-0.247559,1.152039,31.059263,21.636961,0.9869812815013261
0 days 00:01:01.120000,0.223877,-0.899658,-0.290771,-13.603209,-34.797668,-20.217894,0.9716240026543189
0 days 00:01:01.130000,0.264893,-0.947998,-0.281006,-17.89093,-38.825989,-26.93939,1.0236370848542953
0 days 00:01:01.140000,0.202148,-0.975098,-0.238525,-22.933958,-41.862484,-36.392212,1.0239990718418646
0 days 00:01:01.150000,0.15332,-0.946777,-0.221924,-24.909971,-41.53442,-42.930599,0.9844511018354339
0 days 00:01:01.160000,0.188477,-0.873291,-0.206055,-18.356323,-44.128414,-47.645565,0.9168529943426046
0 days 00:01:01.170000,0.257568,-0.806396,-0.213135,-6.576538,-58.410641,-54.779049,0.8729503489116663
0 days 00:01:01.180000,0.345703,-0.772461,-0.222412,6.41632,-77.003479,-66.40625,0.875027804400523
0 days 00:01:01.190000,0.385742,-0.781006,-0.236328,19.470215,-97.579948,-77.095032,0.902562012375881
0 days 00:01:01.200000,0.263916,-0.857422,-0.234375,24.345396,-111.396782,-81.336967,0.9272301665525124
0 days 00:01:01.210000,0.111328,-0.940918,-0.204834,20.332335,-109.123222,-77.339172,0.9693696786386503
0 days 00:01:01.220000,0.195068,-0.890869,-0.237305,-9.963989,-32.844543,-19.081116,0.9423442910157624
0 days 00:01:01.230000,0.117432,-0.916748,-0.229736,2.624511,32.096863,22.857664,0.9523632709339436
0 days 00:01:01.240000,0.046631,-0.942871,-0.181641,3.372192,-65.628052,-51.86462,0.9613394955389069
0 days 00:01:01.250000,0.071777,-0.910645,-0.218994,0.564575,-55.915829,-45.524593,0.9393533018997697
0 days 00:01:01.260000,0.111328,-0.889404,-0.233398,0.030518,-54.077145,-43.823238,0.9262332455726258
0 days 00:01:01.270000,0.150879,-0.885742,-0.220459,0.663757,-56.053158,-42.839046,0.9251516275108638
0 days 00:01:01.280000,0.16626,-0.878906,-0.19165,4.592896,-62.896725,-42.350765,0.9147938931453357
0 days 00:01:01.290000,0.166992,-0.891357,-0.177734,6.309509,-69.015503,-43.502804,0.9241174190918597
0 days 00:01:01.300000,0.143799,-0.904297,-0.178711,5.546569,-71.174622,-39.466858,0.9329356023493798
0 days 00:01:01.310000,0.084961,-0.915283,-0.181885,5.516052,-72.181702,-34.805298,0.9370397509364263
0 days 00:01:01.320000,0.048828,-0.932129,-0.181396,3.517151,-67.703247,-30.960081,0.9508696835218798
0 days 00:01:01.330000,0.06543,-0.935547,-0.182861,1.251221,-61.035152,-27.641294,0.9554932859157096
0 days 00:01:01.340000,0.034912,-0.9729,-0.160156,8.644104,-80.245972,-62.248226,0.9866119815205976
0 days 00:01:01.350000,0.215576,-0.938477,-0.178955,-7.080078,-30.311583,-16.998291,0.9794064443988512
0 days 00:01:01.360000,0.098145,-0.942383,-0.185547,0.091553,-55.877682,-24.017332,0.9654770059007102
0 days 00:01:01.370000,0.219482,-1.001709,-0.158691,3.356933,-16.235352,-6.66809,1.037678226853585
0 days 00:01:01.380000,0.148682,-0.978516,-0.260498,-2.89154,28.839109,18.424988,1.0234544969777601
0 days 00:01:01.390000,0.155273,-0.978516,-0.258057,-5.378723,27.740477,14.953612,1.0238147693963005
0 days 00:01:01.400000,0.13916,-0.936035,-0.265381,-2.883911,28.518675,12.46643,0.9828296403680548
0 days 00:01:01.410000,0.114014,-0.907715,-0.273438,0.648498,31.158445,12.481688,0.9548371867836946
0 days 00:01:01.420000,0.087158,-0.926025,-0.281494,-0.152588,35.78186,13.96942,0.9717806797961153
0 days 00:01:01.430000,0.058838,-0.95166,-0.289795,-4.478455,41.809078,15.426635,0.9965439317305584
0 days 00:01:01.440000,0.223389,-0.98999,-0.152832,-2.243042,-24.04785,-11.215209,1.0263237625842052
0 days 00:01:01.450000,0.13501,-0.944336,-0.26001,-10.208129,49.46899,20.446775,0.9887382773494712
0 days 00:01:01.460000,0.177734,-0.921875,-0.267334,-9.757996,47.286983,19.050598,0.976171274898519
0 days 00:01:01.470000,0.195801,-0.900146,-0.271973,-7.987976,43.861385,17.028809,0.9605051616966981
0 days 00:01:01.480000,0.203369,-0.889893,-0.272217,-6.04248,40.054321,15.174865,0.9525600226227218
0 days 00:01:01.490000,0.068848,-0.966309,-0.274658,-9.002686,47.370907,18.4021,1.006940985137163
0 days 00:01:01.500000,0.209473,-0.892334,-0.280762,-3.494262,33.195496,12.077331,0.9586272507752948
0 days 00:01:01.510000,0.211182,-0.887451,-0.276855,-2.105713,29.701231,10.925292,0.9533183128158191
0 days 00:01:01.520000,0.221191,-0.878174,-0.263672,0.343323,25.520323,9.666443,0.9432062109321588
0 days 00:01:01.530000,0.232666,-0.87207,-0.255371,3.631592,21.171568,7.835388,0.9380052772223619
0 days 00:01:01.540000,0.224609,-0.878906,-0.25,5.867004,17.234802,7.125854,0.9409702225453257
0 days 00:01:01.550000,0.198486,-0.890137,-0.247314,6.553649,14.366149,7.507324,0.9449363923360132
0 days 00:01:01.560000,0.190186,-0.898438,-0.230957,7.514953,11.360168,8.773804,0.9469438686052093
0 days 00:01:01.570000,0.220215,-0.905762,-0.210938,10.101317,6.210327,8.934021,0.9557166351555255
0 days 00:01:01.580000,0.235352,-0.935791,-0.187012,11.070251,-0.770569,4.920959,0.9828880138291443
0 days 00:01:01.590000,0.228027,-0.979248,-0.167236,8.117676,-8.354187,-1.724243,1.0192599462006735
0 days 00:01:01.600000,0.209717,-0.890137,-0.273926,-4.516602,36.376953,13.626098,0.954652058256829
0 days 00:01:01.610000,-0.010498,-1.01416,-0.075928,9.048462,101.821892,56.564327,1.0170524936245917
0 days 00:01:01.620000,-0.038818,-1.0271,-0.075928,10.612487,89.263908,47.698971,1.0306339351622378
0 days 00:01:01.630000,-0.043701,-1.021729,-0.085693,14.282226,75.401306,38.391113,1.0262471520501288
0 days 00:01:01.640000,-0.03418,-0.99585,-0.067871,17.883301,61.027523,29.953001,0.9987451965045939
0 days 00:01:01.650000,0.075928,-0.978271,-0.075684,7.43103,16.891479,-0.419617,0.9841276738721455
0 days 00:01:01.660000,0.008057,-0.967285,-0.059082,13.97705,35.873413,11.924743,0.9691211839589515
0 days 00:01:01.670000,0.029297,-0.963623,-0.059326,10.467528,26.229856,6.637573,0.9658919062783371
0 days 00:01:01.680000,0.058594,-0.97583,-0.06958,7.92694,20.080564,2.510071,0.9800606216637826
0 days 00:01:01.690000,-0.012451,-0.974609,-0.058838,17.303467,48.011776,19.996643,0.9764628208621156
0 days 00:01:01.700000,0.011719,-0.970215,-0.063965,11.680602,110.801689,66.314697,0.9723918975449148
0 days 00:01:01.710000,0.330322,-0.845947,-0.252686,21.286009,63.804623,59.852596,0.9426500756319919
0 days 00:01:01.720000,0.058105,-0.9375,-0.101074,23.902891,121.131889,74.996948,0.9447213316639992
0 days 00:01:01.730000,0.091797,-0.967285,-0.126709,24.971006,122.154228,75.485229,0.9798582199047983
0 days 00:01:01.740000,0.156982,-0.984131,-0.11499,23.41461,120.613091,77.644348,1.0031848651096167
0 days 00:01:01.750000,0.228516,-0.950684,-0.143555,24.459837,115.539543,81.161491,0.9882447410115573
0 days 00:01:01.760000,0.229248,-0.890625,-0.161621,27.999876,106.575005,81.93969,0.9337499042945065
0 days 00:01:01.770000,0.242188,-0.876953,-0.177734,29.991148,96.961967,76.324463,0.9269794853765643
0 days 00:01:01.780000,0.271484,-0.871094,-0.175293,31.112669,93.093864,72.212219,0.9291049213845549
0 days 00:01:01.790000,0.30835,-0.868652,-0.208008,30.357359,86.761467,70.556641,0.9449356314945478
0 days 00:01:01.800000,0.319336,-0.862061,-0.237305,27.313231,76.065063,67.443848,0.9494410522207263
0 days 00:01:01.810000,0.323242,-0.849854,-0.249268,24.398802,68.626404,63.911434,0.9427999510521836
0 days 00:01:01.820000,0.080566,-0.964111,-0.088135,7.331848,15.762328,-2.113342,0.9714775750896157
0 days 00:01:01.830000,0.0354,-0.941895,-0.064697,17.486572,115.867607,72.692871,0.9447777796042834
0 days 00:01:01.840000,0.079834,-0.963867,-0.09668,6.240844,15.274047,-3.211975,0.9719876972703924
0 days 00:01:01.850000,0.052734,-0.970459,-0.075928,-2.037048,3.562927,-1.25885,0.9748520947410433
0 days 00:01:01.860000,0.089844,-0.975586,-0.117676,4.638672,14.816283,-4.386902,0.9867561140970954
0 days 00:01:01.870000,0.341797,-0.840332,-0.252197,19.599915,58.555599,54.725643,0.9415871633800027
0 days 00:01:01.880000,0.074219,-0.96167,-0.057617,-4.325867,-19.775391,-9.490967,0.966249122923276
0 days 00:01:01.890000,0.07373,-0.986328,-0.0625,-7.789611,-19.477844,-9.086609,0.9910526153963773
0 days 00:01:01.900000,0.076416,-0.984131,-0.063477,-10.795592,-19.020081,-8.598328,0.9891322256129359
0 days 00:01:01.910000,0.074219,-0.973389,-0.057861,-11.573791,-18.829346,-8.720398,0.9779276561193062
0 days 00:01:01.920000,0.068604,-0.952637,-0.049072,-10.337829,-18.127441,-8.499146,0.9563638553233805
0 days 00:01:01.930000,0.063965,-0.937744,-0.048828,-7.705688,-17.26532,-7.492065,0.9411904718732548
0 days 00:01:01.940000,0.062744,-0.947754,-0.053955,-6.881713,-15.823363,-6.805419,0.9513598667575798
0 days 00:01:01.950000,0.057373,-0.948242,-0.058594,-6.080627,-13.496398,-5.943298,0.9517813869418754
0 days 00:01:01.960000,0.055664,-0.946045,-0.061035,-5.073547,-10.635375,-4.760742,0.9496446146564513
0 days 00:01:01.970000,0.082275,-0.969727,-0.103516,4.714966,14.755248,-3.944397,0.978700767553597
0 days 00:01:01.980000,0.053223,-0.942627,-0.067627,-3.616333,-7.453918,-3.540039,0.9465472835453071
0 days 00:01:01.990000,0.05127,-0.958496,-0.073486,-1.876831,-0.244141,-1.63269,0.9626751202311193
0 days 00:01:02,0.050781,-0.976074,-0.079834,-2.716064,7.690429,-0.930786,0.9806490865712362
0 days 00:01:02.010000,0.042236,-0.977051,-0.088135,-3.967285,12.260436,-0.617981,0.9819268376625623
0 days 00:01:02.020000,0.039307,-0.942627,-0.0896,-2.555847,16.845703,-0.144958,0.9476913323324214
0 days 00:01:02.030000,0.052734,-0.916992,-0.097412,0.724792,19.691467,-0.083923,0.9236581080486438
0 days 00:01:02.040000,0.066406,-0.901123,-0.103271,3.89862,20.301817,-0.411987,0.9094489086287365
0 days 00:01:02.050000,0.075684,-0.900146,-0.106934,6.637573,19.340515,-1.312256,0.909629468260566
0 days 00:01:02.060000,0.079346,-0.912598,-0.110107,8.270264,17.845154,-2.13623,0.9226345152708088
0 days 00:01:02.070000,0.086914,-0.935303,-0.118652,8.415222,16.731262,-2.952575,0.9467967270269791
0 days 00:01:02.080000,0.094238,-0.962402,-0.121338,6.54602,15.556334,-4.142761,0.9745877695169378
0 days 00:01:02.090000,0.049072,-0.948975,-0.069092,-2.441406,-3.952026,-2.388,0.9527514451697253
0 days 00:01:02.100000,0.345459,-0.843262,-0.256104,19.424438,53.344723,50.010677,0.9465843756057882
0 days 00:01:02.110000,0.078613,-0.949463,-0.057373,-3.601074,-20.057678,-9.635925,0.9544378729215433
0 days 00:01:02.120000,0.316895,-0.885986,-0.269531,14.785766,42.877193,47.08099,0.9787954807731798
0 days 00:01:02.130000,0.272705,-0.822998,-0.178223,-43.983456,28.739927,12.138366,0.8851311556814617
0 days 00:01:02.140000,0.250244,-0.820801,-0.186768,-39.69574,29.319761,8.247375,0.8781905413752757
0 days 00:01:02.150000,0.234131,-0.822998,-0.194824,-36.399841,31.448362,4.379272,0.8775530890726783
0 days 00:01:02.160000,0.232178,-0.825439,-0.201904,-33.294678,33.843994,1.121521,0.8809207635315449
0 days 00:01:02.170000,0.236816,-0.834717,-0.212891,-30.761717,35.522461,-1.564026,0.8933962535325521
0 days 00:01:02.180000,0.240479,-0.85376,-0.230713,-29.930113,36.857605,-4.638672,0.9164959222004209
0 days 00:01:02.190000,0.236084,-0.866455,-0.236572,-30.143736,37.643433,-7.629394,0.9286798335621378
0 days 00:01:02.200000,0.234619,-0.845947,-0.23584,-27.19116,37.910461,-10.116576,0.9090065497948846
0 days 00:01:02.210000,0.226563,-0.815186,-0.258057,-20.736692,38.467407,-11.718749,0.8845634080234158
0 days 00:01:02.220000,0.229492,-0.807129,-0.272949,-15.678405,40.122986,-12.092589,0.8823972786143438
0 days 00:01:02.230000,0.285156,-0.849609,-0.168945,-50.148006,29.197691,16.067505,0.9119713867452202
0 days 00:01:02.240000,0.241943,-0.81665,-0.273682,-13.34381,40.634151,-12.237548,0.8946258854252989
0 days 00:01:02.250000,0.277588,-0.870361,-0.294189,-18.02063,39.787292,-13.198852,0.9597554562418492
0 days 00:01:02.260000,0.299805,-0.880127,-0.294922,-22.117613,37.727356,-15.510558,0.9754412131123024
0 days 00:01:02.270000,0.322998,-0.869629,-0.294434,-24.688719,34.576416,-17.799377,0.9732798600613289
0 days 00:01:02.280000,0.322998,-0.854736,-0.283936,-25.207518,30.799864,-19.645691,0.9568286104606195
0 days 00:01:02.290000,0.298096,-0.844727,-0.28125,-25.085447,28.099058,-20.690916,0.9388964225328585
0 days 00:01:02.300000,0.273682,-0.8396,-0.289551,-25.268553,27.114866,-20.874022,0.9293383553501922
0 days 00:01:02.310000,0.280029,-0.829102,-0.286377,-24.963377,27.282713,-22.163389,0.9207812733619206
0 days 00:01:02.320000,0.289307,-0.806396,-0.281494,-22.590635,26.931761,-23.086546,0.9017826351737984
0 days 00:01:02.330000,0.300781,-0.802002,-0.280518,-20.072937,26.657103,-23.628233,0.9013139110703884
0 days 00:01:02.340000,0.300781,-0.814453,-0.285645,-19.561768,27.542112,-24.093626,0.9139999809600655
0 days 00:01:02.350000,0.253906,-0.844482,-0.283203,-14.144897,40.344234,-12.283324,0.9261868301638714
0 days 00:01:02.360000,0.281494,-0.892334,-0.16333,-56.480404,29.350279,21.354673,0.9498292101699125
0 days 00:01:02.370000,0.334961,-0.860596,-0.263916,18.333435,47.943111,47.172543,0.9604561425661248
0 days 00:01:02.380000,0.250488,-0.967285,-0.156738,-59.196468,27.641294,31.738279,1.0114105546280403
0 days 00:01:02.390000,0.30249,-0.906982,-0.263428,9.666443,39.070129,48.828121,0.9917211602098646
0 days 00:01:02.400000,0.290527,-0.918457,-0.269043,2.975464,36.750793,50.60577,1.000176651610604
0 days 00:01:02.410000,0.273438,-0.899658,-0.250244,-0.900268,35.827637,53.787228,0.9730235949574912
0 days 00:01:02.420000,0.254395,-0.87793,-0.238281,0.587463,38.475037,58.067318,0.944592894259744
0 days 00:01:02.430000,0.240967,-0.865967,-0.256348,1.968384,39.360046,61.363216,0.9347075677889851
0 days 00:01:02.440000,0.247314,-0.862061,-0.23877,1.838684,40.084839,63.560482,0.9280756947668655
0 days 00:01:02.450000,0.268311,-0.937012,-0.157715,-60.340878,28.95355,27.465818,0.9873481159601207
0 days 00:01:02.460000,0.32666,-0.855225,-0.20874,1.014709,32.37915,62.889095,0.9389829305290912
0 days 00:01:02.470000,0.332031,-0.85498,-0.207764,1.930237,26.298521,59.967037,0.9404261082387069
0 days 00:01:02.480000,0.337158,-0.873047,-0.191406,0.907898,22.705076,58.227535,0.9552606126126001
0 days 00:01:02.490000,0.344482,-0.913574,-0.187744,-3.540039,17.471313,57.28149,0.9942500245592152
0 days 00:01:02.500000,0.298584,-0.86377,-0.220947,0.457764,38.284302,63.980099,0.9402492194971501
0 days 00:01:02.510000,0.341309,-0.975586,-0.17749,-19.882202,10.421752,52.818295,1.0486956550768198
0 days 00:01:02.520000,0.327393,-0.973877,-0.182617,-26.870726,8.460999,47.927853,1.0435379994360532
0 days 00:01:02.530000,0.281738,-0.95874,-0.17749,-31.700132,9.841919,45.745846,1.0149193999249397
0 days 00:01:02.540000,0.263916,-0.947266,-0.1604,-35.018921,12.474059,45.715328,0.9963396458096004
0 days 00:01:02.550000,0.275146,-0.938965,-0.148926,-38.391113,14.85443,45.661922,0.9897169019558067
0 days 00:01:02.560000,0.281494,-0.923828,-0.142822,-40.115356,15.579223,43.502804,0.976265931651822
0 days 00:01:02.570000,0.270508,-0.931885,-0.129883,-42.076107,17.486572,40.245052,0.979006550017925
0 days 00:01:02.580000,0.276367,-0.942627,-0.131592,-44.532772,19.78302,37.54425,0.9910806396464417
0 days 00:01:02.590000,0.261719,-0.956299,-0.144775,-48.851009,22.087095,35.232544,1.0019802458067724
0 days 00:01:02.600000,0.247314,-0.969727,-0.152832,-54.328915,25.024412,33.760071,1.0123696406693554
0 days 00:01:02.610000,0.33252,-0.953125,-0.182129,-11.375426,12.954711,55.595394,1.025762052654513
0 days 00:01:02.620000,0.068359,-0.962158,-0.076172,0.541687,-0.976562,-1.251221,0.9675862459899892
0 days 00:01:02.630000,0.069092,-0.963379,-0.07373,0.297546,-1.495361,-1.525879,0.9686634683960162
0 days 00:01:02.640000,0.069092,-0.961426,-0.07666,0.114441,-1.953125,-1.63269,0.9669490232375231
0 days 00:01:02.650000,0.068848,-0.954346,-0.081299,-0.183105,-2.059937,-1.449585,0.9602738475148639
0 days 00:01:02.660000,0.073242,-0.971924,-0.077393,-0.228882,-3.929138,-1.045227,0.9777475792805626
0 days 00:01:02.670000,0.064941,-0.957764,-0.078125,-1.296997,-2.738952,-1.434326,0.9631369211083125
0 days 00:01:02.680000,0.063232,-0.966309,-0.076416,-1.25885,-3.448486,-1.663208,0.9713860068793455
0 days 00:01:02.690000,0.067383,-0.966553,-0.080566,-0.892639,-3.845215,-1.63269,0.9722427941898052
0 days 00:01:02.700000,0.068604,-0.950684,-0.082764,-0.656128,-2.189636,-1.289368,0.9567426280708935
0 days 00:01:02.710000,0.066895,-0.96167,-0.078857,0.511169,-0.37384,-1.083374,0.9672138110955613
0 days 00:01:02.720000,0.085693,-0.947998,-0.083008,1.480102,-0.854492,-0.061035,0.9554757068167667
0 days 00:01:02.730000,0.065674,-0.958984,-0.079346,1.342773,1.609802,0.160217,0.9644994423264328
0 days 00:01:02.740000,0.066406,-0.954834,-0.077148,2.01416,2.784729,0.953674,0.9602445200551784
0 days 00:01:02.750000,0.070068,-0.952148,-0.078857,2.319336,3.387451,1.434326,0.9579737809444473
0 days 00:01:02.760000,0.075439,-0.954346,-0.083252,2.441406,3.112793,1.63269,0.9609361195943256
0 days 00:01:02.770000,0.080811,-0.957031,-0.085205,2.349854,2.456665,1.525879,0.9642088179989851
0 days 00:01:02.780000,0.077881,-0.958496,-0.087158,1.838684,1.945495,1.235962,0.9655964732438701
0 days 00:01:02.790000,0.077148,-0.956299,-0.089355,1.441955,1.663208,1.106262,0.9635579418644216
0 days 00:01:02.800000,0.078613,-0.952881,-0.090088,0.946045,1.678467,1.060486,0.9603530869810332
0 days 00:01:02.810000,0.082275,-0.952148,-0.089355,0.717163,1.38092,0.846863,0.9598642120393905
0 days 00:01:02.820000,0.084473,-0.949219,-0.085449,0.930786,0.473022,0.411987,0.9567935667065284
0 days 00:01:02.830000,0.072021,-0.964355,-0.067871,0.801086,-3.746032,-0.717163,0.969419446425024
0 days 00:01:02.840000,0.067383,-0.962158,-0.081299,0.823975,0.427246,-0.709534,0.967934921910559
0 days 00:01:02.850000,0.068604,-0.966309,-0.06665,1.091003,-3.517151,-0.511169,0.9710313150444737
0 days 00:01:02.860000,0.08374,-0.957031,-0.077148,-1.083374,0.946045,0.274658,0.9637803362099685
0 days 00:01:02.870000,0.06958,-0.960693,-0.076172,1.64032,-4.692078,-0.511169,0.9662166373194989
0 days 00:01:02.880000,0.081299,-0.948975,-0.082031,1.64032,-2.059937,-0.068665,0.9559770724170115
0 days 00:01:02.890000,0.075195,-0.999268,-0.09375,5.447387,9.20105,2.14386,1.006469019070632
0 days 00:01:02.900000,0.08667,-0.988281,-0.09668,4.310608,7.125854,1.63269,0.9967738190086053
0 days 00:01:02.910000,0.095459,-0.976807,-0.094971,4.165649,4.592896,0.907898,0.9860445358963256
0 days 00:01:02.920000,0.091309,-0.9729,-0.097656,3.921509,2.334595,0.1297,0.9820429918374246
0 days 00:01:02.930000,0.085449,-0.975586,-0.091797,3.219604,1.144409,-0.312805,0.9836138796326535
0 days 00:01:02.940000,0.07959,-0.972168,-0.082031,2.777099,1.350403,-0.137329,0.9788637664583362
0 days 00:01:02.950000,0.076416,-0.975586,-0.079346,2.441406,1.792908,-0.053406,0.9817857384215763
0 days 00:01:02.960000,0.079102,-0.985596,-0.080322,1.693725,1.617432,-0.526428,0.9920222907293968
0 days 00:01:02.970000,0.081787,-1.002197,-0.076172,0.152588,0.953674,-1.495361,1.0084096953927009
0 days 00:01:02.980000,0.067627,-0.9646,-0.070557,1.419067,-3.936767,-0.404358,0.969538478544302
0 days 00:01:02.990000,0.081299,-0.997314,-0.068115,-1.091003,0.38147,-1.716614,1.0029378820355725
0 days 00:01:03,0.078125,-0.965576,-0.073975,-1.266479,0.999451,-0.175476,0.9715517629164182
0 days 00:01:03.010000,0.087646,-0.956055,-0.077881,-0.900268,0.167847,0.396728,0.9632177503046754
0 days 00:01:03.020000,0.091553,-0.955078,-0.075195,-0.892639,-0.732422,0.343323,0.9623981639207341
0 days 00:01:03.030000,0.092285,-0.955811,-0.071777,-0.892639,-1.541138,0.358582,0.9629346429924515
0 days 00:01:03.040000,0.09082,-0.952881,-0.07251,-0.579834,-2.433777,0.305176,0.9599417548273437
0 days 00:01:03.050000,0.0896,-0.950439,-0.070313,0.183105,-3.52478,-0.083923,0.9572389308265726
0 days 00:01:03.060000,0.087402,-0.951416,-0.070801,1.091003,-4.653931,-0.526428,0.9580419073615727
0 days 00:01:03.070000,0.084961,-0.95459,-0.072998,1.312256,-5.325317,-0.778198,0.9611395047676482
0 days 00:01:03.080000,0.077393,-0.956543,-0.070313,1.342773,-5.455017,-0.87738,0.9622411887188159
0 days 00:01:03.090000,0.07251,-0.956299,-0.072754,1.518249,-5.15747,-0.808716,0.9617996787361701
0 days 00:01:03.100000,0.079346,-0.97876,-0.065918,-1.403808,0.495911,-1.022339,0.9841809325728679
0 days 00:01:03.110000,0.06665,-1.005859,-0.091553,7.484436,10.337829,2.197266,1.0122136642972175
0 days 00:01:03.120000,0.077881,-0.950928,-0.080566,1.434326,-2.349854,0.259399,0.9575073846717842
0 days 00:01:03.130000,0.072754,-0.947998,-0.077148,1.785278,-1.266479,2.098083,0.9539104603808473
0 days 00:01:03.140000,0.061035,-0.951172,-0.088867,1.304626,19.813538,2.403259,0.9572621315491384
0 days 00:01:03.150000,0.064941,-0.959717,-0.087891,0.465393,22.178648,3.334045,0.9659186722757771
0 days 00:01:03.160000,0.069824,-0.963623,-0.0896,-0.427246,24.002073,4.325867,0.970295231929437
0 days 00:01:03.170000,0.07373,-0.95459,-0.088867,-0.274658,25.001524,5.302429,0.9615485035550729
0 days 00:01:03.180000,0.078125,-0.949951,-0.09082,0.610352,25.375364,6.04248,0.9574751643912233
0 days 00:01:03.190000,0.087158,-0.952881,-0.093018,0.984192,25.3067,6.782531,0.9613693699348861
0 days 00:01:03.200000,0.097168,-0.958252,-0.092773,0.862122,24.841307,7.537841,0.9676235555509177
0 days 00:01:03.210000,0.106201,-0.956543,-0.095215,0.991821,23.54431,8.079529,0.9671189479453911
0 days 00:01:03.220000,0.119385,-0.952637,-0.093506,1.792908,21.331785,8.178711,0.9646312269618893
0 days 00:01:03.230000,0.134766,-0.965332,-0.085693,3.471374,14.549254,6.835937,0.9784533894003331
0 days 00:01:03.240000,0.060547,-0.946289,-0.087891,1.304626,17.417908,1.441955,0.9522886319866474
0 days 00:01:03.250000,0.141113,-0.980957,-0.07959,2.723694,10.505675,5.53894,0.9942454841325657
0 days 00:01:03.260000,0.142334,-0.989014,-0.074219,0.709534,1.63269,1.625061,1.0019561466017362
0 days 00:01:03.270000,0.144775,-0.979248,-0.072266,0.63324,-3.112793,-0.862122,0.9925264837197041
0 days 00:01:03.280000,0.140137,-0.968262,-0.070068,0.938415,-7.67517,-3.181457,0.9808563625918935
0 days 00:01:03.290000,0.128906,-0.96167,-0.069824,0.75531,-11.604308,-5.256652,0.9727802098686014
0 days 00:01:03.300000,0.116943,-0.95752,-0.067139,0.450134,-14.450072,-6.958007,0.9669683867479847
0 days 00:01:03.310000,0.105469,-0.95752,-0.067627,-0.076294,-16.700745,-7.972717,0.9656819722299884
0 days 00:01:03.320000,0.0979,-0.955322,-0.067383,-1.220703,-18.310547,-8.621216,0.9626863468300566
0 days 00:01:03.330000,0.093262,-0.954346,-0.060059,-2.426147,-19.40155,-9.231567,0.9607711339549082
0 days 00:01:03.340000,0.087402,-0.952637,-0.055664,-3.288269,-20.111082,-9.658813,0.9582561475247627
0 days 00:01:03.350000,0.074463,-0.950439,-0.076172,1.441955,-1.831055,1.228333,0.956389671982085
0 days 00:01:03.360000,0.143066,-0.990723,-0.079102,1.533508,6.248474,3.875732,1.0041200473494192
0 days 00:01:03.370000,0.05835,-0.945801,-0.091553,0.465393,14.961242,0.62561,0.9520116626964189
0 days 00:01:03.380000,0.130615,-0.954102,-0.088867,2.983093,18.356323,7.728576,0.967092678246506
0 days 00:01:03.390000,0.057617,-0.954834,-0.086914,-0.488281,10.719298,-0.244141,0.9605111814242455
0 days 00:01:03.400000,0.056885,-0.952148,-0.09082,-0.38147,12.779235,0.106812,0.9581596889501248
0 days 00:01:03.410000,0.084717,-0.982666,-0.074219,0.450134,-2.227783,1.899719,0.9890995387755471
0 days 00:01:03.420000,0.087402,-0.981934,-0.073486,-0.579834,-2.960205,1.38855,0.9885513047667278
0 days 00:01:03.430000,0.083008,-0.975586,-0.072266,-0.762939,-3.585815,0.938415,0.9817742847599951
0 days 00:01:03.440000,0.075684,-0.969971,-0.076416,-0.732422,-3.799438,0.823975,0.9759155771648489
0 days 00:01:03.450000,0.071777,-0.962891,-0.086426,-0.595093,-3.532409,0.701904,0.9694227504479148
0 days 00:01:03.460000,0.070068,-0.96582,-0.086182,-0.663757,-3.570556,0.091553,0.9721857508459996
0 days 00:01:03.470000,0.072998,-0.970703,-0.080811,-0.915527,-3.807068,-0.38147,0.9767924241792624
0 days 00:01:03.480000,0.07251,-0.969727,-0.075195,-1.052856,-3.715515,-0.480652,0.9753370918067251
0 days 00:01:03.490000,0.066162,-0.963135,-0.073975,-1.068115,-3.52478,-0.350952,0.9682348574049583
0 days 00:01:03.500000,0.063721,-0.962158,-0.075928,-1.106262,-3.005981,-0.167847,0.967250455667507
0 days 00:01:03.510000,0.07666,-0.957764,-0.072266,1.815796,-1.38092,2.166748,0.9635408709816101
0 days 00:01:03.520000,0.062744,-0.969238,-0.08252,-1.846313,-2.006531,-0.62561,0.9747659516930205
0 days 00:01:03.530000,0.061523,-0.965088,-0.080566,-1.296997,-2.288818,-0.289917,0.9703972421792015
0 days 00:01:03.540000,0.057861,-0.952393,-0.083984,-0.801086,6.91986,-0.518799,0.9578379998862021
0 days 00:01:03.550000,0.058594,-0.957031,-0.084229,-1.373291,5.729675,-0.396728,0.9625155148037874
0 days 00:01:03.560000,0.05957,-0.957275,-0.087402,-1.403808,4.852295,-0.030518,0.9631007839935548
0 days 00:01:03.570000,0.055176,-0.95166,-0.084473,-1.213074,3.448486,-0.061035,0.9569936438164048
0 days 00:01:03.580000,0.056885,-0.951416,-0.083008,-0.328064,8.743286,-0.450134,0.9567228628735701
0 days 00:01:03.590000,0.056885,-0.949951,-0.078369,-1.51062,-0.144958,-0.88501,0.954874078497788
0 days 00:01:03.600000,0.062744,-0.960205,-0.078613,-2.052307,-1.342773,-1.235962,0.9654586761379277
0 days 00:01:03.610000,0.06665,-0.969482,-0.08252,-2.296448,-1.930237,-1.167297,0.9752677177185759
0 days 00:01:03.620000,0.054688,-0.949219,-0.082031,-1.190186,1.686096,-0.38147,0.9543251920943929
0 days 00:01:03.630000,0.25,-0.809082,0.1604,101.654045,-73.486328,37.666321,0.8618827314223206
0 days 00:01:03.640000,0.235596,-0.708984,0.187744,96.80175,-183.326706,10.81848,0.7703321342174425
0 days 00:01:03.650000,0.211914,-0.707275,0.140869,101.585381,-179.718002,12.474059,0.7516578637797917
0 days 00:01:03.660000,0.189453,-0.719971,0.110352,103.912346,-173.408493,14.572143,0.7526142730203833
0 days 00:01:03.670000,0.187012,-0.740479,0.08667,104.423515,-163.032516,16.662598,0.7686314633717514
0 days 00:01:03.680000,0.18457,-0.766113,0.085693,104.515068,-147.55249,19.40918,0.7926780581787287
0 days 00:01:03.690000,0.174072,-0.784912,0.088867,103.881828,-128.509521,22.674559,0.8088790098753954
0 days 00:01:03.700000,0.234619,-0.712402,0.237793,90.263359,-185.768112,9.20105,0.7868342872638432
0 days 00:01:03.710000,0.182617,-0.790527,0.108643,103.935234,-107.734673,26.718138,0.8185873245213365
0 days 00:01:03.720000,0.218506,-0.792969,0.141602,103.652946,-88.516228,31.242369,0.8346231685024086
0 days 00:01:03.730000,0.258789,-0.830078,0.15625,98.06823,-64.826965,46.188351,0.8834111699005169
0 days 00:01:03.740000,0.46875,-0.907715,0.362793,84.983818,-160.163879,73.295593,1.0841087789396413
0 days 00:01:03.750000,0.278076,-0.881592,0.142334,80.085754,-79.162598,65.467834,0.935301921197642
0 days 00:01:03.760000,0.342773,-0.885742,0.207031,77.644348,-99.647514,70.159912,0.9720566110335345
0 days 00:01:03.770000,0.412354,-0.888184,0.295898,79.750061,-127.16674,74.295044,1.02296738245948
0 days 00:01:03.780000,0.506348,-0.933594,0.393311,91.857903,-198.921188,67.970276,1.1325544563777055
0 days 00:01:03.790000,0.542236,-0.939941,0.415527,101.325981,-237.976059,59.738155,1.1619688683032778
0 days 00:01:03.800000,0.579102,-0.923096,0.40918,116.104118,-249.992355,50.918575,1.163998979389587
0 days 00:01:03.810000,0.577148,-0.924561,0.32251,132.202148,-249.992355,41.526791,1.1366290321494519
0 days 00:01:03.820000,0.534912,-0.936523,0.182861,142.471313,-249.992355,29.655455,1.093912392558929
0 days 00:01:03.830000,0.455566,-0.947266,0.051758,145.980835,-249.992355,17.532349,1.0523935317532127
0 days 00:01:03.840000,0.214355,-0.719971,0.26001,83.076469,-188.865646,8.499146,0.7949286175286433
0 days 00:01:03.850000,0.256836,-0.850098,0.140381,92.536919,-62.492367,55.046078,0.8990762846727746
0 days 00:01:03.860000,0.213623,-0.727295,0.262695,78.2547,-192.291245,8.201599,0.8022477586001721
0 days 00:01:03.870000,0.338623,-0.953857,-0.040527,143.135071,-249.992355,7.499694,1.0129911896492487
0 days 00:01:03.880000,0.270508,-0.699463,0.268311,81.275932,-197.425827,7.850646,0.7965010101399745
0 days 00:01:03.890000,0.79541,-0.91333,0.100342,-0.244141,-204.795822,-62.042233,1.2152848530134817
0 days 00:01:03.900000,0.790283,-0.897217,0.113037,7.156372,-195.152267,-51.521297,1.2009674968736666
0 days 00:01:03.910000,0.785645,-0.909424,0.133057,12.222289,-188.415512,-42.556759,1.2091295394001422
0 days 00:01:03.920000,0.808838,-0.92749,0.17041,17.166138,-184.089645,-34.927368,1.2423752164479136
0 days 00:01:03.930000,0.835449,-0.939209,0.223145,22.392271,-182.441696,-28.030394,1.2766684253583622
0 days 00:01:03.940000,0.835205,-0.936523,0.286377,28.083799,-184.768661,-22.010801,1.2871109150663744
0 days 00:01:03.950000,0.807129,-0.883545,0.333008,33.821106,-190.620407,-16.433716,1.2421768463990948
0 days 00:01:03.960000,0.773682,-0.788086,0.362793,40.023804,-196.830734,-10.261535,1.1624466187180382
0 days 00:01:03.970000,0.728027,-0.694092,0.387695,44.799801,-201.606735,-3.364563,1.0780048377525955
0 days 00:01:03.980000,0.673584,-0.608887,0.400635,48.21777,-203.224167,4.089355,0.9924551310008931
0 days 00:01:03.990000,0.239746,-0.716064,0.262695,77.964783,-195.62529,7.835388,0.7995213941083753
0 days 00:01:04,0.60791,-0.557373,0.404053,51.383968,-200.386032,10.604857,0.9184106140708522
0 days 00:01:04.010000,0.479004,-0.54126,0.406006,56.358334,-182.594284,22.048948,0.8290042772217764
0 days 00:01:04.020000,0.482422,-0.543945,0.424072,60.668941,-169.754013,24.688719,0.8416912796821647
0 days 00:01:04.030000,0.518066,-0.548828,0.45459,67.497253,-158.576965,24.154661,0.8810542673638214
0 days 00:01:04.040000,0.541992,-0.562012,0.477539,76.255798,-151.420593,22.53723,0.9152356596685904
0 days 00:01:04.050000,0.516602,-0.582275,0.473389,84.121696,-151.0849,21.156309,0.9110537565643424
0 days 00:01:04.060000,0.46582,-0.603027,0.439697,89.462273,-158.13446,18.432617,0.8797518325857583
0 days 00:01:04.070000,0.433838,-0.614014,0.396484,92.239372,-168.846115,15.266418,0.8499577428884333
0 days 00:01:04.080000,0.416016,-0.625,0.367432,92.666618,-179.672226,12.702941,0.8358831179537005
0 days 00:01:04.090000,0.371582,-0.644287,0.32251,90.019218,-188.796982,10.971068,0.8106735601911537
0 days 00:01:04.100000,0.312988,-0.667969,0.285645,85.762016,-195.289597,9.101868,0.7910354853797648
0 days 00:01:04.110000,0.532227,-0.543213,0.403076,53.924557,-193.420395,16.792297,0.860706805290861
0 days 00:01:04.120000,0.230469,-0.950439,-0.104004,135.986328,-249.992355,1.838684,0.9834973740168299
0 days 00:01:04.130000,0.25415,-0.871094,0.127197,85.937492,-66.879272,61.416622,0.9162838294682494
0 days 00:01:04.140000,0.159912,-0.905029,-0.117432,131.507874,-249.916061,1.197815,0.9265201634120004
0 days 00:01:04.150000,0.021484,-1.009521,-0.188232,53.184505,-157.226563,-7.621765,1.0271443411327348
0 days 00:01:04.160000,-0.002441,-0.958984,-0.184814,57.846066,-171.295151,-8.81958,0.9766332399283776
0 days 00:01:04.170000,-0.040283,-0.902588,-0.175537,66.238403,-184.143051,-10.055541,0.9203809299425971
0 days 00:01:04.180000,-0.074463,-0.85791,-0.176025,77.163696,-193.756088,-12.741088,0.8789420385292764
0 days 00:01:04.190000,-0.103271,-0.861572,-0.189941,86.685173,-200.424179,-16.059875,0.8882841854417988
0 days 00:01:04.200000,-0.121582,-0.911133,-0.209473,90.972893,-205.635056,-20.492552,0.9427748745814135
0 days 00:01:04.210000,-0.128906,-1.000244,-0.238037,87.615959,-209.4879,-28.503416,1.0362270165079657
0 days 00:01:04.220000,-0.132813,-1.098145,-0.268066,76.011658,-211.944565,-40.267941,1.1381656796574036
0 days 00:01:04.230000,-0.15625,-1.128662,-0.258301,63.629147,-213.77562,-50.598141,1.1683370144547334
0 days 00:01:04.240000,-0.20752,-1.05542,-0.208496,61.965939,-212.539658,-55.679317,1.0956488985144832
0 days 00:01:04.250000,0.027588,-1.030518,-0.185547,51.658627,-144.195557,-5.607605,1.0474522114526277
0 days 00:01:04.260000,-0.293945,-0.942871,-0.189697,68.504333,-203.18602,-54.916378,1.0056810316770421
0 days 00:01:04.270000,-0.552002,-0.861084,-0.215576,72.608948,-149.398804,-50.331112,1.0452965487535104
0 days 00:01:04.280000,-0.647949,-0.890625,-0.270264,70.037842,-115.051262,-31.867979,1.1340605922621596
0 days 00:01:04.290000,-0.583984,-0.945801,-0.317139,65.734863,-78.048706,-15.571593,1.1559212729152448
0 days 00:01:04.300000,-0.427002,-1.070313,-0.333252,52.955624,-44.639584,-9.513855,1.19956555530617
0 days 00:01:04.310000,-0.30249,-1.219971,-0.285156,32.188416,-18.77594,-6.935119,1.2888535158337429
0 days 00:01:04.320000,-0.183594,-1.29248,-0.21167,14.907836,-0.015259,-3.562927,1.3225034956989719
0 days 00:01:04.330000,-0.096924,-1.273438,-0.12915,7.186889,9.765625,-1.724243,1.2836348094843797
0 days 00:01:04.340000,-0.026123,-1.188721,-0.048828,6.401062,12.420653,-0.480652,1.1900101682565574
0 days 00:01:04.350000,0.022705,-1.076904,-0.055664,8.644104,12.481688,0.63324,1.0785806521243555
0 days 00:01:04.360000,0.044922,-1.010742,-0.100342,10.658263,12.054442,1.358032,1.0167034442805827
0 days 00:01:04.370000,-0.40918,-0.870605,-0.186523,73.356628,-180.496201,-55.02319,0.9798837522655429
0 days 00:01:04.380000,0.032715,-1.010498,-0.178955,50.559994,-132.728577,-4.302979,1.026743089216577
0 days 00:01:04.390000,0.056641,-1.004395,-0.096191,9.643555,11.344909,1.846313,1.010579154439176
0 days 00:01:04.400000,0.052979,-0.969238,-0.162598,44.93713,-112.640373,-3.517151,0.9842089131322679
0 days 00:01:04.410000,0.111328,-0.903076,-0.137939,129.852295,-249.68718,0.198364,0.9203082924112984
0 days 00:01:04.420000,0.012451,-0.923584,-0.164063,123.76403,-249.992355,1.220703,0.9381253116860242
0 days 00:01:04.430000,-0.079346,-0.924805,-0.158447,113.6856,-248.161301,4.852295,0.9416291879237814
0 days 00:01:04.440000,-0.097656,-0.935303,-0.159424,100.975029,-223.587021,10.498046,0.9538052253584062
0 days 00:01:04.450000,-0.029053,-0.974854,-0.165527,86.402885,-198.509201,15.373229,0.9892338378027714
0 days 00:01:04.460000,0.023926,-1.00708,-0.173828,73.96698,-178.924545,17.692566,1.022251805310218
0 days 00:01:04.470000,0.041748,-0.992676,-0.169922,48.21014,-122.50518,-3.707886,1.0079791776440623
0 days 00:01:04.480000,0.00708,-1.045166,-0.129883,57.319637,-152.870178,15.556334,1.0532291714745656
0 days 00:01:04.490000,0.008057,-1.040283,-0.132324,53.558346,-142.51709,12.657165,1.048695988508586
0 days 00:01:04.500000,0.038818,-1.03418,-0.150391,50.559994,-131.607056,9.384155,1.0457784480495858
0 days 00:01:04.510000,0.169922,-0.9104,-0.125732,132.293701,-249.992355,1.457214,0.9346176661651543
0 days 00:01:04.520000,0.021729,-1.042725,-0.150635,63.796993,-164.703354,17.14325,1.0537734473267961
0 days 00:01:04.530000,0.049316,-1.045166,-0.221191,43.663021,-110.511772,2.990722,1.0694528946582922
0 days 00:01:04.540000,0.036377,-1.043213,-0.220947,40.138245,-101.325981,0.640869,1.0669743325436654
0 days 00:01:04.550000,0.031006,-1.027588,-0.208252,38.68103,-93.39904,-0.556946,1.0489363018239
0 days 00:01:04.560000,0.027344,-1.009766,-0.201904,37.353516,-86.875908,-1.579285,1.0301166411178881
0 days 00:01:04.570000,0.010498,-1.000244,-0.197998,35.133362,-82.015984,-2.929687,1.0197065634504858
0 days 00:01:04.580000,0.005615,-0.996582,-0.193848,32.455444,-80.314629,-4.257202,1.0152754591996203
0 days 00:01:04.590000,0.014404,-0.984619,-0.189697,31.074522,-82.351677,-4.837036,1.0028294980633548
0 days 00:01:04.600000,0.026855,-0.968994,-0.187744,31.906126,-87.127678,-4.806519,0.987379548399196
0 days 00:01:04.610000,0.047607,-0.957031,-0.175049,35.583496,-93.948357,-4.447937,0.9740723349993058
0 days 00:01:04.620000,0.058594,-0.95459,-0.16333,40.580746,-102.615349,-3.822326,0.9702329688461427
0 days 00:01:04.630000,0.056152,-1.030762,-0.198975,47.615047,-120.62072,6.385803,1.0512917760417417
0 days 00:01:04.640000,0.599609,-0.137451,0.502197,140.670776,249.992355,9.529114,0.7941193594737507
0 days 00:01:04.650000,0.57251,-0.225342,0.477539,140.922546,249.992355,35.453796,0.7788390164758054
0 days 00:01:04.660000,0.54248,-0.285645,0.475586,140.823364,249.992355,60.256954,0.7759250349234776
0 days 00:01:04.670000,0.506592,-0.357666,0.493164,132.888794,249.992355,90.240471,0.7923201076055056
0 days 00:01:04.680000,0.192871,-0.800537,0.462402,-27.282713,249.992355,249.992355,0.9443909786809699
0 days 00:01:04.690000,0.421631,-0.545654,0.494629,90.950005,249.992355,162.055954,0.8486276188753227
0 days 00:01:04.700000,0.328857,-0.620605,0.46167,57.342525,249.992355,199.005112,0.8404978770788182
0 days 00:01:04.710000,0.225098,-0.698975,0.472412,17.166138,249.992355,232.841476,0.8731599269165987
0 days 00:01:04.720000,0.473877,-0.453125,0.510254,116.142265,249.992355,124.458305,0.8308073310160424
0 days 00:01:04.730000,0.668945,-0.088867,0.507324,135.894775,249.992355,-18.600464,0.8442525674761079
0 days 00:01:04.740000,0.897705,0.073242,0.076904,-62.32452,147.781372,7.133483,0.9039650893729249
0 days 00:01:04.750000,0.804688,-0.05127,0.459717,104.316704,249.54985,-45.478817,0.9281654541799108
0 days 00:01:04.760000,0.882324,0.019043,0.475342,84.022514,249.992355,-46.455379,1.0024012638604363
0 days 00:01:04.770000,0.97168,0.102295,0.507813,68.588257,249.992355,-43.075558,1.101135928209592
0 days 00:01:04.780000,1.041504,0.135742,0.484863,54.054256,227.035507,-36.216736,1.1568269539343385
0 days 00:01:04.790000,1.058105,0.128906,0.435791,37.30011,193.038925,-27.801512,1.1515714235521826
0 days 00:01:04.800000,1.060791,0.083252,0.339111,14.869689,164.909348,-18.2724,1.116783198076511
0 days 00:01:04.810000,1.026855,0.072021,0.240967,-9.971619,143.333435,-10.185241,1.0572054249553395
0 days 00:01:04.820000,0.971924,0.107178,0.198242,-30.738829,129.180908,-3.761291,0.9977090137028932
0 days 00:01:04.830000,0.938965,0.128906,0.193115,-44.525143,126.197807,1.091003,0.9672463136585221
0 days 00:01:04.840000,0.923828,0.110107,0.151123,-53.649899,133.956909,4.325867,0.942560282508233
0 days 00:01:04.850000,0.217773,-0.893066,0.461914,-69.511414,249.992355,249.992355,1.028764551917007
0 days 00:01:04.860000,0.737793,-0.081055,0.472656,123.321526,249.992355,-36.575317,0.8799500657480515
0 days 00:01:04.870000,0.232178,-0.974365,0.466309,-113.304131,238.891586,249.626144,1.1048700649352392
0 days 00:01:04.880000,0.409424,-1.610352,-0.360596,-249.992355,-79.566956,249.992355,1.7002620535952686
0 days 00:01:04.890000,0.251465,-1.157471,0.471436,-205.009445,130.661011,249.992355,1.2748433880920433
0 days 00:01:04.900000,0.888428,0.033447,-0.003906,-70.94574,162.85704,10.116576,0.8890659535878089
0 days 00:01:04.910000,-0.498535,-1.27124,-0.074707,103.935234,50.186153,-80.078125,1.3675413776825913
0 days 00:01:04.920000,-0.300781,-1.16748,-0.157959,93.666069,78.552246,-64.071655,1.215906989058785
0 days 00:01:04.930000,-0.156738,-1.087402,-0.339111,75.386047,98.136894,-45.120235,1.1497852758532787
0 days 00:01:04.940000,-0.129883,-1.027588,-0.408691,53.718563,114.860527,-19.40155,1.1134787941016209
0 days 00:01:04.950000,-0.141113,-0.984131,-0.402832,31.799314,134.20105,12.634276,1.0727070075999317
0 days 00:01:04.960000,-0.125732,-0.977783,-0.402832,5.401611,151.000977,50.132748,1.0649609153095714
0 days 00:01:04.970000,-0.027588,-0.970947,-0.391846,-20.996092,153.450012,94.802849,1.0473979483792204
0 days 00:01:04.980000,0.157715,-1.019531,-0.38916,-54.046627,137.710571,137.580872,1.102616427768968
0 days 00:01:04.990000,0.338867,-1.114014,-0.40625,-96.824638,103.462212,173.622116,1.2332465683653857
0 days 00:01:05,0.232178,-1.064697,0.486572,-156.547546,186.958298,249.992355,1.1934146960202057
0 days 00:01:05.010000,0.501953,-1.275146,-0.426025,-147.003174,58.4259,201.858505,1.435078895444428
0 days 00:01:05.020000,0.539307,-1.585938,-0.412598,-238.052353,-39.634705,249.145493,1.7251923051349956
0 days 00:01:05.030000,0.290527,-1.625977,-0.27417,-249.992355,-105.735771,249.992355,1.6743286210173915
0 days 00:01:05.040000,0.190918,-1.606445,-0.190918,-249.992355,-117.660515,249.992355,1.6289766430102675
0 days 00:01:05.050000,0.115723,-1.53418,-0.085693,-249.992355,-116.409294,249.992355,1.5409228972852602
0 days 00:01:05.060000,0.152832,-1.513428,0.056641,-249.992355,-101.165764,249.992355,1.5221794027935733
0 days 00:01:05.070000,0.25708,-1.492676,0.20874,-249.992355,-77.796936,249.992355,1.5289683302724093
0 days 00:01:05.080000,0.304443,-1.456787,0.273926,-249.885544,-48.484798,249.992355,1.5132578620625106
0 days 00:01:05.090000,0.321533,-1.390869,0.364014,-249.389633,-11.985778,249.992355,1.4732298657867344
0 days 00:01:05.100000,0.295166,-1.307861,0.394775,-249.992355,30.288694,249.992355,1.397666148800206
0 days 00:01:05.110000,0.279053,-1.22168,0.431152,-248.474106,80.01709,249.992355,1.325241353985379
0 days 00:01:05.120000,0.566162,-1.480469,-0.43042,-195.190414,9.727478,231.468185,1.6424339397994066
0 days 00:01:05.130000,0.87915,-0.020264,-0.100098,-77.36969,171.668991,13.732909,0.8850621231303485
0 days 00:01:05.140000,-0.597168,-1.368896,-0.13501,112.800591,4.371643,-113.220207,1.4995711317373377
0 days 00:01:05.150000,0.714355,-0.133545,-0.297363,-82.862846,147.277832,12.756347,0.7852146756263538
0 days 00:01:05.160000,0.51001,-0.43042,-0.443359,-16.075134,-167.251572,-83.57238,0.8012108208087307
0 days 00:01:05.170000,0.506592,-0.471924,-0.443604,-18.600464,-178.405746,-90.705864,0.8222725977776469
0 days 00:01:05.180000,0.494873,-0.498291,-0.446533,-20.64514,-183.608994,-96.580498,0.8322168749184314
0 days 00:01:05.190000,0.493408,-0.53125,-0.397949,-21.934507,-184.79155,-102.859489,0.827067967923435
0 days 00:01:05.200000,0.533691,-0.586426,-0.376465,-24.993895,-183.074936,-108.512871,0.8777513504301774
0 days 00:01:05.210000,0.615234,-0.658936,-0.353516,-30.364988,-181.503281,-109.100334,0.9683403787449948
0 days 00:01:05.220000,0.656738,-0.733154,-0.283203,-34.255981,-185.951218,-106.094353,1.0242184960100065
0 days 00:01:05.230000,0.656494,-0.815186,-0.231689,-36.117554,-194.152817,-105.461113,1.072003908273193
0 days 00:01:05.240000,0.673584,-0.912354,-0.243164,-39.115906,-198.341354,-107.00988,1.1598422122288876
0 days 00:01:05.250000,0.696777,-1.001709,-0.25708,-43.083187,-195.701584,-108.406059,1.2470000941499562
0 days 00:01:05.260000,0.495605,-0.369385,-0.450195,-16.326904,-153.778076,-76.034546,0.7646862966439244
0 days 00:01:05.270000,0.71167,-1.064453,-0.253418,-47.874447,-187.705978,-109.512321,1.3052796868230963
0 days 00:01:05.280000,0.801514,-1.079834,-0.25,-56.327816,-176.444992,-107.77282,1.367832650492011
0 days 00:01:05.290000,0.797363,-1.071533,-0.229004,-55.732723,-181.76268,-107.192986,1.3551433709663343
0 days 00:01:05.300000,0.765625,-1.08374,-0.185059,-53.207394,-189.025864,-106.033318,1.3397465662228807
0 days 00:01:05.310000,0.76416,-1.109863,-0.133545,-50.765987,-195.053085,-104.171745,1.354094033438594
0 days 00:01:05.320000,0.810547,-1.10376,-0.074707,-44.883724,-202.339157,-104.187004,1.371442201719781
0 days 00:01:05.330000,0.826904,-1.089844,-0.028564,-37.42218,-211.051926,-101.493828,1.3683369729887445
0 days 00:01:05.340000,0.773682,-1.067871,0.012451,-29.548643,-219.131454,-95.230095,1.3187446064974067
0 days 00:01:05.350000,0.718994,-1.027588,0.035889,-21.209715,-223.09111,-89.607231,1.254662301219336
0 days 00:01:05.360000,0.718506,-0.990967,0.056641,-14.526366,-221.984848,-83.053581,1.2253467550069246
0 days 00:01:05.370000,0.762207,-0.952637,0.081787,-7.865905,-215.263351,-73.501587,1.2227697567355025
0 days 00:01:05.380000,0.753906,-1.091553,-0.24707,-53.039547,-179.168686,-109.191887,1.349409423987027
0 days 00:01:05.390000,0.469482,-0.354004,-0.462646,-22.796629,-140.792847,-74.035645,0.7481801264775748
0 days 00:01:05.400000,0.802246,-0.081055,-0.208984,-81.344597,165.191635,15.556334,0.8329723103423067
0 days 00:01:05.410000,0.380859,-0.352539,-0.515381,-32.981873,-124.336235,-60.050961,0.7314061112425846
0 days 00:01:05.420000,0.680908,-0.173584,-0.364258,-81.703178,128.829956,8.377075,0.7914865760605165
0 days 00:01:05.430000,0.654541,-0.200195,-0.42334,-79.795837,111.991875,7.041931,0.8048097379542571
0 days 00:01:05.440000,0.626465,-0.222656,-0.480957,-77.575684,98.266594,8.789063,0.8205813344270025
0 days 00:01:05.450000,0.616211,-0.239746,-0.528076,-76.164246,84.251396,11.07788,0.8462023415312675
0 days 00:01:05.460000,0.617188,-0.256592,-0.558838,-76.263428,64.819336,13.526916,0.8712407199230302
0 days 00:01:05.470000,0.619873,-0.26416,-0.567139,-72.883606,40.344234,15.792846,0.8807211176359971
0 days 00:01:05.480000,0.406982,-0.366455,-0.498291,-28.663633,-131.752014,-69.335938,0.7404171365048219
0 days 00:01:05.490000,0.604736,-0.276855,-0.674561,-50.369259,-26.329039,11.83319,0.9473050530014078
0 days 00:01:05.500000,0.585938,-0.327637,-0.734131,-40.702816,-53.070065,6.141662,0.9947952898833006
0 days 00:01:05.510000,0.504395,-0.406494,-0.800293,-40.458675,-65.979004,1.525879,1.0296215683007035
0 days 00:01:05.520000,0.442627,-0.424805,-0.814941,-46.440121,-66.726685,-0.045776,1.020052343085883
0 days 00:01:05.530000,0.611572,-0.263916,-0.611084,-63.217159,8.720398,15.403747,0.9039334164063192
0 days 00:01:05.540000,0.4104,-0.366211,-0.679688,-59.349056,-70.274353,-7.56073,0.8743651604821637
0 days 00:01:05.550000,0.38916,-0.394531,-0.639893,-65.666199,-65.963745,-15.800475,0.8465006007144945
0 days 00:01:05.560000,0.369629,-0.412109,-0.646729,-70.396423,-48.797604,-24.009703,0.8513036032832235
0 days 00:01:05.570000,0.376953,-0.369629,-0.646973,-72.433472,-27.618406,-26.290892,0.8350408520419824
0 days 00:01:05.580000,0.383301,-0.311768,-0.586182,-72.303772,-20.042419,-23.323057,0.7666343845334619
0 days 00:01:05.590000,0.362305,-0.289307,-0.518311,-70.610046,-34.721375,-23.605345,0.6954205533308603
0 days 00:01:05.600000,0.354248,-0.286377,-0.498047,-65.589905,-60.417171,-28.137205,0.6749475874777241
0 days 00:01:05.610000,0.374512,-0.299316,-0.483154,-58.242794,-84.938042,-35.583496,0.6806519622508995
0 days 00:01:05.620000,0.391602,-0.314453,-0.488281,-48.255917,-104.080193,-42.625423,0.7004649531375571
0 days 00:01:05.630000,0.39209,-0.332275,-0.513672,-39.077759,-115.898125,-50.262447,0.7266362001091055
0 days 00:01:05.640000,0.42627,-0.37793,-0.75293,-52.658077,-66.566467,-2.159119,0.9441614177141534
0 days 00:01:05.650000,-0.374756,-1.119873,-0.069824,217.613205,118.484489,-165.740952,1.1829763254778178
