t,ax,ay,az,gx,gy,gz,acc_mag
0 days 00:00:45.840000,1.492676,-0.710449,0.442871,3.349304,243.736252,-83.839409,1.7114187521521436
0 days 00:00:45.850000,0.256836,-0.820313,0.236084,4.440308,-48.423763,38.269043,0.8914111306916691
0 days 00:00:45.860000,0.558594,-0.937744,0.39209,29.739378,-25.787352,11.184691,1.1597955140765117
0 days 00:00:45.870000,0.344971,-0.872314,0.200439,9.475708,-52.658077,42.137142,0.9592249465886509
0 days 00:00:45.880000,1.273926,-1.238037,0.140381,-249.618515,249.992355,-249.160751,1.7819455356452396
0 days 00:00:45.890000,0.462402,-1.128662,0.100098,20.126341,-76.10321,47.058102,1.2238109042870962
0 days 00:00:45.900000,1.425293,-0.624512,0.637451,-49.301144,248.680099,-87.692253,1.6816120692341618
0 days 00:00:45.910000,1.104736,-0.551025,0.504639,44.044491,-172.393784,-249.992355,1.333690631534165
0 days 00:00:45.920000,1.244873,-0.465088,0.326172,46.218868,-118.911736,-249.992355,1.368358069898738
0 days 00:00:45.930000,1.298096,-0.418945,0.144775,24.29199,-42.106625,-249.992355,1.3716879888903306
0 days 00:00:45.940000,1.250244,-0.44873,0.000488,-15.251159,52.238461,-249.992355,1.3283331323805787
0 days 00:00:45.950000,1.338135,-0.450928,-0.097412,-74.554443,157.478333,-249.992355,1.4154258854327204
0 days 00:00:45.960000,1.476563,-0.477539,-0.062744,-143.989563,238.327011,-249.992355,1.5531318678805095
0 days 00:00:45.970000,1.42041,-0.689453,0.144775,-199.119553,249.992355,-249.992355,1.5855187819556096
0 days 00:00:45.980000,1.365967,-0.962891,0.294189,-221.054062,249.984726,-249.992355,1.6969301961751402
0 days 00:00:45.990000,1.4104,-0.993164,0.289795,-234.199509,249.992355,-249.992355,1.749166668136859
0 days 00:00:46,0.435303,-0.980957,0.144043,17.776489,-62.19482,47.622677,1.08282672829359
0 days 00:00:46.010000,1.394531,-0.953125,0.13623,-248.596176,249.900803,-249.984726,1.6946157642622117
0 days 00:00:46.020000,1.503174,-0.919189,0.044189,-249.656662,249.992355,-249.946579,1.7624962864409106
0 days 00:00:46.030000,0.884766,-1.48999,0.194336,-249.992355,183.998093,-249.992355,1.7437452668758702
0 days 00:00:46.040000,0.558838,-1.765869,0.201416,-239.326462,111.351006,-249.992355,1.8631053755654832
0 days 00:00:46.050000,0.50293,-1.879883,0.136963,-180.480942,50.949093,-200.942978,1.9508094581373139
0 days 00:00:46.060000,0.512207,-1.721191,0.18457,-127.883904,-5.760192,-139.228821,1.8052480589187736
0 days 00:00:46.070000,0.469482,-1.460938,0.264893,-100.418083,-55.656429,-92.117302,1.5572159418709406
0 days 00:00:46.080000,0.388672,-1.300781,0.300293,-86.34948,-90.118401,-60.379025,1.3904218853980974
0 days 00:00:46.090000,0.305176,-1.282471,0.308594,-60.501095,-105.697624,-29.228209,1.3539182078888665
0 days 00:00:46.100000,0.288086,-1.306396,0.286621,-21.89636,-102.188103,5.447387,1.3681431393874692
0 days 00:00:46.110000,0.384277,-1.259277,0.16333,8.399963,-90.385429,33.630371,1.3266966738324175
0 days 00:00:46.120000,1.459717,-0.854004,0.007324,-249.992355,248.908981,-249.992355,1.6911978574610955
0 days 00:00:46.130000,1.533447,-0.89209,0.645996,-59.18121,249.992355,-117.736809,1.888013533300278
0 days 00:00:46.140000,1.525635,-1.195801,0.560059,-22.78137,249.992355,-72.624207,2.0177136239583158
0 days 00:00:46.150000,1.007324,-1.29541,0.593994,16.197205,198.303207,78.926086,1.7451697857549562
0 days 00:00:46.160000,0.172363,-0.329346,0.110107,-45.3186,141.487122,249.992355,0.3876871714849487
0 days 00:00:46.170000,0.097412,-0.223389,0.037598,-28.602598,128.074646,240.684494,0.24658741384953126
0 days 00:00:46.180000,0.028564,-0.09082,-0.001953,-17.951965,100.440971,227.493271,0.0952259875506681
0 days 00:00:46.190000,-0.091309,0.02124,-0.072998,-11.505126,66.215515,217.201218,0.11881573584757198
0 days 00:00:46.200000,-0.259521,0.115479,-0.168457,-10.604857,35.202026,203.681931,0.33024886030234835
0 days 00:00:46.210000,-0.348389,0.195068,-0.202393,-10.658263,8.926392,184.03624,0.4476486863534841
0 days 00:00:46.220000,-0.327393,0.250977,-0.165283,-7.637023,-13.961791,160.171509,0.4444030839980749
0 days 00:00:46.230000,-0.219482,0.296143,-0.10376,2.26593,-37.93335,135.620117,0.38293493229659786
0 days 00:00:46.240000,-0.113525,0.352783,-0.084961,10.101317,-57.891842,115.089409,0.38021328519003644
0 days 00:00:46.250000,0.036621,0.442871,-0.185791,14.389037,-73.234558,75.996399,0.48165767507951124
0 days 00:00:46.260000,0.207764,-0.368408,0.125244,-71.762085,153.816223,249.992355,0.44110814285841515
0 days 00:00:46.270000,0.082764,0.491211,-0.200439,19.53125,-74.676514,58.609005,0.5369487116457213
0 days 00:00:46.280000,0.204102,0.625732,-0.136719,37.506104,-77.507019,33.493042,0.6722278238729783
0 days 00:00:46.290000,0.251221,0.69873,-0.124512,37.29248,-71.060181,27.023314,0.7528870047258087
0 days 00:00:46.300000,0.321777,0.765869,-0.094971,35.568237,-59.112545,19.088745,0.8361311223313004
0 days 00:00:46.310000,0.371582,0.790527,-0.085693,36.392212,-50.323483,12.08496,0.8776955113830764
0 days 00:00:46.320000,0.364258,0.810059,-0.12915,36.056519,-44.570919,9.712219,0.8975294961977572
0 days 00:00:46.330000,0.292236,0.833496,-0.222412,29.289244,-35.507202,8.323669,0.9108153267572962
0 days 00:00:46.340000,0.26416,0.86792,-0.237305,21.156309,-20.477293,5.371093,0.9377522567421526
0 days 00:00:46.350000,0.321533,0.894531,-0.191406,17.295837,-3.982544,2.731323,0.9696419116797705
0 days 00:00:46.360000,0.375244,0.925537,-0.147461,16.235352,8.148193,0.091553,1.0095402638954032
0 days 00:00:46.370000,0.367432,0.954102,-0.0979,14.831542,15.480041,-2.838135,1.0270838870452597
0 days 00:00:46.380000,0.134277,0.556641,-0.17334,31.272886,-75.912476,43.968197,0.5982693968522876
0 days 00:00:46.390000,0.194824,-0.368896,0.048828,-92.7658,173.522934,249.786362,0.42002955059852637
0 days 00:00:46.400000,-0.030273,0.400146,-0.121826,13.839721,-69.046021,95.520012,0.4193743555834095
0 days 00:00:46.410000,0.334229,-0.371582,0.122803,-92.52166,213.478073,249.992355,0.5146482138062853
0 days 00:00:46.420000,0.21875,-0.351563,0.028076,-98.44207,194.23674,249.992355,0.41501369524992787
0 days 00:00:46.430000,0.931641,-1.065918,0.22998,-8.68988,-5.577087,243.865952,1.4342339195560116
0 days 00:00:46.440000,1.175049,-1.033691,0.303711,-36.880493,-55.236813,249.992355,1.5942075170450678
0 days 00:00:46.450000,1.550781,-1.194092,0.377686,-49.354549,-51.300045,249.992355,1.993344959865452
0 days 00:00:46.460000,1.970459,-1.517578,0.579346,-40.763851,-3.067016,249.992355,2.553701909871432
0 days 00:00:46.470000,2.048096,-1.702393,0.812012,-9.544373,43.006893,249.992355,2.784277759098219
0 days 00:00:46.480000,1.797852,-1.50293,1.014404,7.537841,27.282713,249.992355,2.5534458823362596
0 days 00:00:46.490000,1.353271,-1.110596,1.076172,-24.67346,-59.486385,249.992355,2.054972517636428
0 days 00:00:46.500000,1.019287,-0.825195,1.015869,-82.824699,-159.095764,249.992355,1.6588799237904472
0 days 00:00:46.510000,1.20752,-0.794434,1.044189,-133.041382,-203.392014,249.992355,1.7831322436872146
0 days 00:00:46.520000,1.626221,-1.028564,1.125732,-160.591125,-131.347656,249.992355,2.2293073316079592
0 days 00:00:46.530000,0.678467,-1.195313,0.481201,17.64679,78.216553,198.638901,1.4562434688124786
0 days 00:00:46.540000,1.875977,-1.244629,1.243164,-159.614563,170.318588,249.992355,2.571740224646727
0 days 00:00:46.550000,1.903564,-1.260986,1.125732,-166.01561,30.319212,249.992355,2.545763958051885
0 days 00:00:46.560000,0.540771,-0.619873,0.236328,-92.14782,239.837631,249.992355,0.8558777565482117
0 days 00:00:46.570000,0.631104,-0.76001,0.254639,-89.675896,242.88176,249.992355,1.0201708088535957
0 days 00:00:46.580000,0.716064,-0.910645,0.321045,-83.518974,235.176071,249.992355,1.2021197361935292
0 days 00:00:46.590000,0.894775,-1.047852,0.409912,-84.358208,210.754379,249.992355,1.4375826801519973
0 days 00:00:46.600000,0.446777,-0.478271,0.212646,-89.973442,230.0186,249.992355,0.6881650663074957
0 days 00:00:46.610000,1.017578,-1.127197,0.686279,-105.12542,205.467209,249.992355,1.6664383963213283
0 days 00:00:46.620000,0.941406,-1.107178,1.061768,-120.285027,234.329208,249.992355,1.799844345032092
0 days 00:00:46.630000,1.417236,-1.130371,1.333984,-140.342712,232.856735,249.992355,2.250735388621461
0 days 00:00:46.640000,1.094482,-1.115723,0.49585,-93.833916,192.016586,249.992355,1.6396938383591613
0 days 00:00:46.650000,-0.115723,0.953369,0.480469,-11.627196,37.445068,-17.845154,1.0738504192162892
0 days 00:00:46.660000,0.010742,0.810059,0.783691,120.841972,130.737305,24.009703,1.1271568469055226
0 days 00:00:46.670000,-0.026855,0.821045,0.773438,103.523247,109.642021,21.728514,1.1282918163728743
0 days 00:00:46.680000,-0.02124,0.845459,0.806885,82.527153,87.85247,16.792297,1.1688949745404844
0 days 00:00:46.690000,0.000732,0.881348,0.821533,58.814999,72.090149,10.589599,1.2048615285654198
0 days 00:00:46.700000,0.026123,0.90918,0.822998,37.460327,63.224789,4.776001,1.226628057535372
0 days 00:00:46.710000,0.019287,0.92041,0.779785,19.233704,57.929989,-3.334045,1.2064788446939299
0 days 00:00:46.720000,0.076904,0.828369,0.854248,133.880615,146.148682,26.618956,1.1924131292807036
0 days 00:00:46.730000,-0.005615,0.925537,0.677979,5.592346,49.873348,-11.108397,1.1473037047944192
0 days 00:00:46.740000,-0.068359,0.938232,0.57373,-3.410339,41.53442,-15.907287,1.1018703878428713
0 days 00:00:46.750000,-0.104736,0.969482,0.419434,-19.493103,36.186218,-18.890381,1.0615035837791598
0 days 00:00:46.760000,-0.044434,1.010742,0.236328,-18.638611,35.964966,-18.463135,1.038953653684321
0 days 00:00:46.770000,-0.040527,1.018066,0.378662,-27.381895,33.988953,-19.90509,1.0869616958885902
0 days 00:00:46.780000,-0.049072,1.024658,0.354492,-27.328489,36.758423,-19.287109,1.0853555436869524
0 days 00:00:46.790000,-0.050049,1.013184,0.309326,-23.338316,38.200378,-19.40918,1.0605325523212383
0 days 00:00:46.800000,-0.043457,1.023193,0.18457,-14.831542,34.65271,-16.906738,1.0406144872132044
0 days 00:00:46.810000,-0.022705,1.052734,0.158691,-12.08496,32.516479,-14.541625,1.064869581339424
0 days 00:00:46.820000,-0.008301,1.085693,0.148438,-9.994507,27.091978,-9.635925,1.0958248202582384
0 days 00:00:46.830000,0.004639,1.088623,0.139404,-6.91986,21.743773,-4.867554,1.0975222237686122
0 days 00:00:46.840000,0.037109,1.06665,0.124023,-2.609253,17.776489,-1.853943,1.0744770844043163
0 days 00:00:46.850000,0.061035,1.031982,0.088379,2.922058,14.60266,-2.037048,1.0375562477234668
0 days 00:00:46.860000,0.135498,0.852051,0.927246,147.964478,158.950806,28.770445,1.2665448113355484
0 days 00:00:46.870000,-0.059814,0.992432,0.394043,-24.307249,34.561157,-19.950867,1.069471306332713
0 days 00:00:46.880000,0.156494,0.840332,0.977783,171.371445,173.614487,31.692503,1.298733166339029
0 days 00:00:46.890000,0.799072,0.667725,-0.39209,-4.142761,29.350279,19.355774,1.1127027028407004
0 days 00:00:46.900000,0.21167,0.668701,0.881104,234.703049,221.542343,41.366573,1.126192468060855
0 days 00:00:46.910000,0.061768,0.988037,0.069092,9.002686,12.321471,-2.540588,0.9923739736898586
0 days 00:00:46.920000,0.888916,0.586182,-0.465332,8.903503,77.163696,21.484373,1.1620304911679384
0 days 00:00:46.930000,0.991455,0.532959,-0.485107,17.448425,122.344963,11.749267,1.225706781475488
0 days 00:00:46.940000,0.83374,0.434326,-0.314209,36.155701,146.865845,12.672423,0.9912057090014162
0 days 00:00:46.950000,0.292236,0.406738,-0.281982,63.568111,152.053833,36.483765,0.574762149644529
0 days 00:00:46.960000,-0.140137,0.598389,-0.404785,72.189331,133.132935,44.006344,0.7359066994633219
0 days 00:00:46.970000,-0.239502,1.02417,-0.426514,29.533384,93.65844,23.376463,1.1349888057157216
0 days 00:00:46.980000,-0.170654,1.357666,-0.373047,-41.061398,34.927368,13.114928,1.4182890465208424
0 days 00:00:46.990000,-0.118896,1.423584,-0.512939,-73.616028,-33.683777,18.722534,1.5178386217226785
0 days 00:00:47,-0.135986,1.503662,-1.066895,-74.104309,-61.19537,39.077759,1.8487175402059126
0 days 00:00:47.010000,0.02124,1.212646,-1.400635,-25.192259,-104.804985,179.23735,1.8527654633387898
0 days 00:00:47.020000,0.749756,1.019043,-1.244629,49.057003,-99.151604,249.992355,1.7747349219041135
0 days 00:00:47.030000,3.923584,2.289551,-3.439209,-214.202866,80.413811,-81.069939,5.697781474603778
0 days 00:00:47.040000,4.25708,-2.838867,-7.085938,-109.596245,216.987595,-95.939629,8.740275356642547
0 days 00:00:47.050000,0.855225,-1.63501,-0.637451,249.992355,249.992355,146.705627,1.9521811591463534
0 days 00:00:47.060000,0.113037,0.135498,-0.331543,249.992355,249.992355,115.531914,0.3755766662374008
0 days 00:00:47.070000,0.078125,0.268799,-0.292969,249.992355,249.992355,97.518913,0.4052002628170421
0 days 00:00:47.080000,0.02417,0.412598,-0.042969,249.992355,249.992355,95.939629,0.41553295111819954
0 days 00:00:47.090000,0.046875,0.557129,0.118164,249.992355,249.992355,98.94561,0.5714479146536454
0 days 00:00:47.100000,0.205811,0.594971,0.306152,249.992355,249.870285,84.9533,0.7000555018468179
0 days 00:00:47.110000,0.302246,0.571777,0.468018,249.664291,249.80925,69.717407,0.7983247650981398
0 days 00:00:47.120000,0.349365,0.572266,0.599365,249.992355,249.992355,60.295101,0.8993234574979128
0 days 00:00:47.130000,0.315186,0.587891,0.757813,249.992355,246.292099,51.200863,1.0095734670869674
0 days 00:00:47.140000,0.158691,0.779541,0.96875,203.30809,194.602951,35.476685,1.2535324354247879
0 days 00:00:47.150000,0.073975,0.94165,0.06543,13.290404,11.634826,-2.174377,0.9468147168401007
0 days 00:00:47.160000,0.996582,-0.582764,0.522217,25.016783,-197.883591,-249.992355,1.267083326979327
0 days 00:00:47.170000,0.091064,0.904785,0.015137,13.282775,26.31378,-3.868103,0.9094820927813807
0 days 00:00:47.180000,0.474854,0.467773,-0.024414,-38.43689,-56.015011,-247.558578,0.6670037063172888
0 days 00:00:47.190000,0.503174,0.449463,0.005859,-32.920837,-56.594845,-249.992355,0.674711338667137
0 days 00:00:47.200000,0.476074,0.409668,0.035156,-29.418943,-54.084774,-249.992355,0.6290550596219698
0 days 00:00:47.210000,0.443604,0.370117,0.05249,-26.039122,-52.764889,-249.992355,0.5801088713379584
0 days 00:00:47.220000,0.394043,0.319824,0.123291,-16.288757,-52.452084,-249.992355,0.522262335906008
0 days 00:00:47.230000,0.459229,0.253174,0.182617,-1.655578,-56.167599,-249.992355,0.5552812957465793
0 days 00:00:47.240000,0.562988,0.201416,0.201172,9.521484,-60.363766,-249.992355,0.630867709416166
0 days 00:00:47.250000,0.707275,0.169189,0.150146,17.204285,-66.734314,-249.992355,0.7425676162222535
0 days 00:00:47.260000,0.817627,0.153809,0.122559,18.02063,-70.602417,-249.992355,0.840946982925202
0 days 00:00:47.270000,0.81665,0.080811,0.215088,8.209229,-55.953976,-249.992355,0.8483575236685298
0 days 00:00:47.280000,0.345947,0.497314,0.015625,-45.242306,-56.732174,-238.143906,0.6060071633487512
0 days 00:00:47.290000,0.780762,0.036621,0.328857,4.104614,-57.464596,-249.992355,0.8479842715133341
0 days 00:00:47.300000,0.779053,-0.09375,0.46582,9.712219,-91.491692,-249.992355,0.9125244718411666
0 days 00:00:47.310000,0.94751,-0.135742,0.511719,12.413024,-110.939018,-249.992355,1.0853835384899662
0 days 00:00:47.320000,1.025635,-0.157471,0.505127,8.628845,-119.369499,-249.992355,1.1540699957953158
0 days 00:00:47.330000,0.970703,-0.197266,0.484131,1.846313,-113.883965,-249.992355,1.1025248360585806
0 days 00:00:47.340000,0.939941,-0.256348,0.533203,0.221252,-115.646355,-249.992355,1.110634422208316
0 days 00:00:47.350000,0.943115,-0.317627,0.564697,4.798889,-132.522583,-249.992355,1.1442182991732828
0 days 00:00:47.360000,0.957031,-0.386963,0.52002,11.161803,-158.744812,-249.992355,1.15588472553711
0 days 00:00:47.370000,0.881836,-0.451904,0.435303,12.252807,-180.328354,-249.992355,1.0822849245559136
0 days 00:00:47.380000,0.888672,-0.529541,0.438721,12.344359,-196.067795,-249.992355,1.1236670815263745
0 days 00:00:47.390000,0.079834,0.918213,0.036865,14.236449,17.39502,-1.861572,0.9224140117918851
0 days 00:00:47.400000,0.761963,-0.023193,0.410889,5.119323,-73.036194,-249.992355,0.8659995952302749
0 days 00:00:47.410000,0.222168,0.536621,0.054688,-51.956173,-59.585567,-232.589706,0.5833622332727754
0 days 00:00:47.420000,0.803223,0.121338,0.129395,14.419555,-63.194271,-249.992355,0.822577147748465
0 days 00:00:47.430000,0.081543,0.583984,0.093994,-67.077637,-41.519161,-224.128708,0.5970941677331976
0 days 00:00:47.440000,0.144287,0.557617,0.074219,-59.120174,-55.503841,-228.591904,0.5807442785073307
0 days 00:00:47.450000,0.037354,0.899658,-0.02417,3.044128,35.522461,-13.046264,0.9007574741183111
0 days 00:00:47.460000,0.020264,0.88916,-0.031006,-1.594543,30.319212,-18.096924,0.8899311812336951
0 days 00:00:47.470000,0.008545,0.863281,-0.0354,-4.112244,21.606443,-24.429319,0.8640487613474137
0 days 00:00:47.480000,-0.015869,0.839844,-0.032959,-4.417419,17.776489,-31.318663,0.8406402709708833
0 days 00:00:47.490000,-0.0271,0.793701,-0.04834,-3.89862,20.980833,-37.582397,0.7956333596582034
0 days 00:00:47.500000,-0.010742,0.740967,-0.101074,-6.477355,29.693602,-45.776363,0.7479060362966728
0 days 00:00:47.510000,0.00415,0.716309,-0.119629,-10.833739,42.465206,-55.183407,0.7262416289514118
0 days 00:00:47.520000,0.010986,0.70752,-0.110352,-15.182494,57.02972,-64.338684,0.7161583669133526
0 days 00:00:47.530000,0.013428,0.697021,-0.094727,-19.477844,69.625854,-73.753357,0.7035565294658277
0 days 00:00:47.540000,-0.000732,0.675293,-0.078125,-23.605345,76.904297,-83.19854,0.67979753404819
0 days 00:00:47.550000,0.078613,0.900146,-0.003174,9.07135,33.317566,-8.430481,0.9035778324864991
0 days 00:00:47.560000,-0.008057,0.63916,-0.031006,-30.181883,68.267822,-104.507439,0.6399623370832067
0 days 00:00:47.570000,-0.012939,0.646973,-0.067139,-26.382444,76.072693,-93.185417,0.650575995384859
0 days 00:00:47.580000,0.162354,0.662842,0.067383,-75.454712,-12.96997,-208.587631,0.6857541884443725
0 days 00:00:47.590000,0.248291,0.700439,0.018066,-74.417114,3.479004,-195.24382,0.7433637022063964
0 days 00:00:47.600000,0.239502,0.730713,-0.047607,-70.640564,14.930724,-179.588303,0.7704343728196451
0 days 00:00:47.610000,0.153564,0.738281,-0.095703,-64.697266,15.480041,-163.894638,0.7601314368357619
0 days 00:00:47.620000,0.074951,0.619385,0.087402,-73.135376,-26.847837,-218.315109,0.6299956668343044
0 days 00:00:47.630000,-0.060059,0.712158,-0.100342,-50.765987,21.40045,-136.886597,0.721695654281637
0 days 00:00:47.640000,-0.08252,0.695313,-0.076416,-42.457577,35.78949,-126.983635,0.7043501426314898
0 days 00:00:47.650000,-0.020996,0.664063,-0.038574,-34.538269,53.367611,-116.516106,0.6655136763891483
0 days 00:00:47.660000,0.039795,0.727051,-0.10498,-58.006283,14.945983,-149.383545,0.7356681310387178
0 days 00:00:47.670000,0.569092,0.743408,-0.391113,-20.187376,63.400265,22.476194,1.0146381314030142
0 days 00:00:47.680000,0.674072,0.53418,-0.528564,-37.67395,-60.31036,21.858213,1.00950544113442
0 days 00:00:47.690000,0.715332,0.562256,-0.490479,-31.738279,-48.301693,23.765562,1.0336350077280665
0 days 00:00:47.700000,0.744629,0.580566,-0.555176,-35.392761,-23.567198,18.135071,1.0953308262680275
0 days 00:00:47.710000,0.739502,0.595215,-0.572266,-37.506104,3.112793,14.076232,1.108436953094311
0 days 00:00:47.720000,0.698975,0.600586,-0.538574,-38.101196,26.31378,15.1062,1.0673947477372183
0 days 00:00:47.730000,0.627441,0.605957,-0.535156,-36.018372,45.700069,17.799377,1.0233562618492154
0 days 00:00:47.740000,0.665771,0.394043,-0.686768,-52.566525,-61.454769,17.166138,1.0344907907342626
0 days 00:00:47.750000,0.546387,0.622314,-0.550293,-29.106138,60.05859,19.195557,0.9943016917485357
0 days 00:00:47.760000,0.526123,0.669434,-0.492676,-21.423338,65.917969,21.423338,0.9837057143582119
0 days 00:00:47.770000,0.56958,0.80957,-0.338135,-23.986814,58.052059,25.001524,1.0460211467867178
0 days 00:00:47.780000,0.147705,0.562012,-0.1521,20.004272,16.181946,12.931823,0.6006735096281506
0 days 00:00:47.790000,0.537109,0.734131,-0.322998,-27.885435,49.140926,40.771481,0.9652782557615188
0 days 00:00:47.800000,0.497314,0.572266,-0.219971,-13.053893,50.567623,34.957886,0.7894281665819887
0 days 00:00:47.810000,0.385498,0.512207,-0.13623,5.142211,42.556759,20.339964,0.6553802955178009
0 days 00:00:47.820000,-0.206787,0.667969,-0.260742,27.252195,-15.251159,16.212463,0.7462773203668995
0 days 00:00:47.830000,-0.381836,0.813232,-0.365723,16.51001,-23.323057,7.331848,0.9699991388908549
0 days 00:00:47.840000,-0.234619,0.987793,-0.545898,-19.134521,-9.70459,-1.419067,1.1527296788119927
0 days 00:00:47.850000,0.169678,1.128662,-0.770752,-41.526791,-27.481077,13.679503,1.3772171867327245
0 days 00:00:47.860000,0.126465,1.324951,-1.176025,-52.589413,-62.339779,-4.760742,1.776097787074518
0 days 00:00:47.870000,-0.250244,1.276367,-1.479492,-52.352901,-100.471489,-8.354187,1.9699318151370113
0 days 00:00:47.880000,0.627197,0.2771,-0.83252,-81.382744,-58.006283,23.902891,1.0785406979845498
0 days 00:00:47.890000,0.539795,0.830322,-0.340088,-28.373716,51.99432,34.744263,1.0471261210823652
0 days 00:00:47.900000,0.631104,0.373779,-1.019043,-127.380363,-61.225887,21.278379,1.2555682520301314
0 days 00:00:47.910000,0.349365,0.826904,-0.842529,55.01556,-201.92717,135.96344,1.2311300679790091
0 days 00:00:47.920000,0.702148,0.543457,-0.868164,-157.539368,-98.182671,23.063658,1.2417995231312502
0 days 00:00:47.930000,0.570068,1.02832,1.104492,-64.285278,-72.242737,-19.90509,1.6131714493779017
0 days 00:00:47.940000,0.592041,1.041016,1.078369,-96.214287,-77.278137,-24.688719,1.6115540816547238
0 days 00:00:47.950000,0.583984,1.055908,0.996582,-121.780388,-83.053581,-25.985716,1.564977539597294
0 days 00:00:47.960000,0.533691,1.052246,0.85498,-142.105103,-92.979424,-23.056028,1.4570650391787596
0 days 00:00:47.970000,0.518066,1.019775,0.748047,-156.387329,-108.131401,-14.907836,1.3667142148927844
0 days 00:00:47.980000,0.534424,0.962402,0.688965,-163.74205,-120.964043,-3.746032,1.2986529146022812
0 days 00:00:47.990000,0.570557,0.893799,0.608398,-168.045029,-125.66375,7.186889,1.2225220116848614
0 days 00:00:48,0.642822,0.841797,0.512939,-173.126205,-120.887749,15.174865,1.1768384471175302
0 days 00:00:48.010000,0.688965,0.822021,0.403076,-183.250412,-108.01696,19.615173,1.1458017094776913
0 days 00:00:48.020000,0.66333,0.811279,0.309326,-194.923386,-93.475334,20.942686,1.0926403246343235
0 days 00:00:48.030000,0.736328,0.521973,-1.014404,-153.701782,-80.42907,21.331785,1.3578108158094042
0 days 00:00:48.040000,0.638672,0.786621,0.267822,-199.272141,-84.213249,16.921997,1.0480473008929512
0 days 00:00:48.050000,0.626709,0.729248,0.127686,-208.991989,-82.160942,25.085447,0.9699848095619849
0 days 00:00:48.060000,0.604736,0.617188,0.023438,-205.772385,-84.045403,32.318115,0.8643934271406741
0 days 00:00:48.070000,0.647217,0.589111,-0.094482,-204.57457,-89.767448,38.795471,0.8802661323338529
0 days 00:00:48.080000,0.617432,0.610596,-0.241211,-211.410507,-95.970146,45.829769,0.901239422329605
0 days 00:00:48.090000,0.596436,0.598877,-0.261475,-207.21434,-104.850761,46.012875,0.8847365364050475
0 days 00:00:48.100000,0.649902,0.634277,-0.317383,-196.716293,-114.036552,39.901733,0.9619833111972369
0 days 00:00:48.110000,0.63916,0.665283,-0.421875,-187.04985,-116.363518,31.654356,1.0144483679882381
0 days 00:00:48.120000,0.623291,0.654541,-0.487061,-179.359421,-116.233818,25.474546,1.026715154793675
0 days 00:00:48.130000,0.617188,0.592773,-0.585693,-171.043381,-114.578239,20.332335,1.0369846417001556
0 days 00:00:48.140000,0.627197,0.551025,-0.720947,-162.727341,-109.03167,19.126892,1.1030726196597394
0 days 00:00:48.150000,0.667969,0.772705,0.225098,-202.644333,-83.305351,16.464233,1.0459085579485425
0 days 00:00:48.160000,2.157471,1.842041,-0.648193,-87.6007,-93.460075,118.812553,2.909974282836706
0 days 00:00:48.170000,0.336914,1.003662,0.267334,-168.807968,-47.012325,-13.023376,1.0919321962448036
0 days 00:00:48.180000,2.404053,-4.047363,-5.042236,179.992661,249.992355,30.34973,6.898170914110058
0 days 00:00:48.190000,0.407227,0.867188,0.128906,-175.247177,-64.994812,-4.737854,0.9666776162242507
0 days 00:00:48.200000,0.404297,0.805664,0.078613,-167.572006,-76.820374,-7.415771,0.9048373051958015
0 days 00:00:48.210000,0.412842,0.779297,-0.004395,-160.514832,-88.775627,-9.254456,0.8819079584616527
0 days 00:00:48.220000,0.446289,0.787842,-0.126465,-160.40802,-100.921623,-6.568908,0.9142550435791973
0 days 00:00:48.230000,0.441162,0.775391,-0.280029,-162.834152,-111.04583,-4.188538,0.935024787888535
0 days 00:00:48.240000,0.434814,0.770264,-0.416016,-164.932236,-120.834343,-7.362365,0.9774656804962514
0 days 00:00:48.250000,0.418945,0.811523,-0.524414,-174.255356,-127.716057,-6.698608,1.0531355733949928
0 days 00:00:48.260000,0.386719,0.768799,-0.520752,-172.286972,-126.068108,-6.462097,1.0058758038972804
0 days 00:00:48.270000,0.438721,0.728516,-0.487061,-155.944824,-118.408195,-8.81958,0.9800204568364888
0 days 00:00:48.280000,0.543457,0.668213,-0.649658,-135.757446,-68.031311,-18.280029,1.0788464400376914
0 days 00:00:48.290000,0.385986,0.940674,0.169922,-179.901108,-57.266232,-3.814697,1.0308861491726427
0 days 00:00:48.300000,0.5625,0.624756,-0.743652,-131.134033,-38.94043,-26.214598,1.1223834490226592
0 days 00:00:48.310000,0.640137,0.577637,-0.914795,-115.592949,-15.518188,-18.90564,1.257095769845321
0 days 00:00:48.320000,0.632568,0.510986,-0.981689,-101.387016,-30.71594,-7.774353,1.2747400752863307
0 days 00:00:48.330000,0.513672,0.466553,-0.912598,-82.229607,-39.474487,-1.968384,1.1464579080790538
0 days 00:00:48.340000,0.531494,0.480713,-0.789307,-63.537594,-27.992247,-6.92749,1.0661033724053217
0 days 00:00:48.350000,0.708008,0.526855,-0.655273,-43.42651,-11.95526,-12.84027,1.0991970813361907
0 days 00:00:48.360000,0.789307,0.615479,-0.53418,-29.121397,-3.997802,-11.154174,1.1345343591491621
0 days 00:00:48.370000,0.718994,0.712402,-0.493408,-23.307798,-4.386902,0.663757,1.1260197316672564
0 days 00:00:48.380000,0.638916,0.808105,-0.47168,-20.301817,-7.843017,9.910583,1.1330178147235814
0 days 00:00:48.390000,0.640625,0.830078,-0.400635,-19.828796,-8.430481,13.648986,1.1224697233930185
0 days 00:00:48.400000,0.709229,0.773926,-0.373779,-16.700745,1.228333,15.167235,1.114306048066688
0 days 00:00:48.410000,0.580566,0.595459,-0.817139,-124.26757,-17.01355,-27.160643,1.1659092787854464
0 days 00:00:48.420000,0.354248,0.993164,0.207275,-178.2379,-52.970882,-7.17926,1.0746298441905473
0 days 00:00:48.430000,0.496338,0.704102,-0.54541,-142.76886,-96.405022,-11.260985,1.019599482516542
0 days 00:00:48.440000,0.32666,1.01416,0.326416,-155.174255,-35.583496,-18.501282,1.1143494363331459
0 days 00:00:48.450000,3.822998,-0.063232,-4.655518,-237.289413,199.363693,-142.333984,6.024380452972073
0 days 00:00:48.460000,-0.020996,0.604248,0.239502,249.992355,212.585434,42.938229,0.6503212171873219
0 days 00:00:48.470000,-0.005859,0.631348,0.314697,249.992355,185.882553,33.149719,0.7054564669729806
0 days 00:00:48.480000,0.118164,0.652832,0.470215,249.855026,168.899521,24.383543,0.8131755636669119
0 days 00:00:48.490000,0.175293,0.732422,0.618164,249.450668,146.179199,14.541625,0.9743184042339548
0 days 00:00:48.500000,0.173096,0.762207,0.68042,249.992355,117.546074,6.942749,1.036288141621335
0 days 00:00:48.510000,0.115479,0.771484,0.717773,247.108444,93.696587,0.839233,1.0600570933803517
0 days 00:00:48.520000,0.131348,0.761719,0.752197,203.94133,74.905396,-9.727478,1.0785492380387647
0 days 00:00:48.530000,0.217041,0.758789,0.882324,159.629822,56.610104,-19.638062,1.1837918664942753
0 days 00:00:48.540000,0.270752,0.789795,0.956055,126.281731,43.495174,-27.458189,1.2693005753382451
0 days 00:00:48.550000,0.27002,0.850342,0.908936,97.114555,33.294678,-33.432007,1.2736392619026786
0 days 00:00:48.560000,-0.03418,0.499023,-0.082764,249.992355,247.581467,74.798584,0.5069932017542247
0 days 00:00:48.570000,0.145996,0.913574,0.718262,41.931149,11.421203,-36.300659,1.171252571453314
0 days 00:00:48.580000,0.221924,0.899658,0.814697,68.321228,23.094175,-35.888672,1.2338419593079983
0 days 00:00:48.590000,0.319092,1.011475,0.395752,-125.137321,-12.977599,-22.171019,1.1320428550160988
0 days 00:00:48.600000,0.312256,1.016357,0.484375,-109.611504,-8.834839,-24.635313,1.168376866259342
0 days 00:00:48.610000,0.320068,1.018066,0.61792,-98.091118,-11.283874,-27.359007,1.2331776155039469
0 days 00:00:48.620000,0.34082,1.049316,0.696045,-90.660088,-14.373778,-27.908323,1.3044926148817402
0 days 00:00:48.630000,0.320313,1.014893,0.358398,-140.319824,-22.6593,-20.751951,1.1229680965290154
0 days 00:00:48.640000,0.27417,1.126221,0.680176,-50.23193,-17.494202,-22.354124,1.3439428264316158
0 days 00:00:48.650000,0.168213,1.022949,0.649658,-15.304564,-14.068603,-27.122496,1.2234278838305102
0 days 00:00:48.660000,0.104492,0.933838,0.655518,15.289306,-2.693176,-34.0271,1.1457206625665786
0 days 00:00:48.670000,0.32373,1.105225,0.717773,-77.445984,-14.930724,-24.772642,1.3570267105160456
0 days 00:00:48.680000,0.895752,-0.697998,0.463623,-131.057739,-48.255917,249.992355,1.2265884149285773
0 days 00:00:48.690000,0.763184,-1.041992,0.622559,-32.524109,237.037643,249.992355,1.4337980521680866
0 days 00:00:48.700000,0.510498,-0.933838,0.587158,-34.011841,244.056686,249.992355,1.2154900802606328
0 days 00:00:48.710000,0.346436,-0.845947,0.581299,-39.657593,227.363571,249.992355,1.083306400011557
0 days 00:00:48.720000,0.342285,-0.809082,0.587158,-47.95837,182.540878,249.992355,1.056658516699222
0 days 00:00:48.730000,0.57373,-0.812988,0.602539,-52.909847,119.796745,249.992355,1.163257859446907
0 days 00:00:48.740000,1.042969,-0.802979,0.621826,-73.623657,55.6488,249.992355,1.4557565674514406
0 days 00:00:48.750000,0.887207,-1.150146,0.597412,-29.251097,215.415939,249.992355,1.5706282755346663
0 days 00:00:48.760000,1.297119,-0.71167,0.630371,-103.340141,8.19397,249.992355,1.608216243762635
0 days 00:00:48.770000,1.21582,-0.667725,0.591553,-114.273064,-25.947569,249.992355,1.5079820621724913
0 days 00:00:48.780000,0.561279,-0.712646,0.369629,-145.683289,-56.388851,249.80925,0.9795529770247243
0 days 00:00:48.790000,0.247559,-0.299316,0.107666,-177.22319,-55.313107,211.181625,0.4030725665348611
0 days 00:00:48.800000,0.273682,-0.576904,0.273193,-160.621643,-55.557247,249.992355,0.694517442249653
0 days 00:00:48.810000,0.232422,-0.468506,0.274902,-169.052109,-56.968685,242.950424,0.5908375138089997
0 days 00:00:48.820000,0.243652,-0.377686,0.221436,-173.637375,-59.074398,224.586472,0.5010458200564096
0 days 00:00:48.830000,0.2771,-0.231689,0.018311,-178.1082,-49.819942,193.48143,0.3616621288468009
0 days 00:00:48.840000,0.300293,-0.125244,-0.053223,-178.878769,-46.546932,177.680954,0.329688691213393
0 days 00:00:48.850000,0.287109,-0.032959,-0.093018,-179.298386,-43.67065,167.40416,0.30359549055610163
0 days 00:00:48.860000,0.30542,0.010498,-0.115723,-176.185593,-38.131714,155.860901,0.3267772898060696
0 days 00:00:48.870000,0.377197,0.046387,-0.125244,-169.853195,-29.472349,143.737793,0.40014421164625136
0 days 00:00:48.880000,0.493652,0.08667,-0.153564,-162.6129,-14.73236,130.905151,0.5242002366462647
0 days 00:00:48.890000,0.889648,-1.228516,0.581787,-22.262571,181.625351,249.992355,1.624561860788625
0 days 00:00:48.900000,0.378906,-0.670166,0.314209,-152.656555,-56.373592,249.992355,0.8315163979579718
0 days 00:00:48.910000,0.917969,-1.258301,0.640869,-13.519286,139.205933,249.992355,1.6842510402914999
0 days 00:00:48.920000,0.289551,-0.941162,0.324463,79.544067,221.343979,-24.826048,1.0367747731373484
0 days 00:00:48.930000,1.027588,-1.337158,0.829102,4.600525,75.584412,249.992355,1.8791856590321245
0 days 00:00:48.940000,0.609131,0.137939,-0.206787,-156.37207,10.467528,117.683403,0.6578971091675354
0 days 00:00:48.950000,0.335938,-0.874512,0.495117,110.710136,244.148239,-34.77478,1.0596067297242877
0 days 00:00:48.960000,0.321289,-0.849854,0.43042,131.088257,245.964035,-45.364376,1.0053555685611932
0 days 00:00:48.970000,0.4104,-0.807373,0.429932,137.901306,233.962997,-38.528442,1.0025571533598472
0 days 00:00:48.980000,0.510986,-0.803955,0.568848,137.290955,227.958664,-35.392761,1.1095216903355247
0 days 00:00:48.990000,0.558594,-0.796875,0.604004,146.995544,232.070908,-41.267391,1.1453636341690792
0 days 00:00:49,0.554443,-0.729004,0.540527,122.00164,241.439804,-19.096375,1.0634957968859116
0 days 00:00:49.010000,0.556396,-0.682373,0.578857,85.693352,242.492661,-17.929077,1.053700548730046
0 days 00:00:49.020000,0.434082,-0.682617,0.632813,46.813961,216.766342,-6.469726,1.0270566899553306
0 days 00:00:49.030000,0.357422,-0.787598,0.7854,18.234253,173.454269,18.127441,1.1682954488005164
0 days 00:00:49.040000,0.518311,-0.979248,0.851563,14.945983,114.997856,57.66296,1.3974020470838018
0 days 00:00:49.050000,0.723145,-1.169189,0.877686,22.346495,64.964294,109.90905,1.631034740078212
0 days 00:00:49.060000,0.910889,-1.260742,0.853027,27.153013,28.32794,170.577988,1.7739346728710164
0 days 00:00:49.070000,1.050781,-1.265137,0.846924,12.191772,6.340026,216.148361,1.84986285991854
0 days 00:00:49.080000,1.072021,-1.218994,0.864746,-13.305663,5.836486,242.027267,1.839282751779345
0 days 00:00:49.090000,1.078613,-1.205811,0.924805,-35.125732,18.707275,249.992355,1.8635048858307295
0 days 00:00:49.100000,1.065918,-1.226074,0.995361,-44.281002,34.393311,249.992355,1.905303691415361
0 days 00:00:49.110000,1.072266,-1.27124,1.028076,-41.816708,50.849911,249.992355,1.9551843325200824
0 days 00:00:49.120000,1.074463,-1.328613,1.036377,-35.346985,65.719604,249.992355,1.998439523294863
0 days 00:00:49.130000,1.019775,-1.400146,1.002197,-25.05493,77.659607,249.992355,2.001186822550558
0 days 00:00:49.140000,0.936279,-1.4646,0.959961,-4.478455,83.267204,249.992355,1.985748384705877
0 days 00:00:49.150000,0.954834,-1.467773,0.927734,15.480041,78.605652,249.992355,1.9816043807584298
0 days 00:00:49.160000,1.030029,-1.421387,0.906738,17.25769,71.075439,249.992355,1.9757212721570825
0 days 00:00:49.170000,0.965576,-1.27832,0.72168,-5.775451,100.746147,249.992355,1.7570603451720148
0 days 00:00:49.180000,0.678955,0.195557,-0.239746,-149.627686,38.963318,108.200066,0.7461237007293093
0 days 00:00:49.190000,0.689209,0.242432,-0.236328,-137.969971,58.570858,102.47039,0.7678757997807979
0 days 00:00:49.200000,0.698242,0.289795,-0.213135,-125.427238,64.750671,96.542351,0.7854613681232198
0 days 00:00:49.210000,-0.08252,1.010254,-0.280029,-36.132813,-83.724968,55.053707,1.0515887674167124
0 days 00:00:49.220000,0.206299,1.063477,-0.361816,-43.609615,-87.715141,68.977356,1.1421267113529916
0 days 00:00:49.230000,0.205078,1.117432,-0.816406,-56.915279,-52.719112,1.480102,1.399010370777858
0 days 00:00:49.240000,-0.016357,1.014648,-1.106201,-62.553402,-82.336418,4.066467,1.5011524798480667
0 days 00:00:49.250000,0.228516,0.790039,-0.601074,51.345821,-135.4599,138.877869,1.0186614438826083
0 days 00:00:49.260000,2.170898,2.165283,-1.637939,-154.037476,-2.830505,39.505005,3.4762181698239254
0 days 00:00:49.270000,3.545166,-1.21167,-6.358643,-195.350632,132.263184,-35.331726,7.380290438587426
0 days 00:00:49.280000,1.354004,-2.697266,-2.557129,219.802841,221.343979,87.10479,3.9556895011379494
0 days 00:00:49.290000,-0.041992,0.426514,0.005615,249.992355,230.78154,84.533684,0.42861293550825086
0 days 00:00:49.300000,-0.013428,0.563477,0.157227,249.984726,191.078171,98.533623,0.5851555094519747
0 days 00:00:49.310000,-0.152344,0.767334,-0.281738,16.189575,-63.224789,34.217834,0.8314965198580209
0 days 00:00:49.320000,0.120605,0.619141,0.359619,249.992355,151.054382,94.245903,0.7260901934794328
0 days 00:00:49.330000,0.151123,0.768799,0.525635,249.450668,109.344475,21.408079,0.9434946829500418
0 days 00:00:49.340000,0.105225,0.798828,0.631348,249.992355,94.009392,8.758545,1.023620423454417
0 days 00:00:49.350000,0.14502,0.795166,0.798828,249.992355,79.437256,5.218505,1.1364180311575491
0 days 00:00:49.360000,0.216797,0.796631,0.973145,224.334702,72.540283,0.259399,1.276179094169388
0 days 00:00:49.370000,0.282227,0.836914,1.118408,177.093491,68.161011,-9.399414,1.4251012516270556
0 days 00:00:49.380000,0.368896,0.913086,1.223633,130.943298,54.725643,-19.134521,1.570696667374385
0 days 00:00:49.390000,0.429688,0.991943,1.245361,88.081352,35.774231,-22.445677,1.6490926938513795
0 days 00:00:49.400000,0.486084,1.053467,1.231201,48.118587,15.731811,-23.338316,1.6917228725609876
0 days 00:00:49.410000,0.496582,1.076172,1.210938,13.511657,-4.15802,-23.872374,1.6944352145042312
0 days 00:00:49.420000,0.475342,1.053955,1.154297,-12.168883,-26.222227,-23.185728,1.6337603016348512
0 days 00:00:49.430000,0.224609,0.691162,0.479248,249.992355,125.419609,48.164364,0.8705359031246213
0 days 00:00:49.440000,0.154541,0.49585,-0.255859,44.548031,-40.512081,48.019405,0.5789766584776972
0 days 00:00:49.450000,0.521484,1.029053,1.129883,-34.492493,-54.283138,-19.767761,1.6147851970940283
0 days 00:00:49.460000,0.920654,0.34082,-0.17041,16.929626,1.472473,51.521297,0.9963943136208676
0 days 00:00:49.470000,0.735596,0.325928,-0.191895,-118.324272,63.232418,86.891167,0.8271361601483761
0 days 00:00:49.480000,0.758301,0.347656,-0.186523,-117.485039,59.150692,78.765869,0.8547958413948912
0 days 00:00:49.490000,0.792969,0.364258,-0.205322,-112.228386,51.414486,79.00238,0.8964601771462021
0 days 00:00:49.500000,0.840088,0.376221,-0.233154,-101.203911,37.826538,82.405083,0.9495529876215438
0 days 00:00:49.510000,0.807861,0.397461,-0.216309,-91.880791,24.963377,80.879204,0.9259612439638066
0 days 00:00:49.520000,0.754639,0.447998,-0.175293,-92.109673,19.233704,76.065063,0.8949356759980015
0 days 00:00:49.530000,0.643066,0.37207,-0.166504,33.691406,-17.799377,57.701107,0.7613760879302686
0 days 00:00:49.540000,0.808105,0.449951,-0.250488,-97.618095,8.758545,63.621517,0.9582451834316726
0 days 00:00:49.550000,0.790771,0.418701,-0.324951,-96.733086,-3.051758,58.059689,0.9519571703826807
0 days 00:00:49.560000,0.712646,0.404785,-0.356934,-95.092766,-11.604308,56.686398,0.8939334974689113
0 days 00:00:49.570000,0.690186,0.412598,-0.34082,-90.667717,-9.613037,53.75671,0.8733567979926646
0 days 00:00:49.580000,0.77002,0.470459,-0.208252,-96.786491,15.769958,69.847107,0.9260838874448686
0 days 00:00:49.590000,0.791504,0.453613,-0.246338,-79.368591,8.010864,46.57745,0.9449474832121624
0 days 00:00:49.600000,0.83374,0.451172,-0.177734,-72.540283,15.968322,48.263546,0.9645039844085664
0 days 00:00:49.610000,0.800537,0.459961,-0.187988,-64.147949,25.276182,49.461361,0.9422118116612634
0 days 00:00:49.620000,0.748535,0.491699,-0.200195,-54.847713,26.06201,52.864071,0.9176876325041108
0 days 00:00:49.630000,0.713135,0.544189,-0.191406,-46.211239,15.449523,55.541988,0.9172455793199551
0 days 00:00:49.640000,0.731689,0.621582,-0.181885,-44.441219,-0.854492,57.273861,0.9771464213054254
0 days 00:00:49.650000,0.791016,0.649902,-0.189453,-45.455929,-15.121459,60.951229,1.041139453228529
0 days 00:00:49.660000,0.827148,0.555176,-0.19043,-39.18457,-13.908385,56.762691,1.0142276814305553
0 days 00:00:49.670000,0.833008,0.42627,-0.178711,-22.232054,1.594543,47.668453,0.9526521203907541
0 days 00:00:49.680000,0.901855,0.354736,-0.194336,-1.281738,10.215758,46.035763,0.9884060661575281
0 days 00:00:49.690000,0.723633,0.432861,-0.32666,-84.96093,-1.51062,48.278805,0.9042787842308366
0 days 00:00:49.700000,0.029785,-0.832031,0.545898,7.164001,-9.048462,4.875183,0.9955738835415481
0 days 00:00:49.710000,0.04126,-0.818359,0.56958,8.270264,-6.66809,2.868652,0.9979154357364154
0 days 00:00:49.720000,0.043457,-0.814209,0.56543,10.055541,-5.775451,1.457214,0.9922378199957911
0 days 00:00:49.730000,0.023193,-0.822998,0.562744,11.70349,-4.081726,1.266479,0.9972684858096139
0 days 00:00:49.740000,0.13916,-0.801758,0.591553,1.449585,17.677307,-15.930175,1.0060399335876284
0 days 00:00:49.750000,-0.006592,-0.854492,0.571777,9.048462,5.203247,-0.37384,1.0281677733993613
0 days 00:00:49.760000,0.017822,-0.836182,0.596924,5.508422,9.239197,-3.784179,1.027538915362333
0 days 00:00:49.770000,0.085693,-0.812256,0.606934,2.693176,13.999938,-9.284973,1.0175814366137974
0 days 00:00:49.780000,0.000977,-0.842041,0.560791,11.604308,0.991821,1.052856,1.0116919224205558
0 days 00:00:49.790000,0.037109,-0.850342,0.529785,7.797241,-11.940001,7.713317,1.0025620883865498
0 days 00:00:49.800000,0.000732,-0.93457,0.427002,-4.371643,16.708374,-24.368284,1.027498091836671
0 days 00:00:49.810000,-0.007568,-0.832031,0.508789,8.842468,-15.2359,12.626647,0.9752943689502159
0 days 00:00:49.820000,-0.005859,-0.798096,0.523193,5.195617,-17.64679,11.100768,0.9543178025930356
0 days 00:00:49.830000,0.03418,-0.787598,0.537109,0.350952,-15.99121,6.515502,0.9539208352295278
0 days 00:00:49.840000,0.073486,-0.810303,0.532715,-4.03595,-10.116576,0.617981,0.9725103676722423
0 days 00:00:49.850000,0.09668,-0.83667,0.516113,-8.300781,-3.761291,-5.844116,0.9877936728229231
0 days 00:00:49.860000,0.101807,-0.869385,0.516357,-11.512755,2.212524,-11.085509,1.016277272658894
0 days 00:00:49.870000,0.073486,-0.907471,0.522949,-10.94818,8.117676,-14.35852,1.049942600639673
0 days 00:00:49.880000,0.04126,-0.9375,0.50415,-6.896972,11.352538,-16.357422,1.0652585883718564
0 days 00:00:49.890000,0.023926,-0.936523,0.475342,-3.753662,12.176513,-17.967224,1.0505226318214187
0 days 00:00:49.900000,0.008057,-0.925049,0.436768,-4.142761,13.931273,-20.690916,1.0230087260009075
0 days 00:00:49.910000,0.165283,-0.811768,0.567383,2.906799,19.973755,-22.018431,1.0040962227804664
0 days 00:00:49.920000,0.017822,-0.852539,0.519775,9.552002,-13.313293,10.887145,0.9986523022704149
0 days 00:00:49.930000,0.167725,-0.838135,0.559326,4.577637,21.186827,-28.152464,1.0214927939667513
0 days 00:00:49.940000,-0.029053,-0.923096,0.504883,5.119323,-22.964476,3.89862,1.0525479303642187
0 days 00:00:49.950000,0.11084,-0.868408,0.572266,2.380371,25.016783,-39.237976,1.0458997728367667
0 days 00:00:49.960000,0.012939,-0.954834,0.406494,-3.379822,18.554688,-26.260374,1.0378404296003312
0 days 00:00:49.970000,0.149414,-0.891602,0.51001,-11.924743,31.364439,-18.432617,1.0379734437354358
0 days 00:00:49.980000,0.127441,-0.903564,0.520752,-11.558532,25.42877,-14.85443,1.0506434961874556
0 days 00:00:49.990000,0.124512,-0.912109,0.555176,-10.658263,18.52417,-11.238097,1.0750192821531157
0 days 00:00:50,0.092529,-0.904297,0.566895,-10.833739,11.100768,-8.537292,1.0713004345537251
0 days 00:00:50.010000,0.037598,-0.897949,0.583008,-11.260985,2.952575,-6.652832,1.0712723016437045
0 days 00:00:50.020000,0.015869,-0.897217,0.593994,-9.58252,-4.760742,-5.554199,1.0761408096926721
0 days 00:00:50.030000,0.032959,-0.905762,0.576904,-7.438659,-10.2005,-4.28772,1.0743878822571482
0 days 00:00:50.040000,0.028809,-0.902588,0.552734,-4.981995,-13.298034,-1.472473,1.0587775644492095
0 days 00:00:50.050000,0.014893,-0.890869,0.532715,-3.837585,-16.395569,2.26593,1.0381014631696655
0 days 00:00:50.060000,0.138184,-0.86084,0.563232,4.150391,22.567747,-34.606934,1.0379646474133886
0 days 00:00:50.070000,0.01709,-0.887939,0.51416,-3.662109,-18.39447,5.432128,1.026200877714008
0 days 00:00:50.080000,-0.021973,-0.915771,0.50293,0.968933,-20.812986,5.531311,1.0450157520678816
0 days 00:00:50.090000,-0.00293,-0.915283,0.493164,8.155823,-22.224424,-0.358582,1.0396933614701018
0 days 00:00:50.100000,0.08667,-0.901123,0.47583,9.674072,-16.983032,-5.935668,1.0227162553362492
0 days 00:00:50.110000,0.157715,-0.884033,0.472412,9.963989,-7.43103,-12.557982,1.0146730823560857
0 days 00:00:50.120000,0.188965,-0.858398,0.483398,7.888793,3.974914,-20.057678,1.0031094277460462
0 days 00:00:50.130000,0.209229,-0.832275,0.509033,3.890991,14.953612,-26.596067,0.9977840673988536
0 days 00:00:50.140000,0.177246,-0.811035,0.534668,-0.473022,23.406981,-32.249451,0.9874531816572368
0 days 00:00:50.150000,0.131104,-0.806885,0.557617,-3.501892,27.770994,-36.453247,0.989539479116422
0 days 00:00:50.160000,0.098633,-0.829834,0.572998,-3.15094,28.968809,-39.749146,1.0132520141845265
0 days 00:00:50.170000,0.095215,-0.85498,0.579834,-0.450134,27.877806,-41.15295,1.0374315226466757
0 days 00:00:50.180000,0.000732,-0.89917,0.512451,-2.120972,-19.218445,6.111145,1.0349460141113642
0 days 00:00:50.190000,0.013184,-0.979492,0.402344,-1.037598,18.554688,-25.588987,1.0589896554055662
0 days 00:00:50.200000,0.166504,-0.884521,0.498291,-13.137816,36.140442,-22.422789,1.0287832143547055
0 days 00:00:50.210000,0.018311,-0.962402,0.375977,2.815246,14.709472,-22.994993,1.0333980873090485
0 days 00:00:50.220000,-0.192383,-0.96167,0.392822,-4.91333,-17.967224,-0.244141,1.0564703172702015
0 days 00:00:50.230000,-0.150391,-0.893799,0.399902,-8.087158,-15.73944,2.693176,0.9906642796053565
0 days 00:00:50.240000,-0.08374,-0.854248,0.429688,-11.268615,-10.803222,2.609253,0.9598873946708542
0 days 00:00:50.250000,-0.070313,-0.862305,0.45874,-8.552551,-5.760192,-0.282288,0.9792630997816675
0 days 00:00:50.260000,-0.077637,-0.886963,0.482422,-0.480652,-2.708435,-1.853943,1.0126509039259284
0 days 00:00:50.270000,-0.057373,-0.892822,0.481445,8.537292,-0.404358,-0.869751,1.0159783820721777
0 days 00:00:50.280000,-0.071777,-0.866455,0.461426,12.367248,-1.266479,3.082275,0.9842815441884502
0 days 00:00:50.290000,-0.095947,-0.863037,0.470947,12.611388,-5.935668,8.041382,0.9878409623957695
0 days 00:00:50.300000,-0.033936,-0.922363,0.485596,14.877318,-10.139464,10.040282,1.0429327068804584
0 days 00:00:50.310000,0.068848,-0.976807,0.426514,16.326904,-13.85498,10.375976,1.068085274942502
0 days 00:00:50.320000,-0.2229,-0.998291,0.390137,-6.195068,-17.50946,-3.036499,1.094749382027686
0 days 00:00:50.330000,0.079102,-0.953125,0.369385,8.155823,-23.338316,4.364014,1.025255904764269
0 days 00:00:50.340000,0.008545,-0.958984,0.496826,-6.538391,-50.399776,-0.389099,1.0800737954218684
0 days 00:00:50.350000,-0.013672,-0.999512,0.474121,-2.5177,-52.902218,12.252807,1.1063461864936308
0 days 00:00:50.360000,0.075928,-1.0354,0.443359,2.532959,-47.622677,19.790649,1.128886807463441
0 days 00:00:50.370000,0.06543,-1.015625,0.381592,2.616882,-42.396542,23.674009,1.0869165929311226
0 days 00:00:50.380000,-0.017334,-0.93335,0.325684,-8.903503,-52.009579,28.503416,0.9886924485966301
0 days 00:00:50.390000,0.291748,-0.955078,0.228027,-25.512693,-55.90057,14.457702,1.0243472039874957
0 days 00:00:50.400000,0.655762,-1.083984,0.064453,-32.203674,-15.037536,-6.347656,1.2685421956359986
0 days 00:00:50.410000,0.858154,-1.227539,0.096924,-1.724243,65.299988,-10.665893,1.500891250561812
0 days 00:00:50.420000,0.663574,-1.20166,0.117676,37.261963,148.025513,-31.997679,1.3777390355404755
0 days 00:00:50.430000,0.325684,-1.047119,0.219971,50.354,191.0858,-33.409119,1.11844334181844
0 days 00:00:50.440000,0.030273,-0.925293,0.446045,-3.471374,-38.467407,-2.914428,1.0276379383824832
0 days 00:00:50.450000,-0.230225,-0.996582,0.393066,-9.513855,-15.090941,-3.784179,1.0957554990530505
0 days 00:00:50.460000,0.001953,-0.984131,0.390869,1.823425,16.563416,-23.895262,1.0589127511419436
0 days 00:00:50.470000,-0.119141,-0.972412,0.393799,-8.483887,-9.979248,-2.281189,1.0558680447982125
0 days 00:00:50.480000,0.059814,-0.93457,0.357666,1.13678,15.830993,-23.41461,1.0024588605284508
0 days 00:00:50.490000,0.075684,-0.907471,0.345947,-2.525329,17.158508,-24.505613,0.9741206344729589
0 days 00:00:50.500000,0.03833,-0.883789,0.361084,-5.706787,17.166138,-24.665831,0.9554757142266883
0 days 00:00:50.510000,0.002197,-0.871582,0.397705,-7.240295,15.350341,-22.90344,0.9580340685789832
0 days 00:00:50.520000,-0.018066,-0.874023,0.426514,-6.317138,13.885497,-21.011351,0.972705904721977
0 days 00:00:50.530000,-0.02124,-0.871338,0.437012,-5.043029,14.259337,-20.187376,0.9750182234132857
0 days 00:00:50.540000,-0.178467,-0.976318,0.395264,-11.497497,-11.863708,-2.63977,1.0683075104617583
0 days 00:00:50.550000,-0.003662,-0.827637,0.438232,-7.064819,20.629881,-19.561768,0.9365061130804219
0 days 00:00:50.560000,-0.004883,-0.817383,0.425537,-9.468079,24.902342,-19.767761,0.9215316330690987
0 days 00:00:50.570000,-0.02417,-0.816895,0.420654,-10.215758,28.137205,-20.736692,0.9191579938405584
0 days 00:00:50.580000,-0.066895,-0.821533,0.426514,-9.994507,28.762815,-21.163939,0.9280655167120476
0 days 00:00:50.590000,-0.020996,-0.849609,0.438477,-5.393981,16.540527,-19.935608,0.9563149922624866
0 days 00:00:50.600000,-0.098633,-0.883545,0.477539,-5.996704,25.657652,-19.424438,1.009169823287934
0 days 00:00:50.610000,-0.098145,-0.923096,0.483398,-0.923157,23.269651,-16.654968,1.046619459328461
0 days 00:00:50.620000,-0.094971,-0.933105,0.486816,2.075195,19.126892,-13.084411,1.0567375500671867
0 days 00:00:50.630000,-0.075195,-0.930664,0.476318,0.984192,14.373778,-9.841919,1.0481739388312419
0 days 00:00:50.640000,-0.076416,-0.957275,0.478271,0.595093,9.651184,-7.408142,1.0728270970300853
0 days 00:00:50.650000,-0.109863,-1.00415,0.466309,1.930237,4.196167,-5.264282,1.1125786195815557
0 days 00:00:50.660000,-0.137939,-1.048096,0.432861,4.364014,-1.731872,-3.768921,1.142322650680621
0 days 00:00:50.670000,-0.13623,-1.064697,0.412354,6.469726,-6.340026,-3.829956,1.1498583112823075
0 days 00:00:50.680000,-0.109863,-1.045166,0.390381,4.089355,-8.773804,-4.302979,1.1210883870088033
0 days 00:00:50.690000,-0.099854,-1.005859,0.394287,-1.670837,-9.674072,-3.372192,1.0849817452685553
0 days 00:00:50.700000,-0.087402,-0.839844,0.443604,-9.239197,27.473448,-20.782469,0.9538142181557161
0 days 00:00:50.710000,0.192871,-0.918945,0.359863,-12.664794,-0.297546,7.263183,1.0055647738634246
0 days 00:00:50.720000,0.184814,-0.906738,0.343506,-10.19287,1.548767,8.537292,0.9870797269096352
0 days 00:00:50.730000,0.192139,-0.920654,0.339355,-5.813598,5.0354,9.628296,0.9998414869678093
0 days 00:00:50.740000,0.192139,-0.942627,0.353027,-2.571106,6.17218,9.864807,1.0247395372381218
0 days 00:00:50.750000,0.231689,-0.945313,0.299072,2.815246,20.454405,3.425598,1.0182045579715306
0 days 00:00:50.760000,0.190918,-0.919434,0.358154,-2.151489,7.072448,8.338928,1.0050287810784324
0 days 00:00:50.770000,0.182861,-0.910156,0.343262,-0.282288,10.528563,6.309509,0.989773150929545
0 days 00:00:50.780000,0.198486,-0.919678,0.322266,1.937866,15.182494,4.524231,0.9945148016173515
0 days 00:00:50.790000,0.187744,-0.936768,0.361328,-2.197266,5.805969,9.628296,1.0214401690476052
0 days 00:00:50.800000,0.192871,-0.943115,0.334961,-13.496398,-0.1297,5.859375,1.0192467794342055
0 days 00:00:50.810000,0.224854,-0.999023,0.27124,-9.208679,-31.73065,-4.745483,1.0593287560738638
0 days 00:00:50.820000,0.112061,-0.950439,0.33667,-11.70349,-5.867004,3.433227,1.014513996622028
0 days 00:00:50.830000,0.105225,-0.942871,0.342773,-10.795592,-10.307311,4.203796,1.0087474177389502
0 days 00:00:50.840000,0.106201,-0.943115,0.33667,-10.124206,-14.678954,2.838135,1.0070209752165047
0 days 00:00:50.850000,0.108643,-0.941406,0.319092,-10.742187,-18.280029,0.572205,0.9999341292050192
0 days 00:00:50.860000,0.125,-0.9375,0.292725,-12.908935,-21.217344,-1.739502,0.9900601878800097
0 days 00:00:50.870000,0.119629,-0.942139,0.277588,-14.343261,-24.528502,-4.272461,0.9894402916325976
0 days 00:00:50.880000,0.093262,-0.956055,0.275146,-13.328551,-28.526304,-4.28772,0.9992218397257938
0 days 00:00:50.890000,0.089111,-0.964844,0.280029,-11.482238,-32.333374,-3.501892,1.0086034679188844
0 days 00:00:50.900000,0.122314,-0.973389,0.299072,-9.651184,-35.171509,-3.356933,1.0256173365836792
0 days 00:00:50.910000,0.175293,-0.987793,0.302734,-8.56781,-34.965515,-3.448486,1.0479076874677464
0 days 00:00:50.920000,0.246582,-0.967529,0.288818,1.937866,23.200987,2.685547,1.0393896698009846
0 days 00:00:50.930000,0.1604,-0.958496,0.316406,-13.076781,-1.991272,3.852844,1.0220349792702792
0 days 00:00:50.940000,0.244629,-0.966553,0.285889,-0.640869,24.093626,2.189636,1.037208064840898
0 days 00:00:50.950000,0.213135,-0.906982,0.328369,-1.899719,-4.196167,-2.685547,0.9878608589826807
0 days 00:00:50.960000,0.255615,-0.932617,0.269531,-5.279541,24.444578,-0.25177,1.0038727294209162
0 days 00:00:50.970000,0.228516,-0.983154,0.249512,-12.413024,-27.603148,-7.453918,1.03974400124069
0 days 00:00:50.980000,0.264648,-0.928955,0.276611,1.533508,-5.40924,-6.225585,1.0047435499917379
0 days 00:00:50.990000,0.241455,-0.923828,0.280762,0.62561,-5.676269,-6.256103,0.9952818652286397
0 days 00:00:51,0.227539,-0.935547,0.284668,1.869202,-5.897521,-5.66101,1.0040209439817478
0 days 00:00:51.010000,0.220947,-0.933838,0.291016,3.532409,-5.569458,-5.79071,1.0027767943610382
0 days 00:00:51.020000,0.225098,-0.920166,0.30249,4.478455,-4.417419,-6.958007,0.994421830643314
0 days 00:00:51.030000,0.224609,-0.911133,0.292969,3.959656,-3.608703,-7.614135,0.9830785225662291
0 days 00:00:51.040000,0.213867,-0.898682,0.276367,2.128601,-3.295898,-7.461547,0.9642339703111481
0 days 00:00:51.050000,0.219971,-0.880615,0.278809,-0.297546,-2.738952,-7.621765,0.9495285554142119
0 days 00:00:51.060000,0.223145,-0.867676,0.29834,-2.89917,-2.166748,-8.255005,0.9442786069804823
0 days 00:00:51.070000,0.245605,-0.950684,0.278076,-3.532409,24.67346,1.037598,1.0205136675503175
0 days 00:00:51.080000,0.227051,-0.88501,0.312256,-3.814697,-1.693725,-7.377624,0.9655561434929613
0 days 00:00:51.090000,0.213379,-0.9104,0.312012,-2.929687,-3.013611,-4.623413,0.9857536435565429
0 days 00:00:51.100000,0.239014,-0.90918,0.316406,-1.701355,-3.967285,-1.106262,0.991891486722212
0 days 00:00:51.110000,0.247803,-0.898926,0.283203,-3.028869,-2.075195,-1.159668,0.9745143505839204
0 days 00:00:51.120000,0.25708,-0.88916,0.278564,-3.944397,0.610352,-1.922607,0.9665886064381267
0 days 00:00:51.130000,0.269775,-0.895752,0.281982,-3.944397,3.875732,-1.770019,0.977069109353581
0 days 00:00:51.140000,0.271729,-0.907959,0.269287,-3.39508,7.957458,-1.350403,0.98526224097496
0 days 00:00:51.150000,0.272705,-0.916016,0.255615,-2.555847,12.33673,-1.197815,0.9893393540671472
0 days 00:00:51.160000,0.276367,-0.911377,0.255127,-2.952575,16.876221,-1.281738,0.9859394205259265
0 days 00:00:51.170000,0.278809,-0.902832,0.263672,-4.455566,20.431517,-1.243591,0.9810010205341276
0 days 00:00:51.180000,0.272705,-0.914307,0.267578,-5.546569,22.682188,-0.991821,0.9909204273593314
0 days 00:00:51.190000,0.229492,-0.906006,0.303711,-3.684997,-1.739502,-6.248474,0.9827277454213857
0 days 00:00:51.200000,0.202393,-0.953613,0.282715,-17.021179,-25.405882,-9.506226,1.0150214044260348
0 days 00:00:51.210000,0.259277,-0.941406,0.292725,3.532409,-5.943298,-5.630493,1.0193908696814975
0 days 00:00:51.220000,0.205322,-0.993896,0.337646,-18.882751,-19.142151,-5.752563,1.0695752445788935
0 days 00:00:51.230000,0.159668,-0.830811,0.422607,-8.872986,-14.595031,1.754761,0.9456941706460921
0 days 00:00:51.240000,0.186279,-0.832275,0.427002,-10.459899,-9.849548,3.082275,0.9537883672335283
0 days 00:00:51.250000,0.141602,-0.833496,0.429932,-11.543273,-6.561279,4.364014,0.9484767962601931
0 days 00:00:51.260000,0.084229,-0.840332,0.437744,-11.245727,-5.691528,5.470275,0.9512477091699091
0 days 00:00:51.270000,0.022461,-0.862549,0.458984,-7.93457,-8.476257,7.499694,0.9773236854686373
0 days 00:00:51.280000,-0.054932,-0.869873,0.467285,-4.417419,-15.419005,10.70404,0.9889650307154444
0 days 00:00:51.290000,-0.083008,-0.854004,0.468506,-3.341675,-24.330137,14.427184,0.977604742273686
0 days 00:00:51.300000,-0.054443,-0.83667,0.473877,-4.508972,-30.838011,16.838074,0.9630888537814152
0 days 00:00:51.310000,-0.02832,-0.841309,0.481934,-5.897521,-34.667969,18.486023,0.9699810494215854
0 days 00:00:51.320000,-0.045166,-0.862793,0.502197,-5.836486,-38.543701,19.615173,0.9993265508401146
0 days 00:00:51.330000,0.14209,-0.846191,0.42749,-7.637023,-19.569397,0.717163,0.9586326077705681
0 days 00:00:51.340000,-0.079102,-0.87915,0.515625,-5.218505,-42.579647,19.882202,1.0222675723747672
0 days 00:00:51.350000,-0.008545,-0.884766,0.530518,-6.713867,-43.197628,14.533996,1.0316652752249638
0 days 00:00:51.360000,0.062988,-0.891602,0.534912,-8.460999,-35.980225,7.995605,1.0416585152015991
0 days 00:00:51.370000,0.117432,-0.913574,0.529785,-9.361267,-24.963377,1.25885,1.0625817024233948
0 days 00:00:51.380000,0.142334,-0.937988,0.506348,-9.666443,-12.855529,-4.104614,1.0753923715574703
0 days 00:00:51.390000,0.174316,-0.938721,0.477783,-10.742187,0.190735,-9.757996,1.0676421585840454
0 days 00:00:51.400000,0.220947,-0.917969,0.460693,-13.603209,13.900756,-16.479492,1.0505820777164439
0 days 00:00:51.410000,0.248779,-0.901611,0.459717,-15.960692,26.542662,-21.759031,1.042177099273919
0 days 00:00:51.420000,0.229492,-0.895996,0.466309,-16.296387,35.102844,-25.024412,1.0358182724595082
0 days 00:00:51.430000,0.186523,-0.88916,0.481689,-15.281676,38.536072,-26.130674,1.0283095972760343
0 days 00:00:51.440000,0.166748,-0.884277,0.490479,-14.205932,38.497925,-25.245665,1.0248513832131954
0 days 00:00:51.450000,-0.062988,-0.884521,0.525635,-5.516052,-45.051571,18.554688,1.0308428788181059
0 days 00:00:51.460000,0.149902,-0.870117,0.427002,-7.659912,-23.612974,0.1297,0.9807675113384415
0 days 00:00:51.470000,0.192627,-0.956787,0.327393,-20.019531,-23.29254,-7.759094,1.0294331940184367
0 days 00:00:51.480000,0.210693,-0.899414,0.399902,-9.780884,-32.608032,-5.851745,1.006607516984152
0 days 00:00:51.490000,0.201416,-1.016113,0.307373,-14.686584,-13.580321,-6.912231,1.0805240371939904
0 days 00:00:51.500000,0.15918,-0.989014,0.313721,-10.124206,-8.102417,-8.598328,1.0497179766189582
0 days 00:00:51.510000,0.12915,-0.94751,0.331543,-7.736206,-4.776001,-8.590698,1.0121144616341573
0 days 00:00:51.520000,0.102051,-0.896973,0.336182,-9.45282,-3.181457,-8.506775,0.9633240921174971
0 days 00:00:51.530000,0.101563,-0.861084,0.372314,-14.198302,-4.013062,-7.614135,0.9436092478462681
0 days 00:00:51.540000,0.108398,-0.876465,0.408691,-17.066956,-5.363464,-7.118225,0.9731235050650047
0 days 00:00:51.550000,0.158691,-0.882568,0.412109,-9.025574,-27.397154,-1.831055,0.9868854725782521
0 days 00:00:51.560000,0.099854,-0.936279,0.378662,-12.092589,-3.257751,-8.979797,1.0148763951344024
0 days 00:00:51.570000,0.033447,-0.888184,0.367676,-13.252257,-6.149292,-14.73236,0.9618602604541888
0 days 00:00:51.580000,-0.039795,-0.811523,0.405273,-22.331236,-13.72528,-22.636412,0.9079644409793811
0 days 00:00:51.590000,-0.047852,-0.796387,0.427979,-30.982969,-21.789549,-24.452208,0.9053662751141109
0 days 00:00:51.600000,0.116455,-0.919678,0.407715,-15.464782,-4.425049,-7.713317,1.0127195623340155
0 days 00:00:51.610000,0.003662,-0.921631,0.356689,-34.77478,-33.058167,-16.525269,0.9882530815160658
0 days 00:00:51.620000,-0.009766,-0.845947,0.4021,-35.049438,-28.221128,-21.194456,0.9366995844799975
0 days 00:00:51.630000,0.08374,-0.930176,0.386963,-5.752563,-41.954037,-9.559631,1.010930334862398
0 days 00:00:51.640000,0.081787,-0.95166,0.37207,-5.645751,-41.542049,-12.222289,1.0250765600036906
0 days 00:00:51.650000,0.110352,-0.966797,0.364746,-5.729675,-40.557858,-15.998839,1.039188937406957
0 days 00:00:51.660000,0.124268,-0.965576,0.375244,-7.980346,-41.671749,-20.935057,1.0433540181242416
0 days 00:00:51.670000,0.177734,-0.912842,0.394775,-7.759094,-39.085388,-7.850646,1.0103054945634018
0 days 00:00:51.680000,-0.037842,-0.977051,0.320313,-10.513305,-42.427059,-19.340515,1.0289125772066352
0 days 00:00:51.690000,-0.028076,-1.012207,0.298096,-13.114928,-38.871765,-14.389037,1.0555626451523379
0 days 00:00:51.700000,-0.011719,-1.025635,0.311523,-19.706726,-36.331177,-11.253356,1.071965982536293
0 days 00:00:51.710000,-0.004395,-0.98999,0.324951,-28.945921,-35.263062,-12.222289,1.041965771283299
0 days 00:00:51.720000,0.044434,-0.95752,0.361572,-9.849548,-43.319698,-22.560118,1.0244770577909492
0 days 00:00:51.730000,0.101074,-0.919678,0.413574,12.359618,-58.79211,21.553038,1.0134431560951014
0 days 00:00:51.740000,0.110352,-0.9104,0.401611,13.618468,-56.365963,19.561768,1.0011479007744062
0 days 00:00:51.750000,0.130371,-0.897949,0.381104,13.21411,-53.062435,18.02063,0.9841490044998268
0 days 00:00:51.760000,0.140381,-0.891602,0.36792,14.09912,-50.399776,15.678405,0.9746928121028696
0 days 00:00:51.770000,0.13208,-0.891113,0.353516,14.22882,-47.981258,13.954162,0.967729852502753
0 days 00:00:51.780000,0.12793,-0.887207,0.350586,13.72528,-46.554562,12.809752,0.9625034489003144
0 days 00:00:51.790000,0.125,-0.88623,0.356201,13.84735,-46.424862,12.275695,0.9632796921460558
0 days 00:00:51.800000,0.118164,-0.887207,0.357666,13.565063,-47.218319,12.527465,0.963858889724528
0 days 00:00:51.810000,0.11499,-0.892578,0.358398,13.015746,-48.84338,13.09204,0.9686936113075176
0 days 00:00:51.820000,0.122803,-0.903564,0.363525,13.641356,-50.827023,13.877868,0.9816612982745118
0 days 00:00:51.830000,0.182129,-0.905518,0.368164,19.882202,-87.471001,33.287048,0.9943231626895755
0 days 00:00:51.840000,0.118652,-0.921875,0.374268,17.333984,-55.412289,16.777039,1.0020021699342772
0 days 00:00:51.850000,0.133301,-0.910645,0.393555,19.02771,-57.640072,18.211365,1.0009640406383238
0 days 00:00:51.860000,0.153809,-0.901367,0.417725,21.316526,-60.56213,20.088194,1.005292918902247
0 days 00:00:51.870000,0.140625,-0.903564,0.412109,22.720335,-63.499447,21.926878,1.003014018148301
0 days 00:00:51.880000,0.126709,-0.901123,0.379883,21.888731,-67.29126,23.582457,0.9860978275500865
0 days 00:00:51.890000,0.116455,-0.893799,0.367676,19.096375,-72.265625,24.971006,0.9734598401588018
0 days 00:00:51.900000,0.117676,-0.883789,0.373535,17.051697,-77.766418,27.542112,0.9666742128152588
0 days 00:00:51.910000,0.131104,-0.888916,0.381592,17.158508,-82.931511,30.120848,0.9762030364304344
0 days 00:00:51.920000,0.149658,-0.897461,0.383057,18.104553,-86.532585,31.929014,0.9872013111488456
0 days 00:00:51.930000,0.17041,-0.908203,0.376709,19.462585,-87.593071,32.859802,0.9978887352756318
0 days 00:00:51.940000,0.083984,-0.919922,0.417969,10.108947,-58.776852,22.758482,1.0139072360433177
0 days 00:00:51.950000,0.12085,-0.919189,0.366943,15.296935,-52.734371,15.3656,0.9970758774887697
0 days 00:00:51.960000,0.079834,-0.916748,0.425537,8.674622,-57.128902,22.308348,1.0138452058519583
0 days 00:00:51.970000,-0.022217,-0.922852,0.401367,10.70404,12.71057,-4.867554,1.0066006545209476
0 days 00:00:51.980000,0.094727,-0.917725,0.438477,9.376526,-51.643368,20.652769,1.0214961868176504
0 days 00:00:51.990000,0.185059,-0.901611,0.365967,19.447327,-87.181084,33.744812,0.9904953679301081
0 days 00:00:52,0.131592,-0.922607,0.394531,-2.26593,50.346371,-5.256652,1.0120152374712545
0 days 00:00:52.010000,0.120605,-0.938721,0.393555,-3.852844,57.548519,-8.422852,1.0250015706773332
0 days 00:00:52.020000,0.124268,-0.958984,0.381836,-4.173279,63.873287,-11.245727,1.039659357181957
0 days 00:00:52.030000,0.127686,-0.970703,0.351318,-4.821777,68.595886,-15.197753,1.0401886203612303
0 days 00:00:52.040000,0.115479,-0.969727,0.323242,-6.301879,70.503235,-19.897461,1.0286842297488574
0 days 00:00:52.050000,0.095215,-0.965576,0.308594,-6.332397,70.1828,-22.804258,1.0181518378105496
0 days 00:00:52.060000,0.064941,-0.962158,0.305176,-4.257202,67.28363,-22.705076,1.0114829417350546
0 days 00:00:52.070000,0.028809,-0.961182,0.315186,-0.236511,61.584469,-19.935608,1.0119501026241362
0 days 00:00:52.080000,-0.009277,-0.959473,0.356201,5.15747,54.168697,-16.838074,1.0235006853241477
0 days 00:00:52.090000,0.085449,-0.912842,0.422852,8.476257,-54.557796,21.682737,1.009646404672943
0 days 00:00:52.100000,-0.034912,-0.967041,0.388184,10.932921,44.540401,-13.702392,1.0426283907898346
0 days 00:00:52.110000,-0.039795,-0.936523,0.382324,13.618468,23.361204,-7.789611,1.0123391786007296
0 days 00:00:52.120000,-0.012207,-0.939941,0.411377,9.971619,0.007629,-1.533508,1.0260941138409283
0 days 00:00:52.130000,-0.002197,-0.951904,0.412842,10.681151,-14.953612,2.365112,1.0375762955026488
0 days 00:00:52.140000,0.018066,-0.940918,0.436768,10.055541,-29.365538,7.095336,1.0375063127056143
0 days 00:00:52.150000,0.018555,-0.949707,0.46167,10.543822,-39.344788,13.359069,1.0561377101372718
0 days 00:00:52.160000,0.030762,-0.953613,0.487061,12.077331,-44.166561,17.913818,1.0712387558961822
0 days 00:00:52.170000,0.061768,-0.947998,0.516846,13.442992,-47.111507,21.209715,1.0815014015450928
0 days 00:00:52.180000,0.077148,-0.945068,0.50708,14.274596,-48.72131,22.102354,1.0752838996878917
0 days 00:00:52.190000,0.088623,-0.936768,0.476807,13.359069,-48.805233,21.728514,1.054861714729471
0 days 00:00:52.200000,0.100098,-0.921631,0.453369,11.085509,-49.842831,21.530149,1.0319722670333733
0 days 00:00:52.210000,-0.050537,-0.965576,0.381592,14.259337,33.699036,-10.627746,1.0394726810306272
0 days 00:00:52.220000,0.145508,-0.916748,0.404785,1.052856,41.40472,-2.01416,1.0126452339259786
0 days 00:00:52.230000,0.208496,-0.910889,0.358154,19.424438,-85.670464,35.682678,1.0007315524420122
0 days 00:00:52.240000,0.225342,-0.916504,0.353271,20.614622,-83.267204,35.53009,1.007749472051958
0 days 00:00:52.250000,0.231201,-0.871338,0.317383,13.191222,-29.045103,7.652282,0.955727880379138
0 days 00:00:52.260000,0.232666,-0.861572,0.327393,10.864257,-29.670713,7.759094,0.9505924232756119
0 days 00:00:52.270000,0.225098,-0.874268,0.326416,9.941101,-30.380247,7.980346,0.9599797135794069
0 days 00:00:52.280000,0.229492,-0.884033,0.323486,9.117126,-30.700682,8.049011,0.9689293655107167
0 days 00:00:52.290000,0.246338,-0.898926,0.319824,8.712769,-29.518126,7.621765,0.9854124794703992
0 days 00:00:52.300000,0.27417,-0.915527,0.30835,8.880615,-26.969908,6.484985,1.0042104356801915
0 days 00:00:52.310000,0.272949,-0.909912,0.296631,8.331299,-24.749754,5.256652,0.9952039763314855
0 days 00:00:52.320000,0.252441,-0.89209,0.302002,6.660461,-22.979734,3.547668,0.9750672974646417
0 days 00:00:52.330000,0.235596,-0.881104,0.31543,4.867554,-21.263121,2.922058,0.9650625984525564
0 days 00:00:52.340000,0.250488,-0.920898,0.291504,4.615784,-14.686584,1.296997,0.9978837339910898
0 days 00:00:52.350000,0.226563,-0.896973,0.306152,15.281676,-28.610228,8.590698,0.974484685770895
0 days 00:00:52.360000,0.258057,-0.923828,0.289795,4.875183,-9.849548,-0.839233,1.0020143366529244
0 days 00:00:52.370000,0.232178,-0.935547,0.312988,7.247924,-4.302979,-4.020691,1.013467464222212
0 days 00:00:52.380000,0.242432,-0.949463,0.309082,8.613586,-1.708984,-5.271911,1.0275139637576707
0 days 00:00:52.390000,0.244385,-0.946289,0.292969,8.262634,-0.488281,-7.064819,1.0203027661958974
0 days 00:00:52.400000,0.243164,-0.930664,0.291504,6.072998,-0.083923,-9.513855,1.005106359450581
0 days 00:00:52.410000,0.249756,-0.925293,0.297363,4.058838,-0.160217,-10.597228,1.003478923123949
0 days 00:00:52.420000,0.249268,-0.930664,0.302002,3.02124,-0.63324,-10.238647,1.00969065793638
0 days 00:00:52.430000,0.231201,-0.936523,0.309326,3.257751,-2.044678,-8.590698,1.01302112821303
0 days 00:00:52.440000,0.22168,-0.942627,0.323242,3.845215,-4.867554,-6.843566,1.0208687839742188
0 days 00:00:52.450000,0.233154,-0.945068,0.313721,4.173279,-6.622314,-5.714416,1.0227097233237787
0 days 00:00:52.460000,0.183105,-0.900879,0.359131,18.852234,-86.631767,34.90448,0.9869576935345303
0 days 00:00:52.470000,0.243652,-0.922852,0.301025,5.638122,-6.713867,-2.563476,1.000818745644285
0 days 00:00:52.480000,0.224854,-0.920898,0.307861,16.548157,-28.427122,9.986877,0.9966899432827644
0 days 00:00:52.490000,0.240234,-0.897705,0.307373,4.104614,-19.065857,2.754211,0.9788078477975133
0 days 00:00:52.500000,0.213623,-0.929443,0.335938,15.419005,-27.618406,11.45172,1.0111149371965582
0 days 00:00:52.510000,0.219238,-0.932373,0.32373,16.441345,-28.335569,10.887145,1.011032059171716
0 days 00:00:52.520000,0.237061,-0.918457,0.34668,20.698545,-75.370789,34.240723,1.0099248491694814
0 days 00:00:52.530000,0.243408,-0.922363,0.328857,19.142151,-71.968079,34.14917,1.009033143500252
0 days 00:00:52.540000,0.248779,-0.931641,0.314453,17.13562,-68.67218,34.690857,1.0142616195691327
0 days 00:00:52.550000,0.259277,-0.937988,0.31543,15.945434,-65.040588,34.721375,1.0230064202012614
0 days 00:00:52.560000,0.257813,-0.945557,0.327148,16.12854,-60.966488,33.782959,1.0332334668999064
0 days 00:00:52.570000,0.259521,-0.954102,0.334961,16.532898,-56.762691,32.966614,1.0439639109499905
0 days 00:00:52.580000,0.265381,-0.95752,0.33374,16.853333,-51.513668,31.524656,1.0481669777096587
0 days 00:00:52.590000,0.271973,-0.960938,0.331055,16.616821,-46.043392,29.563902,1.0521257365914019
0 days 00:00:52.600000,0.262451,-0.958496,0.323486,16.120911,-40.878292,27.244566,1.0451020532048532
0 days 00:00:52.610000,0.267334,-0.955078,0.327393,15.2359,-35.400391,24.505613,1.0444269386074836
0 days 00:00:52.620000,0.231934,-0.917725,0.350098,21.339415,-79.551697,34.996033,1.0092478216894996
0 days 00:00:52.630000,0.26709,-0.956055,0.346924,14.328002,-28.038023,19.744873,1.0515391066912347
0 days 00:00:52.640000,0.273682,-0.955078,0.33374,14.663695,-30.952452,21.835325,1.048073571276368
0 days 00:00:52.650000,0.216553,-0.908447,0.322266,13.96942,-25.665281,11.856078,0.9879405490078844
0 days 00:00:52.660000,0.221191,-0.912842,0.314697,15.007018,-25.093077,12.283324,0.9905756797206361
0 days 00:00:52.670000,0.231445,-0.911865,0.338135,16.311646,-24.246214,12.733459,0.9996998772006527
0 days 00:00:52.680000,0.235596,-0.921387,0.348145,18.363953,-23.887632,13.359069,1.0127509170620383
0 days 00:00:52.690000,0.216553,-0.91748,0.3396,14.22882,-26.44348,11.657714,1.001994467154884
0 days 00:00:52.700000,0.218018,-0.963867,0.346436,19.180298,-25.817869,15.922545,1.0471816194476486
0 days 00:00:52.710000,0.230469,-0.970215,0.355957,17.478943,-26.420591,16.593933,1.0588382747308487
0 days 00:00:52.720000,0.256348,-0.963623,0.359619,15.403747,-26.878355,17.913818,1.060004437912408
0 days 00:00:52.730000,0.228516,-0.945313,0.349365,19.889832,-24.848936,14.85443,1.0333886652416893
0 days 00:00:52.740000,0.472656,-0.950195,0.349854,-1.235962,8.148193,-64.834595,1.117439955289321
0 days 00:00:52.750000,0.237061,-0.919678,0.436523,3.890991,-98.304741,-17.478943,1.045254931073755
0 days 00:00:52.760000,0.307861,-0.908447,0.440918,7.545471,-116.645805,-5.851745,1.0556813107439196
0 days 00:00:52.770000,0.315186,-0.899658,0.412354,9.69696,-113.479607,-10.116576,1.038634946877872
0 days 00:00:52.780000,0.3479,-0.886719,0.420898,9.712219,-99.205009,-17.669678,1.0413741505169984
0 days 00:00:52.790000,0.403076,-0.876221,0.420654,6.866455,-76.49231,-29.685972,1.0522277749294588
0 days 00:00:52.800000,0.436035,-0.875,0.394043,0.846863,-48.59161,-44.326778,1.0540500021697263
0 days 00:00:52.810000,0.178711,-0.94751,0.339844,6.889343,-63.407894,-44.31152,1.022353542546315
0 days 00:00:52.820000,0.436279,-0.891846,0.368896,-5.28717,-23.048399,-55.679317,1.059156698686743
0 days 00:00:52.830000,0.439941,-0.924316,0.365234,-5.020141,-6.507873,-61.31744,1.086878110044084
0 days 00:00:52.840000,0.517578,-0.922852,0.3125,-3.097534,30.838011,-68.916321,1.103267442639363
0 days 00:00:52.850000,0.383301,-0.810059,0.238525,-59.585567,124.641411,-98.960869,0.9273669261446625
0 days 00:00:52.860000,0.572021,-0.81543,0.238037,-31.379698,96.336357,-91.957085,1.024107280859774
0 days 00:00:52.870000,0.49707,-0.804199,0.23291,-42.564388,118.919365,-101.158134,0.9736845919500832
0 days 00:00:52.880000,0.431152,-0.811279,0.223633,-50.636288,127.55584,-102.455132,0.9455566517316665
0 days 00:00:52.890000,0.374512,-0.800537,0.27832,-64.865112,113.288872,-94.367973,0.9265963246813577
0 days 00:00:52.900000,0.384766,-0.803223,0.310059,-66.734314,95.817558,-87.676994,0.9430528330724637
0 days 00:00:52.910000,0.351563,-0.83374,0.299316,-66.574097,74.424744,-78.979492,0.9530524636267408
0 days 00:00:52.920000,0.332764,-0.891602,0.295898,-63.117977,47.470089,-65.467834,0.9966150874354651
0 days 00:00:52.930000,0.372314,-0.96582,0.304199,-53.016659,17.814636,-46.936031,1.0788711779434095
0 days 00:00:52.940000,0.343262,-1.043945,0.272705,-36.514282,2.189636,-34.599304,1.1322623285678985
0 days 00:00:52.950000,0.183594,-0.949951,0.372803,8.758545,-31.402586,-54.199215,1.0368682346595444
0 days 00:00:52.960000,0.571045,-0.858398,0.258301,-15.434264,62.767025,-79.063416,1.0628541409948968
0 days 00:00:52.970000,0.233887,-0.911133,0.391113,4.043579,-18.981934,-44.822689,1.0187422889165836
0 days 00:00:52.980000,0.267334,-1.089111,0.223877,-18.64624,-5.584716,-30.22003,1.1435694771224003
0 days 00:00:52.990000,0.247559,-0.880859,0.4021,11.161803,-18.981934,-43.952938,0.9994410669779383
0 days 00:00:53,0.263428,-0.881592,0.343994,17.112732,-44.853207,13.755797,0.9823088300957088
0 days 00:00:53.010000,0.231445,-0.911865,0.342041,17.13562,-46.096798,14.762877,1.001027777801895
0 days 00:00:53.020000,0.241211,-0.921143,0.350098,16.204834,-45.524593,15.129088,1.014522440645844
0 days 00:00:53.030000,0.296387,-0.923828,0.373291,19.004822,-45.021053,14.10675,1.0395429755589713
0 days 00:00:53.040000,0.31958,-0.908447,0.37793,22.384642,-42.518612,10.025024,1.0345232781861413
0 days 00:00:53.050000,0.322998,-0.874268,0.367432,21.820066,-39.260864,4.066467,1.0018375708926073
0 days 00:00:53.060000,0.304443,-0.845703,0.35791,19.302368,-36.735535,-1.716614,0.967470243758432
0 days 00:00:53.070000,0.279053,-0.831055,0.354004,17.738342,-34.690857,-6.828308,0.9454320820926271
0 days 00:00:53.080000,0.259521,-0.830566,0.349609,16.25061,-33.226013,-11.489867,0.9377726177906881
0 days 00:00:53.090000,0.248535,-0.835938,0.345703,14.427184,-32.447815,-16.304016,0.9381218205958115
0 days 00:00:53.100000,0.251465,-0.885742,0.376953,6.019592,-18.753052,-43.121334,0.9949206506038559
0 days 00:00:53.110000,0.227051,-0.845703,0.34082,13.359069,-31.906126,-20.03479,0.9396403531192133
0 days 00:00:53.120000,0.19751,-0.872314,0.350342,12.939452,-34.812927,-25.291441,0.9605630805210036
0 days 00:00:53.130000,0.187012,-0.870117,0.358887,11.932372,-36.216736,-28.861998,0.9596233430893603
0 days 00:00:53.140000,0.186035,-0.871582,0.374268,12.115478,-37.254333,-31.34918,0.9666130248310334
0 days 00:00:53.150000,0.181396,-0.883057,0.389648,14.47296,-38.589478,-31.257627,0.982099657860138
0 days 00:00:53.160000,0.178223,-0.900146,0.412109,19.340515,-40.885921,-30.227659,1.0059125642549656
0 days 00:00:53.170000,0.204346,-0.902588,0.43457,24.986265,-42.03796,-30.044554,1.0223861649885526
0 days 00:00:53.180000,0.252197,-0.887695,0.444336,27.671812,-38.726807,-30.311583,1.0242266451962672
0 days 00:00:53.190000,0.289795,-0.865967,0.428955,24.520872,-30.532835,-33.744812,1.0089015705900155
0 days 00:00:53.200000,0.296387,-0.852539,0.407715,18.470764,-22.796629,-38.894653,0.9904037164283058
0 days 00:00:53.210000,0.264404,-0.860107,0.408447,13.702392,-19.332886,-41.473385,0.9881915191267329
0 days 00:00:53.220000,0.210205,-0.861816,0.346924,13.259887,-33.081055,-22.422789,0.9525068092444274
0 days 00:00:53.230000,0.224609,-1.066895,0.183594,-6.103515,-13.519286,-26.451109,1.105631448875257
0 days 00:00:53.240000,0.275635,-0.847656,0.322021,15.594481,-40.90881,13.153075,0.9477303793811824
0 days 00:00:53.250000,0.26416,-0.939453,0.1875,-7.324218,-14.701842,-12.733459,0.9937347205411513
0 days 00:00:53.260000,0.118408,-0.932373,0.40625,-4.02832,-0.190735,0.190735,1.0239037689612243
0 days 00:00:53.270000,0.112549,-0.943359,0.377441,-5.378723,1.907349,-0.450134,1.0222794083629974
0 days 00:00:53.280000,0.104248,-0.946533,0.369873,-6.195068,2.693176,-0.595093,1.0215666408619655
0 days 00:00:53.290000,0.079346,-0.954346,0.364502,-5.142211,1.586914,0.152588,1.0246627657117244
0 days 00:00:53.300000,0.05542,-0.957275,0.362305,-3.089905,-2.02179,1.808166,1.0250422991516008
0 days 00:00:53.310000,0.054443,-0.943359,0.356201,-1.869202,-6.950378,3.768921,1.009836321158533
0 days 00:00:53.320000,0.06958,-0.924072,0.347168,-1.525879,-11.367797,4.78363,0.9895837800853448
0 days 00:00:53.330000,0.074463,-0.91748,0.35083,-0.930786,-14.770507,5.485534,0.9850867868715933
0 days 00:00:53.340000,0.076416,-0.921875,0.351318,0.328064,-18.463135,6.561279,0.9895035410775446
0 days 00:00:53.350000,0.068359,-0.921143,0.355713,1.502991,-23.078917,7.797241,0.9898025650093053
0 days 00:00:53.360000,0.11377,-0.913574,0.419434,-2.990722,-3.082275,0.854492,1.011674822624345
0 days 00:00:53.370000,0.065674,-0.913574,0.368164,2.456665,-27.229307,9.315491,0.9871551340331468
0 days 00:00:53.380000,0.066162,-0.907227,0.361328,2.02179,-32.234192,11.344909,0.9787727843360787
0 days 00:00:53.390000,0.095459,-0.900635,0.359863,0.076294,-31.578062,11.291503,0.974554874122027
0 days 00:00:53.400000,0.119873,-0.903809,0.362061,-0.740051,-27.053831,10.917663,0.9809833904460361
0 days 00:00:53.410000,0.134033,-0.914795,0.368164,-0.25177,-19.821167,9.597778,0.9951680601838063
0 days 00:00:53.420000,0.146484,-0.920166,0.393066,1.174927,-10.963439,7.8125,1.0112684659218838
0 days 00:00:53.430000,0.155029,-0.928467,0.415527,3.40271,-1.953125,5.928039,1.0289546387761708
0 days 00:00:53.440000,0.158691,-0.935303,0.435059,5.66101,6.599426,4.264832,1.0436718204354278
0 days 00:00:53.450000,0.156738,-0.946045,0.442139,7.667541,15.037536,3.410339,1.0559615703187308
0 days 00:00:53.460000,0.146729,-0.939941,0.424805,7.476806,23.590086,2.14386,1.041862644952299
0 days 00:00:53.470000,0.142334,-0.92334,0.409424,4.684448,32.516479,0.473022,1.0200214384668589
0 days 00:00:53.480000,0.064697,-0.91333,0.371338,2.967834,-30.34973,10.810851,0.9880532885188936
0 days 00:00:53.490000,0.118164,-0.908203,0.403564,-1.838684,-6.149292,1.586914,1.0008293172169769
0 days 00:00:53.500000,0.220947,-0.999512,0.174072,-3.463745,-16.372681,-19.805908,1.0383365909650877
0 days 00:00:53.510000,0.130615,-0.928955,0.41748,0.801086,-14.236449,4.165649,1.026794634116287
0 days 00:00:53.520000,0.231689,-0.920654,0.25,-10.32257,-9.674072,-8.094788,0.981724798727729
0 days 00:00:53.530000,0.208984,-0.936768,0.2854,-10.047912,-3.440857,-5.783081,1.0013299945971859
0 days 00:00:53.540000,0.200684,-0.965088,0.322021,-8.049011,3.242492,-4.600525,1.0369987656892365
0 days 00:00:53.550000,0.19458,-0.998047,0.352295,-3.982544,9.788513,-4.051208,1.076137053369133
0 days 00:00:53.560000,0.185547,-1.003418,0.373047,-0.564575,15.312194,-4.074097,1.0864802971715593
0 days 00:00:53.570000,0.167725,-0.977539,0.383057,-0.793457,18.753052,-4.241943,1.0632247351312891
0 days 00:00:53.580000,0.137451,-0.950684,0.378418,-2.761841,19.676208,-4.203796,1.0324209548343155
0 days 00:00:53.590000,0.107178,-0.944824,0.373291,-3.593445,19.416809,-3.845215,1.0215310496215961
0 days 00:00:53.600000,0.105469,-0.947266,0.364746,-2.799988,19.40155,-3.852844,1.0205274269871438
0 days 00:00:53.610000,0.109131,-0.942139,0.348633,-2.128601,19.485474,-4.165649,1.0104852493584455
0 days 00:00:53.620000,0.095459,-0.931885,0.339844,-1.548767,18.615723,-4.707336,0.9965018907367913
0 days 00:00:53.630000,0.137207,-0.919189,0.400146,-0.419617,-9.872437,2.464294,1.0118552267424428
0 days 00:00:53.640000,0.070313,-0.922607,0.34668,1.861572,14.137267,-3.52478,0.9880964612921149
0 days 00:00:53.650000,0.067383,-0.9104,0.344238,3.761291,11.871337,-2.540588,0.9756374476889456
0 days 00:00:53.660000,0.063477,-0.884766,0.378662,5.15747,9.727478,-2.609253,0.9644817854832719
0 days 00:00:53.670000,0.054443,-0.874756,0.420654,5.584716,5.836486,-1.724243,0.9721686517785892
0 days 00:00:53.680000,0.046875,-0.889404,0.421875,4.577637,-1.296997,1.274109,0.9855025400606535
0 days 00:00:53.690000,0.042236,-0.89917,0.411865,3.204345,-9.040833,4.53949,0.9899107772021679
0 days 00:00:53.700000,0.072021,-0.90625,0.417725,2.616882,-14.213561,6.561279,1.000485013663873
0 days 00:00:53.710000,0.093506,-0.911621,0.423828,2.075195,-16.418457,6.645202,1.009666476248964
0 days 00:00:53.720000,0.092285,-0.92041,0.41748,1.319885,-17.837524,6.752014,1.014869764908286
0 days 00:00:53.730000,0.087646,-0.923584,0.415283,0.62561,-18.959045,6.774902,1.0164394701412376
0 days 00:00:53.740000,0.104248,-0.926758,0.42334,0.518799,-18.074036,5.867004,1.024189822087683
0 days 00:00:53.750000,0.077637,-0.925293,0.34668,-0.289917,16.624451,-4.508972,0.9911516846668829
0 days 00:00:53.760000,0.249756,-0.967285,0.062988,10.246276,-14.259337,-5.516052,1.0009924170067424
0 days 00:00:53.770000,0.248779,-0.977783,0.061035,9.712219,-13.198852,-4.707336,1.0107798262505046
0 days 00:00:53.780000,0.249512,-0.979492,0.057373,9.010315,-11.672973,-4.058838,1.012399366523409
0 days 00:00:53.790000,0.251221,-0.980957,0.055664,8.163452,-10.040282,-3.257751,1.0141435340157723
0 days 00:00:53.800000,0.243896,-0.983398,0.046387,4.463196,1.167297,-0.396728,1.0142527490665234
0 days 00:00:53.810000,0.251465,-0.980225,0.047363,6.637573,-6.324768,-1.76239,1.0130740104350717
0 days 00:00:53.820000,0.250732,-0.980225,0.044678,6.027221,-4.234314,-1.403808,1.012770314599021
0 days 00:00:53.830000,0.247314,-0.983398,0.042725,5.348205,-1.724243,-0.915527,1.014919339960078
0 days 00:00:53.840000,0.251465,-0.95752,0.062744,10.139464,-14.48059,-6.217956,0.9919758092620001
0 days 00:00:53.850000,0.250977,-0.983398,0.050049,7.286071,-8.18634,-2.311707,1.0161525394024264
0 days 00:00:53.860000,0.255615,-0.94873,0.057617,9.544373,-14.297484,-6.713867,0.9842496430347334
0 days 00:00:53.870000,0.265137,-0.918457,0.083496,6.683349,-13.877868,-5.569458,0.9596001623770183
0 days 00:00:53.880000,0.261963,-0.93457,0.064209,9.239197,-14.289855,-7.392883,0.972711927525308
0 days 00:00:53.890000,0.261963,-0.935791,0.068115,9.094238,-14.457702,-6.774902,0.9741504310295203
0 days 00:00:53.900000,0.26416,-0.935547,0.07251,8.94928,-14.572143,-5.91278,0.9748263408982136
0 days 00:00:53.910000,0.265137,-0.929443,0.079102,8.18634,-14.22119,-5.447387,0.9697520535796766
0 days 00:00:53.920000,0.266846,-0.917725,0.091797,5.233764,-13.702392,-5.546569,0.960131580852333
0 days 00:00:53.930000,0.272217,-0.924561,0.094238,4.234314,-13.97705,-4.997253,0.9683986464540313
0 days 00:00:53.940000,0.275879,-0.939941,0.10083,3.463745,-14.160155,-4.249573,0.9847664672509925
0 days 00:00:53.950000,0.281738,-0.95752,0.102539,3.295898,-14.045714,-3.677368,1.0033618976047478
0 days 00:00:53.960000,0.295898,-0.968994,0.10376,3.257751,-13.076781,-3.791809,1.0184650882774529
0 days 00:00:53.970000,0.244629,-0.976807,0.043701,2.998352,4.554749,-0.1297,1.0079211478538388
0 days 00:00:53.980000,0.262451,-0.943115,0.057129,9.33075,-14.175414,-7.461547,0.9806172307618299
0 days 00:00:53.990000,0.246826,-0.967529,0.041016,1.502991,8.094788,-0.396728,0.9993586705347585
0 days 00:00:54,0.295654,-0.945068,0.062256,-8.743286,16.342163,2.174377,0.9921898114151344
0 days 00:00:54.010000,0.256348,-0.951416,0.031738,-0.228882,13.732909,-0.823975,0.9858569890222415
0 days 00:00:54.020000,0.314209,-0.93457,0.080566,-3.051758,3.013611,4.53186,0.9892619779092897
0 days 00:00:54.030000,0.315186,-0.934814,0.083008,-3.715515,4.608154,4.905701,0.9900049278948061
0 days 00:00:54.040000,0.318115,-0.932129,0.083252,-4.768372,6.278991,4.943848,0.9884293203714669
0 days 00:00:54.050000,0.314453,-0.928223,0.083496,-5.828857,8.102417,5.195617,0.9835904681085518
0 days 00:00:54.060000,0.310059,-0.932129,0.08252,-6.683349,9.437561,5.393981,0.9858045478298424
0 days 00:00:54.070000,0.310303,-0.937012,0.079102,-7.530212,10.292052,5.249023,0.9902204635115354
0 days 00:00:54.080000,0.309326,-0.94165,0.079346,-8.132935,11.169433,5.149841,0.9943254419414199
0 days 00:00:54.090000,0.308838,-0.947754,0.07666,-8.575439,11.787414,5.058288,0.9997476233330089
0 days 00:00:54.100000,0.305176,-0.952637,0.075684,-8.773804,12.329101,4.837036,1.0031837880473349
0 days 00:00:54.110000,0.302002,-0.956787,0.072998,-8.598328,12.96234,4.516602,1.005969820311226
0 days 00:00:54.120000,0.249268,-0.956543,0.037598,0.305176,11.245727,-0.740051,0.9892030409764216
0 days 00:00:54.130000,0.298096,-0.955322,0.071533,-8.415222,13.870238,3.974914,1.003303702270155
0 days 00:00:54.140000,0.317139,-0.960449,0.093994,1.693725,-10.215758,-5.218505,1.0158121376307727
0 days 00:00:54.150000,0.290039,-0.94043,0.061035,-8.575439,16.799927,1.945495,0.9860306677005538
0 days 00:00:54.160000,0.284424,-0.944092,0.058594,-7.865905,16.88385,1.853943,0.9877448927106635
0 days 00:00:54.170000,0.283936,-0.949463,0.05542,-6.614685,16.944885,1.617432,0.9925578153765149
0 days 00:00:54.180000,0.281982,-0.952637,0.050781,-5.592346,16.670227,1.281738,0.9947913409625155
0 days 00:00:54.190000,0.28125,-0.955322,0.04541,-4.646301,16.647339,0.778198,0.9968970630330897
0 days 00:00:54.200000,0.278564,-0.953369,0.036377,-3.784179,16.914368,0.62561,0.9938982032310955
0 days 00:00:54.210000,0.273438,-0.954346,0.03418,-2.540588,16.990662,0.62561,0.9933342337602183
0 days 00:00:54.220000,0.267578,-0.958496,0.032227,-1.434326,16.540527,0.396728,0.9956661828288635
0 days 00:00:54.230000,0.261963,-0.95459,0.026855,-0.694275,15.388488,-0.267029,0.9902463695939511
0 days 00:00:54.240000,0.299072,-0.950439,0.069092,-8.598328,15.083312,2.967834,0.9987752792139982
0 days 00:00:54.250000,0.331787,-0.9375,0.085449,-1.907349,-5.859375,-7.4234,0.9981434741408672
0 days 00:00:54.260000,0.307617,-0.932129,0.085449,-2.5177,2.13623,3.944397,0.9852889032821794
0 days 00:00:54.270000,0.323975,-0.912842,0.091797,-9.689331,3.295898,-12.611388,0.9729681427456914
0 days 00:00:54.280000,0.259521,-0.945313,0.108887,-17.76123,-117.111198,70.800781,0.9863185064567125
0 days 00:00:54.290000,0.284424,-0.961914,0.126465,-18.669128,-120.23925,76.652527,1.011023714557181
0 days 00:00:54.300000,0.2854,-0.964355,0.141357,-18.096924,-119.293205,80.993645,1.015586297403623
0 days 00:00:54.310000,0.314697,-0.987061,0.132568,-17.478943,-120.002739,85.021965,1.044460575682012
0 days 00:00:54.320000,0.349609,-1.006104,0.161621,-13.816833,-115.386955,89.057915,1.0773082471317112
0 days 00:00:54.330000,0.371094,-1.002197,0.166016,-8.773804,-106.323235,89.195244,1.0815132435162316
0 days 00:00:54.340000,0.412598,-0.982666,0.148682,-7.072448,-98.228447,85.235588,1.076092892962313
0 days 00:00:54.350000,0.446777,-0.953613,0.141846,-7.759094,-88.829033,79.51355,1.0625948095177202
0 days 00:00:54.360000,0.443848,-0.919922,0.163574,-7.43103,-77.301025,74.073792,1.0344148039659913
0 days 00:00:54.370000,0.422363,-0.903564,0.191406,-3.562927,-66.963196,68.641663,1.0156055645283752
0 days 00:00:54.380000,0.221924,-0.929688,0.114746,-14.656066,-108.322136,65.940857,0.9626716385330981
0 days 00:00:54.390000,0.416504,-0.899658,0.197754,1.235962,-59.997555,63.3316,1.0109237080492277
0 days 00:00:54.400000,0.424561,-0.878662,0.225098,10.597228,-48.660275,51.23901,1.0014829317412255
0 days 00:00:54.410000,0.426025,-0.86377,0.23291,14.236449,-43.273922,43.67065,0.9908799027253505
0 days 00:00:54.420000,0.428223,-0.850586,0.236328,16.136169,-38.154602,35.598755,0.9811841849056679
0 days 00:00:54.430000,0.416992,-0.847412,0.238525,16.517639,-33.164978,28.846739,0.9741065657478138
0 days 00:00:54.440000,0.393311,-0.858887,0.241455,17.410278,-28.800962,23.29254,0.9750286859959557
0 days 00:00:54.450000,0.372803,-0.881104,0.244385,18.890381,-26.298521,19.676208,0.9874463853040326
0 days 00:00:54.460000,0.352539,-0.895264,0.248047,20.88928,-25.543211,17.662048,0.9936340827618586
0 days 00:00:54.470000,0.328613,-0.892578,0.253174,22.293089,-26.985167,16.326904,0.984265748733034
0 days 00:00:54.480000,0.303711,-0.866455,0.265625,20.942686,-30.990599,15.045165,0.9557935337566372
0 days 00:00:54.490000,0.282227,-0.844971,0.287354,17.295837,-36.369324,13.992309,0.9360557631284581
0 days 00:00:54.500000,0.424805,-0.894287,0.207031,6.019592,-54.466244,57.510372,1.011469407028705
0 days 00:00:54.510000,0.217041,-0.937256,0.113281,-12.786864,-98.350517,60.287472,0.9687043874051567
0 days 00:00:54.520000,0.33252,-0.919678,0.086426,-6.118774,-1.014709,-10.101317,0.9817569085878642
0 days 00:00:54.530000,0.217529,-0.954346,0.102539,-13.46588,-74.60022,48.126217,0.9841795568279195
0 days 00:00:54.540000,0.314209,-0.916992,0.098389,-12.931823,6.736755,-14.648437,0.9743110484162643
0 days 00:00:54.550000,0.309326,-0.924805,0.106689,-15.319823,9.399414,-16.197205,0.9809838964131878
0 days 00:00:54.560000,0.305908,-0.934326,0.111328,-17.433167,11.550902,-17.196655,0.9894133121825277
0 days 00:00:54.570000,0.302979,-0.939209,0.113281,-19.363403,13.916015,-18.013,0.9933490852077129
0 days 00:00:54.580000,0.301025,-0.939453,0.116455,-21.430967,16.181946,-18.493652,0.9933527857005284
0 days 00:00:54.590000,0.298828,-0.937744,0.12207,-23.315428,18.333435,-18.638611,0.9917474819831912
0 days 00:00:54.600000,0.219727,-0.95166,0.10791,-12.725829,-86.616508,53.955074,0.9826399535073872
0 days 00:00:54.610000,0.2854,-0.921875,0.128906,-26.626585,21.156309,-16.929626,0.973613595047337
0 days 00:00:54.620000,0.278076,-0.919189,0.137207,-28.083799,20.431517,-15.541076,0.9700826976840686
0 days 00:00:54.630000,0.272461,-0.922363,0.137695,-29.090879,17.906189,-13.84735,0.9715700763789507
0 days 00:00:54.640000,0.268799,-0.931396,0.137207,-29.998777,13.542174,-11.07788,0.9790695440396459
0 days 00:00:54.650000,0.295166,-0.928223,0.125732,-24.963377,20.278929,-18.135071,0.982104597845362
0 days 00:00:54.660000,0.260254,-0.987793,0.128174,-27.137754,0.236511,-1.342773,1.029512374690562
0 days 00:00:54.670000,0.27124,-1.016846,0.120117,-23.391722,-7.453918,4.852295,1.0592332221966037
0 days 00:00:54.680000,0.285645,-1.029297,0.11377,-19.630432,-13.534545,10.536193,1.0742387970716751
0 days 00:00:54.690000,0.297363,-1.01709,0.103516,-17.295837,-17.997742,14.419555,1.0647123480663687
0 days 00:00:54.700000,0.305664,-0.977539,0.07666,-18.722534,-22.201536,16.418457,1.0270782506785936
0 days 00:00:54.710000,0.289063,-0.948242,0.072266,-20.248411,-26.794432,19.371033,0.9939530588961433
0 days 00:00:54.720000,0.26123,-0.945068,0.088379,-19.393921,-32.989502,24.688719,0.9844823437548283
0 days 00:00:54.730000,0.240967,-0.952393,0.095459,-18.066406,-41.236874,31.417845,0.987030871968552
0 days 00:00:54.740000,0.233887,-0.961426,0.106689,-15.73944,-51.521297,37.239075,0.9952012987159934
0 days 00:00:54.750000,0.225342,-0.958252,0.102295,-14.160155,-62.934872,42.282101,0.9896919619219912
0 days 00:00:54.760000,0.26416,-0.957031,0.133545,-29.602049,7.621765,-6.912231,1.0017600049842277
0 days 00:00:54.770000,0.275879,-0.955078,0.076172,-0.137329,-2.029419,0.152588,0.9970383053368612
0 days 00:00:54.780000,0.275146,-0.953613,0.07666,-0.297546,-2.189636,0.259399,0.9954696533219886
0 days 00:00:54.790000,0.277344,-0.952881,0.076416,-0.198364,-2.342224,0.297546,0.9953598844402962
0 days 00:00:54.800000,0.273926,-0.951904,0.076172,-0.007629,-2.449036,0.190735,0.9934580274354825
0 days 00:00:54.810000,0.282227,-0.969238,0.075684,0.572205,-3.334045,-0.389099,1.0123252679000956
0 days 00:00:54.820000,0.276611,-0.954102,0.075195,0.511169,-2.655029,-0.205994,0.996232181647431
0 days 00:00:54.830000,0.278076,-0.961182,0.080322,0.717163,-2.922058,-0.198364,1.0038170762564262
0 days 00:00:54.840000,0.279297,-0.966064,0.080078,0.701904,-3.02124,-0.244141,1.0088106623093356
0 days 00:00:54.850000,0.274902,-0.951172,0.071533,0.274658,-2.510071,-0.030518,0.9926813452850819
0 days 00:00:54.860000,0.275879,-0.953857,0.075928,-0.289917,-1.907349,-0.25177,0.9958501193824298
0 days 00:00:54.870000,0.281494,-0.956787,0.062988,2.655029,-1.083374,0.724792,0.9993236330383667
0 days 00:00:54.880000,0.274414,-0.952393,0.073975,-0.312805,-2.082825,-0.564575,0.9938952512563888
0 days 00:00:54.890000,0.275391,-0.951904,0.072754,-0.076294,-2.403259,-0.579834,0.9936068501238304
0 days 00:00:54.900000,0.2771,-0.950684,0.067139,-0.175476,-2.296448,-0.572205,0.9925180719649391
0 days 00:00:54.910000,0.277832,-0.94873,0.06543,-0.213623,-2.029419,-0.541687,0.9907372598343115
0 days 00:00:54.920000,0.280029,-0.950684,0.066162,-0.091553,-1.426697,-0.457764,0.9932742415571844
0 days 00:00:54.930000,0.279541,-0.952881,0.066162,0.106812,-0.831604,-0.267029,0.9952400620383003
0 days 00:00:54.940000,0.279785,-0.954346,0.069336,0.358582,-0.648498,-0.015259,0.9969269857100871
0 days 00:00:54.950000,0.278809,-0.956299,0.068604,0.854492,-0.846863,0.389099,0.9984732068002626
0 days 00:00:54.960000,0.277588,-0.957764,0.067627,1.51062,-1.12915,0.732422,0.9994700538630459
0 days 00:00:54.970000,0.27832,-0.959473,0.06543,2.26593,-1.182556,0.823975,1.001165093792727
0 days 00:00:54.980000,0.281982,-0.969727,0.075928,0.411987,-3.952026,-0.640869,1.012743483828457
0 days 00:00:54.990000,0.276855,-0.949219,0.074707,-0.511169,-1.914978,-0.488281,0.9915878865915013
0 days 00:00:55,0.279053,-0.970459,0.077393,0.488281,-4.882813,-0.709534,1.0127442539649385
0 days 00:00:55.010000,0.386963,-1.029541,0.081299,6.41632,-16.044617,-2.204895,1.1028619865835436
0 days 00:00:55.020000,0.27832,-0.974121,0.073975,0.717163,-7.278442,-0.434875,1.0157982307850315
0 days 00:00:55.030000,0.280273,-0.949707,0.061035,2.693176,-0.999451,0.831604,0.992079438151502
0 days 00:00:55.040000,0.369385,-0.786621,0.025635,1.571655,-57.113644,-9.986877,0.8694107367010141
0 days 00:00:55.050000,0.366211,-0.815918,0.035156,-1.335144,-50.666805,-9.666443,0.8950243703838461
0 days 00:00:55.060000,0.364746,-0.840576,0.046143,-2.708435,-46.630856,-9.552002,0.9174621696511525
0 days 00:00:55.070000,0.355957,-0.866211,0.059326,-2.120972,-45.715328,-10.078429,0.9383743691331301
0 days 00:00:55.080000,0.349365,-0.883301,0.063721,-0.808716,-47.348019,-10.765075,0.9520172927352738
0 days 00:00:55.090000,0.350586,-0.902344,0.065186,1.296997,-49.316402,-10.772704,0.970249685559341
0 days 00:00:55.100000,0.361084,-0.931885,0.05249,4.898071,-50.033566,-10.551452,1.000772955460428
0 days 00:00:55.110000,0.369141,-0.959473,0.026855,8.354187,-49.606319,-9.300232,1.0283845130275933
0 days 00:00:55.120000,0.382324,-0.977539,-0.007324,9.597778,-48.233028,-7.736206,1.049670318944477
0 days 00:00:55.130000,0.279785,-0.971436,0.076416,0.694275,-6.080627,-0.587463,1.0138081442644855
0 days 00:00:55.140000,0.377197,-0.988281,-0.025879,8.338928,-43.457027,-7.057189,1.0581335617071221
0 days 00:00:55.150000,0.382813,-1.023438,0.018555,6.584167,-25.291441,-2.609253,1.0928473913763075
0 days 00:00:55.160000,0.362305,-1.014893,0.092773,5.050659,-10.665893,-2.487183,1.0816097004016747
0 days 00:00:55.170000,0.315674,-0.99585,0.083008,3.883362,-8.674622,-2.197266,1.0479778742130008
0 days 00:00:55.180000,0.280518,-0.979004,0.079102,2.975464,-8.087158,-1.770019,1.0214677218316788
0 days 00:00:55.190000,0.27124,-0.966797,0.076416,2.02179,-8.31604,-1.441955,1.0070287889951308
0 days 00:00:55.200000,0.263428,-0.957764,0.070557,1.235962,-9.002686,-1.152039,0.9958335609573519
0 days 00:00:55.210000,0.257813,-0.955811,0.071533,0.526428,-9.651184,-0.991821,0.9925518529422027
0 days 00:00:55.220000,0.259277,-0.958984,0.075439,0.297546,-9.681702,-0.801086,0.9962760248575693
0 days 00:00:55.230000,0.265381,-0.967285,0.076416,0.358582,-9.346008,-0.671387,1.0059357591029359
0 days 00:00:55.240000,0.270508,-0.970459,0.076416,0.579834,-8.514404,-0.511169,1.0103487782944067
0 days 00:00:55.250000,0.369385,-1.002441,-0.019287,6.629943,-35.079956,-5.310058,1.0685060716135402
0 days 00:00:55.260000,0.366211,-0.771729,0.022461,5.363464,-63.850399,-9.223938,0.8545060810099598
0 days 00:00:55.270000,0.2771,-0.949463,0.062744,2.914428,-0.915527,1.113892,0.9910606479449175
0 days 00:00:55.280000,0.278809,-0.94873,0.070068,2.861023,-0.63324,1.075745,0.9913287023006042
0 days 00:00:55.290000,0.286621,-0.947754,0.056885,0.953674,-4.53186,-1.243591,0.9917787784491056
0 days 00:00:55.300000,0.287598,-0.945557,0.052979,0.968933,-4.096985,-1.625061,0.9897461413382725
0 days 00:00:55.310000,0.286621,-0.94751,0.053223,1.220703,-3.952026,-1.708984,0.9913422645433816
0 days 00:00:55.320000,0.285889,-0.956299,0.056885,1.983642,-4.020691,-1.487732,0.999738066168834
0 days 00:00:55.330000,0.289795,-0.96167,0.058594,3.105163,-3.837585,-1.319885,1.0060932301536474
0 days 00:00:55.340000,0.295898,-0.959717,0.056885,3.814697,-3.227234,-1.518249,1.005906680422195
0 days 00:00:55.350000,0.297852,-0.950195,0.05542,3.814697,-2.426147,-1.869202,0.9973252871200048
0 days 00:00:55.360000,0.29834,-0.941162,0.055664,3.677368,-1.38092,-2.044678,0.9888837882885937
0 days 00:00:55.370000,0.298828,-0.939941,0.058105,3.440857,0.022888,-2.288818,0.988009842101788
0 days 00:00:55.380000,0.303223,-0.938965,0.061279,3.082275,2.593994,-2.685547,0.9886124492413597
0 days 00:00:55.390000,0.2854,-0.947754,0.059082,0.961304,-5.203247,-0.831604,0.9915550853280921
0 days 00:00:55.400000,0.301025,-0.939941,0.067383,2.601623,3.471374,-2.677917,0.9892651832521956
0 days 00:00:55.410000,0.299316,-0.945313,0.072266,2.029419,3.875732,-1.88446,0.9941977220759459
0 days 00:00:55.420000,0.298584,-0.944092,0.074219,1.800537,3.761291,-1.457214,0.9929605075132646
0 days 00:00:55.430000,0.300049,-0.939697,0.074951,1.38855,3.379822,-1.144409,0.9892813081277742
0 days 00:00:55.440000,0.298096,-0.933105,0.078125,0.839233,2.853393,-0.595093,0.9826747589441789
0 days 00:00:55.450000,0.298828,-0.931641,0.082031,0.434875,2.14386,0.175476,0.9818259578082055
0 days 00:00:55.460000,0.301758,-0.932373,0.081543,0.12207,1.724243,0.976562,0.983375087411716
0 days 00:00:55.470000,0.304688,-0.930908,0.083252,-0.473022,1.625061,1.716614,0.9830337620407551
0 days 00:00:55.480000,0.307373,-0.92627,0.081787,-1.182556,1.441955,2.365112,0.9793586612666475
0 days 00:00:55.490000,0.308105,-0.928223,0.08374,-1.922607,1.579285,3.089905,0.981600232454129
0 days 00:00:55.500000,0.277832,-0.951904,0.06665,2.998352,-0.831604,1.182556,0.9938581729502455
0 days 00:00:55.510000,0.300537,-0.940186,0.068359,2.174377,3.807068,-2.319336,0.9894165734643826
0 days 00:00:55.520000,0.283936,-0.945557,0.061035,0.740051,-5.844116,-0.457764,0.9891526492761367
0 days 00:00:55.530000,0.301025,-0.941406,0.059814,3.326416,1.350403,-2.456665,0.9901712084569011
0 days 00:00:55.540000,0.290283,-0.963623,0.061523,0.854492,-6.958007,0.236511,1.0082750546091082
0 days 00:00:55.550000,0.288574,-0.952148,0.060303,0.762939,-6.340026,-0.183105,0.9967433065684463
0 days 00:00:55.560000,0.273926,-0.946045,0.071777,2.738952,-0.762939,0.923157,0.9875163458039569
0 days 00:00:55.570000,0.270752,-0.94873,0.075684,2.571106,-1.014709,0.961304,0.9895066074867818
0 days 00:00:55.580000,0.272949,-0.95752,0.079834,2.662658,-1.38092,1.091003,0.9988589362652767
0 days 00:00:55.590000,0.273926,-0.958984,0.076416,2.861023,-1.525879,0.778198,1.0002625509275052
0 days 00:00:55.600000,0.276611,-0.955811,0.074463,2.578735,-1.38092,0.312805,0.9978141367063307
0 days 00:00:55.610000,0.274658,-0.948975,0.074707,2.090454,-1.449585,0.022888,0.9907430057477065
0 days 00:00:55.620000,0.273438,-0.945801,0.081543,1.564026,-1.281738,-0.25177,0.9879054267965127
0 days 00:00:55.630000,0.268799,-0.942383,0.083252,0.640869,-1.823425,-0.923157,0.9834986103670914
0 days 00:00:55.640000,0.268311,-0.942139,0.082031,0.12207,-2.593994,-1.106262,0.9830288769934482
0 days 00:00:55.650000,0.268311,-0.943848,0.081299,-0.183105,-3.517151,-0.839233,0.984606199059299
0 days 00:00:55.660000,0.271973,-0.943848,0.08252,1.060486,-1.441955,-0.640869,0.9857118799289172
0 days 00:00:55.670000,0.272949,-0.952637,0.078857,0.396728,-5.043029,-0.38147,0.9941010194235794
0 days 00:00:55.680000,0.288086,-0.970459,0.067383,0.724792,-7.446289,0.671387,1.01455639703567
0 days 00:00:55.690000,0.274902,-0.945068,0.074707,0.305176,-5.317688,-0.495911,0.9870692833215914
0 days 00:00:55.700000,0.276123,-0.935059,0.07373,-0.160217,-5.554199,-0.534058,0.9777603783698744
0 days 00:00:55.710000,0.276123,-0.932373,0.07666,-0.617981,-5.775451,-0.488281,0.9754178990863352
0 days 00:00:55.720000,0.274902,-0.93457,0.073486,-0.984192,-5.966186,-0.50354,0.9769300828104333
0 days 00:00:55.730000,0.27417,-0.937256,0.071777,-1.167297,-6.324768,-0.419617,0.9791679815869185
0 days 00:00:55.740000,0.274658,-0.94458,0.072266,-1.174927,-6.973266,0.007629,0.9863522535686731
0 days 00:00:55.750000,0.276367,-0.957031,0.072998,-0.816345,-7.499694,0.457764,0.9988071694045852
0 days 00:00:55.760000,0.268799,-0.950684,0.082031,0.022888,-4.394531,-0.434875,0.9913536479067396
0 days 00:00:55.770000,0.281738,-0.969238,0.069824,-0.053406,-7.781982,0.785828,1.0117677560902996
0 days 00:00:55.780000,0.234863,-0.900146,0.199463,16.63208,-73.33374,-5.279541,0.951424688797805
0 days 00:00:55.790000,0.22583,-0.945801,0.174072,15.785216,-67.276001,-5.386352,0.9878460313657185
0 days 00:00:55.800000,0.216797,-0.979492,0.1604,13.236999,-60.623165,-5.821228,1.0159398000240958
0 days 00:00:55.810000,0.183105,-0.845947,0.184326,-8.178711,-19.332886,-15.014647,0.8849462368471883
0 days 00:00:55.820000,0.185303,-0.924072,0.158936,1.770019,-42.549129,-11.085509,0.9557755568589312
0 days 00:00:55.830000,0.175293,-0.873535,0.174561,-4.272461,-31.22711,-13.961791,0.907889076261522
0 days 00:00:55.840000,0.241943,-0.879883,0.216553,17.204285,-78.689575,-5.340576,0.937883633905081
0 days 00:00:55.850000,0.199707,-0.852539,0.17334,-10.749816,-7.698059,-14.678954,0.8926098744524397
0 days 00:00:55.860000,0.203369,-0.968994,0.158447,8.308411,-52.551266,-7.67517,1.0027032332679495
0 days 00:00:55.870000,0.248291,-0.877441,0.222168,17.837524,-83.541862,-5.088806,0.9385679247587785
0 days 00:00:55.880000,0.303223,-0.934082,0.275146,-3.913879,-63.896175,-2.403259,1.019881704791786
0 days 00:00:55.890000,0.269287,-0.904541,0.234131,19.065857,-90.805046,-2.632141,0.9723822469641248
0 days 00:00:55.900000,0.276611,-0.914063,0.238281,19.14978,-92.071526,-1.663208,0.9842777292263601
0 days 00:00:55.910000,0.291016,-0.914551,0.23584,18.356323,-91.606133,-0.968933,0.9882885962394791
0 days 00:00:55.920000,0.299316,-0.904541,0.235107,16.654968,-89.286797,-0.495911,0.9813560974416983
0 days 00:00:55.930000,0.303467,-0.89209,0.240234,13.809203,-85.510246,-0.221252,0.9724346574166308
0 days 00:00:55.940000,0.309326,-0.884766,0.241943,9.750366,-80.406181,-0.328064,0.9680030290660252
0 days 00:00:55.950000,0.31543,-0.884277,0.245361,5.447387,-74.97406,-0.617981,0.9703833870950181
0 days 00:00:55.960000,0.314697,-0.890625,0.254395,1.411438,-69.900513,-1.579285,0.9782453212047579
0 days 00:00:55.970000,0.311279,-0.908936,0.266846,-1.831055,-66.085815,-2.342224,0.9971289062368014
0 days 00:00:55.980000,0.214355,-0.891357,0.157471,-12.634276,2.410889,-13.748168,0.930194863087837
0 days 00:00:55.990000,0.29541,-0.972656,0.286133,-3.990173,-63.346859,-2.441406,1.0560297610034481
0 days 00:00:56,0.26123,-0.891846,0.227783,18.501282,-87.722771,-3.89862,0.9568257394661789
0 days 00:00:56.010000,0.221436,-0.951416,0.163574,-14.114379,9.613037,-12.512206,0.9904457383562212
0 days 00:00:56.020000,0.609375,-0.964844,-0.226807,-3.067016,55.572506,51.040646,1.1634875376255647
0 days 00:00:56.030000,0.222168,-1.095947,0.145996,-17.662048,17.51709,-9.063721,1.1277292578668872
0 days 00:00:56.040000,0.363525,-1.024902,-0.324951,1.274109,-248.092636,-78.75824,1.1349747519790914
0 days 00:00:56.050000,0.293457,-1.008545,0.295166,-2.357483,-63.972469,-2.853393,1.0910559084804041
0 days 00:00:56.060000,0.477539,-1.110107,-0.264404,23.170469,-249.893173,-50.552364,1.2370491191484676
0 days 00:00:56.070000,0.576416,-1.118652,-0.24585,34.629822,-249.580368,-33.561707,1.2822168009584027
0 days 00:00:56.080000,0.680176,-1.139404,-0.262207,43.258663,-249.992355,-14.457702,1.3526394113144125
0 days 00:00:56.090000,0.688477,-1.180908,-0.258301,51.353451,-248.054489,4.272461,1.3911375527222318
0 days 00:00:56.100000,0.675781,-1.198486,-0.212402,63.911434,-215.942368,19.638062,1.3921793209788025
0 days 00:00:56.110000,0.74292,-1.152832,-0.235596,70.625305,-180.50383,32.791138,1.391566463321102
0 days 00:00:56.120000,0.787109,-1.108643,-0.290283,65.841675,-144.699097,45.021053,1.3902856179285608
0 days 00:00:56.130000,0.770996,-1.100098,-0.319824,56.343075,-107.26165,55.046078,1.3809191984312479
0 days 00:00:56.140000,0.716797,-1.104492,-0.338379,47.050472,-68.351746,61.744686,1.3594855147863842
0 days 00:00:56.150000,0.664307,-1.105225,-0.336914,37.811279,-28.70178,63.453671,1.3327929825257934
0 days 00:00:56.160000,0.656494,-1.078125,-0.342773,25.711058,7.263183,62.316891,1.3079874682847692
0 days 00:00:56.170000,0.654053,-1.025879,-0.317139,10.932921,35.27832,58.753963,1.257294792310459
0 days 00:00:56.180000,0.552734,-0.898193,-0.123779,-15.563964,68.336487,39.108276,1.06187889179793
0 days 00:00:56.190000,0.496582,-0.844238,-0.053223,-24.459837,72.532654,25.482176,0.980899674328114
0 days 00:00:56.200000,0.440918,-0.800293,-0.016846,-30.799864,70.3125,11.344909,0.9138716300930892
0 days 00:00:56.210000,0.39502,-0.787598,-0.006836,-35.385132,64.163208,-2.128601,0.881134575930374
0 days 00:00:56.220000,0.34668,-0.813965,-0.004883,-37.757874,55.404659,-10.124206,0.8847315340339125
0 days 00:00:56.230000,0.2854,-0.883057,0.022705,-37.277222,45.997616,-11.466979,0.9283094000784436
0 days 00:00:56.240000,0.226563,-0.992676,0.054932,-34.645081,37.147522,-10.093688,1.0196832638466713
0 days 00:00:56.250000,0.191162,-1.097656,0.088135,-30.166624,29.70886,-10.06317,1.1176579900868602
0 days 00:00:56.260000,0.196045,-1.143555,0.112549,-23.246763,23.200987,-9.429932,1.1656839011717544
0 days 00:00:56.270000,0.22583,-1.023438,0.174805,-15.274047,13.961791,-10.383605,1.0625353249511285
0 days 00:00:56.280000,0.408691,-1.07251,-0.288086,11.535644,-249.992355,-64.422607,1.1833425442267342
0 days 00:00:56.290000,0.293945,-1.024902,0.291504,-1.106262,-64.903259,-3.639221,1.1053516882173744
0 days 00:00:56.300000,0.292725,-0.984131,0.265381,-2.197266,-65.917969,-7.698059,1.0604851842185254
0 days 00:00:56.310000,0.369629,-1.062744,0.140137,33.790588,-109.222404,21.27075,1.1338821746310328
0 days 00:00:56.320000,0.37207,-1.025391,0.139648,34.645081,-110.092155,23.826597,1.0997110309917781
0 days 00:00:56.330000,0.376465,-1.002441,0.142578,36.125183,-110.130302,26.481627,1.0802510545192723
0 days 00:00:56.340000,0.373047,-0.985596,0.13623,38.352966,-109.863274,29.197691,1.062601596236802
0 days 00:00:56.350000,0.366943,-0.969971,0.130127,41.145321,-109.733574,31.364439,1.0451908640143197
0 days 00:00:56.360000,0.369629,-0.943115,0.126465,42.999264,-108.734123,32.592773,1.0208255958247716
0 days 00:00:56.370000,0.38501,-0.918213,0.116699,43.838497,-106.491081,32.440186,1.0024801594395771
0 days 00:00:56.380000,0.389893,-0.897217,0.105713,44.380184,-103.370659,31.471251,0.9839665313957585
0 days 00:00:56.390000,0.375488,-0.873535,0.102539,45.700069,-101.036064,31.143187,0.9563309473660255
0 days 00:00:56.400000,0.361084,-0.850586,0.092529,47.058102,-100.631706,31.639097,0.9286763775896315
0 days 00:00:56.410000,0.363037,-1.091309,0.147949,32.028198,-107.269279,18.188477,1.1595861776733112
0 days 00:00:56.420000,0.363037,-0.827148,0.075439,46.478268,-100.723259,31.494139,0.9064550292176662
0 days 00:00:56.430000,0.377441,-0.812256,0.05835,44.281002,-95.268242,28.388975,0.8975668445954318
0 days 00:00:56.440000,0.369873,-0.801514,0.053711,43.479916,-92.437737,25.756834,0.8843729981438827
0 days 00:00:56.450000,0.369629,-0.785156,0.045898,41.831966,-90.194695,22.361753,0.8690236868929407
0 days 00:00:56.460000,0.374268,-0.769043,0.036133,39.18457,-87.760918,18.371582,0.8560427941183782
0 days 00:00:56.470000,0.379639,-0.762939,0.022705,36.003113,-84.320061,14.442443,0.8524770994384542
0 days 00:00:56.480000,0.379639,-0.759277,0.012451,32.394409,-82.122795,10.787963,0.8489890225739082
0 days 00:00:56.490000,0.364502,-0.749756,0.012695,27.786253,-80.398552,7.255554,0.8337607154124017
0 days 00:00:56.500000,0.361328,-0.739014,0.016846,21.377562,-77.758789,2.540588,0.8227900117867255
0 days 00:00:56.510000,0.364746,-0.739746,0.021729,14.892577,-74.119568,-2.418518,0.825067232698645
0 days 00:00:56.520000,0.368652,-0.753418,0.024658,9.597778,-69.618225,-6.584167,0.8391370548319268
0 days 00:00:56.530000,0.376953,-0.81543,0.05957,44.876095,-98.800652,30.2124,0.9003156302147597
0 days 00:00:56.540000,0.347412,-1.093018,0.158691,27.679441,-103.744499,14.122008,1.1578282599543854
0 days 00:00:56.550000,0.295654,-1.011475,0.283447,-1.075745,-65.513611,-5.53894,1.0912539416423659
0 days 00:00:56.560000,0.324463,-1.021729,0.148682,16.456604,-91.911308,3.005981,1.0822720198425164
0 days 00:00:56.570000,0.279541,-0.960693,0.253174,-3.639221,-65.887451,-9.681702,1.032071356644491
0 days 00:00:56.580000,0.273682,-0.94751,0.24707,-5.340576,-65.986633,-11.489867,1.016720523115374
0 days 00:00:56.590000,0.27002,-0.943359,0.244385,-6.79779,-66.543579,-12.947082,1.0112175984950025
0 days 00:00:56.600000,0.268066,-0.953613,0.246582,-7.217407,-67.878723,-13.710021,1.0208035153000798
0 days 00:00:56.610000,0.264648,-0.973633,0.252686,-6.568908,-70.030212,-13.488769,1.0401201840119247
0 days 00:00:56.620000,0.269531,-1.000732,0.253174,-4.714966,-72.58606,-12.832641,1.0668685814386887
0 days 00:00:56.630000,0.332031,-1.065186,0.153564,21.507261,-98.327629,8.735657,1.1262538353555116
0 days 00:00:56.640000,0.300293,-1.029053,0.238281,0.648498,-74.333191,-12.741088,1.098136511376887
0 days 00:00:56.650000,0.309814,-1.012939,0.217041,1.960754,-73.059082,-13.710021,1.0812663538638387
0 days 00:00:56.660000,0.311768,-0.98877,0.197021,2.410889,-71.403503,-15.243529,1.0553116474127442
0 days 00:00:56.670000,0.306396,-0.969482,0.183594,2.76947,-70.228577,-16.38031,1.0331895343914397
0 days 00:00:56.680000,0.281982,-1.025391,0.248291,-1.953125,-74.157715,-12.46643,1.0920572200603775
0 days 00:00:56.690000,0.305908,-0.965088,0.173828,4.188538,-70.19043,-17.272949,1.027224768875829
0 days 00:00:56.700000,0.30957,-0.976807,0.167969,5.41687,-70.854187,-17.272949,1.0383636574485837
0 days 00:00:56.710000,0.317139,-0.990479,0.160156,6.637573,-71.44928,-17.112732,1.0522717040280045
0 days 00:00:56.720000,0.325928,-1.000244,0.150879,7.881164,-71.876526,-16.586304,1.0627707153290402
0 days 00:00:56.730000,0.328125,-1.007568,0.144775,9.483337,-72.242737,-15.052794,1.0694947830045736
0 days 00:00:56.740000,0.329102,-1.013672,0.146973,11.268615,-72.860718,-12.7182,1.0758439072267871
0 days 00:00:56.750000,0.323242,-1.010986,0.148682,12.901305,-74.195862,-10.437011,1.0717669615564756
0 days 00:00:56.760000,0.316895,-0.994385,0.144043,13.46588,-76.805115,-8.430481,1.0535522555141723
0 days 00:00:56.770000,0.318359,-0.978027,0.14624,13.47351,-80.604546,-5.79071,1.0388818042539776
0 days 00:00:56.780000,0.319824,-0.989746,0.147949,14.152526,-85.678093,-1.907349,1.0506062259919269
0 days 00:00:56.790000,0.304688,-0.962891,0.176758,3.318786,-69.831848,-17.01355,1.0252986129850172
0 days 00:00:56.800000,0.384521,-0.55542,-0.630615,176.353439,-211.853012,-186.897263,0.9241336775954008
0 days 00:00:56.810000,0.361816,-0.592529,-0.641113,175.21666,-222.999557,-192.047104,0.9450012235261921
0 days 00:00:56.820000,0.372559,-0.594238,-0.63208,172.477707,-233.703598,-195.411667,0.9441631932695745
0 days 00:00:56.830000,0.383789,-0.584717,-0.597412,168.495163,-244.148239,-196.037277,0.919830997713167
0 days 00:00:56.840000,0.371582,-0.641357,-0.437256,118.492119,-196.5103,-143.440247,0.8605839841113707
0 days 00:00:56.850000,0.379639,-0.585938,-0.514404,152.374268,-246.391281,-185.615524,0.8672142672840432
0 days 00:00:56.860000,0.364502,-0.593506,-0.481445,141.601563,-236.213669,-174.644455,0.8466996917827477
0 days 00:00:56.870000,0.357666,-0.609619,-0.455811,130.249023,-218.887314,-160.659775,0.8410255408951621
0 days 00:00:56.880000,0.385254,-0.580078,-0.554932,161.827072,-249.05394,-193.061813,0.8904272318522161
0 days 00:00:56.890000,0.427734,-0.547363,-0.636719,174.087509,-198.326096,-180.992111,0.942323571543236
0 days 00:00:56.900000,0.664551,-0.780029,-0.688477,70.243835,37.849426,-76.23291,1.2345338601962281
0 days 00:00:56.910000,0.490723,-0.613525,-0.67334,166.694626,-168.075546,-164.085373,1.0347022489363789
0 days 00:00:56.920000,0.524902,-0.663086,-0.699707,164.588913,-147.949219,-152.519226,1.0976315587887402
0 days 00:00:56.930000,0.575195,-0.709717,-0.730469,163.566574,-124.740593,-140.87677,1.169671948913455
0 days 00:00:56.940000,0.616943,-0.726563,-0.768799,159.667969,-99.784843,-130.851746,1.2245670094441545
0 days 00:00:56.950000,0.62207,-0.735107,-0.808594,152.404785,-74.447632,-120.765678,1.2574488630497067
0 days 00:00:56.960000,0.638184,-0.730713,-0.848389,142.494202,-50.086971,-111.274712,1.2887917603499799
0 days 00:00:56.970000,0.655518,-0.706787,-0.868652,128.204346,-26.741026,-102.989189,1.297616279489819
0 days 00:00:56.980000,0.669434,-0.701904,-0.85376,111.137383,-5.096435,-95.695488,1.2921753917994259
0 days 00:00:56.990000,0.66626,-0.70752,-0.811523,94.337456,13.389586,-89.11895,1.2661186822446782
0 days 00:00:57,0.660645,-0.740967,-0.744629,80.566399,27.648924,-82.771294,1.2409497406240917
0 days 00:00:57.010000,0.367432,-0.689453,-0.419678,105.667107,-173.103317,-124.000542,0.8868378304498516
0 days 00:00:57.020000,0.456787,-0.575928,-0.65332,170.455917,-184.387192,-173.789963,0.983450276807628
0 days 00:00:57.030000,0.347412,-0.716797,-0.422607,92.575066,-149.459839,-104.644768,0.9017148736723821
0 days 00:00:57.040000,0.205811,-0.500488,-0.845947,164.382919,14.877318,70.236206,1.0042274307516201
0 days 00:00:57.050000,0.364502,-0.72583,-0.456055,71.838379,-99.037163,-68.412781,0.9314918464103698
0 days 00:00:57.060000,0.669678,-0.80957,-0.656006,62.240597,45.31097,-69.793701,1.2386347648197187
0 days 00:00:57.070000,0.025146,-1.027588,0.094971,54.199215,249.992355,94.543449,1.0322736603735465
0 days 00:00:57.080000,-0.012695,-0.988525,0.082031,77.133179,249.992355,102.21862,0.992003993747505
0 days 00:00:57.090000,-0.111816,-0.942139,0.074219,101.181023,249.664291,104.454033,0.9516497113633776
0 days 00:00:57.100000,-0.274414,-0.913574,0.06543,126.16729,249.778732,113.510124,0.9561388925109156
0 days 00:00:57.110000,-0.360107,-0.922119,-0.025391,146.873474,249.992355,128.547668,0.9902652192675455
0 days 00:00:57.120000,-0.300293,-0.942139,-0.145996,164.25322,238.97551,136.138916,0.9995582090033577
0 days 00:00:57.130000,-0.189453,-0.921387,-0.243652,190.895065,188.163742,133.628845,0.9717060975840379
0 days 00:00:57.140000,-0.102051,-0.855225,-0.356445,226.341232,136.680603,132.209778,0.9321358512851011
0 days 00:00:57.150000,0.002686,-0.744141,-0.558105,235.298141,88.165276,132.957458,0.9301796780740805
0 days 00:00:57.160000,0.344238,-0.724609,-0.434814,81.169121,-124.351494,-85.998528,0.9124808042479577
0 days 00:00:57.170000,0.104492,-0.629639,-0.686035,218.612656,53.749081,120.407097,0.9370207412912479
0 days 00:00:57.180000,0.190918,-0.519287,-0.845947,184.524521,23.864744,83.091728,1.0108090808367325
0 days 00:00:57.190000,0.27002,-0.517578,-0.753418,147.575378,2.655029,58.105465,0.9531193362890085
0 days 00:00:57.200000,0.360596,-0.57959,-0.651367,131.446838,-11.848449,43.792721,0.9435216012392086
0 days 00:00:57.210000,0.409424,-0.634277,-0.636719,114.929192,-22.521971,28.96118,0.9875962785804734
0 days 00:00:57.220000,0.427734,-0.671143,-0.682617,98.999016,-29.151915,14.73236,1.0485014401010617
0 days 00:00:57.230000,0.442627,-0.70752,-0.709717,82.992546,-32.928467,0.617981,1.0955370516865235
0 days 00:00:57.240000,0.447754,-0.758301,-0.690674,69.869995,-35.621643,-12.062072,1.1191669336577987
0 days 00:00:57.250000,0.440186,-0.788574,-0.625977,63.232418,-43.05267,-23.773191,1.0988447900413416
0 days 00:00:57.260000,0.419922,-0.772705,-0.54126,62.599178,-57.647701,-36.880493,1.032651872950899
0 days 00:00:57.270000,0.394531,-0.741699,-0.488525,65.52887,-76.36261,-51.902767,0.971817262754166
0 days 00:00:57.280000,0.158447,-0.571289,-0.787109,201.606735,34.309387,102.828972,0.9854020251709451
0 days 00:00:57.290000,0.685547,-0.832031,-0.636719,55.7785,48.782345,-64.552307,1.2520628415263348
0 days 00:00:57.300000,0.707031,-0.804932,-0.629395,49.369808,48.492428,-60.638424,1.242556407415776
0 days 00:00:57.310000,0.697266,-0.716553,-0.61084,43.243404,47.630306,-56.045528,1.1716456726182196
0 days 00:00:57.320000,0.479004,-0.57666,-0.310303,-144.14978,-104.23278,-90.400688,0.8113381165858041
0 days 00:00:57.330000,0.496582,-0.595215,-0.27832,-161.97966,-105.400078,-112.159721,0.8236119239963686
0 days 00:00:57.340000,0.409424,-0.659668,-0.23291,-175.117477,-97.457878,-123.817436,0.8105781579218626
0 days 00:00:57.350000,0.324951,-0.748779,-0.164551,-175.025925,-88.455193,-127.937309,0.8326705079699892
0 days 00:00:57.360000,0.244629,-0.811035,-0.100098,-161.804184,-80.642693,-125.724785,0.8530185979625532
0 days 00:00:57.370000,0.226563,-0.818115,-0.077393,-145.889282,-75.22583,-122.810356,0.852427488202369
0 days 00:00:57.380000,0.247803,-0.788574,-0.094482,-135.5896,-72.883606,-122.940056,0.831974836523918
0 days 00:00:57.390000,0.240234,-0.776123,-0.099121,-127.372734,-70.671082,-124.1455,0.8184767916844069
0 days 00:00:57.400000,0.230957,-0.813965,-0.072021,-113.533012,-67.5354,-126.533501,0.8491567473175964
0 days 00:00:57.410000,0.29541,-0.806152,-0.102051,-88.432304,-66.902161,-138.259888,0.8646169798269058
0 days 00:00:57.420000,0.411621,-0.5979,-0.301514,-128.623962,-96.710197,-71.044922,0.7860196879449013
0 days 00:00:57.430000,0.308105,-0.803223,-0.147217,-81.405632,-71.037292,-145.439148,0.872793631875829
0 days 00:00:57.440000,0.338623,-0.803711,-0.217773,-70.69397,-95.481865,-164.070114,0.8989115569281552
0 days 00:00:57.450000,0.290771,-0.850586,-0.229736,-60.607906,-108.718864,-165.481552,0.9278054470270154
0 days 00:00:57.460000,0.199219,-0.923828,-0.231445,-45.486446,-118.064873,-158.981323,0.9729918661376363
0 days 00:00:57.470000,0.165527,-0.981201,-0.250488,-27.862547,-126.655571,-150.749207,1.0261085850308436
0 days 00:00:57.480000,0.217041,-0.991943,-0.341064,-15.419005,-140.541077,-143.844604,1.0711593546368345
0 days 00:00:57.490000,0.24585,-0.98584,-0.435059,-11.543273,-156.333923,-136.573792,1.1052597258477304
0 days 00:00:57.500000,0.27417,-0.986328,-0.479492,-12.313842,-172.531113,-128.822327,1.1304533119717948
0 days 00:00:57.510000,0.314453,-0.97998,-0.478271,-14.160155,-190.628036,-119.926445,1.134894109179354
0 days 00:00:57.520000,0.335938,-0.981201,-0.434082,-13.229369,-209.449753,-108.749382,1.1242939673274956
0 days 00:00:57.530000,0.343994,-0.996338,-0.375,-7.492065,-230.90361,-94.764702,1.1187699863153282
0 days 00:00:57.540000,0.335938,-0.790771,-0.193848,-76.309204,-81.550591,-155.296326,0.8807668030693483
0 days 00:00:57.550000,0.352295,-0.625244,-0.298096,-118.629448,-86.799614,-56.175228,0.7771119943592429
0 days 00:00:57.560000,0.267822,-0.814697,-0.072998,-98.625175,-66.184998,-132.385254,0.8606907304583918
0 days 00:00:57.570000,0.376465,-0.563965,-0.318604,-101.837151,-75.958252,-41.801449,0.7491935172343659
0 days 00:00:57.580000,0.331055,-0.62085,-0.284668,-108.879082,-77.537537,-45.837399,0.7590046151038872
0 days 00:00:57.590000,0.634277,-0.607422,-0.509766,36.476135,47.180172,-44.158932,1.0154458004093572
0 days 00:00:57.600000,0.633057,-0.605957,-0.487793,36.773682,42.968746,-38.497925,1.0029392114914044
0 days 00:00:57.610000,0.655029,-0.595703,-0.487061,36.048889,35.453796,-33.988953,1.0105213865975327
0 days 00:00:57.620000,0.666992,-0.583008,-0.489258,33.874512,25.405882,-30.006407,1.0120029874916379
0 days 00:00:57.630000,0.666504,-0.560547,-0.471924,31.631468,13.183593,-26.298521,0.9905315658781401
0 days 00:00:57.640000,0.657959,-0.539063,-0.436523,29.411314,0.579834,-23.254393,0.9560602978782248
0 days 00:00:57.650000,0.651855,-0.529785,-0.413086,28.945921,-12.062072,-20.828245,0.9360700458010607
0 days 00:00:57.660000,0.658936,-0.523438,-0.406494,29.541014,-25.81024,-19.950867,0.9345701493071561
0 days 00:00:57.670000,0.667236,-0.507324,-0.41333,28.221128,-39.855957,-20.828245,0.9345711367103096
0 days 00:00:57.680000,0.667969,-0.496338,-0.419189,25.657652,-53.047176,-21.980284,0.9318011659823141
0 days 00:00:57.690000,0.661621,-0.633057,-0.560303,38.665771,48.049923,-50.170895,1.0735189633625482
0 days 00:00:57.700000,0.627441,-0.479492,-0.37085,22.094725,-72.410583,-21.850584,0.8724245004841393
0 days 00:00:57.710000,0.657227,-0.489258,-0.400391,23.170469,-64.186096,-22.697447,0.9119395116859451
0 days 00:00:57.720000,0.514648,-0.480957,-0.391113,-67.398071,-89.24102,-37.506104,0.8056994343562617
0 days 00:00:57.730000,0.551514,-0.455078,-0.397705,-43.42651,-95.91674,-31.35681,0.8181888200806706
0 days 00:00:57.740000,0.55542,-0.453369,-0.380127,-19.27948,-97.282402,-24.696348,0.8114994532900192
0 days 00:00:57.750000,0.542725,-0.465332,-0.355469,1.197815,-92.864983,-18.867493,0.798399966063376
0 days 00:00:57.760000,0.448242,-0.521729,-0.372559,-88.35601,-81.817619,-40.634151,0.7822545931383209
0 days 00:00:57.770000,0.529053,-0.497559,-0.32373,20.416258,-82.290642,-13.786315,0.7951497646292803
0 days 00:00:57.780000,0.549561,-0.488281,-0.333984,20.64514,-80.291748,-16.296387,0.8074533670361402
