t,ax,ay,az,gx,gy,gz,acc_mag
0 days 00:01:22.740000,0.202881,0.993408,-0.127686,0.274658,-1.289368,0.0,1.021921655128709
0 days 00:01:22.750000,0.20166,0.994629,-0.126709,0.228882,-1.274109,0.022888,1.0227457034483205
0 days 00:01:22.760000,0.200195,0.993164,-0.12915,0.175476,-1.281738,-0.152588,1.021338578249642
0 days 00:01:22.770000,0.202637,0.992432,-0.128906,0.038147,-1.38092,-0.144958,1.0210777567007323
0 days 00:01:22.780000,0.20166,0.994873,-0.129883,-0.030518,-1.472473,-0.213623,1.0233809825368068
0 days 00:01:22.790000,0.201172,0.992432,-0.131104,-0.12207,-1.541138,-0.160217,1.0210679247846344
0 days 00:01:22.800000,0.199707,0.993896,-0.124756,0.198364,-1.594543,0.0,1.0214089309385346
0 days 00:01:22.810000,0.203857,1.001709,-0.05957,-13.046264,-0.465393,0.236511,1.0239761628231392
0 days 00:01:22.820000,0.199463,0.997803,-0.058838,-13.145446,-0.587463,0.648498,1.01924394794475
0 days 00:01:22.830000,0.201172,0.992676,-0.057617,-13.107299,-0.328064,0.999451,1.0144927467700298
0 days 00:01:22.840000,0.202148,0.991943,-0.060791,-13.320922,-0.595093,1.342773,1.0141549560269378
0 days 00:01:22.850000,0.204346,0.987793,-0.060547,-14.595031,-3.570556,1.312256,1.0105237442900588
0 days 00:01:22.860000,0.206787,0.994629,-0.052246,-13.885497,-1.88446,1.800537,1.0172400677942253
0 days 00:01:22.870000,0.201904,0.993896,-0.054443,-14.183043,-2.967834,1.846313,1.0156566960745153
0 days 00:01:22.880000,0.197998,0.990479,-0.060303,-14.465331,-3.448486,1.716614,1.0118736626941132
0 days 00:01:22.890000,0.202148,0.994629,-0.056885,-13.641356,-1.167297,1.564026,1.0165562280415186
0 days 00:01:22.900000,0.200928,0.997314,-0.062012,-12.855529,-0.541687,-0.320435,1.0192412687504366
0 days 00:01:22.910000,0.193604,0.986084,-0.08252,-11.474608,-2.761841,-1.76239,1.0082924745687631
0 days 00:01:22.920000,0.19751,1.000732,-0.071289,-13.069152,-2.883911,-1.13678,1.0225247466174106
0 days 00:01:22.930000,0.206299,1.006592,-0.07373,-13.076781,-2.807617,-1.274109,1.0301567088385144
0 days 00:01:22.940000,0.207764,1.003418,-0.075684,-13.107299,-2.372742,-1.350403,1.0274928857544463
0 days 00:01:22.950000,0.19751,0.997803,-0.074463,-13.09204,-2.822876,-1.327515,1.0198851725944444
0 days 00:01:22.960000,0.201172,0.991943,-0.076172,-13.053893,-2.815246,-1.296997,1.0149991440474224
0 days 00:01:22.970000,0.201904,0.987549,-0.077637,-12.657165,-2.525329,-1.335144,1.0109627868452924
0 days 00:01:22.980000,0.203857,0.985107,-0.076172,-12.390136,-2.174377,-1.480102,1.0088585884463688
0 days 00:01:22.990000,0.200195,0.98291,-0.079834,-12.123107,-1.922607,-1.670837,1.0062621793951119
0 days 00:01:23,0.195801,0.982178,-0.081787,-12.031554,-2.105713,-1.815796,1.0048386779249692
0 days 00:01:23.010000,0.191895,0.981201,-0.081299,-11.848449,-2.532959,-1.731872,1.0030895377916171
0 days 00:01:23.020000,0.200195,0.993896,-0.084229,-14.503478,-4.173279,0.938415,1.0173503925796656
0 days 00:01:23.030000,0.196045,0.998291,-0.068359,-12.939452,-1.747131,-0.816345,1.0196526445741216
0 days 00:01:23.040000,0.172119,1.004639,-0.108643,-13.458251,-3.097534,0.62561,1.0250501314233367
0 days 00:01:23.050000,0.282715,1.043945,-0.104492,-1.12915,-0.679016,0.740051,1.0865852531274294
0 days 00:01:23.060000,0.142578,1.008545,-0.094238,-6.637573,15.052794,-0.808716,1.0229234105019789
0 days 00:01:23.070000,0.191895,0.985596,-0.082031,-11.352538,-2.975464,-1.541138,1.0074483863712325
0 days 00:01:23.080000,0.305664,1.005859,-0.073242,21.080015,15.205382,28.785704,1.0538250326031358
0 days 00:01:23.090000,0.306396,1.014893,-0.083252,20.561216,18.90564,27.542112,1.0633988930636518
0 days 00:01:23.100000,0.317627,1.024658,-0.082275,19.889832,22.941587,25.787352,1.0759089662782815
0 days 00:01:23.110000,0.317871,1.033691,-0.081787,18.959045,26.68762,23.330687,1.08454975427179
0 days 00:01:23.120000,0.309082,1.04126,-0.077393,18.333435,29.991148,20.63751,1.088918613475314
0 days 00:01:23.130000,0.303711,1.041748,-0.064697,18.005371,32.897949,17.875671,1.0870441430015616
0 days 00:01:23.140000,0.292236,1.041504,-0.050293,18.280029,34.873962,15.464782,1.082895123066403
0 days 00:01:23.150000,0.279541,1.048096,-0.032471,17.944336,33.843994,13.099669,1.0852201443661098
0 days 00:01:23.160000,0.264404,1.057129,-0.02417,16.227722,28.236387,10.238647,1.0899611858947087
0 days 00:01:23.170000,0.141357,1.013184,-0.106934,-10.795592,3.341675,0.061035,1.0285710960653134
0 days 00:01:23.180000,0.24585,1.071045,-0.047852,11.970519,17.745972,7.507324,1.0999406476846831
0 days 00:01:23.190000,0.258545,1.067139,-0.114502,1.533508,-1.091003,2.563476,1.1039664262784445
0 days 00:01:23.200000,0.287354,1.020752,-0.072266,-2.090454,4.096985,-0.38147,1.0628872666355544
0 days 00:01:23.210000,0.288818,1.00415,-0.056152,-2.052307,11.070251,-1.51062,1.0463680550972492
0 days 00:01:23.220000,0.272461,0.998291,-0.049805,-1.617432,19.27948,-2.082825,1.0360021502038497
0 days 00:01:23.230000,0.254395,0.992676,-0.04834,-0.389099,28.221128,-2.105713,1.0258943476796234
0 days 00:01:23.240000,0.24707,0.987305,-0.046875,0.87738,36.209106,-1.899719,1.0188287459381973
0 days 00:01:23.250000,0.237305,0.982422,-0.040039,1.716614,42.297359,-1.609802,1.011469115015382
0 days 00:01:23.260000,0.226074,0.986084,-0.04541,2.029419,44.319149,-1.602173,1.0126861195019905
0 days 00:01:23.270000,0.196777,0.992432,-0.054932,0.526428,39.520264,-1.647949,1.0132423140478293
0 days 00:01:23.280000,0.164063,0.999023,-0.068848,-2.433777,28.984068,-1.419067,1.0147431544987136
0 days 00:01:23.290000,0.239502,1.071777,-0.081787,6.217956,5.683898,4.898071,1.1012521323938491
0 days 00:01:23.300000,0.194336,0.988037,-0.084961,-11.177062,-3.242492,-1.304626,1.010545380369432
0 days 00:01:23.310000,0.190674,0.990234,-0.085693,-11.039733,-3.486633,-1.068115,1.0120589109735658
0 days 00:01:23.320000,0.188477,0.990234,-0.088135,-10.795592,-3.883362,-0.87738,1.0118570711864399
0 days 00:01:23.330000,0.192139,0.992676,-0.114502,-3.593445,-2.616882,-0.801086,1.017562648833476
0 days 00:01:23.340000,0.195313,0.991211,-0.117188,-3.257751,-2.700805,-0.839233,1.017044464039798
0 days 00:01:23.350000,0.194336,0.990967,-0.117188,-3.044128,-2.693176,-0.854492,1.0166194486281481
0 days 00:01:23.360000,0.195068,0.98999,-0.11792,-2.738952,-2.586365,-0.869751,1.0158921454189909
0 days 00:01:23.370000,0.192871,0.989014,-0.120361,-2.441406,-2.548218,-0.740051,1.0148077084640224
0 days 00:01:23.380000,0.194824,0.989258,-0.119385,-2.075195,-2.349854,-0.686645,1.0153031861296407
0 days 00:01:23.390000,0.195801,0.990967,-0.119873,-1.708984,-2.059937,-0.63324,1.0172134303178462
0 days 00:01:23.400000,0.197266,0.992676,-0.120605,-1.502991,-1.953125,-0.518799,1.0192473113808052
0 days 00:01:23.410000,0.199463,0.991699,-0.121094,-1.274109,-1.846313,-0.526428,1.0187816997796928
0 days 00:01:23.420000,0.198242,0.993652,-0.119141,-1.045227,-1.846313,-0.549316,1.0202150584798284
0 days 00:01:23.430000,0.193359,0.99292,-0.115234,-3.65448,-2.326965,-0.823975,1.0181142882982244
0 days 00:01:23.440000,0.20166,0.996094,-0.122803,-0.816345,-1.686096,-0.556946,1.0236945781066735
0 days 00:01:23.450000,0.200684,0.995605,-0.125977,-0.534058,-1.091003,-0.671387,1.0234127165567173
0 days 00:01:23.460000,0.200684,0.995117,-0.127441,-0.404358,-0.915527,-0.701904,1.0231193087934565
0 days 00:01:23.470000,0.201172,0.994141,-0.130127,-0.328064,-0.785828,-0.640869,1.0226042917932627
0 days 00:01:23.480000,0.199951,0.992432,-0.127197,-0.274658,-0.640869,-0.63324,1.0203336482905971
0 days 00:01:23.490000,0.19873,0.994141,-0.128906,-0.343323,-0.610352,-0.671387,1.0219719651815309
0 days 00:01:23.500000,0.199463,0.994141,-0.131836,-0.160217,-0.534058,-0.556946,1.022488409296653
0 days 00:01:23.510000,0.199951,0.993652,-0.130371,-0.1297,-0.404358,-0.419617,1.0219203966777453
0 days 00:01:23.520000,0.199219,0.993652,-0.132568,-0.267029,-0.167847,-0.457764,1.0220600675542508
0 days 00:01:23.530000,0.201172,0.99292,-0.132568,-0.305176,0.030518,-0.419617,1.0217311655264314
0 days 00:01:23.540000,0.204346,0.992676,-0.131348,-0.274658,0.12207,-0.434875,1.0219663525752696
0 days 00:01:23.550000,0.201172,0.995117,-0.124512,-0.63324,-1.426697,-0.572205,1.022854464436168
0 days 00:01:23.560000,0.197998,0.994629,-0.114502,-3.768921,-1.831055,-0.709534,1.0205884398958278
0 days 00:01:23.570000,0.203857,0.99292,-0.129639,-0.350952,0.167847,-0.63324,1.0218875051442795
0 days 00:01:23.580000,0.197998,0.991211,-0.114014,-4.096985,-1.51062,-0.320435,1.0172028542631013
0 days 00:01:23.590000,0.187988,0.989746,-0.090576,-10.459899,-3.860473,-0.724792,1.011504149490253
0 days 00:01:23.600000,0.188232,0.987793,-0.092041,-10.261535,-3.768921,-0.732422,1.0097711831667608
0 days 00:01:23.610000,0.188721,0.986816,-0.092773,-10.009766,-3.730774,-0.701904,1.0089738664732602
0 days 00:01:23.620000,0.19043,0.990723,-0.097168,-9.895325,-3.639221,-0.656128,1.013527142139272
0 days 00:01:23.630000,0.19043,0.99292,-0.095703,-9.765625,-3.501892,-0.740051,1.0155357086331334
0 days 00:01:23.640000,0.191406,0.99585,-0.096191,-9.536743,-3.005981,-0.663757,1.0186295635887463
0 days 00:01:23.650000,0.198975,0.993652,-0.113281,-4.020691,-1.64032,-0.556946,1.0196901160107417
0 days 00:01:23.660000,0.190674,0.993164,-0.0979,-8.94165,-2.487183,-0.396728,1.0160293869627985
0 days 00:01:23.670000,0.188721,0.990723,-0.101807,-8.636475,-2.403259,-0.25177,1.0136628353742678
0 days 00:01:23.680000,0.188965,0.989502,-0.101807,-8.270264,-2.052307,-0.030518,1.0125150095075133
0 days 00:01:23.690000,0.190186,0.989014,-0.10083,-7.820129,-1.899719,0.022888,1.0121690054985877
0 days 00:01:23.700000,0.194092,0.997314,-0.098633,-9.185791,-2.593994,-0.434875,1.0208013458793048
0 days 00:01:23.710000,0.189453,0.993408,-0.099121,-7.072448,-2.067566,0.37384,1.016157894381577
0 days 00:01:23.720000,0.187744,0.993408,-0.097168,-6.767272,-2.220154,0.442505,1.015651950337319
0 days 00:01:23.730000,0.187988,0.98999,-0.097656,-6.393432,-2.410889,0.579834,1.01240129522833
0 days 00:01:23.740000,0.188965,0.98999,-0.099121,-5.989074,-2.578735,0.663757,1.0127255027725923
0 days 00:01:23.750000,0.189453,0.98877,-0.104248,-5.638122,-2.655029,0.671387,1.012139416094937
0 days 00:01:23.760000,0.189697,0.987793,-0.105957,-5.348205,-2.754211,0.526428,1.0114083490395953
0 days 00:01:23.770000,0.192383,0.991699,-0.106689,-4.844666,-2.510071,0.411987,1.015805428224815
0 days 00:01:23.780000,0.196289,0.991211,-0.10791,-4.501343,-2.075195,0.350952,1.0162052874011236
0 days 00:01:23.790000,0.196777,0.989258,-0.108398,-4.379272,-1.770019,0.076294,1.0144469945231245
0 days 00:01:23.800000,0.19751,0.992188,-0.111084,-4.180908,-1.594543,-0.091553,1.0177361556415296
0 days 00:01:23.810000,0.190918,0.991455,-0.099854,-7.461547,-1.976013,0.106812,1.0145952498730713
0 days 00:01:23.820000,0.864746,0.358643,0.097168,2.204895,-3.303528,139.724731,0.941197145229946
0 days 00:01:23.830000,0.850098,0.345215,0.093262,-3.105163,-3.440857,139.419556,0.922246066119558
0 days 00:01:23.840000,0.861816,0.321289,0.09082,-7.438659,-3.089905,138.053894,0.9242303348067515
0 days 00:01:23.850000,0.864258,0.299805,0.090576,-11.650084,-3.051758,137.252808,0.9192545568910714
0 days 00:01:23.860000,0.868408,0.22583,0.032959,-23.780821,-10.643004,127.998344,0.8978963966098761
0 days 00:01:23.870000,0.842041,0.255127,0.102295,-18.882751,-3.738403,133.750916,0.8857692130769731
0 days 00:01:23.880000,0.851318,0.231689,0.099365,-21.240232,-5.180358,130.332947,0.88786008642691
0 days 00:01:23.890000,0.876221,0.216064,0.062744,-23.185728,-7.492065,128.097534,0.9046456225909679
0 days 00:01:23.900000,0.849365,0.279541,0.091064,-15.434264,-2.738952,135.787964,0.8988085035211895
0 days 00:01:23.910000,0.87207,0.363281,0.085205,8.056641,-2.044678,140.441895,0.9485457616193328
0 days 00:01:23.920000,0.889404,0.714111,-0.069336,54.168697,40.290829,145.149231,1.142716708739747
0 days 00:01:23.930000,0.887207,0.375244,0.026123,19.203186,10.215758,142.173767,0.9636528065200661
0 days 00:01:23.940000,0.88916,0.404541,0.004395,23.597715,18.669128,144.683838,0.9768716611234046
0 days 00:01:23.950000,0.899658,0.451172,-0.007813,27.06909,26.664732,147.247314,1.0064798723854342
0 days 00:01:23.960000,0.918213,0.493896,-0.032715,30.334471,32.684326,148.345947,1.043129255370589
0 days 00:01:23.970000,0.923584,0.52124,-0.05835,33.416748,36.598206,148.826599,1.062122057560241
0 days 00:01:23.980000,0.919434,0.544678,-0.063232,37.811279,40.756222,148.864746,1.0705285095988804
0 days 00:01:23.990000,0.903564,0.574951,-0.050537,42.205807,44.509884,148.147583,1.0721709485273325
0 days 00:01:24,0.867676,0.609619,-0.041504,46.028133,45.181271,147.773743,1.061234916572669
0 days 00:01:24.010000,0.845703,0.642334,-0.03833,49.674984,43.586727,147.666931,1.0626738543245524
0 days 00:01:24.020000,0.865479,0.67627,-0.050781,52.680965,41.648861,146.896362,1.099533411180397
0 days 00:01:24.030000,0.837646,0.237305,0.015381,-22.605894,-13.320922,128.326416,0.8707474142953282
0 days 00:01:24.040000,0.880127,0.360352,0.057373,14.022826,2.63977,140.892029,0.9527689967468506
0 days 00:01:24.050000,0.814453,0.227295,0.014893,-20.729063,-13.938903,127.212517,0.8457059226959451
0 days 00:01:24.060000,0.73999,0.054932,-0.116943,13.290404,3.456115,94.863884,0.7511846577060796
0 days 00:01:24.070000,0.805176,0.1875,0.041016,-18.249512,-6.965637,126.708977,0.827736040795615
0 days 00:01:24.080000,0.893311,0.737061,-0.093018,53.993221,40.328976,143.318176,1.161858773158769
0 days 00:01:24.090000,0.779297,-0.360107,0.559082,-52.62756,15.678405,40.214535,1.0244772073511446
0 days 00:01:24.100000,0.791504,-0.255127,0.339844,-37.788391,17.372131,44.082638,0.8983664689206737
0 days 00:01:24.110000,0.790283,-0.197266,0.20166,-28.015135,16.311646,47.447201,0.8391232629625995
0 days 00:01:24.120000,0.787598,-0.185791,0.158203,-19.714355,11.367797,49.621578,0.8245344713800631
0 days 00:01:24.130000,0.768555,-0.171143,0.144531,-11.924743,6.980896,53.184505,0.800534774032334
0 days 00:01:24.140000,0.779541,-0.148438,0.116699,-3.723144,7.743835,57.395931,0.8020827059137979
0 days 00:01:24.150000,0.776367,-0.123047,0.079102,3.723144,12.985229,62.515255,0.7900274737640458
0 days 00:01:24.160000,0.76001,-0.091064,0.021484,10.086059,20.355223,69.107056,0.7657476179865008
0 days 00:01:24.170000,0.760254,-0.044189,-0.026611,14.48059,27.618406,74.501038,0.7620019406523845
0 days 00:01:24.180000,0.815674,0.204834,0.03125,-19.088745,-11.123656,126.029961,0.8415804205968673
0 days 00:01:24.190000,0.738037,-0.001709,-0.074707,16.426086,29.617308,79.627991,0.7418104002364756
0 days 00:01:24.200000,0.726807,0.043213,-0.111084,15.808105,15.571593,89.630119,0.7365157389180491
0 days 00:01:24.210000,0.761475,0.060547,-0.102783,9.910583,-8.529663,99.678032,0.7707622590157097
0 days 00:01:24.220000,0.790039,0.062012,-0.090332,6.752014,-17.250061,103.179924,0.7976007647244329
0 days 00:01:24.230000,0.800049,0.076904,-0.098877,3.364563,-21.759031,106.445305,0.8097958315192787
0 days 00:01:24.240000,0.799561,0.09668,-0.116699,-0.572205,-20.347593,110.29052,0.8137957186677748
0 days 00:01:24.250000,0.809082,0.11499,-0.131348,-5.432128,-13.603209,113.990776,0.8277008396322914
0 days 00:01:24.260000,0.808838,0.131592,-0.122559,-10.612487,-5.088806,117.34771,0.8285867927917991
0 days 00:01:24.270000,0.787598,0.140381,-0.064697,-14.938354,-0.38147,120.513908,0.8026226613882765
0 days 00:01:24.280000,0.7771,0.150635,0.010986,-16.731262,-0.564575,123.687737,0.791641336351886
0 days 00:01:24.290000,0.785645,0.17334,0.045898,-17.51709,-3.242492,126.15966,0.805848278541935
0 days 00:01:24.300000,0.721436,0.026611,-0.105225,16.822815,25.077818,84.671013,0.7295548972092505
0 days 00:01:24.310000,0.901367,0.745605,-0.133301,53.840633,41.351315,139.755249,1.177352301273922
0 days 00:01:24.320000,0.877686,0.761963,-0.165771,52.459713,41.229244,135.124207,1.1740529597961074
0 days 00:01:24.330000,0.856445,0.777832,-0.171143,49.514767,40.168758,130.752563,1.1695343452408742
0 days 00:01:24.340000,0.306641,0.973877,-0.074951,19.91272,25.390623,24.108885,1.0237591349585118
0 days 00:01:24.350000,0.302734,0.977783,-0.095947,16.838074,12.847899,21.64459,1.0280628855541862
0 days 00:01:24.360000,0.320557,0.97583,-0.100342,14.236449,6.004333,19.546509,1.032022042455005
0 days 00:01:24.370000,0.338623,0.966553,-0.067627,13.412475,4.638672,17.738342,1.026383772799921
0 days 00:01:24.380000,0.327881,0.962158,-0.033203,14.389037,5.149841,16.731262,1.0170331392506342
0 days 00:01:24.390000,0.304932,0.962158,-0.017578,15.876769,5.615234,16.868591,1.0094753724940495
0 days 00:01:24.400000,0.292969,0.964844,-0.015381,16.792297,5.264282,17.036438,1.0084598923397996
0 days 00:01:24.410000,0.275635,0.97168,-0.022461,17.448425,3.913879,17.662048,1.0102678714806286
0 days 00:01:24.420000,0.275391,0.975586,-0.032471,17.593384,1.937866,18.226624,1.0142300587726634
0 days 00:01:24.430000,0.282715,0.97583,-0.035645,17.50946,0.656128,18.760681,1.0165837526490378
0 days 00:01:24.440000,0.344238,0.974121,-0.060303,22.300718,39.093018,27.19116,1.0349144771883325
0 days 00:01:24.450000,0.282227,0.977539,-0.041016,17.303467,-0.923157,19.165039,1.0182911608700136
0 days 00:01:24.460000,0.260254,0.976563,-0.047607,16.189575,-4.524231,20.874022,1.0117676926715935
0 days 00:01:24.470000,0.257324,0.974609,-0.05249,15.411376,-6.752014,21.980284,1.0093728468494683
0 days 00:01:24.480000,0.252686,0.971436,-0.050049,15.228271,-8.43811,23.300169,1.0050089646829026
0 days 00:01:24.490000,0.257568,0.976563,-0.043945,15.3656,-9.33075,24.391172,1.0109143042899333
0 days 00:01:24.500000,0.250244,0.979492,-0.039307,15.708922,-9.819031,25.619505,1.0117171926230175
0 days 00:01:24.510000,0.245605,0.981445,-0.040283,15.983581,-10.581969,26.863096,1.012511147661595
0 days 00:01:24.520000,0.246094,0.979004,-0.038086,16.876221,-9.910583,28.541563,1.0101790100016925
0 days 00:01:24.530000,0.278809,0.982666,-0.037354,18.432617,-5.889892,29.487608,1.0221361197771068
0 days 00:01:24.540000,0.286133,0.987061,-0.042969,19.91272,-0.518799,29.991148,1.0285950837773823
0 days 00:01:24.550000,0.291016,0.989502,-0.05249,20.774839,3.974914,30.151365,1.0327437825327248
0 days 00:01:24.560000,0.270752,0.974854,-0.045166,16.853333,-2.334595,19.897461,1.012762032451849
0 days 00:01:24.570000,0.384033,0.983887,-0.049072,23.529051,48.126217,30.899046,1.057318795369684
0 days 00:01:24.580000,0.312012,0.994873,-0.064209,21.331785,10.06317,29.640196,1.044627479034512
0 days 00:01:24.590000,0.407715,0.970703,-0.050781,22.041319,47.248837,36.6745,1.05407520860468
0 days 00:01:24.600000,0.812256,0.791504,-0.15918,46.859737,41.725155,127.845757,1.1452408759523036
0 days 00:01:24.610000,0.773438,0.809082,-0.130859,44.883724,46.554562,125.747673,1.1269179652703207
0 days 00:01:24.620000,0.754395,0.827393,-0.094482,43.884274,52.322384,123.283379,1.1236626899554867
0 days 00:01:24.630000,0.737305,0.848633,-0.083252,43.869015,55.168148,120.330803,1.1272655087502677
0 days 00:01:24.640000,0.723877,0.872559,-0.089355,43.937679,53.298946,116.500847,1.1372517028499012
0 days 00:01:24.650000,0.70166,0.891357,-0.11499,42.572018,45.158382,113.052361,1.1402046996697566
0 days 00:01:24.660000,0.404541,0.980225,-0.044189,23.483274,49.858089,34.095764,1.061342140417971
0 days 00:01:24.670000,0.734131,0.897217,-0.169434,39.291382,25.993345,99.616997,1.1716034101205066
0 days 00:01:24.680000,0.73584,0.884766,-0.175781,37.918091,21.369932,92.475883,1.1641178378141106
0 days 00:01:24.690000,0.709717,0.890137,-0.147217,37.513733,22.895811,89.263908,1.1479176555602757
0 days 00:01:24.700000,0.681152,0.914307,-0.115234,37.330627,31.799314,87.921135,1.1459512258857267
0 days 00:01:24.710000,0.712402,0.89917,-0.144287,40.924068,34.721375,107.658379,1.1562188533634106
0 days 00:01:24.720000,0.673584,0.943604,-0.088867,37.597656,60.218807,83.480827,1.1627558890674343
0 days 00:01:24.730000,0.643555,0.95459,-0.066162,38.017273,72.090149,80.177307,1.1531619644997835
0 days 00:01:24.740000,0.615234,0.963623,-0.05249,39.199829,80.116272,76.026917,1.1444812628370111
0 days 00:01:24.750000,0.570557,0.978516,-0.054443,39.489746,81.764214,70.770264,1.134016266529718
0 days 00:01:24.760000,0.519531,0.996582,-0.080811,36.2854,75.172424,65.77301,1.1267735177958345
0 days 00:01:24.770000,0.493164,0.996582,-0.118408,32.302856,64.537048,60.012814,1.1182159308845496
0 days 00:01:24.780000,0.48877,0.99707,-0.148926,28.038023,55.351254,53.169247,1.1203676411232164
0 days 00:01:24.790000,0.478027,0.991943,-0.155518,23.895262,48.629757,46.691891,1.112046121481479
0 days 00:01:24.800000,0.445557,0.981445,-0.125488,20.996092,44.586178,41.816708,1.0851279032528838
0 days 00:01:24.810000,0.416016,0.971924,-0.072998,20.729063,44.410702,39.077759,1.0597331183066803
0 days 00:01:24.820000,0.683105,0.929199,-0.102539,37.467957,45.539852,85.746758,1.157824455237926
0 days 00:01:24.830000,0.997559,-0.164795,-0.611572,94.001762,-72.532654,-0.106812,1.181652089952876
0 days 00:01:24.840000,0.89917,-0.082031,-0.708252,115.95153,-77.850342,0.747681,1.1475437548803966
0 days 00:01:24.850000,0.890381,-0.094727,-0.756836,138.397217,-79.185486,-0.1297,1.1724130076837258
0 days 00:01:24.860000,0.85083,-0.149658,-0.702881,152.999878,-80.566399,-0.228882,1.11371042287706
0 days 00:01:24.870000,0.691406,-0.527344,-0.070313,147.689819,-10.223388,-7.873535,0.8723977700229408
0 days 00:01:24.880000,0.752686,-0.307617,-0.392822,163.513168,-55.946346,-4.150391,0.9030357451225283
0 days 00:01:24.890000,0.732178,-0.415527,-0.259766,162.437424,-36.735535,-5.203247,0.8810367110223046
0 days 00:01:24.900000,0.723389,-0.498779,-0.157227,156.692505,-21.926878,-7.17926,0.8926323239111387
0 days 00:01:24.910000,0.794434,-0.209473,-0.55542,160.316467,-73.616028,-2.510071,0.9917135143200378
0 days 00:01:24.920000,1.150146,-0.262451,-0.436768,78.994751,-56.831356,-4.814148,1.2579676603716805
0 days 00:01:24.930000,0.107422,-0.088867,0.951416,-27.549742,-130.584717,20.423887,0.9615764321305925
0 days 00:01:24.940000,0.957031,-0.26709,-0.224365,56.198116,-26.329039,-12.771605,1.0186191910061384
0 days 00:01:24.950000,0.811035,-0.248047,-0.437744,40.794369,-23.79608,-18.043518,0.9544238549879188
0 days 00:01:24.960000,0.8125,-0.177002,-0.800049,20.591734,-27.557371,-27.122496,1.1539342963986294
0 days 00:01:24.970000,0.788818,0.019287,-1.117432,-10.719298,-38.757324,-35.125732,1.3679400937603226
0 days 00:01:24.980000,0.669434,0.200195,-1.21875,-41.709896,-51.017757,-26.489256,1.4048385960248244
0 days 00:01:24.990000,0.808838,0.308838,-1.081299,-59.837337,-34.141541,-16.067505,1.3852102179413057
0 days 00:01:25,1.015381,-0.086914,-0.795166,-56.793209,23.803709,-5.599975,1.2926103767620776
0 days 00:01:25.010000,0.828857,-0.940186,-0.603027,-39.749146,100.128166,18.676758,1.3908972657151928
0 days 00:01:25.020000,0.447754,-1.432373,-0.406982,-45.471188,81.130974,-13.290404,1.5549309965297495
0 days 00:01:25.030000,-0.297852,-1.485596,0.307129,-17.524719,-65.361023,-26.741026,1.5459752623379843
0 days 00:01:25.040000,0.666016,-0.526611,0.028809,137.626648,0.358582,-7.347106,0.8495448287512555
0 days 00:01:25.050000,1.116211,-0.278809,-0.276855,68.717957,-36.613464,-9.277344,1.1833470099793215
0 days 00:01:25.060000,0.657959,-0.571533,0.146484,125.823967,8.995056,-6.347656,0.88375198897994
0 days 00:01:25.070000,0.69043,-0.677246,0.533203,-40.863033,-7.92694,-2.738952,1.1043827093109526
0 days 00:01:25.080000,0.625244,-0.704346,0.275391,95.474236,5.981445,-6.759643,0.9812612038254647
0 days 00:01:25.090000,1.404297,2.289551,-1.172119,6.057739,-57.022091,22.048948,2.930521591111555
0 days 00:01:25.100000,1.302246,0.644531,-0.090088,-5.859375,-59.288021,4.844666,1.4558092945921866
0 days 00:01:25.110000,1.407715,2.787109,-3.87207,-30.487059,36.888123,1.579285,4.974189801767319
0 days 00:01:25.120000,0.865967,2.73584,-6.941406,-165.969833,95.405571,42.022701,7.51118077318906
0 days 00:01:25.130000,1.188477,-0.193848,0.22998,-249.80925,62.744137,35.888672,1.225946747225588
0 days 00:01:25.140000,1.14209,-0.330566,0.554932,-249.992355,69.869995,20.507811,1.3120948796028433
0 days 00:01:25.150000,1.018799,-0.450928,0.718018,-242.37822,80.505363,13.336181,1.3254573972440609
0 days 00:01:25.160000,0.954102,-0.541504,0.821533,-204.620346,90.782158,9.040833,1.370566918654102
0 days 00:01:25.170000,0.88501,-0.615479,0.810059,-165.611252,94.390862,5.966186,1.3484260020564718
0 days 00:01:25.180000,0.820313,-0.650879,0.74292,-131.04248,91.339104,5.531311,1.2839341949687297
0 days 00:01:25.190000,0.642334,-0.648926,0.226074,111.488335,11.611938,-5.332946,0.9406420012459575
0 days 00:01:25.200000,0.787109,-0.660156,0.691162,-101.799004,81.817619,6.149292,1.2381645417556586
0 days 00:01:25.210000,0.694336,-0.682861,0.584717,-59.539791,27.816771,3.128052,1.135911790724086
0 days 00:01:25.220000,0.688965,-0.626465,0.404541,-25.535582,-35.339355,-8.590698,1.0152756217554917
0 days 00:01:25.230000,0.677246,-0.599121,0.311768,-13.626098,-51.254269,-12.435912,0.9564556461127719
0 days 00:01:25.240000,0.666748,-0.612305,0.289795,-3.601074,-56.999203,-14.938354,0.9505006315379281
0 days 00:01:25.250000,0.644531,-0.655518,0.310791,7.026672,-57.853695,-16.555786,0.9704200657272086
0 days 00:01:25.260000,0.611328,-0.702881,0.353027,19.767761,-55.252071,-17.089844,0.9961885797749339
0 days 00:01:25.270000,0.607178,-0.732666,0.378662,34.347534,-49.415585,-17.539978,1.0241335369393973
0 days 00:01:25.280000,0.618408,-0.741211,0.373535,49.018856,-39.482117,-17.524719,1.0350606732023007
0 days 00:01:25.290000,0.624756,-0.731201,0.349121,64.483643,-24.208067,-15.182494,1.0231619786612478
0 days 00:01:25.300000,0.620605,-0.722656,0.315674,79.872131,-7.232666,-10.650634,1.0035100072430767
0 days 00:01:25.310000,0.733398,-0.663818,0.648682,-78.872681,60.997005,6.439209,1.1829265829509454
0 days 00:01:25.320000,1.802979,3.990723,-7.523682,-68.260193,106.750481,42.556759,8.70530839053356
0 days 00:01:25.330000,1.201904,0.233887,-1.491211,-246.955856,100.112907,44.479366,1.9295042369753947
0 days 00:01:25.340000,0.672363,-0.387695,0.716553,-249.992355,81.367485,47.264095,1.0563274201699964
0 days 00:01:25.350000,0.936768,-0.222656,-0.219971,70.030212,-50.86517,-5.15747,0.987672628455907
0 days 00:01:25.360000,0.833496,-0.243896,-0.334229,62.782284,-44.219967,-6.271362,0.9305427799263181
0 days 00:01:25.370000,0.718994,-0.23291,-0.583008,48.423763,-43.334957,-7.164001,0.9545144148728191
0 days 00:01:25.380000,0.703857,-0.181885,-0.875732,26.969908,-44.80743,-7.400512,1.1381578825004903
0 days 00:01:25.390000,0.780762,-0.057129,-1.073975,0.091553,-46.836849,-11.070251,1.3290129133721762
0 days 00:01:25.400000,0.782227,0.071045,-1.003174,-23.28491,-50.491329,-13.633727,1.2740818442431399
0 days 00:01:25.410000,0.793457,0.146729,-0.719727,-39.115906,-46.836849,-19.454956,1.08125407042887
0 days 00:01:25.420000,0.829346,-0.209717,-0.395996,-39.909363,-17.822266,-3.761291,0.9426605114361162
0 days 00:01:25.430000,0.75708,-0.905518,-0.19873,-17.501831,51.307674,52.185055,1.1969238019289283
0 days 00:01:25.440000,0.720459,-1.276855,-0.12793,-6.698608,61.462399,26.481627,1.471660948250649
0 days 00:01:25.450000,0.943848,-0.220703,-0.18042,74.447632,-67.672729,-8.895874,0.9859565090372902
0 days 00:01:25.460000,0.203125,-1.311279,0.733887,16.403198,-52.955624,-3.196716,1.5163451158080736
0 days 00:01:25.470000,1.126221,2.027344,-1.481445,44.517513,-33.332825,21.77429,2.7519405377300576
0 days 00:01:25.480000,0.713867,3.8396,-7.37207,-46.440121,54.038998,60.928341,8.342634496284072
0 days 00:01:25.490000,1.245117,0.359131,-1.981689,-236.251816,29.029844,61.508175,2.3677801231472064
0 days 00:01:25.500000,0.938232,-0.23584,0.396729,-244.491562,15.411376,56.28204,1.045606852916047
0 days 00:01:25.510000,1.047852,-0.192383,0.416748,-229.843124,16.029358,46.562191,1.1439772410747515
0 days 00:01:25.520000,1.070557,-0.168213,0.426758,-212.646469,16.052246,34.713745,1.1646932189130321
0 days 00:01:25.530000,0.967041,-0.219482,0.509033,-192.321762,13.458251,26.199339,1.1146547622892031
0 days 00:01:25.540000,0.837646,-0.337891,0.635498,-167.465195,9.780884,22.949217,1.1043907176361996
0 days 00:01:25.550000,0.75415,-0.465088,0.782959,-135.658264,6.156921,24.826048,1.1824017362660628
0 days 00:01:25.560000,0.742432,-0.50415,0.846191,-102.371208,7.415771,30.235289,1.2334551899461121
0 days 00:01:25.570000,0.305176,-0.213867,1.393066,26.962278,-96.870415,35.835266,1.4420486694356054
0 days 00:01:25.580000,1.110107,-0.286621,-0.220703,77.003479,-90.263359,-18.157959,1.1675611175861416
0 days 00:01:25.590000,0.766113,-0.455322,0.740967,-74.073792,12.046813,35.469055,1.158999287118849
0 days 00:01:25.600000,1.135986,-0.292236,-0.453369,81.695549,-110.008232,-5.027771,1.2575410617761154
0 days 00:01:25.610000,0.672607,-0.531982,0.895264,-234.985336,67.237854,47.950741,1.2397187803969898
0 days 00:01:25.620000,0.656982,-0.624268,0.958496,-200.210556,53.352352,48.629757,1.3191097248386883
0 days 00:01:25.630000,0.643311,-0.676025,0.936035,-167.121872,41.778561,51.292416,1.3217489794098576
0 days 00:01:25.640000,0.672119,-0.692627,0.882568,-136.726379,36.277771,54.183956,1.3078235301117656
0 days 00:01:25.650000,0.720459,-0.696533,0.810547,-110.191338,33.416748,53.25317,1.288877740508773
0 days 00:01:25.660000,0.7146,-0.717041,0.74292,-87.051384,26.046751,51.132198,1.2556795300079555
0 days 00:01:25.670000,1.220215,-0.299072,-0.34082,78.025818,-104.660027,-14.289855,1.3017399816434156
0 days 00:01:25.680000,0.723145,-0.797607,0.728516,-38.742065,-2.983093,44.197079,1.2999427601744624
0 days 00:01:25.690000,0.759277,-0.807617,0.702637,-13.374328,-16.143799,39.916992,1.3124197252354142
0 days 00:01:25.700000,0.782715,-0.78125,0.631348,10.627746,-23.750303,35.568237,1.273418482208029
0 days 00:01:25.710000,0.776855,-0.73584,0.506348,31.829832,-26.657103,31.570433,1.1837873515665727
0 days 00:01:25.720000,0.714844,-0.76001,0.731445,-63.522335,12.641906,48.065182,1.274216987981639
0 days 00:01:25.730000,0.757813,-0.673584,0.222656,64.674377,-13.771056,25.657652,1.0380614829387516
0 days 00:01:25.740000,0.748535,-0.671875,0.131104,76.759338,-2.677917,24.42169,1.0143514778744103
0 days 00:01:25.750000,0.776611,-0.687744,0.077148,88.546745,7.591247,22.300718,1.0402251048503877
0 days 00:01:25.760000,0.838135,-0.679688,0.029785,100.700371,15.541076,19.515991,1.079505998961562
0 days 00:01:25.770000,0.908936,-0.614746,-0.0354,111.152641,17.791748,16.067505,1.0978754285491594
0 days 00:01:25.780000,0.959717,-0.505127,-0.149902,117.103569,10.665893,10.780334,1.0948427356575008
0 days 00:01:25.790000,0.992188,-0.390869,-0.311279,117.97332,-8.361816,4.768372,1.1109051347194323
0 days 00:01:25.800000,1.015869,-0.287354,-0.481689,113.319389,-37.162781,0.976562,1.1604251114130544
0 days 00:01:25.810000,1.034668,-0.239014,-0.592285,102.60009,-69.496155,-2.662658,1.2159223180964316
0 days 00:01:25.820000,1.073242,-0.253906,-0.576904,90.49987,-97.373955,-4.920959,1.2446424677858297
0 days 00:01:25.830000,0.765869,-0.699219,0.361084,49.842831,-23.376463,28.091429,1.0981093707723288
0 days 00:01:25.840000,0.510986,1.073975,-0.262695,-50.109859,-18.783569,-183.738693,1.2180056058352111
0 days 00:01:25.850000,0.496338,1.104492,-0.241211,-51.650997,-13.931273,-181.068405,1.234680823058737
0 days 00:01:25.860000,0.48999,1.12915,-0.228516,-52.391048,-7.835388,-178.077682,1.2519143280815985
0 days 00:01:25.870000,0.490723,1.141357,-0.232178,-52.818295,-2.380371,-173.538193,1.2638874506307909
0 days 00:01:25.880000,0.483887,1.139648,-0.259521,-47.485348,0.152588,-133.972168,1.2650278029015805
0 days 00:01:25.890000,0.476074,1.158203,-0.246338,-53.054806,3.448486,-160.85051,1.2762300156825181
0 days 00:01:25.900000,0.478027,1.165283,-0.258057,-51.834103,4.356384,-153.213501,1.2856856917874602
0 days 00:01:25.910000,0.482666,1.157471,-0.264893,-49.385067,3.40271,-144.302368,1.2817464198686104
0 days 00:01:25.920000,0.483154,1.150391,-0.237061,-53.207394,1.037598,-167.411789,1.2700532108214992
0 days 00:01:25.930000,0.521729,1.045898,-0.285156,-48.21014,-22.254942,-186.508163,1.2030867467398183
0 days 00:01:25.940000,0.70166,0.640137,-0.339844,-29.800413,-3.532409,-192.893967,1.0087596734133457
0 days 00:01:25.950000,0.550781,1.00708,-0.325684,-45.326229,-25.657652,-190.483078,1.1931638211984974
0 days 00:01:25.960000,0.576172,0.983154,-0.325195,-44.342037,-25.253294,-191.619858,1.185039134090094
0 days 00:01:25.970000,0.602295,0.953369,-0.311279,-43.502804,-23.849485,-192.649826,1.169857398586255
0 days 00:01:25.980000,0.638672,0.917725,-0.286133,-42.060848,-21.888731,-192.581161,1.154120094659997
0 days 00:01:25.990000,0.688965,0.885742,-0.275146,-39.138794,-18.859863,-191.986069,1.1553860753466783
0 days 00:01:26,0.744141,0.849854,-0.281006,-35.736084,-13.984679,-192.687973,1.1640283592907004
0 days 00:01:26.010000,0.773438,0.804443,-0.296387,-33.39386,-9.536743,-195.648178,1.1546341991565987
0 days 00:01:26.020000,0.745361,0.747803,-0.315674,-31.974791,-8.369446,-198.226913,1.1020083581379954
0 days 00:01:26.030000,0.69458,0.699219,-0.33252,-30.929564,-8.880615,-197.875961,1.040152939120493
0 days 00:01:26.040000,0.679199,0.667725,-0.343018,-30.082701,-7.385253,-195.510849,1.012338533075769
0 days 00:01:26.050000,0.480957,1.120605,-0.251221,-46.058651,-4.234314,-122.421257,1.2450651359326548
0 days 00:01:26.060000,0.536865,1.025146,-0.310303,-46.432491,-24.467466,-188.888535,1.198096949895959
0 days 00:01:26.070000,0.479492,1.102295,-0.23999,-44.81506,-9.33075,-109.78698,1.22579037571234
0 days 00:01:26.080000,0.33374,1.057861,-0.148438,-47.798153,-80.879204,15.731811,1.1191452643714308
0 days 00:01:26.090000,0.453613,1.070313,-0.218506,-42.282101,-21.743773,-82.900993,1.1828269289181745
0 days 00:01:26.100000,0.734131,0.621826,-0.310547,-30.128477,1.327515,-190.093979,1.0109675260096143
0 days 00:01:26.110000,-0.047119,0.977539,-0.380371,-21.530149,-55.160519,25.039671,1.0499927591764622
0 days 00:01:26.120000,0.061523,0.967041,-0.326416,-25.604246,-53.100582,31.364439,1.0224973253099492
0 days 00:01:26.130000,0.135498,0.957031,-0.272705,-29.182432,-49.407955,35.629272,1.0043087473431664
0 days 00:01:26.140000,0.175049,0.940674,-0.236816,-30.265806,-46.310421,38.574219,0.9856934333417262
0 days 00:01:26.150000,0.235107,0.946777,-0.211914,-31.249998,-44.044491,39.916992,0.9982832927451005
0 days 00:01:26.160000,0.30249,0.955078,-0.171143,-31.646727,-42.602535,38.108826,1.016348420883803
0 days 00:01:26.170000,0.316895,0.971191,-0.157715,-32.440186,-43.594357,35.263062,1.0336868097886323
0 days 00:01:26.180000,0.307373,1.001709,-0.161377,-33.905029,-47.935482,32.325745,1.0601611282908838
0 days 00:01:26.190000,0.294189,1.032715,-0.163818,-36.422729,-55.541988,29.563902,1.0862245514027014
0 days 00:01:26.200000,0.469482,1.084961,-0.229736,-43.540951,-15.480041,-96.42791,1.20429745060803
0 days 00:01:26.210000,0.287109,1.059326,-0.163086,-39.527893,-65.162659,27.221678,1.1095946086535389
0 days 00:01:26.220000,0.315918,1.069824,-0.156982,-45.783993,-79.444885,20.462034,1.126486094909298
0 days 00:01:26.230000,0.366943,1.035889,-0.137695,-48.057552,-76.820374,9.803772,1.107552752059693
0 days 00:01:26.240000,0.39209,1.018066,-0.124756,-47.096249,-67.955017,2.609253,1.098069673559925
0 days 00:01:26.250000,0.391846,1.004395,-0.106201,-44.898983,-57.991024,-5.065917,1.083342630999999
0 days 00:01:26.260000,0.394043,1.001953,-0.101563,-41.709896,-49.079891,-13.305663,1.0814318023005427
0 days 00:01:26.270000,0.393555,1.007813,-0.118652,-39.230347,-42.007442,-22.3999,1.08841668404063
0 days 00:01:26.280000,0.392578,1.018311,-0.144043,-38.597107,-37.42218,-32.791138,1.1008283992766539
0 days 00:01:26.290000,0.398193,1.029785,-0.169434,-39.039612,-34.53064,-44.364925,1.1170150812903108
0 days 00:01:26.300000,0.410889,1.043457,-0.192139,-40.115356,-31.867979,-56.648251,1.1377827896795594
0 days 00:01:26.310000,0.436279,1.057373,-0.207275,-41.15295,-27.465818,-69.641113,1.162471484637365
0 days 00:01:26.320000,0.290527,1.072998,-0.161377,-42.861935,-74.066162,24.391172,1.1232867763229477
0 days 00:01:26.330000,0.773438,0.599365,-0.258545,-30.303953,4.386902,-187.332138,1.0120722603124739
0 days 00:01:26.340000,0.808838,0.572998,-0.201416,-29.121397,3.173828,-184.204086,1.0114909902238378
0 days 00:01:26.350000,0.845703,0.549072,-0.14624,-27.091978,-2.983093,-181.701645,1.0188619940860488
0 days 00:01:26.360000,0.660645,-0.136963,-0.257568,26.100157,84.243767,-108.863823,0.7221855398843153
0 days 00:01:26.370000,0.616699,-0.163086,-0.220703,27.107237,62.217709,-104.354851,0.6749996401524967
0 days 00:01:26.380000,0.610107,-0.203369,-0.185059,30.59387,39.230347,-99.349968,0.6692057494455648
0 days 00:01:26.390000,0.633789,-0.213623,-0.20459,38.459778,22.178648,-95.756523,0.6994142912108674
0 days 00:01:26.400000,0.632813,-0.175781,-0.26416,47.370907,11.886596,-92.063896,0.7079066029710416
0 days 00:01:26.410000,0.562012,-0.120117,-0.330566,50.178524,2.960205,-83.885185,0.6629928070416752
0 days 00:01:26.420000,0.498291,-0.099854,-0.397949,47.973629,-7.713317,-74.554443,0.6454673877106418
0 days 00:01:26.430000,0.467285,-0.101318,-0.440186,44.425961,-17.410278,-64.193726,0.6499110115585056
0 days 00:01:26.440000,0.505615,-0.133301,-0.427246,40.847775,-20.256041,-55.465694,0.6752442738313299
0 days 00:01:26.450000,0.539551,-0.180908,-0.387207,37.986755,-17.250061,-48.248287,0.6883111555931664
0 days 00:01:26.460000,0.721191,-0.122803,-0.258545,24.848936,101.150505,-111.694328,0.7759140109026258
0 days 00:01:26.470000,0.559814,-0.222168,-0.350098,35.507202,-11.718749,-43.121334,0.6966483649761909
0 days 00:01:26.480000,0.49707,-0.290283,-0.351807,23.094175,-19.340515,-38.040161,0.6746191297598965
0 days 00:01:26.490000,0.427979,-0.347168,-0.379395,13.793944,-30.906675,-31.066893,0.6690532196245677
0 days 00:01:26.500000,0.463135,-0.4021,-0.445801,5.378723,-33.660889,-20.599363,0.75823279395315
0 days 00:01:26.510000,0.635498,-0.360596,-0.570068,-4.989624,-25.230406,-16.914368,0.9267495388960278
0 days 00:01:26.520000,0.751221,-0.171875,-0.699463,-21.530149,-26.000975,-23.696898,1.040731711266165
0 days 00:01:26.530000,0.657959,0.087402,-0.74292,-39.360046,-40.267941,-20.545958,0.9962325439800689
0 days 00:01:26.540000,0.661865,0.247314,-0.698975,-53.199764,-46.508785,-15.022277,0.9938790386390086
0 days 00:01:26.550000,0.733643,-0.27417,-0.495605,-53.939816,-18.440247,-1.678467,0.9268363158476259
0 days 00:01:26.560000,0.66748,-1.392334,-0.113525,-35.690308,28.129576,21.690367,1.548228485586349
0 days 00:01:26.570000,0.544434,-1.774414,0.018066,-30.052183,-9.597778,0.038147,1.8561464931701914
0 days 00:01:26.580000,0.562012,-0.254639,-0.333252,30.960081,-10.711669,-40.863033,0.7012527390099806
0 days 00:01:26.590000,0.748291,-0.104248,-0.238525,25.825499,109.397881,-112.762444,0.7922759884093422
0 days 00:01:26.600000,0.259277,-1.221191,0.293213,-6.866455,-103.507988,2.304077,1.2823828931247483
0 days 00:01:26.610000,0.791992,-0.068359,-0.216797,31.578062,94.291679,-120.124809,0.8239691864105114
0 days 00:01:26.620000,0.879639,0.49585,-0.118164,-23.696898,-11.604308,-180.618271,1.016658607260569
0 days 00:01:26.630000,0.906982,0.402832,-0.118164,-16.838074,-20.545958,-184.646591,0.9994261850902246
0 days 00:01:26.640000,0.883545,0.322998,-0.141602,-8.422852,-30.860899,-189.857468,0.9513309631421654
0 days 00:01:26.650000,0.782959,0.285645,-0.169678,-1.441955,-40.359493,-188.163742,0.8505342352839185
0 days 00:01:26.660000,0.743408,0.260254,-0.170898,4.341125,-43.16711,-183.792099,0.8059737746254526
0 days 00:01:26.670000,0.774658,0.236572,-0.176758,8.979797,-39.863586,-180.091843,0.8290384301779984
0 days 00:01:26.680000,0.769043,-0.081055,-0.225342,28.686522,106.925957,-114.929192,0.8054663654293704
0 days 00:01:26.690000,0.812744,0.199219,-0.188965,16.067505,-26.275633,-171.577438,0.8578745775006974
0 days 00:01:26.700000,0.831299,0.198242,-0.189697,18.043518,-19.790649,-166.282639,0.8754101151883041
0 days 00:01:26.710000,0.858398,0.178467,-0.183105,19.378662,-14.419555,-162.773117,0.8956701611184779
0 days 00:01:26.720000,0.880371,0.120117,-0.173828,22.354124,-11.657714,-165.077194,0.9053713961209511
0 days 00:01:26.730000,0.795898,0.21582,-0.184082,12.619018,-33.691406,-176.002487,0.8449367322634281
0 days 00:01:26.740000,0.745605,0.060547,-0.229248,27.206419,-22.125242,-163.276657,0.782398492290214
0 days 00:01:26.750000,0.717285,0.057617,-0.246338,27.503965,-28.739927,-157.981873,0.7605918091578425
0 days 00:01:26.760000,0.740967,0.04126,-0.248535,27.427671,-33.340454,-153.198242,0.7826264299868745
0 days 00:01:26.770000,0.78418,0.027832,-0.246338,28.19824,-33.699036,-150.787354,0.8224325521694773
0 days 00:01:26.780000,0.823975,0.020996,-0.241211,29.640196,-28.907774,-149.055481,0.8588121908554861
0 days 00:01:26.790000,0.827881,0.014648,-0.223389,31.196592,-18.547058,-145.439148,0.8576153912949557
0 days 00:01:26.800000,0.846436,-0.000977,-0.198242,32.76825,-1.480102,-141.662598,0.869341559566204
0 days 00:01:26.810000,0.86377,-0.030029,-0.184326,34.263611,21.072386,-137.962341,0.8837287072495722
0 days 00:01:26.820000,0.847412,-0.056641,-0.184814,34.820557,46.600338,-132.18689,0.8691786440203189
0 days 00:01:26.830000,0.816406,-0.062256,-0.197998,33.569336,72.532654,-126.106255,0.8423762665080254
0 days 00:01:26.840000,0.835693,0.071777,-0.190674,25.497435,-14.671325,-167.02269,0.860169345102463
0 days 00:01:26.850000,0.249268,1.018066,-0.029297,-1.876831,-20.080564,14.595031,1.0485471998861091
0 days 00:01:26.860000,0.247314,1.008057,-0.028076,-0.915527,-18.028259,15.251159,1.0383310607031844
0 days 00:01:26.870000,0.24585,1.001953,-0.025635,0.1297,-15.647887,15.792846,1.0319928245554812
0 days 00:01:26.880000,0.250488,0.999756,-0.023193,0.900268,-13.824462,16.235352,1.0309191107594233
0 days 00:01:26.890000,0.233887,0.988525,-0.021973,2.113342,-8.354187,16.082764,1.0160549282017188
0 days 00:01:26.900000,0.238525,0.98999,-0.027344,1.869202,-10.963439,16.365051,1.0186864434461667
0 days 00:01:26.910000,0.241699,0.990479,-0.024902,2.220154,-9.750366,16.281128,1.019846638297151
0 days 00:01:26.920000,0.236572,0.98999,-0.023682,2.105713,-9.185791,16.296387,1.0181391596476388
0 days 00:01:26.930000,0.238281,0.991455,-0.026123,1.373291,-12.7182,16.395569,1.0200212071888506
0 days 00:01:26.940000,0.246094,1.019043,-0.031006,-3.028869,-22.994993,13.862609,1.0487956258113398
0 days 00:01:26.950000,0.236328,1.033203,-0.081055,-22.216795,-57.510372,0.671387,1.0629813148959864
0 days 00:01:26.960000,0.227295,1.021973,-0.027588,-5.477905,-32.142639,12.504577,1.0473074655983314
0 days 00:01:26.970000,0.231689,1.026611,-0.031006,-6.530761,-34.950256,11.71112,1.0528871307400427
0 days 00:01:26.980000,0.220703,1.021973,-0.033691,-7.728576,-39.031982,10.993957,1.0460753846731123
0 days 00:01:26.990000,0.225586,1.017578,-0.036133,-9.124756,-43.266293,9.963989,1.0429092113741254
0 days 00:01:27,0.231934,1.017578,-0.043213,-10.543822,-47.035213,8.69751,1.0445696385636527
0 days 00:01:27.010000,0.24292,1.023926,-0.05249,-12.145995,-49.400326,6.973266,1.053655437026735
0 days 00:01:27.020000,0.241455,1.027588,-0.05957,-13.96942,-50.86517,5.546569,1.057254084725616
0 days 00:01:27.030000,0.237549,1.029053,-0.065186,-16.319275,-53.184505,4.257202,1.0581251432633099
0 days 00:01:27.040000,0.236816,1.035645,-0.070068,-18.089294,-55.572506,2.868652,1.064683947707018
0 days 00:01:27.050000,0.248291,1.037842,-0.075684,-19.981384,-56.02264,1.480102,1.0698095650633341
0 days 00:01:27.060000,0.229248,0.985596,-0.026367,2.189636,-6.469726,15.708922,1.0122496428297716
0 days 00:01:27.070000,0.228516,1.015625,-0.029297,-4.379272,-27.679441,13.175963,1.0414278741660412
0 days 00:01:27.080000,0.238037,0.987549,-0.027588,2.082825,-4.730225,15.190124,1.0162065432351832
0 days 00:01:27.090000,0.197998,0.997314,-0.050781,0.015259,-2.861023,4.844666,1.0180457418804914
0 days 00:01:27.100000,0.231934,0.986328,-0.02832,1.525879,-4.356384,14.518737,1.0136263248061388
0 days 00:01:27.110000,0.244141,1.039795,-0.083984,-24.032591,-58.090206,-0.068665,1.0713691157402288
0 days 00:01:27.120000,0.243896,1.002197,-0.097412,9.407043,31.471251,-3.929138,1.0360372499910417
0 days 00:01:27.130000,0.236328,1.002441,-0.10083,8.682251,30.311583,-3.723144,1.034845674951101
0 days 00:01:27.140000,0.226807,1.001465,-0.105713,7.904052,28.83148,-3.463745,1.0322542321749038
0 days 00:01:27.150000,0.213379,1.000977,-0.105225,6.866455,26.672361,-2.983093,1.0288624071249761
0 days 00:01:27.160000,0.205322,1.000977,-0.101318,5.737304,23.887632,-2.471924,1.0268288150110514
0 days 00:01:27.170000,0.198486,0.998535,-0.100586,4.577637,20.591734,-2.02179,1.023028045469429
0 days 00:01:27.180000,0.195068,0.998535,-0.099121,3.517151,16.838074,-1.296997,1.022227295414283
0 days 00:01:27.190000,0.190918,1.00293,-0.094482,2.586365,12.672423,-0.564575,1.0253024509616662
0 days 00:01:27.200000,0.189697,1.004883,-0.083496,1.792908,8.19397,0.167847,1.0260342964608933
0 days 00:01:27.210000,0.242188,0.98877,-0.025879,1.808166,-4.570007,14.831542,1.0183274831236757
0 days 00:01:27.220000,0.189453,1.001709,-0.072754,1.251221,4.020691,0.999451,1.0220599319051697
0 days 00:01:27.230000,0.195068,0.999512,-0.058105,0.419617,-1.281738,3.616333,1.020025467227657
0 days 00:01:27.240000,0.205322,0.998779,-0.044189,-0.045776,-4.142761,6.195068,1.0206220075258028
0 days 00:01:27.250000,0.211914,0.997803,-0.038818,-0.053406,-5.149841,7.583618,1.0207963593827125
0 days 00:01:27.260000,0.226318,0.994141,-0.036377,0.061035,-5.187988,8.903503,1.0202251962846243
0 days 00:01:27.270000,0.236328,0.992432,-0.035645,0.25177,-4.653931,9.735107,1.0208049589578805
0 days 00:01:27.280000,0.234863,0.992188,-0.032959,0.488281,-4.272461,10.581969,1.0201391825599093
0 days 00:01:27.290000,0.236816,0.993652,-0.032715,0.579834,-3.807068,11.474608,1.022006059759432
0 days 00:01:27.300000,0.235596,0.991943,-0.030762,0.831604,-3.39508,12.481688,1.0200013191702255
0 days 00:01:27.310000,0.242676,0.989746,-0.027832,1.304626,-2.624511,13.099669,1.0194426936890568
0 days 00:01:27.320000,0.236328,0.984863,-0.02832,1.594543,-2.563476,13.809203,1.0132166968388352
0 days 00:01:27.330000,0.190918,1.0,-0.066406,0.854492,0.923157,2.258301,1.0202251906123472
0 days 00:01:27.340000,0.245605,1.045654,-0.087891,-25.283812,-56.77795,-0.732422,1.0777007616319108
0 days 00:01:27.350000,0.230713,1.03833,-0.096191,-26.93939,-56.571957,-1.174927,1.0679936262684342
0 days 00:01:27.360000,0.218018,1.031738,-0.104492,-28.602598,-57.838436,-1.358032,1.0596856736938554
0 days 00:01:27.370000,0.256104,0.93335,-0.02124,2.059937,-30.540464,29.380796,0.9680819277912381
0 days 00:01:27.380000,0.254883,0.939941,-0.034424,2.403259,-33.233643,27.618406,0.974494453009354
0 days 00:01:27.390000,0.25,0.94751,-0.040039,2.471924,-36.78894,25.55847,0.9807539556998992
0 days 00:01:27.400000,0.243408,0.957275,-0.043945,2.14386,-40.969845,23.429869,0.988713327064018
0 days 00:01:27.410000,0.239746,0.970703,-0.050049,1.617432,-45.852657,21.537779,1.0011230499424133
0 days 00:01:27.420000,0.235352,0.981934,-0.052734,0.907898,-51.750179,19.805908,1.0111210704045288
0 days 00:01:27.430000,0.229004,0.998535,-0.051514,-0.114441,-58.837887,18.089294,1.0257527335752024
0 days 00:01:27.440000,0.223633,1.014893,-0.051025,-1.434326,-66.886902,16.471863,1.040491744687578
0 days 00:01:27.450000,0.221436,1.0271,-0.051025,-2.449036,-75.164795,15.2359,1.0519371952360081
0 days 00:01:27.460000,0.228027,1.036865,-0.05542,-3.242492,-82.977287,13.618468,1.063088292360517
0 days 00:01:27.470000,0.255371,0.928711,-0.012207,1.167297,-28.732298,30.72357,0.9632587814346671
0 days 00:01:27.480000,0.24292,1.043945,-0.061035,-3.746032,-89.508049,11.657714,1.073571870276974
0 days 00:01:27.490000,0.280273,1.053711,-0.085205,-3.311157,-93.948357,6.744384,1.0936725826658544
0 days 00:01:27.500000,0.307861,1.056885,-0.109619,-2.311707,-89.393608,2.998352,1.1062552253919526
0 days 00:01:27.510000,0.325928,1.049805,-0.133057,-1.38855,-80.245972,-1.823425,1.1072595741098832
0 days 00:01:27.520000,0.307129,1.026855,-0.148193,-0.488281,-68.504333,-6.729125,1.0819984190908045
0 days 00:01:27.530000,0.248535,1.005859,-0.16333,0.106812,-56.182858,-9.979248,1.0489035527664115
0 days 00:01:27.540000,0.163818,1.011719,-0.197266,-0.198364,-44.677731,-11.596679,1.0437075964277542
0 days 00:01:27.550000,0.043457,1.027588,-0.257324,-1.922607,-36.300659,-11.154174,1.060208116158804
0 days 00:01:27.560000,-0.094482,1.036133,-0.321777,-4.829407,-33.592224,-6.401062,1.0890541215853324
0 days 00:01:27.570000,-0.174316,1.028564,-0.378906,-8.81958,-36.865234,1.350403,1.1099097831751912
0 days 00:01:27.580000,-0.170166,1.016357,-0.411621,-13.694762,-44.288631,9.147644,1.109671062363077
0 days 00:01:27.590000,0.257324,1.049805,-0.07251,-3.77655,-93.704216,9.620667,1.0833115337247177
0 days 00:01:27.600000,0.257813,0.929199,-0.006348,-0.427246,-27.999876,31.753538,0.9643228824797222
0 days 00:01:27.610000,-0.125244,0.996582,-0.410156,-17.936707,-52.032467,16.815186,1.0849376418006704
0 days 00:01:27.620000,0.25415,0.932617,-0.005371,-4.66156,-28.907774,32.455444,0.9666413703282102
0 days 00:01:27.630000,0.212158,1.029053,-0.101807,-30.09796,-58.814999,-1.319885,1.055616293461786
0 days 00:01:27.640000,0.208008,1.023926,-0.10376,-31.425474,-59.501644,-1.068115,1.049979961304024
0 days 00:01:27.650000,0.19458,1.017334,-0.105225,-32.730103,-60.997005,-0.541687,1.0411062119596637
0 days 00:01:27.660000,0.18457,1.010254,-0.101563,-33.927917,-63.2019,0.183105,1.0319855969852487
0 days 00:01:27.670000,0.174316,1.006104,-0.093994,-34.599304,-65.834045,0.900268,1.0254102587296463
0 days 00:01:27.680000,0.17041,1.004395,-0.0896,-35.018921,-68.199158,1.861572,1.022681301347101
0 days 00:01:27.690000,0.258545,0.931152,-0.004883,-2.418518,-28.182981,32.341003,0.9663919535147216
0 days 00:01:27.700000,0.165283,0.986816,-0.081787,-34.378052,-71.037292,5.737304,1.0038990991698318
0 days 00:01:27.710000,0.181885,0.982422,-0.076172,-33.668518,-70.449829,8.384705,1.0020166230622125
0 days 00:01:27.720000,0.204102,0.97583,-0.07373,-32.951355,-68.199158,10.665893,0.9996689092914713
0 days 00:01:27.730000,0.221924,0.96582,-0.070557,-31.936644,-64.971924,12.687682,0.9934972694602637
0 days 00:01:27.740000,0.161865,0.996094,-0.084473,-34.866333,-70.045471,3.540039,1.0126891047058817
0 days 00:01:27.750000,0.247559,0.951416,-0.054932,-29.075621,-57.769772,17.204285,0.9846295690060298
0 days 00:01:27.760000,0.262207,0.945313,-0.046875,-26.977537,-53.390499,19.180298,0.9821234364594911
0 days 00:01:27.770000,0.268066,0.942139,-0.045654,-25.070189,-49.072262,21.026609,0.9805965344589995
0 days 00:01:27.780000,0.266846,0.94043,-0.036133,-23.132322,-45.097347,22.743223,0.9782233723976339
0 days 00:01:27.790000,0.265625,0.937012,-0.023926,-20.629881,-41.618343,24.574278,0.9742281982395089
0 days 00:01:27.800000,0.26123,0.93457,-0.01709,-18.066406,-38.658142,26.397703,0.970543283887947
0 days 00:01:27.810000,0.260498,0.934082,-0.010254,-15.312194,-36.010742,28.068541,0.969780147891263
0 days 00:01:27.820000,0.256836,0.934326,-0.005859,-12.565612,-33.729553,29.602049,0.9690016166410663
0 days 00:01:27.830000,0.254883,0.934814,-0.005127,-9.788513,-31.837461,30.990599,0.9689524469312207
0 days 00:01:27.840000,0.254639,0.935303,-0.002197,-7.057189,-30.204771,32.073975,0.9693490335988374
0 days 00:01:27.850000,0.233643,0.960205,-0.066162,-30.624388,-61.515804,15.007018,0.9904343005560742
0 days 00:01:27.860000,0.216797,0.980469,-0.05957,11.428832,9.765625,-3.440857,1.0059169866693773
0 days 00:01:27.870000,0.219238,0.979004,-0.056885,11.146544,11.901855,-3.623962,1.0048631926212643
0 days 00:01:27.880000,0.2229,0.977539,-0.059082,10.81848,13.648986,-3.77655,1.0043692494521126
0 days 00:01:27.890000,0.227783,0.981934,-0.054932,10.459899,15.350341,-4.096985,1.0095033432678666
0 days 00:01:27.900000,0.250732,0.983643,-0.062988,7.476806,19.210815,-5.828857,1.017048462668815
0 days 00:01:27.910000,0.238037,0.984375,-0.051514,9.552002,18.005371,-4.699707,1.0140559383929468
0 days 00:01:27.920000,0.242432,0.985596,-0.056885,8.94165,18.623352,-5.027771,1.016567092259532
0 days 00:01:27.930000,0.246338,0.984863,-0.060303,8.277893,19.081116,-5.477905,1.0169926208296696
0 days 00:01:27.940000,0.234131,0.982178,-0.051025,10.002136,16.967773,-4.386902,1.0109868938171256
0 days 00:01:27.950000,0.213867,0.981201,-0.066162,11.566161,7.93457,-3.059387,1.0064153746510434
0 days 00:01:27.960000,0.290039,1.001465,-0.109863,9.567261,19.729614,-6.752014,1.048391456715954
0 days 00:01:27.970000,0.218994,0.982422,-0.07373,12.191772,5.66864,-2.525329,1.0092311286419975
0 days 00:01:27.980000,0.222168,0.983887,-0.078369,12.359618,5.332946,-2.349854,1.0116985465809467
0 days 00:01:27.990000,0.228516,0.986084,-0.08252,12.397765,5.41687,-2.281189,1.0155741074446512
0 days 00:01:28,0.234131,0.988281,-0.091797,12.260436,6.29425,-2.174377,1.019776127064661
0 days 00:01:28.010000,0.243652,0.994629,-0.095703,12.138366,7.270813,-2.403259,1.0284999800456975
0 days 00:01:28.020000,0.251465,0.993896,-0.099121,11.802672,8.552551,-2.716064,1.0299946008023537
0 days 00:01:28.030000,0.259277,0.994385,-0.105225,11.489867,10.307311,-3.372192,1.0330045457687975
0 days 00:01:28.040000,0.27124,0.996826,-0.106445,10.986327,12.359618,-4.219055,1.0385392384984786
0 days 00:01:28.050000,0.277832,0.998535,-0.108887,10.581969,14.511107,-5.1651,1.042170401238684
0 days 00:01:28.060000,0.28418,0.998535,-0.113281,10.101317,16.944885,-5.981445,1.0443481237528032
0 days 00:01:28.070000,0.253662,0.983154,-0.067627,6.790161,19.035339,-6.011962,1.0175999258495452
0 days 00:01:28.080000,0.214844,0.982422,-0.069092,11.863708,6.477355,-2.815246,1.0080102355055727
0 days 00:01:28.090000,0.258545,0.982178,-0.074219,6.195068,18.661499,-6.088256,1.0183455212598522
0 days 00:01:28.100000,0.245361,0.996826,-0.108154,0.694275,-1.358032,-5.363464,1.032260326813445
0 days 00:01:28.110000,0.258545,0.976074,-0.081299,5.111694,17.333984,-5.638122,1.0130032072515862
0 days 00:01:28.120000,0.294922,1.003662,-0.111084,9.292603,22.65167,-7.43103,1.0519772104869953
0 days 00:01:28.130000,0.186768,0.986572,-0.097412,0.442505,-8.499146,-4.173279,1.0088090477151759
0 days 00:01:28.140000,0.189209,0.98291,-0.102051,0.335693,-9.643555,-4.03595,1.0061443834669057
0 days 00:01:28.150000,0.191406,0.980225,-0.103271,0.076294,-10.169982,-3.822326,1.0040628500756315
0 days 00:01:28.160000,0.197998,0.981689,-0.102783,-0.12207,-10.513305,-3.868103,1.0067178580982856
0 days 00:01:28.170000,0.202148,0.981934,-0.10498,-0.396728,-10.719298,-3.921509,1.00800743779994
0 days 00:01:28.180000,0.205322,0.981934,-0.105469,-0.50354,-10.44464,-3.845215,1.0086997640532092
0 days 00:01:28.190000,0.210938,0.98584,-0.104248,-0.434875,-9.742737,-3.944397,1.0135299654909076
0 days 00:01:28.200000,0.220215,0.988281,-0.104004,-0.297546,-8.613586,-4.066467,1.0178461638194645
0 days 00:01:28.210000,0.231445,0.986572,-0.101318,-0.152588,-7.194519,-4.394531,1.018408776637849
0 days 00:01:28.220000,0.259766,0.979248,-0.079346,5.66864,18.135071,-5.958557,1.0162188779864305
0 days 00:01:28.230000,0.234375,0.987061,-0.102295,0.221252,-5.691528,-4.806519,1.0196496091162885
0 days 00:01:28.240000,0.23877,0.993652,-0.108154,0.610352,-2.975464,-5.126953,1.0276442466729427
0 days 00:01:28.250000,0.251709,0.996826,-0.108398,0.892639,0.434875,-5.546569,1.0338131462508107
0 days 00:01:28.260000,0.254883,0.994873,-0.106689,1.281738,2.388,-5.714416,1.0325309547606794
0 days 00:01:28.270000,0.256348,0.995117,-0.105225,1.701355,4.211426,-5.683898,1.032978432213374
0 days 00:01:28.280000,0.257568,0.989746,-0.102539,2.082825,6.179809,-5.470275,1.0278388325321242
0 days 00:01:28.290000,0.259033,0.98877,-0.099365,2.380371,8.140564,-5.218505,1.0269555059563196
0 days 00:01:28.300000,0.258545,0.983643,-0.094482,2.799988,10.528563,-4.920959,1.0214332659542669
0 days 00:01:28.310000,0.260742,0.977539,-0.089844,3.326416,12.809752,-4.936218,1.0156972144399137
0 days 00:01:28.320000,0.260498,0.970947,-0.086426,3.921509,14.60266,-4.997253,1.0089929327250018
0 days 00:01:28.330000,0.26001,0.969971,-0.084717,4.524231,16.136169,-5.310058,1.0077826705346744
0 days 00:01:28.340000,0.236572,0.989502,-0.108154,0.495911,-4.341125,-4.951477,1.0231215992754723
0 days 00:01:28.350000,0.29834,0.999756,-0.109375,9.078979,25.222776,-7.858276,1.049038467245601
0 days 00:01:28.360000,0.297607,0.996826,-0.111084,8.735657,27.580259,-8.117676,1.046217786018284
0 days 00:01:28.370000,0.296387,0.996826,-0.112305,8.346558,29.71649,-8.346558,1.04600178827285
0 days 00:01:28.380000,0.277588,0.972412,-0.049561,9.841919,29.808043,-16.494751,1.0124704875743293
0 days 00:01:28.390000,0.275879,0.977783,-0.05127,9.849548,28.564451,-16.25061,1.0172499351830895
0 days 00:01:28.400000,0.279297,0.976563,-0.051514,9.765625,28.015135,-15.846251,1.0170230082815235
0 days 00:01:28.410000,0.284668,0.970703,-0.049561,9.796143,28.266905,-15.289306,1.01279636509715
0 days 00:01:28.420000,0.281738,0.968994,-0.051758,9.735107,28.70178,-14.663695,1.0104477043588154
0 days 00:01:28.430000,0.286621,0.968994,-0.050049,9.651184,29.472349,-14.198302,1.011734091586322
0 days 00:01:28.440000,0.283691,0.962891,-0.05127,9.69696,29.983519,-13.633727,1.0051210246840925
0 days 00:01:28.450000,0.280518,0.960205,-0.049316,9.780884,30.532835,-13.038634,1.0015568172625056
0 days 00:01:28.460000,0.278809,0.959229,-0.046875,10.040282,31.387327,-12.298583,1.0000259989355276
0 days 00:01:28.470000,0.277832,0.961914,-0.046631,10.353087,32.00531,-11.627196,1.002319117736961
0 days 00:01:28.480000,0.283691,0.977051,-0.046631,9.727478,30.746458,-16.532898,1.0184712515545051
0 days 00:01:28.490000,0.27417,0.96875,-0.049561,10.528563,32.485962,-10.803222,1.0080188709151232
0 days 00:01:28.500000,0.269775,0.974365,-0.052002,11.054992,32.455444,-8.666992,1.0123585885712632
0 days 00:01:28.510000,0.277588,0.973145,-0.053711,11.444091,32.348633,-7.698059,1.013385987810173
0 days 00:01:28.520000,0.281982,0.971191,-0.05835,11.802672,32.470703,-7.308959,1.0129810113249902
0 days 00:01:28.530000,0.280762,0.970215,-0.059082,11.985778,32.730103,-6.958007,1.0117485505761796
0 days 00:01:28.540000,0.275391,0.976807,-0.061768,12.168883,32.966614,-6.622314,1.016763199547466
0 days 00:01:28.550000,0.273193,0.980225,-0.059326,12.245177,33.210754,-6.484985,1.0193110615263625
0 days 00:01:28.560000,0.269531,0.982422,-0.062012,12.168883,33.340454,-6.317138,1.0206103243594002
0 days 00:01:28.570000,0.263672,0.986328,-0.067139,12.115478,33.485413,-5.714416,1.023168359796666
0 days 00:01:28.580000,0.257324,0.991455,-0.074463,11.70349,33.477783,-4.890442,1.0270070089196082
0 days 00:01:28.590000,0.252197,0.996826,-0.086182,10.986327,33.081055,-4.425049,1.0318394924643075
0 days 00:01:28.600000,0.273438,0.973633,-0.05127,10.780334,32.63855,-9.819031,1.0125997093782912
0 days 00:01:28.610000,0.286377,0.978027,-0.043457,9.475708,30.647276,-16.342163,1.0200181908706334
0 days 00:01:28.620000,0.250488,0.998535,-0.091553,10.147094,32.318115,-4.142761,1.0335368092999881
0 days 00:01:28.630000,0.282227,0.974121,-0.040771,9.231567,32.073975,-15.86914,1.0150005303501077
0 days 00:01:28.640000,0.29834,0.992432,-0.109131,8.026123,31.295774,-8.346558,1.0420353186840645
0 days 00:01:28.650000,0.296387,0.989502,-0.101807,7.453918,32.302856,-8.44574,1.0379422561115816
0 days 00:01:28.660000,0.292725,0.988037,-0.10083,6.91986,32.623291,-8.460999,1.0354089664929507
0 days 00:01:28.670000,0.292725,0.980469,-0.095947,6.149292,32.737732,-8.377075,1.0277223420725075
0 days 00:01:28.680000,0.289063,0.978271,-0.092529,5.767822,32.920837,-8.468628,1.02427202600237
0 days 00:01:28.690000,0.288574,0.973877,-0.085693,5.699157,33.096313,-8.590698,1.0193403037523827
0 days 00:01:28.700000,0.277344,0.973389,-0.041992,9.20105,30.693052,-16.059875,1.0130000827843006
0 days 00:01:28.710000,0.282471,0.969482,-0.073975,5.592346,31.936644,-8.94165,1.0125006245874615
0 days 00:01:28.720000,0.28833,0.966553,-0.069824,6.057739,32.241821,-9.086609,1.0110560230199908
0 days 00:01:28.730000,0.286621,0.966309,-0.068359,6.446838,32.546997,-9.20105,1.0102364248051048
0 days 00:01:28.740000,0.286133,0.969482,-0.068359,6.54602,32.249451,-9.70459,1.0131339471629601
0 days 00:01:28.750000,0.283203,0.972656,-0.07959,5.622863,32.63855,-8.773804,1.0161683923666391
0 days 00:01:28.760000,0.297607,0.980957,-0.064697,7.026672,33.332825,-10.681151,1.027147635010177
0 days 00:01:28.770000,0.290039,0.97998,-0.060791,7.209777,33.432007,-11.093139,1.0238061181698417
0 days 00:01:28.780000,0.288574,0.97876,-0.054199,7.316589,33.424377,-11.436461,1.0218530337954672
0 days 00:01:28.790000,0.291748,0.980957,-0.052979,7.507324,33.77533,-12.199401,1.024792811154528
0 days 00:01:28.800000,0.279053,0.979248,-0.05127,7.492065,33.218384,-12.565612,1.0195223564066656
0 days 00:01:28.810000,0.291748,0.982178,-0.043945,7.629394,32.989502,-13.099669,1.025534827401293
0 days 00:01:28.820000,0.291016,0.984863,-0.042725,8.018494,33.64563,-13.664245,1.0278476865032096
0 days 00:01:28.830000,0.289795,0.980225,-0.039307,8.460999,33.920288,-14.35852,1.0229209318901438
0 days 00:01:28.840000,0.281494,0.974365,-0.037354,8.743286,33.409119,-14.717101,1.0148996731583868
0 days 00:01:28.850000,0.283691,0.975342,-0.040283,9.002686,32.775879,-15.2359,1.016560534613655
0 days 00:01:28.860000,0.290283,0.974854,-0.065918,6.759643,32.38678,-10.101317,1.019288832534233
0 days 00:01:28.870000,0.16626,1.00293,-0.134766,6.568908,14.900207,-6.683349,1.025511017618046
0 days 00:01:28.880000,0.16333,1.002686,-0.13501,6.484985,14.900207,-6.607055,1.0248334516378745
0 days 00:01:28.890000,0.166016,1.001465,-0.136719,6.347656,14.999389,-6.454467,1.024297585393034
0 days 00:01:28.900000,0.165771,0.999756,-0.138672,6.29425,15.014647,-6.210327,1.0228499438143408
0 days 00:01:28.910000,0.161621,1.000732,-0.135986,6.538391,16.296387,-3.204345,1.022779583126785
0 days 00:01:28.920000,0.164307,0.998779,-0.137207,6.347656,15.426635,-5.340576,1.0214607393037678
0 days 00:01:28.930000,0.165039,1.0,-0.13501,6.317138,15.708922,-4.547119,1.0224801081786383
0 days 00:01:28.940000,0.162598,1.0,-0.133545,6.477355,15.86151,-3.799438,1.0218964608163588
0 days 00:01:28.950000,0.163818,0.997803,-0.137451,6.362915,15.098571,-5.844116,1.020460651536354
0 days 00:01:28.960000,0.168457,1.001953,-0.131348,6.866455,15.243529,-6.568908,1.0244705325981807
0 days 00:01:28.970000,0.145264,1.002686,-0.134033,8.758545,17.250061,-4.53949,1.021981256863843
0 days 00:01:28.980000,0.170898,1.003662,-0.132324,7.377624,16.12854,-6.462097,1.0266709198297184
0 days 00:01:28.990000,0.161377,0.999268,-0.134033,7.598876,15.968322,-6.210327,1.02105039887461
0 days 00:01:29,0.162109,0.994141,-0.130371,7.637023,15.762328,-5.508422,1.0156733005267984
0 days 00:01:29.010000,0.170166,0.991211,-0.12793,7.720947,15.823363,-5.523681,1.013815465938945
0 days 00:01:29.020000,0.164307,0.98999,-0.125977,7.751464,15.686034,-5.638122,1.011408520271606
0 days 00:01:29.030000,0.158447,0.990479,-0.132324,7.980346,15.731811,-5.561828,1.0117626906671346
0 days 00:01:29.040000,0.153076,0.989502,-0.133057,8.163452,15.838622,-5.455017,1.010074569043791
0 days 00:01:29.050000,0.14917,0.991455,-0.135498,8.247375,16.181946,-5.340576,1.011728428941779
0 days 00:01:29.060000,0.144775,0.990723,-0.133301,8.422852,16.738892,-5.096435,1.0100797097036451
0 days 00:01:29.070000,0.143799,0.994873,-0.130127,8.659363,17.120361,-4.882813,1.0135992672940328
0 days 00:01:29.080000,0.160645,0.996338,-0.138428,6.637573,17.028809,-2.624511,1.0186552593753198
0 days 00:01:29.090000,0.169678,1.003418,-0.131348,7.17926,15.86151,-6.469726,1.026104577278554
0 days 00:01:29.100000,0.161621,0.998291,-0.135498,6.92749,18.035889,-2.250671,1.0203264067571711
0 days 00:01:29.110000,0.192627,0.990723,-0.134521,2.822876,16.036987,-2.059937,1.0182009248173958
0 days 00:01:29.120000,0.160889,0.991455,-0.134521,6.889343,19.035339,-1.953125,1.0133924150036846
0 days 00:01:29.130000,0.146484,1.008301,-0.137695,8.728027,17.105103,-4.386902,1.0281480350037147
0 days 00:01:29.140000,0.188721,0.988037,-0.16626,1.022339,7.041931,-0.053406,1.0195465250835785
0 days 00:01:29.150000,0.189453,0.989746,-0.165283,1.12915,8.346558,-0.068665,1.0211797362922943
0 days 00:01:29.160000,0.190186,0.989746,-0.162354,1.12915,9.58252,-0.167847,1.0208460610826688
0 days 00:01:29.170000,0.188721,0.98999,-0.1604,1.335144,10.70404,-0.366211,1.020501825545158
0 days 00:01:29.180000,0.193359,0.991699,-0.158936,1.403808,11.734008,-0.457764,1.022797761817066
0 days 00:01:29.190000,0.194336,0.992432,-0.158691,1.457214,12.603759,-0.549316,1.0236555030873424
0 days 00:01:29.200000,0.193359,0.989746,-0.153564,1.480102,13.305663,-0.747681,1.020081736672606
0 days 00:01:29.210000,0.196533,0.989746,-0.148682,1.518249,13.824462,-1.091003,1.019965049268356
0 days 00:01:29.220000,0.196289,0.989502,-0.144775,1.663208,14.35852,-1.312256,1.0191189234579054
0 days 00:01:29.230000,0.161133,0.99707,-0.136963,6.904602,18.722534,-1.960754,1.019250357840506
0 days 00:01:29.240000,0.195557,0.990723,-0.143311,1.815796,14.648437,-1.579285,1.019957178365347
0 days 00:01:29.250000,0.192627,0.992188,-0.135742,2.418518,15.518188,-1.976013,1.01978825205873
0 days 00:01:29.260000,0.188477,0.991211,-0.133057,3.112793,16.441345,-2.204895,1.0177067314796537
0 days 00:01:29.270000,0.185547,0.988525,-0.133301,3.540039,16.76178,-2.326965,1.0145829297967712
0 days 00:01:29.280000,0.180908,0.982422,-0.133057,3.921509,17.059326,-2.418518,1.0077623012382433
0 days 00:01:29.290000,0.178711,0.982178,-0.129883,4.310608,17.494202,-2.571106,1.0067178546613744
0 days 00:01:29.300000,0.177246,0.981201,-0.130615,4.798889,18.028259,-2.662658,1.0056002312758285
0 days 00:01:29.310000,0.171631,0.984863,-0.129883,5.15747,18.417358,-2.616882,1.0081080907417617
0 days 00:01:29.320000,0.168701,0.987061,-0.127686,5.630493,18.844604,-2.388,1.0094816292127362
0 days 00:01:29.330000,0.167725,0.985596,-0.129395,6.065368,19.203186,-2.075195,1.008104268846234
0 days 00:01:29.340000,0.164795,0.986572,-0.131836,6.568908,19.248962,-1.991272,1.0088916860124282
0 days 00:01:29.350000,0.193604,0.993164,-0.140381,2.105713,15.068053,-1.831055,1.021549834747674
0 days 00:01:29.360000,0.14917,1.012695,-0.136963,8.728027,16.609192,-4.272461,1.0327447483739627
0 days 00:01:29.370000,0.151611,1.015869,-0.138672,8.628845,16.036987,-4.249573,1.0364389244263261
0 days 00:01:29.380000,0.153076,1.021484,-0.136963,8.460999,15.426635,-4.341125,1.041931229688889
0 days 00:01:29.390000,0.152832,1.013672,-0.132568,3.570556,11.375426,-5.485534,1.033664751470224
0 days 00:01:29.400000,0.155518,1.016357,-0.130127,3.242492,9.95636,-5.66101,1.0363881685459364
0 days 00:01:29.410000,0.157715,1.020996,-0.125,2.967834,8.621216,-5.752563,1.0406401170630508
0 days 00:01:29.420000,0.161133,1.023926,-0.121826,2.89917,7.514953,-5.813598,1.04366176103228
0 days 00:01:29.430000,0.160645,1.02417,-0.119141,2.807617,6.385803,-5.706787,1.0435159715145714
0 days 00:01:29.440000,0.161133,1.023438,-0.118408,2.914428,5.432128,-5.302429,1.0427893545663955
0 days 00:01:29.450000,0.166748,1.02002,-0.116943,2.89917,4.966736,-4.852295,1.0401544890798673
0 days 00:01:29.460000,0.17041,1.01416,-0.114014,2.815246,4.608154,-4.547119,1.0346783393383665
0 days 00:01:29.470000,0.169434,1.01123,-0.111328,2.693176,4.188538,-4.150391,1.031352469740583
0 days 00:01:29.480000,0.171875,1.004395,-0.111084,2.76947,3.852844,-3.814697,1.0250317003419942
0 days 00:01:29.490000,0.157959,1.013184,-0.13501,3.929138,12.634276,-5.241394,1.0342729637948582
0 days 00:01:29.500000,0.173096,0.99585,-0.109863,2.784729,3.578186,-3.555298,1.0167346391684509
0 days 00:01:29.510000,0.176758,0.987549,-0.106934,2.738952,2.906799,-2.990722,1.008925814081987
0 days 00:01:29.520000,0.177246,0.984375,-0.104492,2.822876,2.76947,-2.784729,1.0056484789453022
0 days 00:01:29.530000,0.178223,0.982666,-0.104248,2.655029,2.380371,-2.761841,1.004123274697385
0 days 00:01:29.540000,0.179199,0.983154,-0.103027,2.311707,1.571655,-2.960205,1.0046485116925221
0 days 00:01:29.550000,0.179932,0.980469,-0.101563,2.14386,0.572205,-3.173828,1.0020030077569628
0 days 00:01:29.560000,0.186523,0.982178,-0.102539,1.693725,-0.480652,-3.463745,1.0049769647778004
0 days 00:01:29.570000,0.187012,0.980957,-0.103027,1.487732,-1.495361,-3.875732,1.0039246419537673
0 days 00:01:29.580000,0.185059,0.982666,-0.099854,1.350403,-3.005981,-4.104614,1.0049129924291953
0 days 00:01:29.590000,0.188477,0.989258,-0.101074,0.991821,-4.150391,-4.333496,1.0121121101780177
0 days 00:01:29.600000,0.185547,0.992432,-0.099365,0.770569,-5.462646,-4.371643,1.014505971918352
0 days 00:01:29.610000,0.174072,0.993164,-0.107666,2.868652,3.234863,-3.318786,1.0140353838185332
0 days 00:01:29.620000,0.159668,1.012207,-0.136963,4.40979,13.412475,-4.981995,1.0338354532719412
0 days 00:01:29.630000,0.184326,0.990723,-0.097412,0.656128,-7.125854,-4.379272,1.012421470904781
0 days 00:01:29.640000,0.161377,1.006592,-0.138672,4.981995,13.313293,-4.547119,1.0288342500991108
0 days 00:01:29.650000,0.151611,1.02124,-0.137451,8.209229,14.968871,-4.341125,1.0415420348320081
0 days 00:01:29.660000,0.151855,1.02002,-0.137207,8.201599,14.762877,-4.310608,1.040349221306961
0 days 00:01:29.670000,0.151611,1.018799,-0.134521,8.148193,14.511107,-4.28009,1.0387652271630006
0 days 00:01:29.680000,0.150146,1.017334,-0.133545,8.125305,14.122008,-3.974914,1.0369891782931007
0 days 00:01:29.690000,0.14917,1.018066,-0.131592,8.125305,13.809203,-3.639221,1.0373169832408993
0 days 00:01:29.700000,0.152344,1.011719,-0.132568,8.056641,13.504027,-3.448486,1.0316774224150687
0 days 00:01:29.710000,0.161377,1.007568,-0.141113,4.78363,13.542174,-4.615784,1.030120715994975
0 days 00:01:29.720000,0.153076,1.005371,-0.134766,8.132935,13.313293,-3.089905,1.0258484216359647
0 days 00:01:29.730000,0.15625,1.007324,-0.131104,7.980346,13.076781,-3.02124,1.027766492104116
0 days 00:01:29.740000,0.157959,1.003174,-0.130615,7.705688,12.794494,-3.158569,1.0238991152364574
0 days 00:01:29.750000,0.160889,1.000488,-0.129639,7.476806,12.519835,-3.517151,1.021600596508244
0 days 00:01:29.760000,0.151611,1.006592,-0.133057,8.094788,13.351439,-3.234863,1.0266048485342352
0 days 00:01:29.770000,0.161621,0.999756,-0.12915,7.141113,11.665343,-4.272461,1.0209373779409783
0 days 00:01:29.780000,0.16333,1.000977,-0.12915,6.904602,11.108397,-4.714966,1.0224046977244383
0 days 00:01:29.790000,0.161865,1.006348,-0.133057,6.813049,10.688781,-4.837036,1.0279303189312008
0 days 00:01:29.800000,0.162598,1.012451,-0.132813,6.67572,10.498046,-4.79126,1.0339895695673142
0 days 00:01:29.810000,0.165283,1.014404,-0.13501,6.286621,10.620116,-4.684448,1.036610652754929
0 days 00:01:29.820000,0.161621,1.015625,-0.137207,5.966186,10.833739,-4.547119,1.0375168669062687
0 days 00:01:29.830000,0.163574,1.013428,-0.137207,5.775451,11.268615,-4.463196,1.0356729819344521
0 days 00:01:29.840000,0.164063,1.009521,-0.138184,5.638122,11.764525,-4.432678,1.0320582034294383
0 days 00:01:29.850000,0.162354,1.006104,-0.139648,5.455017,12.382506,-4.364014,1.0286426221171279
0 days 00:01:29.860000,0.16333,1.006836,-0.138184,5.325317,12.985229,-4.379272,1.0293154218469673
0 days 00:01:29.870000,0.161377,0.99707,-0.126221,7.286071,12.100219,-3.784179,1.0179012043759452
0 days 00:01:29.880000,0.17334,0.991699,-0.129639,1.403808,5.195617,-1.556396,1.015046763711899
0 days 00:01:29.890000,0.17334,0.99292,-0.128174,1.541138,5.53894,-1.319885,1.016053864849694
0 days 00:01:29.900000,0.170166,0.993896,-0.12793,1.64032,5.737304,-1.25885,1.0164407564004898
0 days 00:01:29.910000,0.171143,0.994873,-0.12915,1.76239,6.118774,-1.457214,1.0177140733418202
0 days 00:01:29.920000,0.181641,1.0,-0.129883,1.678467,8.392334,-1.770019,1.0246282479855804
0 days 00:01:29.930000,0.173584,0.996582,-0.129639,1.777649,6.805419,-1.76239,1.0198594795857907
0 days 00:01:29.940000,0.175537,0.997559,-0.128662,1.831055,7.270813,-1.838684,1.0210245379490153
0 days 00:01:29.950000,0.179932,1.0,-0.12915,1.747131,7.781982,-1.838684,1.0242339806528584
0 days 00:01:29.960000,0.171875,0.99585,-0.129395,1.747131,6.42395,-1.556396,1.018823490183653
0 days 00:01:29.970000,0.174072,0.993896,-0.131104,1.197815,5.012512,-1.663208,1.0175060583682045
0 days 00:01:29.980000,0.141602,1.006348,-0.109863,-0.404358,-3.425598,-0.610352,1.0221826168924024
0 days 00:01:29.990000,0.177734,1.005371,-0.124268,0.946045,4.905701,-1.991272,1.0284953856099697
0 days 00:01:30,0.175537,1.008057,-0.124023,0.831604,4.859924,-1.991272,1.0307152168019058
0 days 00:01:30.010000,0.173828,1.009521,-0.122559,0.839233,4.66156,-2.037048,1.031682863822987
0 days 00:01:30.020000,0.170166,1.010742,-0.121094,0.701904,4.28772,-2.082825,1.0320947703365229
0 days 00:01:30.030000,0.165771,1.009277,-0.121582,0.602722,3.684997,-2.037048,1.030001101889702
0 days 00:01:30.040000,0.160645,1.009521,-0.121826,0.427246,2.89154,-1.876831,1.029456672105242
0 days 00:01:30.050000,0.157227,1.006348,-0.118652,0.160217,1.792908,-1.647949,1.0254437691736198
0 days 00:01:30.060000,0.1521,1.007568,-0.115234,-0.099182,0.434875,-1.541138,1.0254786976724577
0 days 00:01:30.070000,0.150391,1.009521,-0.113525,-0.167847,-1.022339,-1.319885,1.0269557088535999
0 days 00:01:30.080000,0.146973,1.006104,-0.111084,-0.411987,-2.204895,-0.999451,1.0228323306392892
0 days 00:01:30.090000,0.183105,0.997559,-0.12915,1.785278,9.040833,-1.525879,1.0224143592526467
0 days 00:01:30.100000,0.17749,0.999023,-0.126221,1.106262,4.974365,-1.815796,1.022487846123366
0 days 00:01:30.110000,0.182373,0.996338,-0.128906,1.800537,9.765625,-1.289368,1.0210612509585308
0 days 00:01:30.120000,0.195313,0.987061,-0.152344,1.358032,8.277893,-0.923157,1.017666585884591
0 days 00:01:30.130000,0.189697,0.995117,-0.13208,1.945495,11.070251,-0.778198,1.021610455064943
0 days 00:01:30.140000,0.137207,1.004639,-0.111572,-0.37384,-4.760742,-0.358582,1.0200850907419439
0 days 00:01:30.150000,0.192383,0.988281,-0.140869,-0.137329,-0.976562,-0.404358,1.016638888106785
0 days 00:01:30.160000,0.192627,0.989746,-0.140625,0.045776,-0.579834,-0.411987,1.0180754865283812
0 days 00:01:30.170000,0.196533,0.988037,-0.143066,0.259399,-0.228882,-0.434875,1.0175019478182832
0 days 00:01:30.180000,0.196533,0.989258,-0.14209,0.167847,0.1297,-0.411987,1.0185510192194596
0 days 00:01:30.190000,0.199219,0.989746,-0.141846,0.282288,0.724792,-0.473022,1.019512453181912
0 days 00:01:30.200000,0.203125,0.989746,-0.144287,0.38147,1.350403,-0.534058,1.0206251263367956
0 days 00:01:30.210000,0.204834,0.98999,-0.14502,0.511169,2.296448,-0.656128,1.021306990114138
0 days 00:01:30.220000,0.204346,0.990234,-0.147705,0.679016,3.425598,-0.801086,1.021830430892034
0 days 00:01:30.230000,0.205566,0.98877,-0.147461,0.770569,4.325867,-0.968933,1.0206214968228917
0 days 00:01:30.240000,0.184082,0.99707,-0.12915,1.861572,10.391234,-0.976562,1.0221127580281932
0 days 00:01:30.250000,0.206055,0.986572,-0.148682,0.892639,5.241394,-1.075745,1.0187685268661375
0 days 00:01:30.260000,0.198975,0.989502,-0.151855,1.304626,7.225036,-1.098633,1.0206689961265603
0 days 00:01:30.270000,0.196777,0.985596,-0.151611,1.556396,9.277344,-0.679016,1.0164184956335653
0 days 00:01:30.280000,0.194824,0.986084,-0.148926,1.785278,10.154723,-0.442505,1.0161185951984146
0 days 00:01:30.290000,0.195801,0.987305,-0.146973,1.785278,10.94818,-0.183105,1.0172070867601148
0 days 00:01:30.300000,0.196533,0.987549,-0.145508,1.945495,11.688231,0.152588,1.017374476559148
0 days 00:01:30.310000,0.19458,0.989258,-0.143799,1.937866,12.153625,0.297546,1.018415887231243
0 days 00:01:30.320000,0.19165,0.989746,-0.140625,1.945495,12.344359,0.228882,1.0178910833881
0 days 00:01:30.330000,0.190674,0.990479,-0.138184,1.930237,12.390136,0.114441,1.0180864607551756
0 days 00:01:30.340000,0.190674,0.991699,-0.136963,1.88446,12.100219,-0.045776,1.0191086027730312
0 days 00:01:30.350000,0.190674,0.993896,-0.134521,1.930237,11.634826,-0.312805,1.020922001199406
0 days 00:01:30.360000,0.202637,0.98877,-0.150635,1.144409,6.187438,-1.182556,1.0204992748130692
0 days 00:01:30.370000,0.137451,1.003418,-0.11084,-0.38147,-6.04248,-0.038147,1.0188355930791777
0 days 00:01:30.380000,0.191162,0.992188,-0.140381,-0.1297,-1.319885,-0.38147,1.0201405602901004
0 days 00:01:30.390000,0.134033,1.003174,-0.111328,-0.549316,-9.216309,0.610352,1.0181929301213009
0 days 00:01:30.400000,0.19458,0.996582,-0.180908,-0.617981,-0.724792,7.522583,1.0313897243951968
0 days 00:01:30.410000,0.197998,0.999512,-0.175537,-0.869751,0.328064,8.209229,1.0339442366573741
0 days 00:01:30.420000,0.208008,1.004639,-0.169678,-1.243591,1.312256,8.583069,1.039883393496117
0 days 00:01:30.430000,0.218994,1.005615,-0.161621,-1.579285,2.227783,8.636475,1.041797124157098
0 days 00:01:30.440000,0.227295,1.002686,-0.151611,-1.747131,2.983093,8.224487,1.039244017034498
0 days 00:01:30.450000,0.22583,1.000977,-0.143799,-1.846313,3.509521,7.637023,1.036162292225499
0 days 00:01:30.460000,0.224121,0.998535,-0.139648,-1.724243,3.814697,7.011413,1.0328620105173778
0 days 00:01:30.470000,0.218994,0.996094,-0.138184,-1.571655,3.662109,6.16455,1.0292018493609503
0 days 00:01:30.480000,0.212646,0.990723,-0.137207,-1.472473,2.914428,5.386352,1.022534177861063
0 days 00:01:30.490000,0.206299,0.983887,-0.13501,-1.190186,1.907349,4.653931,1.0143079444971335
0 days 00:01:30.500000,0.190674,0.996826,-0.183838,-0.518799,-1.869202,6.744384,1.0314141063588378
0 days 00:01:30.510000,0.201904,0.982666,-0.13501,-0.984192,0.854492,4.066467,1.0122378143855326
0 days 00:01:30.520000,0.200928,0.979004,-0.138916,-0.480652,0.076294,2.883911,1.0090186064964313
0 days 00:01:30.530000,0.201172,0.980225,-0.139404,-0.183105,0.572205,2.624511,1.0103191077204272
0 days 00:01:30.540000,0.202393,0.980225,-0.139893,0.160217,1.449585,2.288818,1.010630510385967
0 days 00:01:30.550000,0.199951,0.984131,-0.141846,0.495911,2.456665,1.838684,1.0142063474845737
0 days 00:01:30.560000,0.198975,0.98584,-0.147705,0.671387,3.242492,1.571655,1.016507906142397
0 days 00:01:30.570000,0.197998,0.990234,-0.149414,0.862122,3.677368,1.228333,1.0208286468139498
0 days 00:01:30.580000,0.196533,0.991699,-0.154297,0.862122,3.974914,0.938415,1.0226923735410371
0 days 00:01:30.590000,0.193604,0.986816,-0.157959,0.907898,4.348755,0.63324,1.0179584335094436
0 days 00:01:30.600000,0.190186,0.985596,-0.160889,0.930786,4.91333,0.37384,1.0165901141231897
0 days 00:01:30.610000,0.189209,0.986816,-0.165039,0.907898,5.767822,0.099182,1.018255240623882
0 days 00:01:30.620000,0.200684,0.978516,-0.135986,-0.823975,0.160217,3.387451,1.008097129401726
0 days 00:01:30.630000,0.184814,0.996582,-0.187744,-0.564575,-3.204345,5.729675,1.0308150691836049
0 days 00:01:30.640000,0.135986,1.002197,-0.111328,-0.595093,-7.575988,0.267029,1.017489529473891
0 days 00:01:30.650000,0.18042,1.001953,-0.185303,-0.717163,-6.561279,3.311157,1.0347938888580663
0 days 00:01:30.660000,0.136963,1.00293,-0.109131,-0.602722,-11.093139,0.823975,1.018104623027516
0 days 00:01:30.670000,0.14209,1.005371,-0.10376,-0.87738,-12.893676,0.984192,1.020650064096897
0 days 00:01:30.680000,0.151367,1.006836,-0.100586,-1.022339,-14.656066,1.068115,1.0231071512705794
0 days 00:01:30.690000,0.15625,1.010742,-0.097656,-1.350403,-16.548157,1.091003,1.0273997018687517
0 days 00:01:30.700000,0.16333,1.010986,-0.095703,-1.76239,-18.363953,1.045227,1.028556486200442
0 days 00:01:30.710000,0.169434,1.008057,-0.092041,-2.113342,-20.156858,0.701904,1.0263324711252197
0 days 00:01:30.720000,0.18042,0.999512,-0.188232,-0.610352,-4.707336,4.53186,1.0329602607883808
0 days 00:01:30.730000,0.182129,1.006348,-0.094238,-2.563476,-23.384092,-0.335693,1.027028758306699
0 days 00:01:30.740000,0.185791,1.002441,-0.099854,-2.792358,-24.658201,-1.083374,1.0243910754580008
0 days 00:01:30.750000,0.189697,1.002197,-0.102783,-3.089905,-25.619505,-1.64032,1.0251576092030923
0 days 00:01:30.760000,0.190674,1.002686,-0.109375,-3.196716,-26.260374,-2.01416,1.0264982608348636
0 days 00:01:30.770000,0.176758,1.008301,-0.091797,-2.39563,-21.873472,0.25177,1.0277845038596367
0 days 00:01:30.780000,0.19043,1.006592,-0.115234,-3.471374,-26.969908,-2.403259,1.0309073256699652
0 days 00:01:30.790000,0.193848,1.003662,-0.120361,-3.410339,-26.802061,-2.403259,1.0292721834718939
0 days 00:01:30.800000,0.196045,0.99585,-0.124756,-3.227234,-25.856016,-2.281189,1.0226020360144996
0 days 00:01:30.810000,0.19751,0.99707,-0.131836,-2.845764,-24.368284,-1.976013,1.0249582995888173
0 days 00:01:30.820000,0.197998,1.000732,-0.136719,-2.830505,-22.499083,-1.64032,1.0292520725211098
0 days 00:01:30.830000,0.196289,1.001953,-0.143799,-2.593994,-20.39337,-1.266479,1.0310758158986177
0 days 00:01:30.840000,0.193115,1.0,-0.151123,-2.26593,-17.929077,-0.640869,1.0296269054147722
0 days 00:01:30.850000,0.192383,0.999756,-0.161133,-1.693725,-15.121459,0.061035,1.0307701595962118
0 days 00:01:30.860000,0.19043,0.998779,-0.171143,-1.296997,-11.95526,1.00708,1.031073713266903
0 days 00:01:30.870000,0.184326,1.000977,-0.179443,-0.915527,-8.972168,2.075195,1.0335041456394842
0 days 00:01:30.880000,0.192139,1.005371,-0.111816,-3.334045,-26.763914,-2.326965,1.029655797253626
0 days 00:01:30.890000,0.179688,0.996582,-0.138184,0.007629,-2.182007,-0.549316,1.0220363388471077
0 days 00:01:30.900000,0.17627,0.995117,-0.135498,0.076294,-1.907349,-0.511169,1.0196512465509961
0 days 00:01:30.910000,0.17627,0.995605,-0.135742,0.137329,-1.701355,-0.434875,1.0201599479929606
0 days 00:01:30.920000,0.178223,0.995117,-0.135498,0.160217,-1.358032,-0.579834,1.0199906810466457
0 days 00:01:30.930000,0.178223,0.999268,-0.132568,0.389099,-0.198364,-0.579834,1.0236572903941046
0 days 00:01:30.940000,0.176025,0.998535,-0.134033,0.236511,-0.915527,-0.617981,1.0227520676776949
0 days 00:01:30.950000,0.174805,0.997803,-0.131836,0.389099,-0.663757,-0.62561,1.0215421409467158
0 days 00:01:30.960000,0.176758,0.999023,-0.13208,0.404358,-0.556946,-0.640869,1.0231009097312933
0 days 00:01:30.970000,0.175293,0.998291,-0.134277,0.213623,-1.091003,-0.62561,1.0224201040956697
0 days 00:01:30.980000,0.181152,0.998047,-0.140137,-0.114441,-2.26593,-0.427246,1.0239883984118179
0 days 00:01:30.990000,0.174072,1.000244,-0.135742,-1.014709,-3.135681,-1.091003,1.024311969706495
0 days 00:01:31,0.182617,0.997803,-0.139404,-0.1297,-1.708984,-0.511169,1.023910772828375
0 days 00:01:31.010000,0.185059,0.996094,-0.13623,-0.244141,-1.495361,-0.579834,1.0222566718867625
0 days 00:01:31.020000,0.185547,0.999756,-0.138916,-0.312805,-1.289368,-0.793457,1.0262735521297428
0 days 00:01:31.030000,0.185059,1.001709,-0.139893,-0.434875,-1.182556,-1.052856,1.0282206988827836
0 days 00:01:31.040000,0.18335,1.002686,-0.138184,-0.648498,-1.335144,-1.159668,1.0286356278838489
0 days 00:01:31.050000,0.181885,1.004395,-0.13501,-0.62561,-1.708984,-1.281738,1.0296208862246337
0 days 00:01:31.060000,0.179688,1.005371,-0.136719,-0.75531,-2.13623,-1.358032,1.0304128832395294
0 days 00:01:31.070000,0.177002,1.005127,-0.137207,-0.762939,-2.494812,-1.365662,1.0297746136810715
0 days 00:01:31.080000,0.179199,1.004639,-0.137207,-0.862122,-2.662658,-1.312256,1.0296783783157728
0 days 00:01:31.090000,0.178711,1.001953,-0.13623,-0.984192,-2.815246,-1.228333,1.0268427574999008
0 days 00:01:31.100000,0.175537,0.998291,-0.131104,0.488281,0.221252,-0.442505,1.0220501053598106
0 days 00:01:31.110000,0.179932,0.994385,-0.138916,-0.083923,-2.059937,-0.488281,1.0200366208646627
0 days 00:01:31.120000,0.174316,0.998291,-0.132568,0.549316,0.770569,-0.404358,1.0220299717527859
0 days 00:01:31.130000,0.185059,0.996094,-0.137207,0.740051,1.228333,-0.511169,1.0223873293258285
0 days 00:01:31.140000,0.179932,0.998047,-0.136719,0.686645,1.770019,-0.305176,1.0233110102964786
0 days 00:01:31.150000,0.171875,0.999023,-0.135742,-1.197815,-3.433227,-0.976562,1.0227481902785258
0 days 00:01:31.160000,0.185547,0.994141,-0.137451,1.304626,2.983093,-0.137329,1.02060609173716
0 days 00:01:31.170000,0.184326,0.993652,-0.135742,1.38855,2.838135,-0.106812,1.0196794898123624
0 days 00:01:31.180000,0.181885,0.994141,-0.138428,1.350403,2.63977,-0.030518,1.0200788167048662
0 days 00:01:31.190000,0.182617,0.995361,-0.139648,1.235962,2.433777,-0.053406,1.0215645123603305
0 days 00:01:31.200000,0.185059,0.994141,-0.137939,1.25885,2.227783,-0.038147,1.0205833278488339
0 days 00:01:31.210000,0.185303,0.996338,-0.137695,1.174927,2.098083,-0.137329,1.0227348263738747
0 days 00:01:31.220000,0.185791,0.996826,-0.137939,1.098633,1.808166,-0.160217,1.0233315873547537
0 days 00:01:31.230000,0.18335,0.997803,-0.138184,0.938415,1.571655,-0.267029,1.0238763925225545
0 days 00:01:31.240000,0.183105,0.998779,-0.138184,0.900268,1.365662,-0.404358,1.0247837575420484
0 days 00:01:31.250000,0.177246,0.998047,-0.13501,0.488281,1.274109,-0.366211,1.022615107860724
0 days 00:01:31.260000,0.185303,0.997559,-0.137939,0.831604,1.182556,-0.427246,1.0239571905167715
0 days 00:01:31.270000,0.185791,0.997314,-0.13501,0.801086,1.304626,-0.465393,1.0234164403491866
0 days 00:01:31.280000,0.183838,0.996338,-0.13623,0.846863,1.289368,-0.480652,1.0222741478624997
0 days 00:01:31.290000,0.184326,0.998047,-0.137451,0.900268,1.396179,-0.534058,1.0241907370631702
0 days 00:01:31.300000,0.184326,0.996094,-0.139893,0.816345,1.441955,-0.549316,1.0226188843166353
0 days 00:01:31.310000,0.185059,0.995605,-0.138184,0.854492,1.724243,-0.366211,1.0220425467474434
0 days 00:01:31.320000,0.182373,0.99585,-0.138916,0.808716,1.869202,-0.404358,1.0218976410017786
0 days 00:01:31.330000,0.180664,0.996338,-0.140869,0.831604,1.968384,-0.434875,1.0223370120958157
0 days 00:01:31.340000,0.181885,0.996338,-0.137207,0.793457,2.120972,-0.312805,1.0220554409218707
0 days 00:01:31.350000,0.18042,0.997314,-0.134521,0.717163,2.090454,-0.312805,1.0223905762657441
0 days 00:01:31.360000,0.18042,1.000244,-0.135986,0.663757,1.998901,-0.297546,1.0254421622558727
0 days 00:01:31.370000,0.185547,0.996826,-0.137207,0.900268,1.25885,-0.450134,1.0231888996338847
0 days 00:01:31.380000,0.173096,0.998291,-0.135498,-1.243591,-3.746032,-0.915527,1.0222068547515226
0 days 00:01:31.390000,0.17334,0.995605,-0.13208,-1.296997,-3.952026,-0.946045,1.0191767256099404
0 days 00:01:31.400000,0.174561,0.994629,-0.133057,-1.190186,-3.913879,-1.014709,1.018559058479674
0 days 00:01:31.410000,0.182861,0.998047,-0.133789,-0.671387,-3.555298,0.099182,1.0234429422547209
0 days 00:01:31.420000,0.18457,0.998779,-0.132568,-0.579834,-3.387451,0.030518,1.024304569141913
0 days 00:01:31.430000,0.18335,0.998047,-0.134033,-0.534058,-3.364563,-0.061035,1.0235623487594685
0 days 00:01:31.440000,0.18335,0.99707,-0.136963,-0.488281,-3.364563,-0.183105,1.0229978840491314
0 days 00:01:31.450000,0.18457,0.997559,-0.135254,-0.50354,-3.227234,-0.152588,1.0234665055081187
0 days 00:01:31.460000,0.187988,1.0,-0.135742,-0.404358,-2.944946,-0.114441,1.0265307490319031
0 days 00:01:31.470000,0.187744,1.004395,-0.135254,-0.305176,-2.716064,-0.114441,1.0307040167172143
0 days 00:01:31.480000,0.188721,1.006592,-0.138672,-0.267029,-2.586365,-0.015259,1.0334761699666808
0 days 00:01:31.490000,0.191895,1.005127,-0.138428,-0.244141,-2.26593,0.061035,1.032601708471374
0 days 00:01:31.500000,0.188965,1.001953,-0.137451,-0.152588,-1.983642,0.106812,1.0288393279978172
0 days 00:01:31.510000,0.179688,0.994629,-0.134277,-0.694275,-3.883362,0.106812,1.0196101890987554
0 days 00:01:31.520000,0.187256,0.999756,-0.138184,-0.114441,-1.976013,0.175476,1.0264851128623347
0 days 00:01:31.530000,0.185791,0.997559,-0.139648,-0.335693,-2.059937,0.228882,1.024277217390878
0 days 00:01:31.540000,0.188232,0.99585,-0.136963,-0.282288,-1.991272,0.221252,1.0226961287171277
0 days 00:01:31.550000,0.1875,0.996094,-0.139648,-0.37384,-2.01416,0.190735,1.0231622895415955
0 days 00:01:31.560000,0.1875,0.998291,-0.137451,-0.480652,-1.922607,0.038147,1.025004364908755
0 days 00:01:31.570000,0.189697,0.999268,-0.138672,-0.50354,-1.953125,0.061035,1.026523945759182
0 days 00:01:31.580000,0.189941,0.997803,-0.139893,-0.526428,-2.044678,-0.068665,1.0253089591625542
0 days 00:01:31.590000,0.19043,0.99707,-0.137939,-0.541687,-2.01416,-0.045776,1.024421464789273
0 days 00:01:31.600000,0.189941,0.997559,-0.137207,-0.335693,-1.907349,-0.160217,1.0247083989169796
0 days 00:01:31.610000,0.190674,0.996094,-0.137451,-0.320435,-1.792908,-0.267029,1.023451322004618
0 days 00:01:31.620000,0.189941,0.994385,-0.136719,-0.213623,-1.701355,-0.198364,1.0215533254152716
0 days 00:01:31.630000,0.185547,0.998535,-0.13916,-0.358582,-2.044678,0.25177,1.025117232824617
0 days 00:01:31.640000,0.18042,0.996582,-0.134766,-0.663757,-3.974914,0.244141,1.0217088302838533
0 days 00:01:31.650000,0.19165,0.991699,-0.137451,-0.061035,-1.495361,-0.267029,1.0193573497562078
0 days 00:01:31.660000,0.177734,1.000244,-0.137207,-0.411987,-3.082275,0.190735,1.0251356959646853
0 days 00:01:31.670000,0.175049,0.996582,-0.131592,-1.098633,-3.768921,-0.892639,1.020359882389052
0 days 00:01:31.680000,0.174805,0.99585,-0.132324,-0.999451,-3.578186,-0.740051,1.0196978236227634
0 days 00:01:31.690000,0.17627,0.994873,-0.132324,-0.793457,-3.27301,-0.450134,1.0189960942049778
0 days 00:01:31.700000,0.175049,0.993652,-0.132324,-0.717163,-3.097534,-0.335693,1.017593283429583
0 days 00:01:31.710000,0.174561,0.99292,-0.134277,-0.709534,-3.128052,-0.358582,1.0170506289511845
0 days 00:01:31.720000,0.175781,0.993652,-0.134277,-0.549316,-3.158569,-0.312805,1.0179752304422736
0 days 00:01:31.730000,0.177002,0.999023,-0.138184,-0.526428,-3.669739,0.228882,1.0239489637618664
0 days 00:01:31.740000,0.176514,0.999512,-0.130859,-0.701904,-3.65448,-0.465393,1.0233794546603914
0 days 00:01:31.750000,0.17749,0.999268,-0.132324,-0.648498,-3.921509,-0.50354,1.0234983521725867
0 days 00:01:31.760000,0.179199,0.999512,-0.131836,-0.411987,-4.203796,-0.434875,1.0239713133877335
0 days 00:01:31.770000,0.179443,0.997314,-0.132813,-0.389099,-4.234314,-0.297546,1.0219952533226366
0 days 00:01:31.780000,0.174561,0.998535,-0.129883,-0.549316,-3.257751,-0.366211,1.021965401877676
0 days 00:01:31.790000,0.18457,0.999023,-0.135986,-0.335693,-3.913879,-0.183105,1.0249903568448826
0 days 00:01:31.800000,0.18457,0.997803,-0.138428,-0.419617,-3.570556,-0.114441,1.024128518738249
0 days 00:01:31.810000,0.186035,0.996826,-0.138184,-0.389099,-3.112793,-0.1297,1.023408966814831
0 days 00:01:31.820000,0.1875,0.99585,-0.140137,-0.289917,-2.525329,-0.297546,1.02299161837671
0 days 00:01:31.830000,0.186768,0.994873,-0.139893,-0.144958,-2.02179,-0.305176,1.0218730955466047
0 days 00:01:31.840000,0.186279,0.993408,-0.138184,-0.12207,-1.564026,-0.411987,1.020124569923203
0 days 00:01:31.850000,0.186279,0.993652,-0.139893,-0.1297,-1.319885,-0.404358,1.0205950295753943
0 days 00:01:31.860000,0.182861,0.99585,-0.138184,-0.1297,-1.289368,-0.38147,1.0218856030285386
0 days 00:01:31.870000,0.179443,0.998291,-0.136475,-0.312805,-1.777649,-0.213623,1.0234305724156378
0 days 00:01:31.880000,0.177979,1.000977,-0.135254,-0.350952,-2.433777,-0.030518,1.025634010495947
0 days 00:01:31.890000,0.183105,0.999023,-0.133545,-0.419617,-4.188538,-0.282288,1.024406492843051
0 days 00:01:31.900000,0.179932,0.998047,-0.135498,-0.267029,-1.289368,-0.267029,1.023148594700203
0 days 00:01:31.910000,0.179443,0.999512,-0.134277,-0.236511,-1.052856,-0.419617,1.024331167700173
0 days 00:01:31.920000,0.183105,0.999268,-0.136475,-0.167847,-0.862122,-0.50354,1.025031415359549
0 days 00:01:31.930000,0.18335,0.998779,-0.135742,-0.152588,-0.63324,-0.518799,1.0245011488060909
0 days 00:01:31.940000,0.181152,1.000488,-0.140137,-0.12207,-0.534058,-0.282288,1.0263677040987798
0 days 00:01:31.950000,0.185791,1.000977,-0.137207,-0.12207,-0.450134,-0.495911,1.027277475202781
0 days 00:01:31.960000,0.185791,0.999512,-0.138916,-0.061035,-0.534058,-0.350952,1.0260800109547987
0 days 00:01:31.970000,0.185791,1.000244,-0.137939,-0.1297,-0.480652,-0.289917,1.0266613477374122
0 days 00:01:31.980000,0.185791,1.000488,-0.137451,-0.213623,-0.564575,-0.50354,1.026833633665162
0 days 00:01:31.990000,0.181396,0.996094,-0.136963,-0.137329,-1.518249,-0.12207,1.0216979147580756
0 days 00:01:32,0.186279,0.992188,-0.138672,-1.289368,-4.547119,-0.358582,1.0190028541515475
0 days 00:01:32.010000,0.180176,0.998535,-0.133545,-0.213623,-1.945495,0.0,1.0234108677486282
0 days 00:01:32.020000,0.181641,0.997803,-0.133789,-0.236511,-2.189636,-0.007629,1.022987671583094
0 days 00:01:32.030000,0.184082,0.999023,-0.133789,-0.450134,-2.441406,0.0,1.0246134069852881
0 days 00:01:32.040000,0.184326,0.99585,-0.134766,-0.610352,-2.601623,-0.099182,1.0216923076601878
0 days 00:01:32.050000,0.18457,0.997803,-0.137207,-0.640869,-2.89917,-0.167847,1.023964194958984
0 days 00:01:32.060000,0.184326,0.996094,-0.137451,-0.808716,-3.189087,-0.282288,1.0222876838312198
0 days 00:01:32.070000,0.183838,0.996582,-0.137695,-0.984192,-3.494262,-0.343323,1.022708172448524
0 days 00:01:32.080000,0.182617,0.996094,-0.137451,-1.167297,-4.013062,-0.335693,1.0219809210185873
0 days 00:01:32.090000,0.182129,0.991699,-0.138184,-1.213074,-4.364014,-0.328064,1.01770953473867
0 days 00:01:32.100000,0.183838,0.989746,-0.137695,-1.289368,-4.470825,-0.335693,1.0160479652974066
0 days 00:01:32.110000,0.180908,0.99707,-0.140137,-0.015259,-0.442505,-0.236511,1.0229929951534371
0 days 00:01:32.120000,0.179199,0.997559,-0.133301,-0.236511,-1.747131,-0.053406,1.0222550546135736
0 days 00:01:32.130000,0.183105,0.994873,-0.138428,0.099182,-0.320435,-0.198364,1.0210103027580084
0 days 00:01:32.140000,0.187256,0.99585,-0.13501,-0.358582,0.022888,-0.724792,1.0222571751452763
0 days 00:01:32.150000,0.180908,0.995117,-0.136475,0.022888,-0.038147,-0.213623,1.0205934419630571
0 days 00:01:32.160000,0.189453,0.994385,-0.138916,-1.289368,-4.508972,-0.267029,1.021759082411309
0 days 00:01:32.170000,0.190674,0.994385,-0.130615,1.052856,3.227234,-0.114441,1.0208909739663683
0 days 00:01:32.180000,0.187256,0.996582,-0.131348,1.060486,3.250122,-0.137329,1.0224934177607208
0 days 00:01:32.190000,0.183838,0.996826,-0.137451,0.999451,3.02124,-0.205994,1.0229131253048813
0 days 00:01:32.200000,0.181641,0.997314,-0.139648,0.785828,2.326965,-0.099182,1.0232938147868382
0 days 00:01:32.210000,0.179443,0.996826,-0.137207,0.595093,1.449585,-0.114441,1.0220996161695786
0 days 00:01:32.220000,0.178711,0.99585,-0.138184,0.343323,0.900268,-0.030518,1.0211511454613367
0 days 00:01:32.230000,0.181641,0.994873,-0.140381,0.061035,0.427246,0.0,1.0210154573614447
0 days 00:01:32.240000,0.184082,0.99707,-0.142334,-0.091553,0.091553,-0.152588,1.023862166104403
0 days 00:01:32.250000,0.186279,0.997803,-0.137695,-0.205994,0.038147,-0.305176,1.0243391067781216
0 days 00:01:32.260000,0.182373,0.994141,-0.137451,0.068665,-0.183105,-0.259399,1.0200338310129717
0 days 00:01:32.270000,0.187744,0.997314,-0.135742,-0.228882,0.007629,-0.457764,1.0238695789484127
0 days 00:01:32.280000,0.187988,0.996094,-0.136963,-0.50354,0.053406,-0.762939,1.022888854347822
0 days 00:01:32.290000,0.1875,1.000244,-0.131592,-0.282288,0.25177,-0.75531,1.0261387644953288
0 days 00:01:32.300000,0.1875,0.998291,-0.131348,-0.236511,0.213623,-0.770569,1.0242038214071456
0 days 00:01:32.310000,0.186768,0.998779,-0.132568,-0.190735,0.183105,-0.709534,1.0247029087930803
0 days 00:01:32.320000,0.185059,0.996582,-0.132568,-0.106812,0.305176,-0.663757,1.022250845354994
0 days 00:01:32.330000,0.186279,0.992432,-0.130615,0.007629,0.617981,-0.534058,1.0181755343210717
0 days 00:01:32.340000,0.187012,0.992432,-0.131348,0.053406,0.801086,-0.488281,1.018404173141489
0 days 00:01:32.350000,0.183838,0.991699,-0.134033,0.091553,0.648498,-0.450134,1.0174616267624053
0 days 00:01:32.360000,0.181641,0.993896,-0.135254,0.190735,0.442505,-0.457764,1.0193705686417478
0 days 00:01:32.370000,0.18042,0.996582,-0.137939,0.053406,0.167847,-0.289917,1.0221321963645407
0 days 00:01:32.380000,0.188232,1.000244,-0.135986,-0.358582,0.091553,-0.663757,1.026845430216252
0 days 00:01:32.390000,0.192139,0.992432,-0.140137,-1.312256,-4.066467,-0.221252,1.0205278284858281
0 days 00:01:32.400000,0.193115,0.990479,-0.138916,-1.197815,-3.540039,-0.305176,1.0186460168881044
0 days 00:01:32.410000,0.195313,0.991943,-0.139893,-1.174927,-2.952575,-0.427246,1.020621445329756
0 days 00:01:32.420000,0.195313,0.989746,-0.137695,0.411987,0.442505,-0.465393,1.0181867341062738
0 days 00:01:32.430000,0.192871,0.992676,-0.138916,0.495911,0.900268,-0.465393,1.0207362630341885
0 days 00:01:32.440000,0.19165,0.990479,-0.133301,0.62561,1.228333,-0.488281,1.017618557487038
0 days 00:01:32.450000,0.192627,0.993164,-0.135986,0.778198,1.495361,-0.556946,1.0207703386271567
0 days 00:01:32.460000,0.191406,0.994141,-0.134033,0.846863,1.907349,-0.534058,1.021233288629978
0 days 00:01:32.470000,0.194092,0.994629,-0.135986,0.823975,2.334595,-0.419617,1.0224728574886475
0 days 00:01:32.480000,0.193115,0.994873,-0.138184,0.907898,2.6474,-0.38147,1.0228198801401935
0 days 00:01:32.490000,0.194824,0.994629,-0.138916,0.976562,2.677917,-0.480652,1.0230058131178923
0 days 00:01:32.500000,0.190918,0.994629,-0.141357,0.892639,2.525329,-0.389099,1.0226037022297543
0 days 00:01:32.510000,0.187256,0.995605,-0.140869,0.808716,2.311707,-0.305176,1.0228089756753214
0 days 00:01:32.520000,0.193848,0.990479,-0.135986,0.236511,0.068665,-0.37384,1.0183898510595046
0 days 00:01:32.530000,0.1875,0.994629,-0.141846,0.785828,2.082825,-0.289917,1.0220388374993388
0 days 00:01:32.540000,0.187012,0.992676,-0.14209,0.801086,1.823425,-0.358582,1.0200826913637933
0 days 00:01:32.550000,0.186279,0.996094,-0.141602,0.717163,1.914978,-0.289917,1.0232078230159307
0 days 00:01:32.560000,0.188965,0.996094,-0.139648,0.671387,1.907349,-0.236511,1.023431772012673
0 days 00:01:32.570000,0.188477,0.994629,-0.138428,0.747681,1.815796,-0.228882,1.021749841377037
0 days 00:01:32.580000,0.190186,0.993408,-0.137451,0.907898,1.853943,-0.228882,1.0207462693838267
0 days 00:01:32.590000,0.191162,0.994385,-0.139648,0.961304,1.914978,-0.328064,1.0221770895363482
0 days 00:01:32.600000,0.191895,0.99585,-0.136963,1.068115,2.212524,-0.366211,1.023376654460126
0 days 00:01:32.610000,0.192139,0.99707,-0.137695,1.25885,2.571106,-0.350952,1.0247077111283978
0 days 00:01:32.620000,0.19165,0.997314,-0.139893,1.213074,2.792358,-0.335693,1.0251512027720595
0 days 00:01:32.630000,0.191162,0.993164,-0.140137,1.335144,3.082275,-0.259399,1.0210563255320444
0 days 00:01:32.640000,0.187744,0.992432,-0.144043,0.778198,1.876831,-0.305176,1.020253630235639
0 days 00:01:32.650000,0.19165,0.990723,-0.135742,0.289917,-0.175476,-0.335693,1.018178607019908
0 days 00:01:32.660000,0.186768,0.992676,-0.139404,1.38855,3.15094,-0.205994,1.0196672996698481
0 days 00:01:32.670000,0.196289,0.992188,-0.13623,0.061035,-0.297546,-0.236511,1.0205513273544844
0 days 00:01:32.680000,0.192627,0.991455,-0.140137,-1.068115,-2.456665,-0.495911,1.019669827406401
0 days 00:01:32.690000,0.193604,0.988525,-0.137939,-1.029968,-1.991272,-0.526428,1.016706128712717
0 days 00:01:32.700000,0.194824,0.991211,-0.137939,-0.862122,-1.670837,-0.610352,1.0195502955803604
0 days 00:01:32.710000,0.192139,0.990479,-0.138672,-0.572205,-1.396179,-0.724792,1.018428185168694
0 days 00:01:32.720000,0.189941,0.992432,-0.137695,-0.549316,-1.190186,-0.579834,1.019783688401614
0 days 00:01:32.730000,0.191406,0.993408,-0.138184,-0.37384,-1.014709,-0.488281,1.0210732241891372
0 days 00:01:32.740000,0.194092,0.990479,-0.135742,0.190735,-0.221252,-0.37384,1.0184037728077209
0 days 00:01:32.750000,0.186523,0.998535,-0.137451,-0.236511,-1.25885,-0.289917,1.0250637800424907
0 days 00:01:32.760000,0.18457,0.995605,-0.137939,-0.038147,-1.51062,-0.061035,1.0219210187905914
0 days 00:01:32.770000,0.185303,0.996094,-0.139648,-0.045776,-1.785278,0.12207,1.0227619579105394
0 days 00:01:32.780000,0.18457,0.995361,-0.137695,0.038147,-2.105713,0.213623,1.0216503894415154
0 days 00:01:32.790000,0.188721,0.99585,-0.138184,-0.366211,-1.098633,-0.457764,1.0229504661502433
0 days 00:01:32.800000,0.190186,0.99292,-0.142822,-0.068665,-2.082825,0.030518,1.0210087975526951
0 days 00:01:32.810000,0.192871,0.991455,-0.140625,0.068665,-1.747131,0.053406,1.0197831290480344
0 days 00:01:32.820000,0.192383,0.996094,-0.141602,-0.114441,-1.457214,0.1297,1.0243366643486898
0 days 00:01:32.830000,0.193359,0.997559,-0.142334,-0.1297,-1.350403,0.038147,1.0260461144207895
0 days 00:01:32.840000,0.191162,0.99585,-0.142334,0.061035,-1.144409,-0.015259,1.0239722165664458
0 days 00:01:32.850000,0.192139,0.991211,-0.139893,-0.007629,-1.098633,0.167847,1.0193069671551351
0 days 00:01:32.860000,0.195313,0.993652,-0.14209,-0.053406,-1.022339,0.228882,1.0225854649724881
0 days 00:01:32.870000,0.195068,0.993896,-0.142578,-0.053406,-0.862122,0.1297,1.0228437170574987
0 days 00:01:32.880000,0.195068,0.99292,-0.140869,-0.022888,-0.610352,0.061035,1.0216583216442765
0 days 00:01:32.890000,0.194336,0.99292,-0.137695,0.045776,-0.350952,-0.106812,1.0210859514854762
0 days 00:01:32.900000,0.186035,0.992676,-0.140381,-0.076294,-2.159119,0.137329,1.0196673415197723
0 days 00:01:32.910000,0.179932,0.997559,-0.130859,-3.318786,-5.210876,0.724792,1.0220682760882465
0 days 00:01:32.920000,0.177979,0.995361,-0.13208,-3.173828,-4.554749,0.907898,1.0197377952993603
0 days 00:01:32.930000,0.182617,0.99585,-0.132568,-3.112793,-3.868103,0.984192,1.0210976769207734
0 days 00:01:32.940000,0.184326,0.993652,-0.131592,-3.211975,-3.517151,1.014709,1.0191353324480512
0 days 00:01:32.950000,0.191406,0.993652,-0.128418,-4.226685,-6.034851,0.999451,1.020035164425227
0 days 00:01:32.960000,0.19165,0.993408,-0.130127,-3.387451,-3.753662,1.12915,1.0200599066197045
0 days 00:01:32.970000,0.191406,0.994141,-0.12793,-3.562927,-4.318237,1.159668,1.0204502288779203
0 days 00:01:32.980000,0.193115,0.993164,-0.127686,-3.868103,-5.088806,1.037598,1.019790100323101
0 days 00:01:32.990000,0.187744,0.992676,-0.130859,-3.334045,-3.40271,1.075745,1.0187136635939462
0 days 00:01:33,0.181885,1.000244,-0.130859,-3.387451,-5.683898,0.701904,1.025033799755891
0 days 00:01:33.010000,0.186768,0.998291,-0.133057,-3.036499,-7.156372,0.106812,1.0242906676105177
0 days 00:01:33.020000,0.179688,1.000977,-0.131104,-3.623962,-6.225585,0.602722,1.025393090813957
0 days 00:01:33.030000,0.182617,0.998535,-0.129395,-3.570556,-6.454467,0.488281,1.0233104030249083
0 days 00:01:33.040000,0.182861,1.001465,-0.128418,-3.540039,-6.607055,0.465393,1.0260903830901058
0 days 00:01:33.050000,0.183594,0.998047,-0.128174,-3.509521,-6.706237,0.442505,1.0228553882739242
0 days 00:01:33.060000,0.185059,0.99707,-0.126953,-3.379822,-6.805419,0.396728,1.0220139346359227
0 days 00:01:33.070000,0.185547,0.997559,-0.127686,-3.387451,-6.835937,0.350952,1.0226707008054938
0 days 00:01:33.080000,0.186768,0.996826,-0.128174,-3.189087,-6.813049,0.1297,1.0222391766978998
0 days 00:01:33.090000,0.185791,0.993408,-0.127441,-3.14331,-6.950378,-0.076294,1.018635832192251
0 days 00:01:33.100000,0.18457,0.99707,-0.128418,-3.067016,-7.102966,-0.053406,1.0221085326539447
0 days 00:01:33.110000,0.186279,0.999268,-0.131104,-3.120422,-7.17926,0.030518,1.0249022687461473
0 days 00:01:33.120000,0.191895,0.993408,-0.130615,-4.577637,-6.820678,1.083374,1.0201683310679663
0 days 00:01:33.130000,0.180908,1.000977,-0.131836,-3.486633,-6.027221,0.724792,1.0257014136136304
0 days 00:01:33.140000,0.190918,0.994873,-0.129639,-4.875183,-7.446289,1.174927,1.0212875399093049
0 days 00:01:33.150000,0.189453,0.987061,-0.129639,-6.16455,-8.682251,3.364563,1.0134042269751
0 days 00:01:33.160000,0.187988,0.992432,-0.128906,-5.1651,-8.293152,1.403808,1.0182718299177287
0 days 00:01:33.170000,0.186035,0.994385,-0.135498,-3.044128,-7.095336,0.144958,1.0206714738122153
0 days 00:01:33.180000,0.20459,0.977051,-0.146484,-10.520934,-13.175963,6.607055,1.008931755351669
0 days 00:01:33.190000,0.207275,0.983887,-0.145508,-10.353087,-12.435912,6.324768,1.0159572493259743
0 days 00:01:33.200000,0.210693,0.987061,-0.142578,-9.994507,-11.95526,5.867004,1.019318127011386
0 days 00:01:33.210000,0.20874,0.988037,-0.140869,-9.69696,-11.604308,5.546569,1.019624232808342
0 days 00:01:33.220000,0.204834,0.989014,-0.138184,-9.254456,-11.245727,5.401611,1.0194118292466494
0 days 00:01:33.230000,0.204346,0.990479,-0.134277,-8.789063,-10.902404,5.28717,1.0202138255708948
0 days 00:01:33.240000,0.206787,0.98877,-0.134033,-8.331299,-10.337829,5.172729,1.0190151232233995
0 days 00:01:33.250000,0.205322,0.986572,-0.133301,-7.843017,-9.70459,5.012512,1.0164893464611422
0 days 00:01:33.260000,0.203613,0.985596,-0.134521,-7.392883,-9.208679,4.669189,1.0153588668180331
0 days 00:01:33.270000,0.187988,0.994385,-0.129883,-5.134582,-8.010864,1.327515,1.0202992747512858
0 days 00:01:33.280000,0.200195,0.985107,-0.134277,-6.958007,-8.68988,4.364014,1.0141716581540818
0 days 00:01:33.290000,0.191895,0.986572,-0.132324,-6.42395,-8.750916,3.707886,1.0137345033020233
0 days 00:01:33.300000,0.191406,0.988281,-0.12915,-5.92041,-8.483887,3.219604,1.014896701293782
0 days 00:01:33.310000,0.1875,0.992676,-0.127441,-5.699157,-8.308411,2.89154,1.0182352868846178
0 days 00:01:33.320000,0.18457,0.992676,-0.130371,-5.577087,-8.415222,2.632141,1.0180708833460468
0 days 00:01:33.330000,0.181885,0.990967,-0.130371,-5.508422,-8.361816,2.502441,1.015920442729154
0 days 00:01:33.340000,0.18042,0.989502,-0.130615,-5.378723,-8.499146,2.326965,1.0142612398337028
0 days 00:01:33.350000,0.178955,0.989746,-0.132813,-5.432128,-8.903503,2.212524,1.0145251744091912
0 days 00:01:33.360000,0.178955,0.987793,-0.133545,-5.485534,-9.07135,1.968384,1.0127162336503746
0 days 00:01:33.370000,0.182373,0.989258,-0.132324,-5.500793,-9.040833,1.731872,1.0145939792197665
0 days 00:01:33.380000,0.185547,0.989014,-0.132324,-5.294799,-8.68988,1.525879,1.014931535809682
0 days 00:01:33.390000,0.194336,0.987549,-0.135498,-6.706237,-8.621216,3.990173,1.0155684202952553
0 days 00:01:33.400000,0.186523,0.994873,-0.136719,-3.074646,-6.813049,0.228882,1.0213986492153786
0 days 00:01:33.410000,0.187744,0.995117,-0.13501,-3.005981,-6.584167,0.335693,1.0216326900236699
0 days 00:01:33.420000,0.190918,0.99585,-0.137207,-2.975464,-6.225585,0.396728,1.0232265956634434
0 days 00:01:33.430000,0.195068,0.994873,-0.135498,-0.480652,-0.526428,0.37384,1.0228311291493821
0 days 00:01:33.440000,0.192383,0.993408,-0.137207,-0.419617,-0.343323,0.526428,1.0211250824468077
0 days 00:01:33.450000,0.192627,0.994141,-0.137451,-0.495911,-0.450134,0.62561,1.0219169567097905
0 days 00:01:33.460000,0.194824,0.989502,-0.135986,-0.602722,-0.724792,0.480652,1.0176260566514597
0 days 00:01:33.470000,0.197021,0.988525,-0.135742,-0.617981,-0.816345,0.221252,1.0170667827778075
0 days 00:01:33.480000,0.196045,0.994141,-0.138672,-0.63324,-0.808716,0.137329,1.0227315842829927
0 days 00:01:33.490000,0.197021,0.996582,-0.13623,-0.709534,-0.770569,0.015259,1.0249641798936195
0 days 00:01:33.500000,0.197754,0.996582,-0.135254,-0.541687,-0.816345,-0.053406,1.0249760835043908
0 days 00:01:33.510000,0.195068,0.992676,-0.136719,-0.419617,-0.62561,-0.099182,1.0208571156440063
0 days 00:01:33.520000,0.193359,0.991943,-0.137451,-0.526428,-0.488281,-0.030518,1.0199173474017391
0 days 00:01:33.530000,0.197021,0.993408,-0.137207,-0.656128,-0.923157,0.282288,1.0220090458278732
0 days 00:01:33.540000,0.193359,0.989502,-0.139404,-0.63324,-0.457764,-0.25177,1.0178091108361134
0 days 00:01:33.550000,0.189941,0.989258,-0.13916,-0.534058,-0.167847,-0.198364,1.0168945272962187
0 days 00:01:33.560000,0.191895,0.989746,-0.139648,-0.480652,0.160217,-0.312805,1.0178027311050997
0 days 00:01:33.570000,0.188965,0.98999,-0.137695,-0.328064,0.37384,-0.274658,1.0172255818401343
0 days 00:01:33.580000,0.189697,0.991455,-0.135986,-0.190735,0.839233,-0.099182,1.018557883004201
0 days 00:01:33.590000,0.189941,0.989014,-0.137207,-0.030518,1.358032,0.038147,1.0163916747622443
0 days 00:01:33.600000,0.189941,0.989258,-0.137695,0.213623,1.808166,0.114441,1.0166950806756172
0 days 00:01:33.610000,0.190674,0.991699,-0.136475,0.335693,2.037048,0.114441,1.019043132797626
0 days 00:01:33.620000,0.191162,0.993896,-0.135986,0.556946,2.227783,0.152588,1.0212073057200481
0 days 00:01:33.630000,0.192627,0.994141,-0.135498,0.63324,2.388,0.106812,1.0216561050637345
0 days 00:01:33.640000,0.191162,0.994873,-0.132568,0.709534,2.63977,-0.015259,1.021709093136104
0 days 00:01:33.650000,0.190918,0.98877,-0.140381,-0.663757,-0.350952,-0.297546,1.016770682496796
0 days 00:01:33.660000,0.195801,0.99292,-0.137451,-0.679016,-1.373291,0.228882,1.0213329209430193
0 days 00:01:33.670000,0.190918,0.994385,-0.130371,0.953674,2.861023,-0.068665,1.0209053866984932
0 days 00:01:33.680000,0.195801,0.996094,-0.138184,-0.991821,-1.953125,0.137329,1.0245174992614816
0 days 00:01:33.690000,0.191406,0.99585,-0.136719,-2.952575,-6.034851,0.37384,1.0232524440708657
0 days 00:01:33.700000,0.189453,0.995605,-0.135498,-2.937317,-5.775451,0.267029,1.0224878792621457
0 days 00:01:33.710000,0.191162,0.995605,-0.135254,-2.929687,-5.676269,0.236511,1.0227736165862902
0 days 00:01:33.720000,0.191406,0.996582,-0.135498,-2.868652,-5.53894,0.213623,1.0238025432494295
0 days 00:01:33.730000,0.189697,0.997803,-0.135254,-2.677917,-5.386352,0.205994,1.0246411191895435
0 days 00:01:33.740000,0.189453,0.997559,-0.134277,-2.609253,-5.149841,0.236511,1.0242298132836205
0 days 00:01:33.750000,0.196533,0.994141,-0.136963,-0.846863,-1.647949,0.236511,1.0225949400124177
0 days 00:01:33.760000,0.189941,0.996582,-0.132568,-2.311707,-4.653931,0.457764,1.0231459039789974
0 days 00:01:33.770000,0.191162,0.991699,-0.133545,-2.159119,-4.40979,0.63324,1.0187463295001362
0 days 00:01:33.780000,0.192871,0.992188,-0.132324,-1.869202,-3.997802,0.709534,1.019385055296084
0 days 00:01:33.790000,0.190186,0.992676,-0.132813,-1.731872,-3.585815,0.839233,1.0194192702421316
0 days 00:01:33.800000,0.19043,0.995605,-0.133057,-2.471924,-4.859924,0.343323,1.022348798685654
0 days 00:01:33.810000,0.19043,0.993896,-0.134521,-1.533508,-3.433227,0.999451,1.0208764583224554
0 days 00:01:33.820000,0.190918,0.993164,-0.13623,-1.434326,-3.265381,1.037598,1.020481761973236
0 days 00:01:33.830000,0.195068,0.994629,-0.13623,-1.38855,-3.005981,0.854492,1.0226910506917521
0 days 00:01:33.840000,0.192871,0.992676,-0.135742,-1.274109,-2.693176,0.694275,1.0203091463772145
0 days 00:01:33.850000,0.191895,0.994629,-0.136963,-1.205444,-2.418518,0.602722,1.0221885354644709
0 days 00:01:33.860000,0.193359,0.995117,-0.137207,-1.266479,-2.13623,0.511169,1.0229718018689469
0 days 00:01:33.870000,0.192383,0.99707,-0.136719,-1.190186,-2.059937,0.312805,1.0246228030597406
0 days 00:01:33.880000,0.192383,0.996338,-0.13623,-1.274109,-2.113342,0.198364,1.0238453212438878
0 days 00:01:33.890000,0.196045,0.996338,-0.136963,-1.251221,-2.166748,0.053406,1.0246374557071394
0 days 00:01:33.900000,0.195068,0.995605,-0.137207,-1.144409,-2.151489,0.015259,1.023770775856588
0 days 00:01:33.910000,0.190186,0.992676,-0.135742,-1.678467,-3.517151,0.976562,1.0198050039767408
0 days 00:01:33.920000,0.287842,1.022461,0.026367,12.901305,-63.407894,3.082275,1.062532226416686
0 days 00:01:33.930000,0.288818,1.015137,0.031738,14.961242,-59.387203,3.761291,1.0559006897132892
0 days 00:01:33.940000,0.291504,1.014404,0.0354,16.807556,-55.625912,4.455566,1.056050764514661
0 days 00:01:33.950000,0.294189,1.006836,0.035889,18.165588,-52.398678,4.966736,1.049549388517758
0 days 00:01:33.960000,0.321533,0.998047,0.071045,20.507811,-47.851559,5.378723,1.050965592359236
0 days 00:01:33.970000,0.30249,0.995361,0.048096,20.187376,-48.530575,5.767822,1.0414206381846867
0 days 00:01:33.980000,0.306152,0.993896,0.054932,20.591734,-47.790524,5.943298,1.0414297050420638
0 days 00:01:33.990000,0.313232,0.99585,0.063232,20.729063,-47.409054,5.798339,1.0458631813712538
0 days 00:01:34,0.297119,1.000732,0.041748,19.302368,-49.957272,5.386352,1.0447426149482943
0 days 00:01:34.010000,0.288086,1.031738,0.022217,10.459899,-67.489624,2.471924,1.0714338239616108
0 days 00:01:34.020000,0.303223,1.025391,-0.027588,-28.495787,-104.904167,-13.587951,1.0696410558472407
0 days 00:01:34.030000,0.287842,1.038818,0.015869,4.890442,-75.706482,1.12915,1.0780759153459463
0 days 00:01:34.040000,0.289795,1.039795,0.014893,1.800537,-79.650879,0.434875,1.0795260930144301
0 days 00:01:34.050000,0.28833,1.04126,0.012939,-1.296997,-83.267204,-0.37384,1.0805202423929874
0 days 00:01:34.060000,0.289063,1.039795,0.01123,-4.524231,-86.372368,-1.365662,1.0792854918389296
0 days 00:01:34.070000,0.289063,1.034912,0.007813,-7.751464,-89.286797,-2.548218,1.0745516779950606
0 days 00:01:34.080000,0.285889,1.025391,-0.000488,-11.07788,-92.224113,-4.005432,1.0644996295659288
0 days 00:01:34.090000,0.286621,1.019043,-0.008057,-14.488219,-95.314018,-5.691528,1.0586147310230478
0 days 00:01:34.100000,0.290527,1.014893,-0.013184,-17.860413,-98.243706,-7.575988,1.0557402886287897
0 days 00:01:34.110000,0.294678,1.019287,-0.02124,-21.583555,-100.8377,-9.628296,1.0612409008575763
0 days 00:01:34.120000,0.300293,1.023438,-0.023926,-25.016783,-102.958672,-11.726378,1.0668522293031029
0 days 00:01:34.130000,0.327393,0.996338,0.077393,19.935608,-48.957821,4.615784,1.0516012852512115
0 days 00:01:34.140000,0.288086,1.037109,0.015625,7.751464,-71.655273,1.716614,1.076490948360459
0 days 00:01:34.150000,0.330811,0.988281,0.081543,19.218445,-50.239559,3.585815,1.045363340437668
0 days 00:01:34.160000,0.386963,0.950195,0.069824,-3.005981,-68.847656,-18.722534,1.0283415251607806
0 days 00:01:34.170000,0.338623,0.984131,0.089844,16.899109,-52.429195,1.296997,1.0446297457118479
0 days 00:01:34.180000,0.308105,1.03125,-0.025146,-31.929014,-106.704704,-15.129088,1.0765860740512112
0 days 00:01:34.190000,0.336426,0.976563,0.040771,-4.554749,-90.988152,16.036987,1.0336924208322318
0 days 00:01:34.200000,0.33667,0.957764,0.040283,-5.386352,-92.361443,14.083861,1.0160124451427748
0 days 00:01:34.210000,0.347168,0.937012,0.041992,-6.080627,-92.330925,11.528014,1.000140208386804
0 days 00:01:34.220000,0.354004,0.916992,0.043213,-6.393432,-91.148369,8.338928,0.9839006674705532
0 days 00:01:34.230000,0.356445,0.90332,0.043701,-6.614685,-89.424126,4.859924,0.9720853037804861
0 days 00:01:34.240000,0.359131,0.901123,0.043457,-6.790161,-87.036125,1.13678,0.9710232989681555
0 days 00:01:34.250000,0.363037,0.906494,0.044434,-6.752014,-84.098808,-2.563476,0.9774976295423943
0 days 00:01:34.260000,0.368408,0.909912,0.046631,-6.515502,-80.688469,-6.179809,0.9827709562095331
0 days 00:01:34.270000,0.374756,0.915527,0.048828,-6.072998,-77.362061,-9.788513,0.9904624782640683
0 days 00:01:34.280000,0.33374,0.984863,0.085205,18.310547,-51.353451,2.464294,1.0433587151090464
0 days 00:01:34.290000,0.375977,0.922363,0.050537,-5.584716,-74.539185,-12.886046,0.9973295326355277
0 days 00:01:34.300000,0.383301,0.937744,0.064941,-4.051208,-70.602417,-17.562866,1.0151358527891723
0 days 00:01:34.310000,0.390137,0.959961,0.072998,-1.853943,-66.78772,-18.882751,1.0387784693061366
0 days 00:01:34.320000,0.390869,0.96582,0.077881,-0.350952,-64.552307,-18.035889,1.044821658333134
0 days 00:01:34.330000,0.386475,0.968262,0.077393,1.327515,-62.301632,-15.846251,1.0454108774630193
0 days 00:01:34.340000,0.378418,0.975342,0.081055,3.097534,-60.203548,-13.145446,1.0493150683722217
0 days 00:01:34.350000,0.371826,0.98584,0.087646,5.142211,-58.319088,-10.139464,1.0572686040888568
0 days 00:01:34.360000,0.361572,0.990234,0.091553,7.484436,-56.838985,-6.858825,1.0581491566641255
0 days 00:01:34.370000,0.351318,0.987549,0.0979,10.299682,-55.747982,-3.837585,1.0527401267763095
0 days 00:01:34.380000,0.348877,0.984619,0.097168,13.000487,-54.740902,-1.64032,1.0491097924021109
0 days 00:01:34.390000,0.341064,0.982422,0.094238,15.251159,-53.604122,0.007629,1.0442022978446275
0 days 00:01:34.400000,0.379883,0.92749,0.059814,-5.004883,-72.433472,-15.571593,1.0040550325480173
0 days 00:01:34.410000,0.311035,1.036133,-0.022705,-35.095215,-108.009331,-16.548157,1.0820489277010537
0 days 00:01:34.420000,0.338623,1.004395,0.040527,-3.913879,-88.653557,17.585754,1.0607154613198584
0 days 00:01:34.430000,0.312256,1.044922,-0.017578,-40.473934,-109.184258,-17.623901,1.0907221377161094
0 days 00:01:34.440000,0.199463,0.968262,-0.084717,-32.928467,-47.71423,-0.335693,0.9922165888060932
0 days 00:01:34.450000,0.202881,0.975586,-0.092529,-31.295774,-44.586178,0.473022,1.000744902259312
0 days 00:01:34.460000,0.208008,0.981934,-0.103271,-29.579161,-40.878292,1.274109,1.0090226002726599
0 days 00:01:34.470000,0.209473,0.989014,-0.112549,-27.992247,-36.994934,2.029419,1.0171995415482646
0 days 00:01:34.480000,0.216064,0.995605,-0.116943,-26.489256,-33.119202,2.670288,1.0254699573220076
0 days 00:01:34.490000,0.218262,1.00293,-0.116943,-25.169371,-29.785154,3.158569,1.0330452801271588
0 days 00:01:34.500000,0.21582,1.007813,-0.119141,-23.849485,-27.19116,3.257751,1.0375258518465937
0 days 00:01:34.510000,0.199951,1.007568,-0.11792,-22.544859,-25.367735,3.684997,1.0339626702279923
0 days 00:01:34.520000,0.191895,1.001465,-0.11499,-21.278379,-23.91815,4.219055,1.0261474247641027
0 days 00:01:34.530000,0.185303,0.998047,-0.115723,-19.897461,-22.804258,4.776001,1.0216784370568854
0 days 00:01:34.540000,0.209473,0.963135,-0.082764,-34.27887,-50.529476,-1.022339,0.9891197327169244
0 days 00:01:34.550000,0.180908,0.99707,-0.119873,-18.447876,-21.881102,5.401611,1.0204145361043226
0 days 00:01:34.560000,0.177246,0.995605,-0.121338,-16.296387,-20.51544,6.462097,1.0185128230832443
0 days 00:01:34.570000,0.175537,0.993408,-0.126221,-15.266418,-20.080564,6.91986,1.0166633826758984
0 days 00:01:34.580000,0.179443,0.993896,-0.126953,-14.533996,-19.813538,7.247924,1.0179126255597777
0 days 00:01:34.590000,0.182861,0.993652,-0.131348,-13.862609,-19.676208,7.461547,1.018839898869788
0 days 00:01:34.600000,0.184326,0.988037,-0.136475,-13.389586,-19.569397,7.591247,1.0143069620534013
0 days 00:01:34.610000,0.189209,0.983398,-0.140137,-12.817382,-19.02771,7.545471,1.0111923906230702
0 days 00:01:34.620000,0.192627,0.981201,-0.144531,-12.229918,-18.135071,7.484436,1.0103216188377837
0 days 00:01:34.630000,0.19751,0.979736,-0.14502,-11.83319,-16.868591,7.377624,1.0099126844415809
0 days 00:01:34.640000,0.200195,0.978516,-0.145508,-11.222838,-15.441894,7.17926,1.009328577988853
0 days 00:01:34.650000,0.201416,0.975342,-0.146729,-10.803222,-14.152526,6.904602,1.0066726486107587
0 days 00:01:34.660000,0.179932,0.996094,-0.118652,-17.26532,-21.026609,5.966186,1.0191452686266076
0 days 00:01:34.670000,0.207275,0.958252,-0.074219,-35.964966,-53.451534,-1.609802,0.9832183282923483
0 days 00:01:34.680000,0.310303,1.039795,-0.019287,-37.948608,-108.787529,-17.341614,1.0852804163915426
0 days 00:01:34.690000,0.203857,0.964844,-0.068848,-38.742065,-57.91473,-3.135681,0.9885452280442206
0 days 00:01:34.700000,0.31543,1.042969,-0.016113,-42.594906,-108.604424,-17.64679,1.0897431113019251
0 days 00:01:34.710000,0.312256,1.035645,-0.01416,-44.296261,-107.284538,-17.39502,1.0817878170699649
0 days 00:01:34.720000,0.311523,1.026611,-0.012695,-45.463558,-105.361931,-16.899109,1.0729109412598046
0 days 00:01:34.730000,0.310791,1.016846,-0.011963,-46.203609,-102.462761,-16.334534,1.0633484597092338
0 days 00:01:34.740000,0.312988,1.007813,-0.010498,-46.70715,-98.930351,-15.953063,1.0553476863654936
0 days 00:01:34.750000,0.310059,0.996826,-0.012695,-46.722408,-95.008842,-15.510558,1.0440114083581655
0 days 00:01:34.760000,0.205566,0.957764,-0.071777,-37.666321,-56.251522,-2.212524,0.9822022183751165
0 days 00:01:34.770000,0.29248,0.987305,-0.019775,-46.806332,-86.807243,-14.289855,1.029906191868949
0 days 00:01:34.780000,0.286377,0.980469,-0.026855,-46.70715,-83.44268,-13.687133,1.0217888417452015
0 days 00:01:34.790000,0.2771,0.979004,-0.029785,-46.691891,-80.92498,-13.084411,1.0178999893118184
0 days 00:01:34.800000,0.26709,0.978271,-0.026611,-46.592709,-78.582764,-12.351989,1.0144256320016762
0 days 00:01:34.810000,0.300293,0.990479,-0.015381,-46.852108,-90.888969,-14.961242,1.0351140567352952
0 days 00:01:34.820000,0.254395,0.978516,-0.026367,-46.165462,-75.3479,-10.95581,1.0113879557172905
0 days 00:01:34.830000,0.251465,0.979492,-0.024902,-45.577999,-73.516846,-10.223388,1.0115628175714053
0 days 00:01:34.840000,0.248535,0.976318,-0.027344,-44.982906,-71.44165,-9.422302,1.007826462088092
