t,ax,ay,az,gx,gy,gz,acc_mag
0 days 00:01:26.660000,0.229004,-0.947754,-0.083496,-2.708435,10.353087,7.064819,0.9785969847429533
0 days 00:01:26.670000,0.227539,-0.945313,-0.08252,-2.403259,8.628845,8.262634,0.9758074681462526
0 days 00:01:26.680000,0.243652,-0.925293,-0.0896,-2.593994,6.462097,-1.312256,0.9610211199307744
0 days 00:01:26.690000,0.2229,-0.957275,-0.084717,-0.831604,5.210876,9.658813,0.9865276507599774
0 days 00:01:26.700000,0.217773,-0.959717,-0.088379,0.061035,2.319336,10.32257,0.9880752234819979
0 days 00:01:26.710000,0.257568,-0.96875,-0.106201,-5.455017,13.763427,1.586914,1.008016115706986
0 days 00:01:26.720000,0.250732,-0.957764,-0.095459,-4.341125,10.993957,3.601074,0.9946310050470979
0 days 00:01:26.730000,0.278564,-0.957275,-0.070313,1.930237,-3.295898,6.874084,0.9994584762209983
0 days 00:01:26.740000,0.280518,-0.95459,-0.06958,1.846313,-3.807068,6.614685,0.9973834733060299
0 days 00:01:26.750000,0.305664,-0.937988,-0.063477,2.655029,-7.583618,2.250671,0.9885753884095032
0 days 00:01:26.760000,0.308838,-0.937988,-0.063965,2.487183,-6.790161,1.823425,0.9895928049521177
0 days 00:01:26.770000,0.310547,-0.938721,-0.065674,2.380371,-6.134033,1.38855,0.9909337159093943
0 days 00:01:26.780000,0.313232,-0.938965,-0.062256,2.006531,-5.439758,1.182556,0.9917889728087322
0 days 00:01:26.790000,0.315186,-0.937256,-0.064941,1.64032,-4.737854,1.068115,0.9909633482692485
0 days 00:01:26.800000,0.316162,-0.937256,-0.063721,1.38855,-4.295349,0.946045,0.9911950290538184
0 days 00:01:26.810000,0.314209,-0.936523,-0.067139,1.480102,-3.967285,0.930786,0.9901061915426043
0 days 00:01:26.820000,0.317383,-0.938232,-0.06665,1.533508,-3.799438,0.907898,0.9927000941941125
0 days 00:01:26.830000,0.317383,-0.939209,-0.066406,1.701355,-3.837585,0.762939,0.9936072016677415
0 days 00:01:26.840000,0.31958,-0.939209,-0.071045,1.594543,-3.517151,0.709534,0.9946317479881688
0 days 00:01:26.850000,0.305908,-0.940674,-0.065918,2.807617,-8.171082,2.586365,0.9913588963962546
0 days 00:01:26.860000,0.319824,-0.938232,-0.071777,1.770019,-3.448486,0.770569,0.9938403365375145
0 days 00:01:26.870000,0.31665,-0.938477,-0.077637,2.426147,-4.40979,-0.068665,0.9934957502667034
0 days 00:01:26.880000,0.331787,-0.931641,-0.074707,2.441406,-3.189087,0.511169,0.9917755300969066
0 days 00:01:26.890000,0.326416,-0.929199,-0.071777,2.441406,-2.876281,0.640869,0.9874766449825535
0 days 00:01:26.900000,0.317383,-0.931641,-0.072998,2.449036,-3.326416,0.396728,0.9869223016904625
0 days 00:01:26.910000,0.320801,-0.929932,-0.077393,1.89209,-3.417969,0.404358,0.9867504662649011
0 days 00:01:26.920000,0.321533,-0.931641,-0.075439,1.708984,-3.14331,0.328064,0.9884480085927636
0 days 00:01:26.930000,0.326416,-0.93335,-0.075928,1.747131,-2.967834,0.228882,0.9916928399156667
0 days 00:01:26.940000,0.323975,-0.929443,-0.08252,1.609802,-2.174377,0.106812,0.9877416875246281
0 days 00:01:26.950000,0.329102,-0.927979,-0.074951,1.89209,-1.579285,0.274658,0.9874567348729766
0 days 00:01:26.960000,0.275879,-0.956299,-0.069824,2.090454,-2.090454,6.813049,0.9977436499512287
0 days 00:01:26.970000,0.313721,-0.942383,-0.072998,2.159119,-4.234314,0.228882,0.9959092792689503
0 days 00:01:26.980000,0.303711,-0.938477,-0.06958,2.861023,-8.499146,3.097534,0.9888482327688107
0 days 00:01:26.990000,0.318359,-0.939697,-0.070068,1.586914,-3.860473,0.480652,0.9946318059030688
0 days 00:01:27,0.303711,-0.943359,-0.071777,3.059387,-9.368896,3.982544,0.9936390250644345
0 days 00:01:27.010000,0.302979,-0.941406,-0.070801,2.944946,-8.94165,3.578186,0.9914909545114368
0 days 00:01:27.020000,0.28833,-0.947021,-0.069824,1.358032,-3.440857,6.454467,0.9924002994341548
0 days 00:01:27.030000,0.287598,-0.95166,-0.068604,1.251221,-3.608703,6.202697,0.9965319232317648
0 days 00:01:27.040000,0.291016,-0.95752,-0.067139,1.12915,-3.860473,6.095886,1.0030167037377793
0 days 00:01:27.050000,0.291992,-0.960938,-0.064697,1.266479,-4.356384,6.080627,1.0064029360633842
0 days 00:01:27.060000,0.291016,-0.95752,-0.064941,1.121521,-4.577637,5.813598,1.0028719739513117
0 days 00:01:27.070000,0.289063,-0.952881,-0.064941,1.037598,-5.104064,5.874633,0.9978762205860003
0 days 00:01:27.080000,0.287598,-0.95166,-0.067627,0.976562,-5.867004,5.485534,0.9964651405508373
0 days 00:01:27.090000,0.289551,-0.951172,-0.062988,1.052856,-6.637573,5.241394,0.9962607305966648
0 days 00:01:27.100000,0.292969,-0.947266,-0.061523,1.274109,-7.156372,5.40924,0.9934428968219563
0 days 00:01:27.110000,0.293213,-0.945557,-0.064697,0.663757,-6.607055,5.1651,0.9920874988764852
0 days 00:01:27.120000,0.285156,-0.949219,-0.071289,1.808166,-3.784179,6.439209,0.9936864574995475
0 days 00:01:27.130000,0.297363,-0.945068,-0.060303,0.587463,-6.393432,4.867554,0.992579835681745
0 days 00:01:27.140000,0.296143,-0.944824,-0.062012,0.427246,-6.225585,4.966736,0.9920879777363497
0 days 00:01:27.150000,0.300781,-0.94165,-0.071289,2.922058,-9.590149,4.585266,0.9910883179525425
0 days 00:01:27.160000,0.300537,-0.942383,-0.070068,2.670288,-9.056091,4.951477,0.9916237853551114
0 days 00:01:27.170000,0.30127,-0.943115,-0.067139,2.296448,-8.636475,4.966736,0.9923392370787321
0 days 00:01:27.180000,0.305176,-0.941406,-0.065186,2.120972,-8.247375,5.027771,0.9917796440782599
0 days 00:01:27.190000,0.302734,-0.94458,-0.071777,2.998352,-9.544373,4.28009,0.9945004720386009
0 days 00:01:27.200000,0.298828,-0.940186,-0.06665,1.51062,-7.705688,4.653931,0.9887821350934695
0 days 00:01:27.210000,0.295898,-0.946777,-0.062988,1.174927,-7.469177,4.684448,0.9939365182329302
0 days 00:01:27.220000,0.297119,-0.945068,-0.060791,0.648498,-6.805419,4.676819,0.9925365335674047
0 days 00:01:27.230000,0.303223,-0.938965,-0.068604,1.770019,-7.67517,5.004883,0.9890935081022422
0 days 00:01:27.240000,0.817383,-0.323486,-0.015625,-35.118103,19.02771,-218.849167,0.8792054944721399
0 days 00:01:27.250000,0.804932,-0.161865,-0.07959,-5.462646,-30.3421,-174.949631,0.8248941574220295
0 days 00:01:27.260000,0.804688,-0.192139,-0.088135,-9.147644,-32.516479,-179.992661,0.831990355046259
0 days 00:01:27.270000,0.800049,-0.20874,-0.111816,-11.764525,-32.096863,-186.508163,0.8343582011684191
0 days 00:01:27.280000,0.78125,-0.222168,-0.157959,-14.801024,-27.816771,-194.99968,0.827442583147012
0 days 00:01:27.290000,0.792725,-0.246094,-0.160156,-19.462585,-18.791199,-203.491196,0.8453550300299869
0 days 00:01:27.300000,0.765381,-0.13208,-0.067871,-0.961304,-24.757383,-170.272812,0.7796535603728106
0 days 00:01:27.310000,0.823486,-0.258301,-0.11084,-25.512693,-2.632141,-209.922775,0.8701345323551986
0 days 00:01:27.320000,0.844482,-0.268311,-0.044434,-31.661985,14.938354,-214.195236,0.8871950300813232
0 days 00:01:27.330000,0.784912,-0.360107,-0.037598,-37.368774,10.711669,-221.031174,0.8643943016916529
0 days 00:01:27.340000,0.97168,-0.62793,-0.200439,-45.417782,1.541138,-215.011581,1.1741524177128795
0 days 00:01:27.350000,0.866455,-0.437744,-0.159424,-42.892452,-6.599426,-220.458969,0.9837581452455679
0 days 00:01:27.360000,0.921387,-0.487793,-0.190918,-43.785091,-8.483887,-219.039902,1.0598800391280137
0 days 00:01:27.370000,0.937988,-0.533447,-0.194824,-44.364925,-7.568359,-218.284592,1.0965142866962565
0 days 00:01:27.380000,0.950195,-0.590576,-0.201416,-44.532772,-4.386902,-217.041,1.1367580898577323
0 days 00:01:27.390000,0.969727,-0.64502,-0.193848,-48.446651,8.605957,-210.441574,1.1806770523868921
0 days 00:01:27.400000,0.971191,-0.688477,-0.195068,-49.880978,13.557433,-206.359848,1.2063432606990434
0 days 00:01:27.410000,0.951904,-0.748535,-0.177979,-49.591061,15.121459,-203.353867,1.223969932589032
0 days 00:01:27.420000,0.95874,-0.786865,-0.146484,-50.2243,15.449523,-198.326096,1.2489181230493054
0 days 00:01:27.430000,0.957275,-0.830566,-0.135498,-50.468441,14.457702,-191.33757,1.2745881742684577
0 days 00:01:27.440000,0.691162,-0.102295,-0.069824,1.777649,-17.494202,-165.115341,0.7021713239979258
0 days 00:01:27.450000,0.717529,0.44043,0.378662,71.853638,40.023804,-44.357296,0.9231529456081479
0 days 00:01:27.460000,0.665283,-0.052734,-0.108643,3.105163,-10.94818,-156.135559,0.6761550460463931
0 days 00:01:27.470000,0.958008,-0.870117,-0.125244,-49.308773,14.129638,-184.875473,1.3002188205409888
0 days 00:01:27.480000,0.69873,0.013184,-0.140137,9.460449,-5.401611,-134.58252,0.7127663077930942
0 days 00:01:27.490000,0.719238,0.393311,0.260498,61.370846,35.751343,-48.400875,0.8601488541926915
0 days 00:01:27.500000,0.737793,0.356201,0.189453,54.054256,35.240173,-51.208492,0.8408983900918113
0 days 00:01:27.510000,0.766357,0.327881,0.130127,49.392696,35.308838,-53.718563,0.8436480532419902
0 days 00:01:27.520000,0.789063,0.319824,0.080322,47.317501,32.897949,-55.702206,0.8551955522738643
0 days 00:01:27.530000,0.814941,0.318848,0.045654,46.104427,27.885435,-56.968685,0.8762860082764075
0 days 00:01:27.540000,0.836914,0.308594,0.020264,45.173641,20.431517,-58.738705,0.8922252685998083
0 days 00:01:27.550000,0.849121,0.281982,0.001953,43.922421,11.047362,-59.829708,0.8947201434940425
0 days 00:01:27.560000,0.843506,0.245605,-0.017822,42.434689,0.75531,-60.035702,0.8787160017576783
0 days 00:01:27.570000,0.815918,0.22168,-0.055176,40.748592,-8.659363,-61.06567,0.8472948696292218
0 days 00:01:27.580000,0.80127,0.205566,-0.090576,37.750244,-13.557433,-62.622066,0.8321628476638453
0 days 00:01:27.590000,0.661621,0.000732,-0.132324,6.286621,-5.760192,-144.65332,0.6747240357664754
0 days 00:01:27.600000,0.795166,0.194824,-0.120361,34.744263,-12.702941,-65.307617,0.8274854251604677
0 days 00:01:27.610000,0.797363,0.185791,-0.144775,29.58679,-3.761291,-73.84491,0.8314239893550102
0 days 00:01:27.620000,0.797607,0.166016,-0.133057,28.266905,0.12207,-78.323364,0.825495247687108
0 days 00:01:27.630000,0.787598,0.157715,-0.132324,27.565001,0.274658,-82.595818,0.8140603612785726
0 days 00:01:27.640000,0.75415,0.139648,-0.141113,28.884886,-4.974365,-86.654655,0.7798440005366457
0 days 00:01:27.650000,0.735107,0.129395,-0.148438,29.876707,-14.030456,-92.01049,0.7610251029486477
0 days 00:01:27.660000,0.712646,0.104248,-0.154053,28.747557,-21.736143,-100.219719,0.7365217536699102
0 days 00:01:27.670000,0.749023,0.080811,-0.15332,24.902342,-24.490355,-106.933586,0.7688126525038463
0 days 00:01:27.680000,0.788086,0.056396,-0.156982,20.057678,-22.354124,-113.334648,0.8055454056327302
0 days 00:01:27.690000,0.775879,0.039795,-0.150391,15.99121,-16.166687,-119.705193,0.7913212480067751
0 days 00:01:27.700000,0.748779,0.031494,-0.143799,12.191772,-9.742737,-126.327507,0.7631120594499867
0 days 00:01:27.710000,0.784912,0.191895,-0.141602,32.203674,-8.460999,-69.206238,0.8203424072745479
0 days 00:01:27.720000,0.959961,-0.905273,-0.139893,-48.71368,18.257141,-180.740341,1.3268814481704836
0 days 00:01:27.730000,0.817627,-0.383789,-0.094971,-40.374752,0.236511,-221.19902,0.9082000872555562
0 days 00:01:27.740000,0.951416,-0.919189,-0.192871,-49.118038,27.297972,-174.636826,1.3368994148469062
0 days 00:01:27.750000,0.273193,-0.996582,-0.093506,-3.40271,2.822876,-25.466917,1.0375709469761574
0 days 00:01:27.760000,0.265625,-0.981934,-0.095215,-2.426147,0.427246,-21.102903,1.0216735864286597
0 days 00:01:27.770000,0.247314,-0.971191,-0.091797,-1.792908,-0.686645,-18.463135,1.0063810721024118
0 days 00:01:27.780000,0.244629,-0.970947,-0.085205,-1.457214,-1.487732,-16.098022,1.0049086110064935
0 days 00:01:27.790000,0.239258,-0.973389,-0.083496,-1.190186,-2.349854,-13.72528,1.0058340409336919
0 days 00:01:27.800000,0.233398,-0.9729,-0.086182,-0.808716,-3.90625,-11.688231,1.00420932754481
0 days 00:01:27.810000,0.22998,-0.979736,-0.089111,-0.144958,-6.576538,-9.506226,1.01030401385771
0 days 00:01:27.820000,0.229736,-0.984131,-0.094482,0.648498,-9.45282,-7.247924,1.014997193681342
0 days 00:01:27.830000,0.230225,-0.982422,-0.098145,1.365662,-11.596679,-5.104064,1.013799278819037
0 days 00:01:27.840000,0.23584,-0.977539,-0.0979,1.846313,-12.939452,-3.089905,1.010340245719728
0 days 00:01:27.850000,0.257813,-0.99585,-0.091064,-5.081176,5.859375,-31.188963,1.0327039350970828
0 days 00:01:27.860000,0.236816,-0.973633,-0.097656,2.372742,-13.336181,-1.518249,1.0067669695023769
0 days 00:01:27.870000,0.245117,-0.959229,-0.0979,2.250671,-11.978148,0.213623,0.9948804089587854
0 days 00:01:27.880000,0.247314,-0.949219,-0.094482,2.204895,-10.597228,0.923157,0.9854480061784082
0 days 00:01:27.890000,0.249023,-0.945557,-0.094971,2.044678,-8.560181,1.327515,0.9824001148305103
0 days 00:01:27.900000,0.25415,-0.945557,-0.091064,1.594543,-6.553649,1.457214,0.98334272501758
0 days 00:01:27.910000,0.258301,-0.944092,-0.082764,1.029968,-4.66156,1.472473,0.9822825412074675
0 days 00:01:27.920000,0.257324,-0.936768,-0.08374,0.167847,-2.296448,1.571655,0.9750704150983148
0 days 00:01:27.930000,0.26001,-0.933838,-0.081787,-0.701904,0.183105,1.411438,0.9728040520644432
0 days 00:01:27.940000,0.258057,-0.931396,-0.08374,-1.327515,2.426147,0.801086,0.9701053095746873
0 days 00:01:27.950000,0.250977,-0.92749,-0.084961,-1.953125,4.28772,0.068665,0.964596042988981
0 days 00:01:27.960000,0.245117,-0.927002,-0.087158,-2.372742,5.40924,-0.564575,0.9628143999011439
0 days 00:01:27.970000,0.242676,-0.96582,-0.100098,2.510071,-13.015746,-0.457764,1.0008593922125126
0 days 00:01:27.980000,0.241699,-0.988037,-0.085449,-6.500244,9.44519,-35.903931,1.0207531785750168
0 days 00:01:27.990000,0.943359,-0.924561,-0.228271,-47.386166,39.726257,-165.191635,1.3404651786014434
0 days 00:01:28,0.255615,-0.976807,-0.08667,-8.247375,16.464233,-40.100098,1.0134113835822054
0 days 00:01:28.010000,0.240967,-0.987793,-0.085205,-7.537841,13.694762,-38.520813,1.0203234771203689
0 days 00:01:28.020000,0.79126,-0.943359,-0.166748,-37.864685,55.183407,-144.508362,1.242506935990701
0 days 00:01:28.030000,0.699219,-0.956787,-0.093018,-35.507202,57.716366,-138.114929,1.188697153043617
0 days 00:01:28.040000,0.638916,-0.97168,-0.064209,-35.011292,58.41827,-132.011414,1.164688144155765
0 days 00:01:28.050000,0.638428,-0.987793,-0.062256,-33.935547,56.938168,-124.076836,1.1777950295229642
0 days 00:01:28.060000,0.630371,-0.99707,-0.092529,-33.287048,52.352901,-115.226738,1.1832488319799856
0 days 00:01:28.070000,0.602295,-0.995117,-0.13916,-31.867979,47.386166,-108.413689,1.1714873521784177
0 days 00:01:28.080000,0.583008,-0.986328,-0.17041,-28.724669,46.600338,-100.769035,1.158352631864753
0 days 00:01:28.090000,0.592285,-0.973389,-0.193848,-26.252745,49.97253,-90.400688,1.155796138447434
0 days 00:01:28.100000,0.56543,-0.954834,-0.175293,-23.849485,53.863522,-83.114616,1.1234530200702653
0 days 00:01:28.110000,0.493896,-0.953613,-0.111084,-21.797178,56.65588,-79.109192,1.0796530311359294
0 days 00:01:28.120000,0.876221,-0.931641,-0.22168,-42.610165,49.491879,-153.839111,1.2980216547199819
0 days 00:01:28.130000,0.410889,-0.950928,-0.07251,-20.240782,54.458614,-71.31958,1.0384370619373136
0 days 00:01:28.140000,0.444336,-0.952393,-0.071289,-20.591734,56.892391,-75.256348,1.053360825579725
0 days 00:01:28.150000,0.281982,-0.960693,-0.093506,-8.293152,16.51001,-43.594357,1.0055785700824178
0 days 00:01:28.160000,0.300293,-0.952393,-0.099365,-8.270264,15.518188,-45.082088,1.0035445757528663
0 days 00:01:28.170000,0.30127,-0.957764,-0.114746,-8.69751,14.076232,-46.607967,1.0105652562363303
0 days 00:01:28.180000,0.296387,-0.962891,-0.13208,-10.025024,12.763976,-48.118587,1.016095201272991
0 days 00:01:28.190000,0.265869,-0.966553,-0.088623,-8.300781,17.120361,-41.870113,1.0063622921686801
0 days 00:01:28.200000,0.297607,-0.973877,-0.13501,-14.617919,20.675657,-53.512569,1.0272458506501743
0 days 00:01:28.210000,0.30835,-0.971191,-0.124512,-16.685486,29.876707,-58.151241,1.0265451374026375
0 days 00:01:28.220000,0.341797,-0.963623,-0.109131,-18.745422,40.596004,-62.530514,1.0282529117386443
0 days 00:01:28.230000,0.377197,-0.95874,-0.085938,-19.836426,49.362179,-67.001343,1.0338497493606118
0 days 00:01:28.240000,0.298828,-0.966309,-0.143799,-12.298583,14.518737,-49.949642,1.021630759847216
0 days 00:01:28.250000,0.901611,0.449707,0.20874,-64.819336,-64.460754,2.14386,1.0289369119484442
0 days 00:01:28.260000,0.787598,0.586914,-0.083008,-123.970024,-47.08099,-1.373291,0.9857327127898314
0 days 00:01:28.270000,0.806152,0.558594,-0.267334,-126.602165,-42.778011,-3.097534,1.0165509192834365
0 days 00:01:28.280000,0.797119,0.602783,-0.43335,-124.176018,-37.147522,-5.104064,1.0892833734846044
0 days 00:01:28.290000,0.775391,0.652832,-0.512451,-121.032707,-30.891417,-4.318237,1.135793489374719
0 days 00:01:28.300000,0.785156,0.575684,-0.417725,-113.853447,-25.482176,-8.903503,1.0594225728277644
0 days 00:01:28.310000,0.842041,0.468506,-0.150391,-102.165215,-25.016783,-14.10675,0.9752683582471032
0 days 00:01:28.320000,0.89209,0.371582,0.118164,-91.629021,-36.361694,-12.725829,0.97358126610982
0 days 00:01:28.330000,0.918945,0.333984,0.280273,-78.994751,-52.307125,-8.255005,1.0171323315134566
0 days 00:01:28.340000,0.76416,0.669678,0.085938,-117.950432,-48.912045,-1.571655,1.0197031279387152
0 days 00:01:28.350000,0.529541,0.128662,-0.529053,-58.303829,-28.976439,0.350952,0.7595160681210108
0 days 00:01:28.360000,0.88208,0.540527,-0.673828,-71.594238,-33.302307,27.06909,1.2346168384211353
0 days 00:01:28.370000,0.72998,0.355957,-0.775635,-77.9953,-10.604857,19.042969,1.1230253066934868
0 days 00:01:28.380000,0.587158,0.138428,-0.723877,-73.547363,-12.908935,3.494262,0.9422922791135455
0 days 00:01:28.390000,0.728271,0.4021,-0.253906,-36.087036,-29.197691,16.693115,0.8697880869941828
0 days 00:01:28.400000,0.900879,0.986084,-0.066406,-10.772704,14.450072,8.705139,1.3372936792391565
0 days 00:01:28.410000,0.77002,1.631592,0.028076,3.997802,43.601986,-11.413573,1.8043867425360893
0 days 00:01:28.420000,0.423584,1.705078,-0.161133,-22.552488,3.616333,43.823238,1.7642783892654244
0 days 00:01:28.430000,0.920654,-0.431152,0.37207,78.323364,-94.207756,17.39502,1.08255804450385
0 days 00:01:28.440000,0.866943,-1.538818,-0.897705,112.541191,-108.337395,-74.699402,1.9812686010225873
0 days 00:01:28.450000,0.712158,0.743408,0.205811,-112.701408,-44.105526,-2.632141,1.0498488649081827
0 days 00:01:28.460000,0.803467,0.644287,-0.109619,-59.68475,-67.810059,16.685486,1.0357032797181827
0 days 00:01:28.470000,0.658447,0.805664,0.283447,-106.140129,-31.539915,-4.096985,1.0784197394864397
0 days 00:01:28.480000,0.821289,0.592773,0.248047,82.862846,28.900145,3.852844,1.0427956488492844
0 days 00:01:28.490000,0.573975,0.81958,0.311279,-86.448662,11.054992,-7.057189,1.0478803809910748
0 days 00:01:28.500000,1.028564,-1.536621,-0.36792,89.988701,-107.963554,-77.774048,1.8853416470594926
0 days 00:01:28.510000,1.021973,-1.772461,-3.757324,6.988525,-106.994621,4.005432,4.278262550408284
0 days 00:01:28.520000,3.734863,-2.484131,-6.66748,-52.017208,-142.112732,50.300594,8.035881905822782
0 days 00:01:28.530000,-0.593018,-0.377197,2.108887,230.300888,55.091854,-3.90625,2.222915271417694
0 days 00:01:28.540000,0.535645,0.603516,0.352783,249.626144,36.453247,3.845215,0.8806832423578866
0 days 00:01:28.550000,0.628662,0.593506,0.075928,249.992355,46.867367,0.640869,0.867888439526648
0 days 00:01:28.560000,0.766602,0.572021,0.137451,248.680099,61.660763,-1.579285,0.9663226315501464
0 days 00:01:28.570000,0.858154,0.54248,0.163574,220.970139,77.377319,-4.241943,1.0283332590128553
0 days 00:01:28.580000,0.891602,0.479004,0.155273,192.024216,87.234489,-5.187988,1.0239671200526899
0 days 00:01:28.590000,0.894775,0.453613,0.18457,171.966537,81.634514,-4.592896,1.0200260483409236
0 days 00:01:28.600000,0.887695,0.500244,0.247559,151.519775,64.437866,-3.875732,1.048585681306969
0 days 00:01:28.610000,0.889404,0.553711,0.289551,127.243034,47.286983,-1.777649,1.0869568199050041
0 days 00:01:28.620000,0.870605,0.571777,0.280029,104.255669,35.140991,0.541687,1.0785630461845983
0 days 00:01:28.630000,2.403564,-1.359131,-5.530273,-124.916069,-124.641411,3.799438,6.181284367490789
0 days 00:01:28.640000,0.76001,0.630371,0.208496,60.729977,26.260374,7.606506,1.0091845122459024
0 days 00:01:28.650000,0.662354,0.683105,0.18042,40.138245,27.709959,8.033752,0.9684506382573146
0 days 00:01:28.660000,0.600342,0.733887,0.19043,19.287109,37.437439,7.240295,0.9670906010467686
0 days 00:01:28.670000,0.590576,0.782471,0.226074,-5.325317,50.178524,6.317138,1.006056822994109
0 days 00:01:28.680000,0.572998,0.757813,0.247803,-23.880003,54.924007,3.921509,0.9818419311589824
0 days 00:01:28.690000,0.55835,0.733154,0.270752,-32.76825,51.521297,-0.061035,0.9605082798810222
0 days 00:01:28.700000,0.567627,0.775635,0.233643,-46.630856,46.07391,-2.670288,0.9891405945582256
0 days 00:01:28.710000,0.590332,0.808838,0.238525,-64.239502,40.412899,-2.89917,1.0293711459395976
0 days 00:01:28.720000,0.579346,0.818115,0.267578,-78.216553,29.876707,-4.554749,1.0375702034199903
0 days 00:01:28.730000,0.599854,0.834229,0.308838,-96.031181,-11.688231,-6.454467,1.0729136759315727
0 days 00:01:28.740000,1.98877,-2.510498,-3.998535,47.111507,12.184142,-17.654419,5.1230936422369835
0 days 00:01:28.750000,0.821045,0.656494,-0.468018,-65.238953,-56.40411,26.985167,1.1507128713910348
0 days 00:01:28.760000,0.670898,0.540771,0.082031,233.146652,64.01825,-22.132872,0.8656018055699746
0 days 00:01:28.770000,0.989014,0.479004,-0.54126,-24.841307,-45.31097,4.379272,1.2249718004150136
0 days 00:01:28.780000,0.995605,0.384521,-0.634033,-15.624999,-25.070189,8.834839,1.2414038668197387
0 days 00:01:28.790000,0.905518,0.287109,-0.666504,-6.408691,-8.285522,15.800475,1.1604404371707322
0 days 00:01:28.800000,0.742676,0.133057,-0.574951,3.295898,-6.889343,6.210327,0.9485992086366085
0 days 00:01:28.810000,0.628174,0.144775,-0.361572,12.512206,-18.486023,-10.398864,0.7391188578875525
0 days 00:01:28.820000,0.763916,0.324707,-0.081299,28.861998,-29.670713,-0.297546,0.8340334635408821
0 days 00:01:28.830000,1.065918,0.89209,-0.018066,44.044491,-10.414123,14.389037,1.3900834979165821
0 days 00:01:28.840000,0.799316,1.614014,-0.042725,32.661438,58.433529,8.720398,1.8016028101879171
0 days 00:01:28.850000,0.475342,1.914795,-0.055664,-28.030394,62.721249,25.382994,1.9736991639773778
0 days 00:01:28.860000,0.336914,-0.001953,0.068359,48.416134,-33.981323,2.01416,0.3437845407897219
0 days 00:01:28.870000,0.9729,0.545166,-0.349121,-29.220579,-62.049862,0.457764,1.168599953019424
0 days 00:01:28.880000,0.768066,-1.51001,-0.323242,186.93541,-138.381958,-66.719055,1.7246857600792096
0 days 00:01:28.890000,1.990723,-2.817627,-5.913818,17.791748,-64.872742,-38.314819,6.846549737713296
0 days 00:01:28.900000,0.608154,-0.035645,0.879639,249.519333,65.864563,-60.508724,1.069993749543426
0 days 00:01:28.910000,0.853027,0.222656,0.253906,249.992355,67.070007,-63.453671,0.9174415588477557
0 days 00:01:28.920000,1.023438,0.295166,0.462158,248.687729,79.231262,-61.599728,1.1610935898384764
0 days 00:01:28.930000,1.208496,0.343506,0.561523,213.935837,96.488945,-54.191586,1.3761420833551308
0 days 00:01:28.940000,1.248535,0.353027,0.55542,175.849899,109.497063,-46.188351,1.4113678065458344
0 days 00:01:28.950000,1.107422,0.399414,0.510498,146.697998,103.492729,-40.817257,1.2831692162314368
0 days 00:01:28.960000,0.921143,0.444824,0.541504,124.763481,85.868828,-37.139893,1.1574106442576895
0 days 00:01:28.970000,0.803223,0.491699,0.5625,105.453484,63.720699,-37.773132,1.0969691628892766
0 days 00:01:28.980000,0.730225,0.490967,0.513916,87.242119,48.324581,-40.27557,1.0190126597692495
0 days 00:01:28.990000,1.121582,-1.1875,-4.147461,26.664732,-171.524033,-31.997679,4.457525679033717
0 days 00:01:29,1.039795,0.498047,-0.070313,-30.97534,-66.947937,-7.949829,1.1550620650869805
0 days 00:01:29.010000,0.419189,0.610107,0.775391,249.992355,71.022034,-23.895262,1.0719986809931252
0 days 00:01:29.020000,1.056885,0.274902,0.000244,-58.029171,-49.018856,-30.189512,1.0920517718336433
0 days 00:01:29.030000,0.725586,0.575684,0.267334,203.239426,68.199158,-27.023314,0.9640303827203788
0 days 00:01:29.040000,0.764648,0.618652,0.388184,168.800339,78.681946,-30.006407,1.0574042173473681
0 days 00:01:29.050000,0.755859,0.661621,0.458008,134.666443,84.922783,-30.136106,1.1040092860053308
0 days 00:01:29.060000,0.735107,0.701416,0.499756,102.569572,79.330444,-29.258726,1.1323086001797389
0 days 00:01:29.070000,0.696045,0.740479,0.522949,72.07489,69.023132,-28.640745,1.1429188282931557
0 days 00:01:29.080000,0.676758,0.778076,0.550781,44.700619,59.68475,-27.175901,1.1690865503892343
0 days 00:01:29.090000,1.131836,0.3396,0.077148,-42.41943,-61.012264,-19.561768,1.1842012940374622
0 days 00:01:29.100000,0.650391,0.851563,0.560303,2.098083,40.840145,-22.811888,1.2091763509343871
0 days 00:01:29.110000,0.631348,0.875,0.52832,-15.701293,31.028746,-19.859314,1.2013939068864965
0 days 00:01:29.120000,0.634277,0.845947,0.44873,-32.905579,20.919798,-17.433167,1.1486044804187383
0 days 00:01:29.130000,0.626953,0.787842,0.325928,-47.088619,8.529663,-15.937804,1.0582977569460308
0 days 00:01:29.140000,0.67334,0.812988,0.559082,21.499632,50.903316,-24.902342,1.1945329323497114
0 days 00:01:29.150000,0.608154,0.683105,0.125977,-66.551208,-23.963926,-14.427184,0.9232301626734256
0 days 00:01:29.160000,0.619385,0.724854,0.20752,-57.632442,-6.973266,-14.747619,0.9757641364289835
0 days 00:01:29.170000,0.88623,0.30957,-0.38916,-80.749504,-21.240232,-33.699036,1.0162099701341254
0 days 00:01:29.180000,0.835938,0.352539,-0.516357,-93.338005,-16.433716,-30.273436,1.0438872725605959
0 days 00:01:29.190000,0.821533,0.361084,-0.502197,-100.997917,-21.339415,-29.090879,1.0283481666993917
0 days 00:01:29.200000,0.789307,0.370361,-0.395264,-102.653496,-31.85272,-27.709959,0.9572911993045794
0 days 00:01:29.210000,0.983398,0.268066,-0.188965,-69.007874,-35.27832,-35.400391,1.0366478563065666
0 days 00:01:29.220000,0.718262,0.501709,-0.104736,-94.66552,-49.797054,-19.40918,0.8823728526088049
0 days 00:01:29.230000,0.669434,0.561768,-0.003662,-87.7304,-53.138729,-17.01355,0.873921378857389
0 days 00:01:29.240000,0.615234,0.602295,0.04834,-80.970757,-49.873348,-15.731811,0.8623276044410269
0 days 00:01:29.250000,0.595703,0.637207,0.081055,-74.394226,-39.276123,-14.892577,0.8760506481265794
0 days 00:01:29.260000,0.758789,0.427734,-0.25415,-100.311272,-41.992184,-23.139952,0.9073639533158676
0 days 00:01:29.270000,0.916748,-0.299561,-0.191162,-13.801574,-2.281189,111.175529,0.9832123872638099
0 days 00:01:29.280000,0.873535,-0.279053,-0.194092,-13.374328,-6.54602,110.260002,0.9373396809577625
0 days 00:01:29.290000,0.872314,-0.250977,-0.192627,-13.534545,-9.727478,108.695976,0.9279150447395494
0 days 00:01:29.300000,0.871094,-0.238281,-0.193848,-13.984679,-12.077331,106.208794,0.9236664110494655
0 days 00:01:29.310000,0.885986,-0.230225,-0.184326,-13.687133,-12.657165,104.476921,0.9337830674717764
0 days 00:01:29.320000,0.932861,-0.223633,-0.165527,-13.885497,-11.093139,103.942863,0.9734683105982445
0 days 00:01:29.330000,0.974121,-0.206055,-0.141113,-15.975951,-6.988525,104.804985,1.0056258073632558
0 days 00:01:29.340000,1.00415,-0.196533,-0.118652,-17.967224,-2.555847,106.193535,1.030058609833926
0 days 00:01:29.350000,1.003418,-0.192383,-0.106201,-19.348145,0.495911,106.559746,1.027198887175215
0 days 00:01:29.360000,0.990479,-0.158936,-0.097656,-21.995543,4.692078,109.02404,1.007891857231221
0 days 00:01:29.370000,1.0354,0.044922,-0.104736,-38.619995,14.045714,116.958611,1.0416529056168375
0 days 00:01:29.380000,0.902344,-0.083984,-0.100098,-28.053282,2.738952,115.425102,0.9117552391930633
0 days 00:01:29.390000,0.822021,-0.068848,-0.107666,-29.769896,-4.219055,112.541191,0.831895750140004
0 days 00:01:29.400000,0.813721,-0.051514,-0.115723,-31.333921,-11.543273,108.657829,0.8235213238077081
0 days 00:01:29.410000,0.85083,-0.035645,-0.117432,-33.172607,-15.853881,105.804436,0.8596351141903172
0 days 00:01:29.420000,0.913574,-0.027832,-0.11792,-36.178589,-16.105652,104.454033,0.9215732201512802
0 days 00:01:29.430000,0.975586,-0.038086,-0.116699,-38.658142,-13.47351,103.393547,0.9832788228132446
0 days 00:01:29.440000,1.026611,-0.061035,-0.114746,-38.208008,-9.284973,102.394096,1.0348053251998657
0 days 00:01:29.450000,1.070068,-0.063477,-0.11377,-37.117004,-3.158569,102.043144,1.0779696039559743
0 days 00:01:29.460000,1.101318,-0.0271,-0.110107,-37.963867,5.477905,104.965202,1.107140144052685
0 days 00:01:29.470000,1.103027,0.009277,-0.104492,-38.467407,13.275146,111.778252,1.108004153206115
0 days 00:01:29.480000,0.976563,-0.33252,-0.178223,-14.236449,3.456115,110.862724,1.046904141312852
0 days 00:01:29.490000,0.980713,-0.114258,-0.09082,-25.55084,6.683349,113.883965,0.9915145744430588
0 days 00:01:29.500000,0.981934,-0.373779,-0.17749,-14.770507,6.080627,106.895439,1.065555170461389
0 days 00:01:29.510000,0.799561,-0.506836,-0.106934,-16.334534,34.980774,109.481804,0.9526885136144972
0 days 00:01:29.520000,0.915283,-0.408447,-0.175781,-15.846251,10.047912,104.125969,1.0175808969605316
0 days 00:01:29.530000,0.92041,0.073975,-0.104248,-38.18512,7.225036,116.271965,0.9292440552562066
0 days 00:01:29.540000,0.595947,-0.666504,-0.048096,1.815796,64.125061,129.79126,0.8953734606525927
0 days 00:01:29.550000,0.625,-0.650146,-0.049072,-0.862122,61.012264,127.372734,0.9031737831115338
0 days 00:01:29.560000,0.657715,-0.641357,-0.052979,-3.799438,57.701107,125.740044,0.920181828289931
0 days 00:01:29.570000,0.693115,-0.640137,-0.053711,-6.134033,53.916927,124.458305,0.9450230968156281
0 days 00:01:29.580000,0.72876,-0.643799,-0.057129,-7.949829,49.690243,122.871391,0.9740800853328231
0 days 00:01:29.590000,0.756592,-0.643311,-0.063965,-9.178162,45.043941,121.688835,0.9951743658324405
0 days 00:01:29.600000,0.782715,-0.637939,-0.071533,-10.169982,40.588375,120.841972,1.0122874636361947
0 days 00:01:29.610000,0.801025,-0.622803,-0.07959,-10.856627,36.79657,120.24688,1.0177716814364606
0 days 00:01:29.620000,0.805664,-0.599121,-0.089111,-11.642455,33.828735,119.140617,1.0079589395694648
0 days 00:01:29.630000,0.953613,-0.400879,-0.177979,-15.136718,7.102966,103.775017,1.049646726689985
0 days 00:01:29.640000,0.808838,-0.576416,-0.094727,-12.794494,32.783508,116.928093,0.9977211633662985
0 days 00:01:29.650000,0.807129,-0.526123,-0.099121,-15.602111,34.851074,112.625114,0.9685492276652746
0 days 00:01:29.660000,0.808838,-0.493652,-0.111816,-16.944885,34.339905,106.544487,0.9541561849110448
0 days 00:01:29.670000,0.829102,-0.486328,-0.120605,-17.250061,32.585144,104.537956,0.9687469308405575
0 days 00:01:29.680000,0.844482,-0.475342,-0.129395,-17.89093,30.105589,104.156487,0.9776722003376183
0 days 00:01:29.690000,0.860596,-0.45874,-0.136719,-19.096375,28.511045,105.590813,0.9847639045867796
0 days 00:01:29.700000,0.858154,-0.441406,-0.146729,-20.072937,26.481627,106.842033,0.9761131819584243
0 days 00:01:29.710000,0.83374,-0.419922,-0.165527,-20.431517,22.644041,106.986992,0.9480801977749562
0 days 00:01:29.720000,0.823975,-0.412109,-0.181641,-19.989014,18.875122,106.582634,0.9390218748181535
0 days 00:01:29.730000,0.837158,-0.413086,-0.185547,-18.859863,16.349792,105.705254,0.9517884479068864
0 days 00:01:29.740000,0.875244,-0.40918,-0.179932,-17.318726,13.572692,104.942314,0.982779658194043
0 days 00:01:29.750000,0.811279,-0.550293,-0.097168,-14.404296,33.714294,114.906303,0.9851079239931023
0 days 00:01:29.760000,0.57666,-0.679199,-0.044678,4.272461,66.902161,133.026123,0.8921009813272262
0 days 00:01:29.770000,0.879639,0.133301,-0.104492,-39.31427,-10.345458,109.794609,0.8957971338344413
0 days 00:01:29.780000,0.923096,0.146729,-0.101807,-41.526791,-14.305114,107.124321,0.9402128960538672
0 days 00:01:29.790000,0.816406,0.241943,-0.339355,-42.526241,14.900207,58.494564,0.9166335080663373
0 days 00:01:29.800000,0.789551,0.238525,-0.345703,-41.648861,16.029358,54.931637,0.8943128767019963
0 days 00:01:29.810000,0.771484,0.245361,-0.333984,-40.565487,14.015197,49.461361,0.8757481914528856
0 days 00:01:29.820000,0.755127,0.289795,-0.313477,-42.16766,11.924743,42.16766,0.8674478414769387
0 days 00:01:29.830000,0.759766,0.313721,-0.307617,-47.187801,11.291503,35.850525,0.8776636367572717
0 days 00:01:29.840000,0.754639,0.327637,-0.30127,-50.468441,9.315491,30.113218,0.8761219304354845
0 days 00:01:29.850000,0.698975,0.339111,-0.302002,-51.658627,6.484985,23.628233,0.8335271614950529
0 days 00:01:29.860000,0.654541,0.362549,-0.312744,-53.421017,4.821777,18.15033,0.8109713358793885
0 days 00:01:29.870000,0.628662,0.361572,-0.367188,-54.367062,1.976013,15.541076,0.8128820632613319
0 days 00:01:29.880000,0.600098,0.365234,-0.415527,-50.239559,-6.034851,14.236449,0.8161961603003288
0 days 00:01:29.890000,0.828125,0.247803,-0.30835,-42.716976,11.405944,61.744686,0.9177565390309131
0 days 00:01:29.900000,0.578369,0.38916,-0.454346,-41.770931,-17.448425,12.84027,0.8320976465998448
0 days 00:01:29.910000,0.690186,0.407471,-0.452148,-23.91815,-18.379211,14.175414,0.9202321143825616
0 days 00:01:29.920000,0.719482,0.377441,-0.385254,-24.139402,-6.660461,12.329101,0.8991866888032762
0 days 00:01:29.930000,0.690918,0.318115,-0.297363,-29.289244,-3.364563,4.570007,0.8166943061623486
0 days 00:01:29.940000,0.62085,0.247559,-0.168701,-26.56555,-18.463135,-2.63977,0.6893476687289223
0 days 00:01:29.950000,0.648438,0.37085,0.035645,-19.378662,-40.122986,-2.532959,0.7478449895325903
0 days 00:01:29.960000,0.852295,0.720703,0.212158,-24.391172,-22.880552,9.635925,1.136147260788847
0 days 00:01:29.970000,1.156494,1.334473,0.223877,-13.504027,26.824949,20.851133,1.780004907547729
0 days 00:01:29.980000,1.033936,1.746094,0.17334,19.14978,71.105957,26.519773,2.036642988972785
0 days 00:01:29.990000,0.742432,1.649658,-0.136963,3.372192,43.106075,59.42535,1.8142038625680963
0 days 00:01:30,0.624512,0.318848,-0.057617,18.180847,-40.90118,43.815609,0.7035616561020078
0 days 00:01:30.010000,0.609619,0.403564,-0.472412,-30.96771,-24.29962,11.817931,0.8704437517731975
0 days 00:01:30.020000,0.814941,0.240967,-0.263184,-41.053768,5.714416,64.201355,0.8896402342666389
0 days 00:01:30.030000,0.862305,0.105225,-0.108643,-37.994385,-2.624511,112.815849,0.8754687402180616
0 days 00:01:30.040000,0.796143,0.222168,-0.195557,-44.036861,-7.011413,70.396423,0.8493790890538806
0 days 00:01:30.050000,0.80127,0.215088,-0.219971,-40.885921,-0.87738,66.993713,0.8583028029110705
0 days 00:01:30.060000,0.953125,0.146973,-0.110596,-42.778011,-14.457702,104.728691,0.9707109783916117
0 days 00:01:30.070000,0.970459,0.1521,-0.121338,-42.79327,-10.719298,103.240959,0.9897716862615338
0 days 00:01:30.080000,0.981934,0.15918,-0.131348,-41.65649,-2.960205,103.378288,1.0033867399263356
0 days 00:01:30.090000,0.990234,0.158936,-0.138184,-40.298458,7.194519,104.141228,1.0123827560305438
0 days 00:01:30.100000,0.977783,0.157227,-0.14209,-39.108276,16.777039,103.019707,1.0004846289264018
0 days 00:01:30.110000,0.925537,0.1604,-0.144531,-38.490295,22.468565,101.898186,0.9503873464698487
0 days 00:01:30.120000,0.769043,0.190186,-0.157227,-37.162781,16.906738,95.558159,0.8076621694582458
0 days 00:01:30.130000,0.75,0.201416,-0.156006,-37.42218,10.543822,91.354362,0.7920898163036816
0 days 00:01:30.140000,0.773926,0.212158,-0.159912,-38.574219,4.348755,88.371269,0.8182568778714909
0 days 00:01:30.150000,0.803467,0.221436,-0.151367,-39.520264,-2.220154,85.380547,0.8470567223474471
0 days 00:01:30.160000,0.84082,0.175049,-0.150391,-37.734985,22.354124,99.815361,0.8719162102415575
0 days 00:01:30.170000,0.852295,0.221191,-0.144287,-40.061951,-11.817931,82.572929,0.8922729200614575
0 days 00:01:30.180000,0.890625,0.221924,-0.131348,-40.504452,-11.886596,82.733147,0.9272084175119422
0 days 00:01:30.190000,0.921631,0.234131,-0.130127,-41.419979,-9.597778,82.649223,0.9597677122361431
0 days 00:01:30.200000,0.789795,0.235596,-0.199219,-45.013424,-11.779784,73.356628,0.8479208849898675
0 days 00:01:30.210000,0.925293,0.234375,-0.14502,-43.411251,-5.073547,81.954948,0.9654685789159584
0 days 00:01:30.220000,0.919434,0.210938,-0.174072,-45.669552,0.099182,81.05468,0.959246986643169
0 days 00:01:30.230000,0.902832,0.188721,-0.181396,-45.448299,2.380371,79.910278,0.9400136939858909
0 days 00:01:30.240000,0.859863,0.189941,-0.178711,-42.999264,-0.541687,78.147888,0.898543033900436
0 days 00:01:30.250000,0.811279,0.21582,-0.190918,-41.694637,-7.514953,76.316833,0.8609306423661548
0 days 00:01:30.260000,0.789795,0.231445,-0.203857,-42.976376,-12.374877,74.989319,0.8478800661054605
0 days 00:01:30.270000,0.82251,0.223389,-0.145264,-39.741516,-8.232117,83.175652,0.8645964232617435
0 days 00:01:30.280000,0.412354,-0.870361,-0.052002,-15.670775,49.133297,26.725767,0.9645041729515742
0 days 00:01:30.290000,0.421143,-0.870361,-0.055908,-14.144897,48.820492,26.893614,0.9685119520346664
0 days 00:01:30.300000,0.430176,-0.875488,-0.060059,-12.474059,48.416134,26.451109,0.9773114716409503
0 days 00:01:30.310000,0.51123,-0.880615,-0.080078,-5.523681,45.303341,12.535094,1.0213967775595338
0 days 00:01:30.320000,0.438965,-0.881104,-0.075684,-8.934021,49.659725,22.521971,0.9873006623602558
0 days 00:01:30.330000,0.453613,-0.887695,-0.076172,-7.377624,51.36108,18.844604,0.9997846470005428
0 days 00:01:30.340000,0.470459,-0.881592,-0.08374,-7.347106,52.009579,15.472411,1.0027704187624404
0 days 00:01:30.350000,0.408691,-0.871826,-0.048096,-15.968322,50.239559,26.298521,0.9640654194467302
0 days 00:01:30.360000,0.433594,-0.873535,-0.072021,-11.215209,48.332211,25.115965,0.977882496776581
0 days 00:01:30.370000,0.404297,-0.861328,-0.054199,-17.456055,51.803585,25.596617,0.9530369979145615
0 days 00:01:30.380000,0.259277,-0.891113,-0.193115,-28.96118,45.478817,0.198364,0.9479453279187572
0 days 00:01:30.390000,0.393311,-0.871338,-0.072266,-19.897461,56.930538,22.460936,0.9587209331818096
0 days 00:01:30.400000,0.392334,-0.865479,-0.087402,-22.766111,63.560482,19.866943,0.9542635781590955
0 days 00:01:30.410000,0.402832,-0.86377,-0.093262,-23.841856,71.151733,19.058228,0.9576377361862888
0 days 00:01:30.420000,0.396729,-0.864258,-0.116943,-28.564451,82.527153,17.25769,0.9581291433068926
0 days 00:01:30.430000,0.357422,-0.872559,-0.140381,-37.67395,91.415398,13.504027,0.9533186873894793
0 days 00:01:30.440000,0.330322,-0.882568,-0.13623,-41.801449,90.011589,10.009766,0.9521541425672632
0 days 00:01:30.450000,0.315918,-0.884521,-0.139404,-42.114254,83.641045,7.30133,0.9495341264962519
0 days 00:01:30.460000,0.296143,-0.884033,-0.152344,-39.985657,75.462341,4.78363,0.9446818066809586
0 days 00:01:30.470000,0.275146,-0.883057,-0.168213,-36.354065,65.544128,2.693176,0.9401013774769187
0 days 00:01:30.480000,0.269531,-0.880615,-0.184326,-32.608032,55.13763,1.00708,0.9392048831123059
0 days 00:01:30.490000,0.5,-0.883301,-0.086426,-4.173279,40.504452,11.726378,1.0186707564650122
0 days 00:01:30.500000,0.395752,-0.859863,-0.062256,-19.363403,53.962704,24.810789,0.948609421104914
0 days 00:01:30.510000,0.503662,-0.889404,-0.086426,-3.364563,33.325195,7.30133,1.0257603711081842
0 days 00:01:30.520000,0.374512,-0.901123,-0.094238,7.316589,-31.997679,-9.849548,0.9803890553841368
0 days 00:01:30.530000,0.511475,-0.888916,-0.090088,-1.029968,11.566161,1.502991,1.0295116213161462
0 days 00:01:30.540000,0.386719,-0.9104,-0.100586,3.555298,-16.25824,-1.396179,0.9942320093202591
0 days 00:01:30.550000,0.238525,-0.9104,-0.189209,-24.536131,33.569336,-1.800537,0.9599595727456443
0 days 00:01:30.560000,0.378174,-0.918457,-0.103516,3.318786,-13.572692,-2.372742,0.9986462824148498
0 days 00:01:30.570000,0.371338,-0.916504,-0.10376,3.410339,-13.22174,-2.777099,0.9943025846592173
0 days 00:01:30.580000,0.36499,-0.91626,-0.106445,3.532409,-13.626098,-3.135681,0.9920083798663194
0 days 00:01:30.590000,0.362061,-0.913818,-0.112793,3.807068,-14.411925,-3.639221,0.9893804959134782
0 days 00:01:30.600000,0.35498,-0.913574,-0.110352,4.074097,-15.602111,-4.28009,0.9863091897473125
0 days 00:01:30.610000,0.352295,-0.910645,-0.108887,4.707336,-17.936707,-4.737854,0.982467537285075
0 days 00:01:30.620000,0.352539,-0.90918,-0.110107,4.91333,-20.568846,-5.569458,0.9813335673307012
0 days 00:01:30.630000,0.348389,-0.906006,-0.103516,4.890442,-23.28491,-6.42395,0.9761850898333778
0 days 00:01:30.640000,0.34668,-0.9021,-0.10083,4.867554,-26.18408,-7.232666,0.9716677010686319
0 days 00:01:30.650000,0.347168,-0.903076,-0.097168,5.210876,-29.121397,-7.995605,0.9723751859359637
0 days 00:01:30.660000,0.353271,-0.899414,-0.094727,5.91278,-31.272886,-8.69751,0.9709372520230131
0 days 00:01:30.670000,0.36499,-0.900391,-0.094482,6.561279,-32.051086,-9.57489,0.9761395910959662
0 days 00:01:30.680000,0.387939,-0.900146,-0.097168,7.743835,-30.990599,-9.864807,0.9849878726466637
0 days 00:01:30.690000,0.401855,-0.900391,-0.099121,7.637023,-28.839109,-10.025024,0.9909673892449742
0 days 00:01:30.700000,0.416992,-0.903809,-0.096191,7.446289,-25.825499,-10.169982,1.0000028725088743
0 days 00:01:30.710000,0.431885,-0.900146,-0.101807,6.744384,-21.957396,-9.918213,1.0035696985212337
0 days 00:01:30.720000,0.446045,-0.894775,-0.104492,5.371093,-17.242432,-9.094238,1.005234808745698
0 days 00:01:30.730000,0.458984,-0.89209,-0.100098,3.723144,-11.756896,-7.476806,1.0082214488692454
0 days 00:01:30.740000,0.467285,-0.89502,-0.097168,2.456665,-6.004333,-5.424499,1.0143262255551713
0 days 00:01:30.750000,0.473389,-0.894043,-0.099609,1.304626,-1.434326,-3.562927,1.01652938179425
0 days 00:01:30.760000,0.486084,-0.891357,-0.095459,0.038147,3.173828,-1.304626,1.0197584896366394
0 days 00:01:30.770000,0.525879,-0.886719,-0.089111,-2.26593,22.590635,3.570556,1.0347753755878615
0 days 00:01:30.780000,0.382324,-0.914551,-0.100586,3.334045,-14.556884,-1.808166,0.9963396589381555
0 days 00:01:30.790000,0.211914,-0.927979,-0.177246,-19.088745,19.264221,-6.79779,0.9682296795456128
0 days 00:01:30.800000,0.281738,-0.938232,-0.127197,-4.997253,-5.981445,-5.706787,0.9878434406711419
0 days 00:01:30.810000,0.213867,-0.949951,-0.228516,-0.75531,36.552429,-14.030456,1.0001827624719395
0 days 00:01:30.820000,0.195557,-0.980469,-0.26416,10.139464,-5.195617,-12.130736,1.0340901826291555
0 days 00:01:30.830000,0.320801,-1.045166,-0.155762,21.507261,-40.092468,2.708435,1.1043310417628402
0 days 00:01:30.840000,0.364014,-1.031494,-0.074951,21.40045,-46.913143,18.211365,1.0964049054218064
0 days 00:01:30.850000,0.39502,-1.037598,-0.056641,20.492552,-50.659176,34.828186,1.1116917796246404
0 days 00:01:30.860000,0.436523,-1.046875,-0.048096,19.294739,-52.528378,52.162167,1.1352589221715017
0 days 00:01:30.870000,0.479248,-1.053467,-0.042725,17.189026,-51.559444,69.885254,1.1581436833217198
0 days 00:01:30.880000,0.521729,-1.072998,-0.040039,13.862609,-45.845028,87.379448,1.1937876607529496
0 days 00:01:30.890000,0.578613,-1.095703,-0.047852,10.848998,-34.52301,102.943413,1.2400193070601766
0 days 00:01:30.900000,0.637451,-1.125732,-0.054932,9.83429,-6.607055,127.502434,1.2948489633347202
0 days 00:01:30.910000,0.345459,-0.988281,-0.226807,2.319336,33.729553,-10.269164,1.0712061757154874
0 days 00:01:30.920000,0.650879,-1.115479,-0.052734,9.910583,7.225036,135.612488,1.2925624730890186
0 days 00:01:30.930000,0.678955,-1.050293,-0.047363,8.499146,38.581848,146.29364,1.2515344708169247
0 days 00:01:30.940000,0.66748,-1.001953,-0.043457,8.31604,54.306026,149.734497,1.204710701977035
0 days 00:01:30.950000,0.643555,-0.954346,-0.027344,8.216858,68.191528,151.115417,1.1513848271003921
0 days 00:01:30.960000,0.615723,-0.912354,-0.007324,8.392334,77.064514,149.917603,1.1007080789296497
0 days 00:01:30.970000,0.575439,-0.868164,0.005127,9.605408,79.345703,147.369385,1.041568557391207
0 days 00:01:30.980000,0.556885,-0.819336,0.003906,10.780334,77.713013,144.142151,0.9906803929406294
0 days 00:01:30.990000,0.55249,-0.765869,-0.006836,10.772704,75.210571,141.418457,0.9443766495191419
0 days 00:01:31,0.550049,-0.72168,-0.023926,9.536743,72.174072,139.060974,0.9077160229262233
0 days 00:01:31.010000,0.557373,-0.694336,-0.042236,6.91986,69.30542,136.566162,0.8913759149320785
0 days 00:01:31.020000,0.222656,-0.931152,-0.161133,-13.587951,5.371093,-9.033203,0.9708674395245728
0 days 00:01:31.030000,0.66626,-1.092529,-0.047363,9.20105,22.300718,141.738892,1.2805331925451993
0 days 00:01:31.040000,0.37085,-1.011475,-0.244385,1.502991,23.79608,-20.233152,1.1046879316576244
0 days 00:01:31.050000,0.62085,-1.118164,-0.054443,9.635925,-20.500181,116.45507,1.280120890246308
0 days 00:01:31.060000,0.417725,-0.974365,-0.206787,-11.848449,4.371643,-29.548643,1.0801121202074349
0 days 00:01:31.070000,0.365723,-1.002197,-0.223633,-6.79779,15.99121,-29.113768,1.0900292923710813
0 days 00:01:31.080000,0.300293,-0.943115,-0.125732,-12.832641,10.467528,-12.489318,0.9977225691032553
0 days 00:01:31.090000,0.318848,-0.925781,-0.04248,-14.778136,12.413024,-12.832641,0.9800709451182603
0 days 00:01:31.100000,0.321777,-0.921387,-0.031006,-16.212463,14.511107,-12.474059,0.976450620120649
0 days 00:01:31.110000,0.312744,-0.921631,-0.027832,-17.578125,16.548157,-13.038634,0.9736463063767047
0 days 00:01:31.120000,0.298828,-0.928711,-0.025635,-18.745422,17.753601,-14.98413,0.9759402893261451
0 days 00:01:31.130000,0.313477,-0.92749,-0.015869,-20.355223,19.058228,-17.562866,0.9791615570425547
0 days 00:01:31.140000,0.338135,-0.921631,-0.006348,-21.873472,21.499632,-17.570496,0.9817226061826222
0 days 00:01:31.150000,0.350586,-0.918701,0.005127,-22.499083,23.101805,-15.258788,0.983335322728722
0 days 00:01:31.160000,0.36084,-0.922119,0.016357,-23.132322,22.056578,-14.236449,0.9903416113695315
0 days 00:01:31.170000,0.364258,-0.929199,0.019531,-22.994993,19.172668,-14.442443,0.9982365111164789
0 days 00:01:31.180000,0.275635,-0.944336,-0.145752,-6.019592,-0.343323,-7.102966,0.9944791499196953
0 days 00:01:31.190000,0.367188,-0.916016,0.012207,-24.017332,16.220093,-14.869689,0.9869454647795896
0 days 00:01:31.200000,0.360352,-0.935547,0.020752,-22.163389,16.426086,-15.449523,1.0027623839260227
0 days 00:01:31.210000,0.195068,-1.019775,-0.211426,-17.074585,-13.008117,-29.800413,1.0595723329367372
0 days 00:01:31.220000,0.168457,-1.011475,-0.174316,-22.354124,-6.16455,-29.602049,1.040118024230904
0 days 00:01:31.230000,0.212646,-0.996338,-0.132813,-24.139402,12.077331,-22.232054,1.0273981820740192
0 days 00:01:31.240000,0.269531,-0.973877,-0.070801,-23.696898,29.518126,-12.626647,1.0129640431382547
0 days 00:01:31.250000,0.34082,-1.000732,-0.227295,-13.229369,-7.339477,-28.213499,1.0813352048504663
0 days 00:01:31.260000,0.353027,-0.881104,-0.030029,-24.986265,39.459229,-13.839721,0.9496705020089863
0 days 00:01:31.270000,0.384766,-0.873779,-0.005127,-25.123594,32.112122,-17.14325,0.9547569856911234
0 days 00:01:31.280000,0.37915,-0.885742,0.00708,-26.786802,21.499632,-15.007018,0.9635059623396215
0 days 00:01:31.290000,0.313965,-0.928711,-0.033936,-24.681089,38.726807,-10.45227,0.9809331245513121
0 days 00:01:31.300000,0.30835,-0.931152,-0.094971,17.990112,-30.357359,-0.236511,0.985466011816237
0 days 00:01:31.310000,0.303711,-0.941406,-0.082275,14.884948,-20.500181,0.923157,0.9926000221549464
0 days 00:01:31.320000,0.301758,-0.94043,-0.083984,15.3656,-21.339415,0.534058,0.9912213616140443
0 days 00:01:31.330000,0.300537,-0.936523,-0.087402,15.548705,-22.65167,0.282288,0.9874395816970273
0 days 00:01:31.340000,0.298828,-0.935791,-0.087158,15.930175,-24.162291,0.007629,0.9862045863962509
0 days 00:01:31.350000,0.296875,-0.932129,-0.084473,16.334534,-26.06201,-0.160217,0.9819037254206748
0 days 00:01:31.360000,0.297607,-0.930908,-0.087402,16.731262,-27.8244,-0.320435,0.9812230839707146
0 days 00:01:31.370000,0.304443,-0.938965,-0.08374,14.251708,-19.203186,1.106262,0.990632726631823
0 days 00:01:31.380000,0.302002,-0.929688,-0.090088,17.303467,-29.411314,-0.236511,0.98165209371345
0 days 00:01:31.390000,0.304443,-0.929932,-0.093262,17.677307,-30.311583,-0.190735,0.9829327878939638
0 days 00:01:31.400000,0.311279,-0.932373,-0.091064,18.188477,-30.34973,-0.190735,0.9871710485351564
0 days 00:01:31.410000,0.317871,-0.924316,-0.095947,18.39447,-28.800962,-1.899719,0.9821445246530676
0 days 00:01:31.420000,0.314697,-0.931885,-0.093018,18.531799,-29.739378,-0.640869,0.9879758111198876
0 days 00:01:31.430000,0.317383,-0.927246,-0.093018,18.562317,-29.518126,-0.816345,0.9844640478600527
0 days 00:01:31.440000,0.317871,-0.926025,-0.092773,18.501282,-29.052732,-1.365662,0.9834485765890355
0 days 00:01:31.450000,0.317139,-0.921387,-0.09668,18.211365,-28.793333,-2.494812,0.9792232490550865
0 days 00:01:31.460000,0.31543,-0.91626,-0.096191,17.936707,-28.923033,-3.265381,0.9737972997400434
0 days 00:01:31.470000,0.319824,-0.912842,-0.098389,17.601013,-28.923033,-3.860473,0.9722388097895497
0 days 00:01:31.480000,0.319336,-0.912842,-0.100342,17.356873,-28.511045,-4.631042,0.9722780028489795
0 days 00:01:31.490000,0.320557,-0.917236,-0.101074,16.983032,-28.305052,-5.493164,0.9768800455639373
0 days 00:01:31.500000,0.326904,-0.916748,-0.100342,16.319275,-28.251646,-6.469726,0.9784485871439541
0 days 00:01:31.510000,0.308105,-0.9375,-0.083008,13.549804,-17.715454,1.411438,0.9903157421191486
0 days 00:01:31.520000,0.312744,-0.933594,-0.091797,18.226624,-30.059813,-0.473022,0.9888545168936632
0 days 00:01:31.530000,0.313232,-0.939941,-0.080322,12.832641,-16.471863,1.411438,0.9940095537714917
0 days 00:01:31.540000,0.369629,-0.913574,-0.063477,0.434875,17.120361,-1.831055,0.9875587985765709
0 days 00:01:31.550000,0.310303,-0.938721,-0.081543,11.909484,-14.076232,0.709534,0.9920354471988387
0 days 00:01:31.560000,0.364746,-0.915283,-0.068115,0.274658,17.753601,-1.792908,0.9876346833875368
0 days 00:01:31.570000,0.356689,-0.917236,-0.068359,-0.076294,17.799377,-1.792908,0.9865200835755956
0 days 00:01:31.580000,0.352783,-0.917725,-0.065918,0.015259,17.00592,-1.724243,0.9854035738914285
0 days 00:01:31.590000,0.346191,-0.919189,-0.066406,0.335693,15.319823,-1.487732,0.9844624843222823
0 days 00:01:31.600000,0.338135,-0.919434,-0.065918,0.831604,13.09204,-1.38855,0.9818550510666021
0 days 00:01:31.610000,0.334717,-0.921875,-0.067627,1.655578,10.833739,-1.220703,0.9830881938274917
0 days 00:01:31.620000,0.328857,-0.923828,-0.06958,2.532959,8.598328,-0.846863,0.9830800966518446
0 days 00:01:31.630000,0.324707,-0.925293,-0.072266,3.608703,6.225585,-0.602722,0.9832721629609983
0 days 00:01:31.640000,0.317627,-0.924561,-0.075684,4.760742,3.860473,-0.396728,0.9805243605877418
0 days 00:01:31.650000,0.3125,-0.92334,-0.076172,5.813598,1.296997,-0.205994,0.9777602871788157
0 days 00:01:31.660000,0.311035,-0.941406,-0.078857,12.413024,-15.052794,1.075745,0.994588585551835
0 days 00:01:31.670000,0.310059,-0.924561,-0.078369,6.736755,-0.915527,-0.045776,0.9783104447786499
0 days 00:01:31.680000,0.307861,-0.945313,-0.077148,8.857727,-4.806519,-0.305176,0.9971694325409298
0 days 00:01:31.690000,0.307617,-0.94751,-0.079102,9.963989,-6.591796,-0.617981,0.9993300481787786
0 days 00:01:31.700000,0.310547,-0.950684,-0.080322,10.910033,-8.049011,-0.854492,1.003339987615863
0 days 00:01:31.710000,0.310059,-0.950439,-0.082764,11.634826,-9.353638,-1.220703,1.003155399675444
0 days 00:01:31.720000,0.310059,-0.94873,-0.079834,11.932372,-10.368346,-1.243591,1.001298488931747
0 days 00:01:31.730000,0.310547,-0.948242,-0.081055,12.077331,-11.131286,-1.083374,1.0010855322089116
0 days 00:01:31.740000,0.310059,-0.94458,-0.084717,12.199401,-11.978148,-0.854492,0.9977699784870258
0 days 00:01:31.750000,0.310547,-0.938232,-0.083984,12.123107,-12.619018,-0.617981,0.991852830458733
0 days 00:01:31.760000,0.312988,-0.934326,-0.082031,11.894225,-12.702941,-0.091553,0.9887647077950346
0 days 00:01:31.770000,0.310791,-0.934814,-0.082275,11.695861,-13.130187,0.37384,0.9885532033745074
0 days 00:01:31.780000,0.307373,-0.937012,-0.075928,7.698059,-2.853393,-0.007629,0.9890574859213189
0 days 00:01:31.790000,0.331787,-0.916016,-0.102539,15.602111,-27.282713,-7.438659,0.9796336928393184
0 days 00:01:31.800000,0.338867,-0.915771,-0.10083,14.961242,-25.451658,-8.018494,0.9816486423512234
0 days 00:01:31.810000,0.3479,-0.917725,-0.0979,13.72528,-21.591185,-8.628845,0.9863255018628485
0 days 00:01:31.820000,0.320801,-0.911133,-0.10376,13.305663,-39.665222,-1.831055,0.9715157038823407
0 days 00:01:31.830000,0.318359,-0.916016,-0.105225,13.832091,-40.710445,-1.525879,0.9754537742825131
0 days 00:01:31.840000,0.325684,-0.916992,-0.106934,14.640807,-41.496273,-1.342773,0.9789684756293229
0 days 00:01:31.850000,0.334473,-0.915527,-0.107178,15.045165,-41.732784,-1.831055,0.9805860488208059
0 days 00:01:31.860000,0.331787,-0.914307,-0.112305,14.511107,-41.175838,-2.044678,0.9791079187929184
0 days 00:01:31.870000,0.331299,-0.915771,-0.105469,14.251708,-41.236874,-2.029419,0.9795505407088497
0 days 00:01:31.880000,0.332275,-0.913574,-0.101807,14.09912,-41.725155,-2.342224,0.9774399185371958
0 days 00:01:31.890000,0.334229,-0.90918,-0.100586,13.961791,-42.640682,-2.098083,0.9738761934850857
0 days 00:01:31.900000,0.336426,-0.90625,-0.10083,13.778686,-43.273922,-2.037048,0.9719249996146823
0 days 00:01:31.910000,0.341064,-0.902344,-0.102051,13.450622,-43.792721,-1.63269,0.9700328618314948
0 days 00:01:31.920000,0.319336,-0.911865,-0.104248,13.069152,-38.032532,-1.953125,0.9717720435498235
0 days 00:01:31.930000,0.348389,-0.900391,-0.0979,13.175963,-43.609615,-1.13678,0.9703933523071971
0 days 00:01:31.940000,0.362793,-0.895752,-0.099854,12.191772,-41.465755,-0.793457,0.9715766710193283
0 days 00:01:31.950000,0.365723,-0.897705,-0.099365,11.650084,-39.802551,-0.564575,0.9744234105249114
0 days 00:01:31.960000,0.371338,-0.898438,-0.103271,10.742187,-37.948608,-0.610352,0.9776234702220482
0 days 00:01:31.970000,0.376709,-0.900635,-0.100586,10.002136,-36.03363,-0.602722,0.9814125622295651
0 days 00:01:31.980000,0.379639,-0.905518,-0.098877,9.338379,-34.034729,-0.427246,0.9868461277088745
0 days 00:01:31.990000,0.382568,-0.907959,-0.096191,8.81958,-31.684874,-0.63324,0.9899497607383922
0 days 00:01:32,0.385254,-0.905029,-0.092041,7.919311,-28.877256,-0.900268,0.9879117779629919
0 days 00:01:32.010000,0.388916,-0.902588,-0.091797,6.774902,-25.726316,-0.968933,0.9870903920153412
0 days 00:01:32.020000,0.393311,-0.905518,-0.09668,5.508422,-22.056578,-0.907898,0.9919694619518284
0 days 00:01:32.030000,0.390381,-0.907471,-0.101074,4.249573,-18.684387,-1.075745,0.9930341859563547
0 days 00:01:32.040000,0.355957,-0.896729,-0.098389,12.687682,-42.755123,-0.953674,0.9697982679975253
0 days 00:01:32.050000,0.318604,-0.911377,-0.102539,13.130187,-36.598206,-2.128601,0.970891750642676
0 days 00:01:32.060000,0.343018,-0.913818,-0.100098,14.373778,-23.513792,-8.31604,0.9811953399053626
0 days 00:01:32.070000,0.322754,-0.913086,-0.105225,14.129638,-34.492493,-1.914978,0.9741501365482632
0 days 00:01:32.080000,0.353027,-0.919434,-0.093994,12.649535,-19.622803,-9.140015,0.9893542414731944
0 days 00:01:32.090000,0.355469,-0.916992,-0.092773,11.20758,-17.25769,-9.162903,0.9878458217525649
0 days 00:01:32.100000,0.357178,-0.919434,-0.092529,9.880066,-14.373778,-8.811951,0.9907051124734343
0 days 00:01:32.110000,0.360596,-0.922852,-0.089355,8.743286,-11.230468,-8.255005,0.994821393590327
0 days 00:01:32.120000,0.362793,-0.92041,-0.088867,7.034301,-8.338928,-7.698059,0.9933129781886472
0 days 00:01:32.130000,0.359131,-0.919434,-0.095947,5.203247,-6.057739,-6.973266,0.9917357421843783
0 days 00:01:32.140000,0.354248,-0.922607,-0.095459,4.104614,-4.615784,-6.362915,0.9928785135322448
0 days 00:01:32.150000,0.3479,-0.924805,-0.096436,3.570556,-4.943848,-5.683898,0.992773186644865
0 days 00:01:32.160000,0.338379,-0.927002,-0.101807,3.959656,-6.553649,-5.0354,0.9920673973546354
0 days 00:01:32.170000,0.331787,-0.927246,-0.105225,5.111694,-8.834839,-4.684448,0.9904241811012088
0 days 00:01:32.180000,0.32666,-0.925537,-0.109131,6.195068,-11.680602,-4.28772,0.9875399076138646
0 days 00:01:32.190000,0.320313,-0.911377,-0.104248,13.580321,-35.049438,-2.357483,0.9716357854679911
0 days 00:01:32.200000,0.313477,-0.922363,-0.110107,8.224487,-17.807007,-3.669739,0.9803799695765923
0 days 00:01:32.210000,0.307373,-0.921631,-0.109131,9.19342,-21.453856,-3.532409,0.9776458645394046
0 days 00:01:32.220000,0.303467,-0.918213,-0.109131,10.108947,-25.222776,-3.40271,0.973199315977462
0 days 00:01:32.230000,0.303223,-0.91626,-0.109131,11.054992,-28.625486,-2.922058,0.9712806754435095
0 days 00:01:32.240000,0.304932,-0.915527,-0.108154,11.863708,-31.074522,-2.601623,0.9710151904419415
0 days 00:01:32.250000,0.307373,-0.912354,-0.10498,12.657165,-32.936096,-2.525329,0.9684465823394701
0 days 00:01:32.260000,0.310547,-0.912842,-0.105713,13.442992,-34.683228,-2.174377,0.9699975229566311
0 days 00:01:32.270000,0.316406,-0.912598,-0.10498,14.068603,-35.552979,-2.044678,0.9715804994131985
0 days 00:01:32.280000,0.318359,-0.915039,-0.106689,14.35089,-35.209656,-2.113342,0.974695525342658
0 days 00:01:32.290000,0.323486,-0.915039,-0.101318,14.236449,-34.744263,-2.052307,0.9758098692065992
0 days 00:01:32.300000,0.321533,-0.923584,-0.109375,7.324218,-14.61029,-3.974914,0.9840496764747194
0 days 00:01:32.310000,0.363525,-0.919189,0.005371,8.827209,-19.973755,-4.180908,0.9884774610414747
0 days 00:01:32.320000,0.364258,-0.917725,0.003418,8.796692,-18.753052,-4.104614,0.9873777133969553
0 days 00:01:32.330000,0.364502,-0.915283,0.001709,8.720398,-17.89856,-3.868103,0.9851941934329496
0 days 00:01:32.340000,0.367188,-0.912109,0.000977,8.903503,-17.524719,-3.852844,0.9832450405438107
0 days 00:01:32.350000,0.363525,-0.914551,0.01001,9.605408,-20.500181,-2.296448,0.9842022949201044
0 days 00:01:32.360000,0.369141,-0.912354,0.00415,9.124756,-18.348694,-3.364563,0.9842114212388515
0 days 00:01:32.370000,0.36792,-0.91333,0.007813,9.338379,-19.004822,-2.952575,0.9846816024832595
0 days 00:01:32.380000,0.365234,-0.912354,0.008545,9.559631,-19.836426,-2.616882,0.9827811114877005
0 days 00:01:32.390000,0.364502,-0.920166,0.007324,8.888245,-20.912169,-4.28772,0.989757958561587
0 days 00:01:32.400000,0.368164,-0.910645,0.001953,8.94165,-17.776489,-3.715515,0.9822539697705477
0 days 00:01:32.410000,0.365723,-0.91748,0.006836,8.811951,-21.499632,-4.516602,0.987709265940641
0 days 00:01:32.420000,0.380615,-0.908936,-0.00293,8.872986,-19.020081,-6.507873,0.9854141338650466
0 days 00:01:32.430000,0.37793,-0.911621,0.000244,8.842468,-20.751951,-5.432128,0.9868556085248743
0 days 00:01:32.440000,0.380615,-0.907715,-0.002441,8.872986,-20.072937,-5.92041,0.9842866746690215
0 days 00:01:32.450000,0.381104,-0.905518,-0.003418,8.926392,-19.485474,-6.29425,0.9824534542989811
0 days 00:01:32.460000,0.382568,-0.910889,-0.000977,8.94928,-18.661499,-6.813049,0.9879665983594789
0 days 00:01:32.470000,0.384277,-0.911865,0.001221,8.872986,-18.249512,-7.041931,0.9895292223047281
0 days 00:01:32.480000,0.379883,-0.913574,0.001465,8.811951,-17.959595,-7.17926,0.9894092648595929
0 days 00:01:32.490000,0.378174,-0.9104,-0.000488,8.773804,-17.807007,-7.156372,0.9858214708657952
0 days 00:01:32.500000,0.380615,-0.909668,-0.004395,8.514404,-17.425537,-6.896972,0.9860948050131895
0 days 00:01:32.510000,0.384766,-0.915771,-0.005371,8.216858,-16.853333,-6.500244,0.9933328982964372
0 days 00:01:32.520000,0.361816,-0.917969,0.009766,9.468079,-20.606993,-1.983642,0.9867488421949123
0 days 00:01:32.530000,0.368164,-0.915283,0.002686,8.766174,-21.583555,-4.806519,0.9865571020376873
0 days 00:01:32.540000,0.359131,-0.919434,0.006104,9.422302,-20.294188,-1.808166,0.9871024335564166
0 days 00:01:32.550000,0.367432,-0.921631,-0.015137,5.0354,-7.621765,-1.777649,0.99228982840398
0 days 00:01:32.560000,0.354004,-0.916748,-0.001221,8.872986,-17.967224,-1.548767,0.9827243857567594
0 days 00:01:32.570000,0.351074,-0.918701,-0.010742,2.441406,-6.179809,0.358582,0.9835547119713269
0 days 00:01:32.580000,0.350586,-0.920898,-0.010498,2.662658,-7.331848,0.350952,0.9854308082275488
0 days 00:01:32.590000,0.353027,-0.924072,-0.012451,3.097534,-8.422852,0.213623,0.9892887097879971
0 days 00:01:32.600000,0.354736,-0.923584,-0.014404,3.295898,-9.246826,-0.205994,0.9894708232019779
0 days 00:01:32.610000,0.358154,-0.926514,-0.015625,3.601074,-9.887695,-0.465393,0.9934518712735911
0 days 00:01:32.620000,0.360596,-0.926514,-0.014404,3.692627,-10.185241,-0.717163,0.9943164197718953
0 days 00:01:32.630000,0.360352,-0.927734,-0.011963,3.845215,-10.162353,-0.930786,0.995332633861163
0 days 00:01:32.640000,0.362793,-0.927734,-0.011719,4.03595,-9.849548,-1.205444,0.9962160762435024
0 days 00:01:32.650000,0.364258,-0.924072,-0.014404,4.249573,-9.475708,-1.419067,0.9933782899600735
0 days 00:01:32.660000,0.366455,-0.924316,-0.016113,4.493713,-8.888245,-1.579285,0.9944390195733472
0 days 00:01:32.670000,0.354004,-0.916992,0.003662,9.254456,-19.432068,-1.64032,0.9829580714984745
0 days 00:01:32.680000,0.366455,-0.924072,-0.014648,4.592896,-8.171082,-1.647949,0.9941895654818552
0 days 00:01:32.690000,0.388428,-0.918213,-0.007324,7.980346,-15.960692,-6.187438,0.9970180868615173
0 days 00:01:32.700000,0.366455,-0.925049,-0.017334,5.493164,-7.644653,-1.907349,0.9951408880063164
0 days 00:01:32.710000,0.364014,-0.924805,-0.016602,5.859375,-7.713317,-1.89209,0.9940050838023918
0 days 00:01:32.720000,0.364502,-0.92334,-0.012939,6.210327,-7.843017,-1.930237,0.9927667809334678
0 days 00:01:32.730000,0.364502,-0.922852,-0.008789,6.439209,-8.232117,-1.914978,0.9922674883462624
0 days 00:01:32.740000,0.362549,-0.921387,-0.004883,6.67572,-9.124756,-1.846313,0.990161413537712
0 days 00:01:32.750000,0.35791,-0.922119,-0.007324,7.118225,-10.482787,-1.823425,0.9891696817214932
0 days 00:01:32.760000,0.35498,-0.923584,-0.006104,7.545471,-12.222289,-1.876831,0.9894723160715513
0 days 00:01:32.770000,0.355469,-0.921143,-0.002441,7.949829,-14.266967,-1.869202,0.9873543411010052
0 days 00:01:32.780000,0.35376,-0.918457,-0.004883,8.407593,-16.242981,-1.663208,0.9842424712122516
0 days 00:01:32.790000,0.36792,-0.922607,-0.013672,4.829407,-7.766723,-1.731872,0.9933557904562694
0 days 00:01:32.800000,0.391357,-0.923828,-0.008545,8.087158,-15.136718,-5.783081,1.0033401676689717
0 days 00:01:32.810000,0.37207,-0.915527,-0.001221,8.781433,-21.286009,-5.027771,0.9882445362712611
0 days 00:01:32.820000,0.389404,-0.930664,-0.006836,7.972717,-15.342711,-5.264282,1.0088695094054534
0 days 00:01:32.830000,0.386719,-0.910889,-0.015137,6.935119,-12.657165,-0.732422,0.9896966626451763
0 days 00:01:32.840000,0.386475,-0.914795,-0.01709,7.202148,-13.153075,-0.053406,0.9932295231969296
0 days 00:01:32.850000,0.388672,-0.920654,-0.017578,7.461547,-13.656615,0.236511,0.9994892182429984
0 days 00:01:32.860000,0.388184,-0.92041,-0.018066,7.858276,-14.373778,0.411987,0.9990834631360884
0 days 00:01:32.870000,0.391846,-0.919922,-0.017822,8.270264,-14.564513,0.770569,1.00005869701933
0 days 00:01:32.880000,0.400391,-0.919922,-0.016846,8.19397,-13.084411,0.648498,1.0034207625323488
0 days 00:01:32.890000,0.402344,-0.919189,-0.022705,7.583618,-9.986877,0.579834,1.003645669089445
0 days 00:01:32.900000,0.397949,-0.916016,-0.026855,6.91986,-6.958007,0.534058,0.9990845359037444
0 days 00:01:32.910000,0.393066,-0.912598,-0.033691,6.355285,-4.676819,0.144958,0.9942188257325447
0 days 00:01:32.920000,0.388428,-0.909912,-0.03418,5.584716,-2.63977,-0.50354,0.9899416302631181
0 days 00:01:32.930000,0.384277,-0.904297,-0.041748,4.920959,-1.075745,-0.907898,0.9834453581374005
0 days 00:01:32.940000,0.37915,-0.902344,-0.043701,4.714966,-0.617981,-1.159668,0.979739350152376
0 days 00:01:32.950000,0.378906,-0.898682,-0.046631,4.432678,-0.648498,-1.525879,0.9764084924461688
0 days 00:01:32.960000,0.377197,-0.898193,-0.047363,4.356384,-0.648498,-1.663208,0.9753314799733473
0 days 00:01:32.970000,0.380859,-0.901367,-0.052979,4.02832,0.106812,-1.770019,0.9799606221736668
0 days 00:01:32.980000,0.381836,-0.900146,-0.056396,3.356933,1.678467,-1.739502,0.9794090366277003
0 days 00:01:32.990000,0.383545,-0.901123,-0.053955,3.044128,3.738403,-1.708984,0.9808366684514808
0 days 00:01:33,0.382568,-0.90332,-0.054199,2.365112,6.446838,-1.831055,0.9824880806528902
0 days 00:01:33.010000,0.381104,-0.903809,-0.05249,1.88446,8.621216,-2.14386,0.9822760138560851
0 days 00:01:33.020000,0.37793,-0.906494,-0.053955,1.76239,10.475158,-2.182007,0.9836023581514025
0 days 00:01:33.030000,0.379639,-0.908936,-0.055908,1.113892,12.542724,-1.88446,0.9866185315921244
0 days 00:01:33.040000,0.391357,-0.927734,-0.007324,7.949829,-14.778136,-5.393981,1.0069281588976444
0 days 00:01:33.050000,0.374756,-0.911621,-0.057373,0.37384,16.265869,-2.059937,0.9873128016520398
0 days 00:01:33.060000,0.387939,-0.908203,-0.016846,7.034301,-12.420653,-1.319885,0.9877313119700114
0 days 00:01:33.070000,0.387695,-0.906982,-0.016357,7.255554,-12.46643,-2.067566,0.9865045933993414
0 days 00:01:33.080000,0.376709,-0.91333,-0.057373,0.595093,14.663695,-1.945495,0.9896327706326221
0 days 00:01:33.090000,0.382813,-0.902344,-0.01123,7.400512,-13.702392,-3.219604,0.9802533347074113
0 days 00:01:33.100000,0.384766,-0.905273,-0.013184,7.164001,-12.992858,-2.738952,0.983736701125357
0 days 00:01:33.110000,0.386719,-0.929932,0.001709,8.888245,-17.364502,-5.210876,1.0071385357864129
0 days 00:01:33.120000,0.387207,-0.925049,-0.000977,8.598328,-17.700195,-5.302429,1.0028189606200115
0 days 00:01:33.130000,0.387451,-0.921143,0.002197,8.903503,-18.051147,-5.111694,0.9993135297087697
0 days 00:01:33.140000,0.38623,-0.916748,0.002686,9.117126,-18.081665,-5.012512,0.9947902909658899
0 days 00:01:33.150000,0.388184,-0.912842,0.002441,9.094238,-17.76123,-5.111694,0.9919542798440864
0 days 00:01:33.160000,0.38916,-0.90625,0.0,9.19342,-17.219543,-5.142211,0.9862730697428578
0 days 00:01:33.170000,0.386963,-0.901367,0.001953,9.231567,-16.799927,-5.149841,0.9809213252177771
0 days 00:01:33.180000,0.386963,-0.899658,0.001709,9.147644,-16.204834,-5.073547,0.9793507037900162
0 days 00:01:33.190000,0.387207,-0.898193,-0.000488,9.078979,-15.342711,-5.004883,0.9781002833257948
0 days 00:01:33.200000,0.384766,-0.895752,-0.001221,8.804321,-14.450072,-4.959106,0.974893846067868
0 days 00:01:33.210000,0.387207,-0.932617,-0.001709,8.499146,-16.624451,-5.249023,1.0098052536103186
0 days 00:01:33.220000,0.384277,-0.890625,-0.000488,8.483887,-13.687133,-4.905701,0.96999069144915
0 days 00:01:33.230000,0.381104,-0.890381,-0.003174,8.308411,-13.114928,-4.798889,0.9685187960246305
0 days 00:01:33.240000,0.382324,-0.892578,-0.00415,8.056641,-12.557982,-4.692078,0.9710223218649507
0 days 00:01:33.250000,0.383301,-0.898926,-0.003906,7.888793,-12.344359,-4.684448,0.9772424811237997
0 days 00:01:33.260000,0.383789,-0.90332,-0.000244,7.92694,-12.420653,-4.638672,0.9814688372317278
0 days 00:01:33.270000,0.38501,-0.906738,-0.00415,7.850646,-12.260436,-4.669189,0.9851008695783392
0 days 00:01:33.280000,0.385986,-0.907227,-0.001953,7.67517,-12.359618,-4.53186,0.9859258775049978
0 days 00:01:33.290000,0.384521,-0.906982,-0.00415,7.720947,-12.687682,-4.447937,0.9851344934906097
0 days 00:01:33.300000,0.378662,-0.903564,-0.007568,7.881164,-13.305663,-4.394531,0.9797295989016561
0 days 00:01:33.310000,0.378418,-0.902344,-0.005371,8.003235,-13.97705,-4.28772,0.9784956436801341
0 days 00:01:33.320000,0.378906,-0.901367,-0.007568,7.705688,-14.114379,-3.829956,0.9777982921589708
0 days 00:01:33.330000,0.392578,-0.899902,-0.020996,3.707886,-8.834839,-0.656128,0.9820294943147074
0 days 00:01:33.340000,0.394531,-0.900391,-0.019287,3.890991,-10.231017,-0.50354,0.9832246188999745
0 days 00:01:33.350000,0.390869,-0.900146,-0.016602,4.104614,-11.276244,-0.495911,0.9814871486071532
0 days 00:01:33.360000,0.380371,-0.908447,-0.000977,5.088806,-13.793944,0.083923,0.9848649673833464
0 days 00:01:33.370000,0.385986,-0.901367,-0.009277,4.440308,-12.847899,-0.343323,0.9805782598110159
0 days 00:01:33.380000,0.386475,-0.904541,-0.008301,4.79126,-13.420104,-0.167847,0.9836799545111206
0 days 00:01:33.390000,0.382568,-0.905029,-0.005371,5.012512,-13.702392,-0.053406,0.9825805886063493
0 days 00:01:33.400000,0.395996,-0.901611,-0.024414,3.532409,-7.385253,-0.717163,0.9850437912768143
0 days 00:01:33.410000,0.389893,-0.901123,-0.012939,4.165649,-12.092589,-0.473022,0.9819402376412731
0 days 00:01:33.420000,0.397217,-0.904785,-0.029541,3.341675,-5.828857,-0.854492,0.9885797448840432
0 days 00:01:33.430000,0.402832,-0.909668,-0.045898,2.868652,1.754761,-1.289368,0.9959297750604709
0 days 00:01:33.440000,0.396973,-0.908447,-0.033203,3.059387,-2.456665,-1.075745,0.991950580294704
0 days 00:01:33.450000,0.398926,-0.909912,-0.039307,2.990722,-0.869751,-1.075745,0.9942971595398431
0 days 00:01:33.460000,0.39917,-0.907715,-0.043945,2.944946,0.579834,-1.098633,0.9925796558211336
0 days 00:01:33.470000,0.394775,-0.901855,-0.020752,2.510071,3.677368,-0.694275,0.9846930420968759
0 days 00:01:33.480000,0.401123,-0.911621,-0.042236,2.876281,2.548218,-1.403808,0.9968632747102283
0 days 00:01:33.490000,0.398682,-0.910889,-0.038818,2.883911,3.120422,-1.411438,0.9950743412273276
0 days 00:01:33.500000,0.398193,-0.908936,-0.033691,2.76947,3.639221,-1.365662,0.9929035204016551
0 days 00:01:33.510000,0.395264,-0.906494,-0.029297,2.700805,3.669739,-1.25885,0.989354999957548
0 days 00:01:33.520000,0.394287,-0.902832,-0.026367,2.487183,3.585815,-0.923157,0.9855268019095168
0 days 00:01:33.530000,0.381836,-0.911865,0.000244,5.340576,-13.801574,0.167847,0.9885831116588024
0 days 00:01:33.540000,0.365723,-0.914063,-0.005371,-0.793457,1.00708,1.38092,0.9845269566339969
0 days 00:01:33.550000,0.380371,-0.915771,-0.000488,5.653381,-13.862609,0.267029,0.9916243543933357
0 days 00:01:33.560000,0.352295,-0.928223,-0.023682,4.020691,-10.833739,-0.350952,0.9931115455365526
0 days 00:01:33.570000,0.376709,-0.918213,0.000488,6.050109,-14.144897,0.350952,0.9924842679831252
0 days 00:01:33.580000,0.393555,-0.898438,-0.01709,2.250671,3.875732,-0.305176,0.9810037950838927
0 days 00:01:33.590000,0.363037,-0.915283,-0.006104,-0.87738,0.709534,1.396179,0.9846705501201912
0 days 00:01:33.600000,0.364014,-0.914307,-0.011963,-0.686645,0.350952,1.487732,0.984178132155963
0 days 00:01:33.610000,0.361084,-0.913086,-0.014648,-0.679016,0.312805,1.403808,0.9819991152521472
0 days 00:01:33.620000,0.361816,-0.915039,-0.015381,-0.671387,-0.022888,1.251221,0.9840954041849804
0 days 00:01:33.630000,0.359619,-0.916748,-0.016113,-0.480652,-0.419617,1.197815,0.9848920496348825
0 days 00:01:33.640000,0.358154,-0.918701,-0.016357,-0.198364,-0.808716,1.152039,0.9861812037176535
0 days 00:01:33.650000,0.357422,-0.920654,-0.015869,0.183105,-1.373291,0.88501,0.9877277453635693
0 days 00:01:33.660000,0.353271,-0.923096,-0.02002,0.38147,-2.281189,0.511169,0.9885886025324184
0 days 00:01:33.670000,0.352295,-0.925781,-0.020264,1.029968,-3.715515,0.068665,0.9907536811347208
0 days 00:01:33.680000,0.37915,-0.915527,-0.000244,5.874633,-13.961791,0.396728,0.9909311125224598
0 days 00:01:33.690000,0.351563,-0.925537,-0.018799,1.792908,-5.630493,-0.038147,0.990236680667304
0 days 00:01:33.700000,0.349854,-0.927246,-0.022217,3.089905,-9.338379,-0.25177,0.9913004392821584
0 days 00:01:33.710000,0.355225,-0.929199,-0.022949,4.898071,-12.092589,-0.305176,0.9950488625323884
0 days 00:01:33.720000,0.356934,-0.928955,-0.023926,5.554199,-12.870788,-0.282288,0.9954555368558657
0 days 00:01:33.730000,0.356689,-0.927246,-0.020508,6.156921,-13.34381,-0.144958,0.9936965156932976
0 days 00:01:33.740000,0.360107,-0.927002,-0.014893,6.332397,-13.572692,-0.106812,0.9946012069678982
0 days 00:01:33.750000,0.363525,-0.925537,-0.012207,6.248474,-13.984679,0.038147,0.9944436509139168
0 days 00:01:33.760000,0.364746,-0.922852,-0.008057,6.278991,-14.35852,0.099182,0.9923509327193683
0 days 00:01:33.770000,0.366943,-0.920166,-0.005127,6.355285,-14.526366,0.259399,0.9906457080783221
0 days 00:01:33.780000,0.371826,-0.919678,-0.006348,6.278991,-14.450072,0.297546,0.9920194025642844
0 days 00:01:33.790000,0.375244,-0.918213,-0.003174,6.16455,-14.312743,0.343323,0.9919340941720876
0 days 00:01:33.800000,0.350098,-0.925049,-0.019531,2.326965,-7.56073,-0.099182,0.9892753519450488
0 days 00:01:33.810000,0.395752,-0.895996,-0.015381,1.754761,4.135132,0.160217,0.9796249551134353
0 days 00:01:33.820000,0.395996,-0.909668,-0.032471,3.288269,-4.203796,-0.953674,0.9926545562686951
0 days 00:01:33.830000,0.398926,-0.897461,-0.010742,1.296997,4.53186,0.732422,0.9821881645392597
0 days 00:01:33.840000,0.366455,-0.949707,-0.024414,-5.15747,8.735657,1.617432,1.0182478560105097
0 days 00:01:33.850000,0.367432,-0.949951,-0.022217,-4.150391,6.16455,2.26593,1.018777096382717
0 days 00:01:33.860000,0.371582,-0.95166,-0.02002,-3.883362,4.859924,2.494812,1.0218271569712756
0 days 00:01:33.870000,0.372559,-0.946777,-0.008789,-3.616333,4.081726,2.685547,1.0174793082569296
0 days 00:01:33.880000,0.378662,-0.943359,-0.00415,-3.219604,3.52478,2.601623,1.016527587242471
0 days 00:01:33.890000,0.376953,-0.937988,0.001953,-2.975464,3.349304,2.426147,1.0109000279760605
0 days 00:01:33.900000,0.375977,-0.928955,0.000732,-2.822876,3.601074,2.349854,1.0021559920381657
0 days 00:01:33.910000,0.373047,-0.919922,-0.000244,-2.63977,3.883362,2.326965,0.9926835396182411
0 days 00:01:33.920000,0.37207,-0.914063,0.002441,-2.540588,3.990173,2.098083,0.9868906785201692
0 days 00:01:33.930000,0.368164,-0.911133,0.000488,-2.204895,4.402161,1.724243,0.9827045907743588
0 days 00:01:33.940000,0.365234,-0.943359,-0.030029,-7.354736,12.046813,0.526428,1.012039435238568
0 days 00:01:33.950000,0.364746,-0.90332,-0.001953,-1.808166,4.875183,1.625061,0.9741819548344138
0 days 00:01:33.960000,0.36084,-0.900391,-0.001465,-1.38092,5.104064,1.403808,0.9700059817887723
0 days 00:01:33.970000,0.355225,-0.898682,-0.003418,-0.938415,4.508972,1.487732,0.9663466357746583
0 days 00:01:33.980000,0.35376,-0.899902,-0.003174,-0.480652,3.326416,1.327515,0.9669435461700957
0 days 00:01:33.990000,0.35083,-0.903076,-0.006104,-0.038147,1.785278,1.358032,0.9688473612969176
0 days 00:01:34,0.349854,-0.905762,-0.006104,0.427246,0.106812,1.289368,0.9709994236743912
0 days 00:01:34.010000,0.351318,-0.909912,-0.00708,0.953674,-1.235962,1.190186,0.9754046910221419
0 days 00:01:34.020000,0.350098,-0.910889,-0.007813,1.403808,-2.388,1.152039,0.9758834064036543
0 days 00:01:34.030000,0.351074,-0.914307,-0.007324,1.586914,-3.311157,0.991821,0.97942017780981
0 days 00:01:34.040000,0.351807,-0.915039,-0.007568,1.876831,-4.165649,0.816345,0.9803682019496552
0 days 00:01:34.050000,0.353516,-0.918945,-0.008789,2.174377,-5.142211,0.564575,0.9846373554776399
0 days 00:01:34.060000,0.363281,-0.900391,0.000488,-1.586914,5.172729,1.426697,0.9709156894324038
0 days 00:01:34.070000,0.367676,-0.941162,-0.034668,-9.292603,14.808654,-0.328064,1.0110259252086466
0 days 00:01:34.080000,0.398438,-0.898438,-0.008545,0.511169,5.065917,1.13678,0.9828614839910047
0 days 00:01:34.090000,0.369873,-0.94043,-0.037354,-11.001586,18.714905,-1.800537,1.0112417823374389
0 days 00:01:34.100000,0.398438,-0.896484,-0.006592,-0.228882,5.317688,1.472473,0.9810605774181327
0 days 00:01:34.110000,0.397461,-0.894287,-0.002441,-0.930786,5.737304,1.777649,0.9786370335170237
0 days 00:01:34.120000,0.395752,-0.892822,-0.001709,-1.831055,6.683349,1.88446,0.9766031383673718
0 days 00:01:34.130000,0.395264,-0.893311,0.001465,-2.784729,7.728576,1.876831,0.9768522501596646
0 days 00:01:34.140000,0.390869,-0.888916,0.003906,-3.814697,8.43811,1.724243,0.9710641003831828
0 days 00:01:34.150000,0.389893,-0.889648,0.002686,-4.577637,9.132385,1.373291,0.9713379071924455
0 days 00:01:34.160000,0.368164,-0.943604,-0.035889,-10.398864,16.769409,-1.060486,1.0135192450234973
0 days 00:01:34.170000,0.386963,-0.884521,0.000732,-5.737304,10.025024,0.587463,0.9654627380867684
0 days 00:01:34.180000,0.38501,-0.876953,-0.002686,-6.17218,10.124206,-0.106812,0.9577507394437239
0 days 00:01:34.190000,0.391357,-0.879883,-0.00415,-6.774902,10.971068,-0.740051,0.9630013591049599
0 days 00:01:34.200000,0.391846,-0.884766,-0.004883,-7.186889,12.71057,-1.358032,0.9676662679669061
0 days 00:01:34.210000,0.391846,-0.887939,0.00293,-5.195617,9.750366,1.060486,0.9705604259071148
0 days 00:01:34.220000,0.383545,-0.885254,-0.004639,-7.514953,15.014647,-3.089905,0.9647812870604404
0 days 00:01:34.230000,0.386963,-0.883301,-0.003662,-7.461547,14.053344,-2.26593,0.9643518186917055
0 days 00:01:34.240000,0.376465,-0.927734,-0.033203,-10.864257,21.461485,-2.952575,1.001757810146744
0 days 00:01:34.250000,0.376709,-0.920654,-0.031982,-10.421752,21.606443,-3.532409,0.9952569048848644
0 days 00:01:34.260000,0.38208,-0.913574,-0.029785,-9.765625,20.942686,-3.967285,0.9907016332382823
0 days 00:01:34.270000,0.38208,-0.907227,-0.031738,-9.094238,20.271299,-4.241943,0.9849128167370957
0 days 00:01:34.280000,0.372803,-0.934814,-0.035645,-11.367797,20.462034,-2.326965,1.0070401468809473
0 days 00:01:34.290000,0.381104,-0.887939,-0.025391,-8.842468,19.493103,-4.646301,0.9666026222900495
0 days 00:01:34.300000,0.382324,-0.884033,-0.023193,-7.919311,18.241882,-4.570007,0.9634437717448798
0 days 00:01:34.310000,0.380859,-0.875732,-0.016357,-7.774353,17.13562,-4.302979,0.9551061015164755
0 days 00:01:34.320000,0.383545,-0.87915,-0.011475,-7.568359,15.99121,-3.929138,0.9592409317528106
0 days 00:01:34.330000,0.378662,-0.89502,-0.031494,-8.995056,19.996643,-4.53186,0.9723361469574193
0 days 00:01:34.340000,0.381348,-0.911133,-0.015625,1.220703,-1.518249,-0.236511,0.9878429943153921
0 days 00:01:34.350000,0.381836,-0.912842,-0.012207,1.205444,-1.525879,-0.099182,0.9895596286778277
0 days 00:01:34.360000,0.378662,-0.913086,-0.012451,1.052856,-1.76239,0.167847,0.9885676411055543
0 days 00:01:34.370000,0.378662,-0.914551,-0.011963,1.13678,-2.052307,0.144958,0.9899149232201725
0 days 00:01:34.380000,0.380127,-0.9104,-0.008789,1.190186,-2.197266,0.183105,0.9866113432603539
0 days 00:01:34.390000,0.380615,-0.909668,-0.009033,1.113892,-2.120972,0.076294,0.986126383146704
0 days 00:01:34.400000,0.378418,-0.909424,-0.009521,1.068115,-1.945495,-0.045776,0.985059817443083
0 days 00:01:34.410000,0.379883,-0.909912,-0.007324,1.052856,-1.655578,-0.213623,0.9860550605361752
0 days 00:01:34.420000,0.378906,-0.909668,-0.006836,0.839233,-1.358032,-0.457764,0.9854503325667916
0 days 00:01:34.430000,0.379395,-0.908203,-0.008789,0.62561,-0.961304,-0.709534,0.9843020378699823
0 days 00:01:34.440000,0.381592,-0.910889,-0.011963,-1.159668,2.937317,-2.13623,0.9876610441614065
0 days 00:01:34.450000,0.37915,-0.90918,-0.006836,0.38147,-0.328064,-1.113892,0.9850937649767153
0 days 00:01:34.460000,0.376953,-0.906494,-0.00708,0.083923,0.053406,-1.266479,0.9817713902151559
0 days 00:01:34.470000,0.375488,-0.907715,-0.006348,-0.183105,0.274658,-1.441955,0.9823329661947623
0 days 00:01:34.480000,0.375977,-0.908447,-0.006836,-0.305176,0.526428,-1.502991,0.9831995663312714
0 days 00:01:34.490000,0.376953,-0.907715,-0.007568,-0.419617,0.801086,-1.579285,0.9829025180850846
0 days 00:01:34.500000,0.377441,-0.909912,-0.00708,-0.671387,0.968933,-1.63269,0.9851150606020599
0 days 00:01:34.510000,0.378174,-0.909668,-0.008545,-0.87738,1.327515,-1.777649,0.9851824508815613
0 days 00:01:34.520000,0.382813,-0.910645,-0.008545,-0.938415,1.693725,-1.922607,0.9878730313248762
0 days 00:01:34.530000,0.382324,-0.9104,-0.007813,-1.037598,2.243042,-1.983642,0.9874516919551052
0 days 00:01:34.540000,0.381348,-0.911377,-0.010986,-1.091003,2.655029,-1.968384,0.9880055796547912
0 days 00:01:34.550000,0.38208,-0.90918,-0.016846,1.083374,-1.647949,-0.328064,0.9863453687811384
0 days 00:01:34.560000,0.380371,-0.908203,-0.008545,0.579834,-0.648498,-1.037598,0.9846764970664224
0 days 00:01:34.570000,0.38208,-0.909912,-0.016113,1.083374,-1.899719,-0.465393,0.9870079041795967
0 days 00:01:34.580000,0.380371,-0.9104,-0.012939,1.457214,-4.325867,-0.762939,0.9867510706160901
0 days 00:01:34.590000,0.381836,-0.908936,-0.016113,1.00708,-2.571106,-0.801086,0.9860136975524224
0 days 00:01:34.600000,0.378174,-0.908936,-0.011963,-1.228333,2.960205,-2.090454,0.9845421980499363
0 days 00:01:34.610000,0.376953,-0.911377,-0.016602,1.823425,-5.737304,-0.50354,0.9863960800520246
0 days 00:01:34.620000,0.375244,-0.9104,-0.01709,1.739502,-5.859375,-0.488281,0.9848493730698111
0 days 00:01:34.630000,0.376221,-0.911377,-0.016602,1.861572,-5.844116,-0.450134,0.9861165769694779
0 days 00:01:34.640000,0.375732,-0.909912,-0.017334,1.876831,-5.836486,-0.38147,0.9845886710317157
0 days 00:01:34.650000,0.375732,-0.908936,-0.013916,1.869202,-5.760192,-0.465393,0.9836324735265708
0 days 00:01:34.660000,0.37793,-0.90918,-0.014893,1.770019,-5.615234,-0.495911,0.9847137445719949
0 days 00:01:34.670000,0.378174,-0.912598,-0.013184,1.808166,-5.325317,-0.526428,0.9879395233191149
0 days 00:01:34.680000,0.376953,-0.911621,-0.015625,1.777649,-5.134582,-0.610352,0.986605570871663
0 days 00:01:34.690000,0.381104,-0.910889,-0.013916,1.708984,-4.91333,-0.556946,0.9874981945264507
0 days 00:01:34.700000,0.381104,-0.912109,-0.013916,1.708984,-4.638672,-0.663757,0.9886236603242914
0 days 00:01:34.710000,0.379639,-0.910645,-0.010986,1.586914,-4.501343,-0.747681,0.9866715656904277
0 days 00:01:34.720000,0.378418,-0.911377,-0.01001,1.449585,-4.325867,-0.793457,0.9868679845617649
0 days 00:01:34.730000,0.377197,-0.907715,-0.013428,1.365662,-4.425049,-0.793457,0.983058700799703
0 days 00:01:34.740000,0.377197,-0.908936,-0.011475,1.38855,-4.470825,-0.778198,0.9841615235976258
0 days 00:01:34.750000,0.378418,-0.907959,-0.011475,1.281738,-4.608154,-0.648498,0.9837283182007113
0 days 00:01:34.760000,0.381592,-0.90625,-0.015137,1.075745,-4.455566,-0.679016,0.9834280073970845
0 days 00:01:34.770000,0.381592,-0.907227,-0.016357,1.014709,-4.318237,-0.740051,0.9843479239791183
0 days 00:01:34.780000,0.380615,-0.911133,-0.014893,1.045227,-4.142761,-0.823975,0.9875489473251439
0 days 00:01:34.790000,0.38208,-0.910645,-0.013184,0.999451,-3.852844,-0.930786,0.987640248410827
0 days 00:01:34.800000,0.383545,-0.908691,-0.012451,1.022339,-3.509521,-0.87738,0.9863980575340769
0 days 00:01:34.810000,0.384277,-0.90918,-0.013672,1.045227,-3.074646,-0.930786,0.9871494358571047
0 days 00:01:34.820000,0.381348,-0.909912,-0.015625,0.984192,-2.777099,-0.900268,0.986716922664753
0 days 00:01:34.830000,0.384521,-0.911621,-0.015869,1.075745,-2.14386,-0.648498,0.9895256804363392
0 days 00:01:34.840000,0.374268,-0.909424,-0.012451,1.76239,-5.500793,-0.534058,0.9835057574823851
0 days 00:01:34.850000,0.376953,-0.913086,-0.013184,-1.159668,2.89917,-1.838684,0.9879237953713839
0 days 00:01:34.860000,0.375244,-0.909668,-0.011475,-0.953674,1.960754,-1.502991,0.9840912586671015
0 days 00:01:34.870000,0.375732,-0.914795,-0.006592,-0.656128,0.63324,-1.022339,0.988973145395263
0 days 00:01:34.880000,0.371094,-0.910156,-0.008545,-0.701904,0.63324,-0.984192,0.9829383084390393
0 days 00:01:34.890000,0.372559,-0.906982,-0.009521,-0.87738,0.549316,-0.862122,0.9805647384267904
0 days 00:01:34.900000,0.374756,-0.907959,-0.009766,-0.984192,0.701904,-0.732422,0.9823069683011517
0 days 00:01:34.910000,0.376221,-0.908447,-0.010986,-0.976562,0.892639,-0.549316,0.9833305064148067
0 days 00:01:34.920000,0.374023,-0.907715,-0.012207,-1.159668,1.014709,-0.534058,0.9818292807830697
0 days 00:01:34.930000,0.374268,-0.908447,-0.01123,-1.152039,1.144409,-0.564575,0.9825877062802079
0 days 00:01:34.940000,0.375,-0.912842,-0.010254,-0.961304,1.296997,-0.427246,0.986919784724169
0 days 00:01:34.950000,0.377686,-0.9104,-0.010498,-0.953674,1.365662,-0.328064,0.9856901554748327
0 days 00:01:34.960000,0.375244,-0.913574,-0.010498,-0.869751,1.411438,-0.1297,0.9876921185349208
0 days 00:01:34.970000,0.37085,-0.916016,-0.007324,-0.572205,0.450134,-0.839233,0.9882654884857611
0 days 00:01:34.980000,0.377686,-0.915527,-0.008545,-0.961304,1.449585,0.068665,0.9904087132845711
0 days 00:01:34.990000,0.373779,-0.9104,-0.006104,-1.014709,1.449585,0.343323,0.9841626693067564
0 days 00:01:35,0.374512,-0.912354,-0.004883,-0.984192,1.457214,0.541687,0.9862418076460763
0 days 00:01:35.010000,0.374756,-0.910889,-0.004639,-1.022339,1.480102,0.801086,0.9849783501062346
0 days 00:01:35.020000,0.375977,-0.911865,-0.007813,-1.098633,1.647949,1.014709,0.9863658173938309
0 days 00:01:35.030000,0.374756,-0.913086,-0.009033,-1.205444,1.739502,1.235962,0.9870408796098568
0 days 00:01:35.040000,0.374512,-0.914063,-0.009277,-1.174927,1.831055,1.327515,0.9878544775633706
0 days 00:01:35.050000,0.372559,-0.916016,-0.007324,-1.228333,1.907349,1.296997,0.9889080653493529
0 days 00:01:35.060000,0.369629,-0.918213,-0.005127,-1.113892,1.792908,1.296997,0.9898318024487797
0 days 00:01:35.070000,0.367676,-0.915527,-0.005615,-0.961304,1.487732,1.365662,0.9866138337414492
0 days 00:01:35.080000,0.375,-0.910156,-0.009766,-0.976562,2.410889,-1.693725,0.9844309620750457
0 days 00:01:35.090000,0.376953,-0.910889,-0.007568,-0.968933,1.487732,0.320435,0.985834473506582
0 days 00:01:35.100000,0.371582,-0.916504,-0.003906,-0.549316,0.267029,-0.679016,0.9889732158031379
0 days 00:01:35.110000,0.375977,-0.910645,-0.011963,-0.953674,1.243591,-0.152588,0.9852797236942411
0 days 00:01:35.120000,0.371582,-0.909424,-0.01001,-0.267029,0.190735,-0.488281,0.9824588513520555
0 days 00:01:35.130000,0.373535,-0.913818,-0.008301,-0.396728,0.160217,-0.595093,0.9872490263099782
0 days 00:01:35.140000,0.37793,-0.9104,-0.013428,-0.541687,1.197815,-0.839233,0.9858192309363821
0 days 00:01:35.150000,0.37915,-0.90918,-0.014648,-0.541687,1.075745,-0.579834,0.9851789476049516
0 days 00:01:35.160000,0.381592,-0.911377,-0.014893,-0.343323,1.060486,-0.282288,0.9881509459804205
0 days 00:01:35.170000,0.383545,-0.913086,-0.011963,-0.297546,1.152039,-0.152588,0.9904422869556812
0 days 00:01:35.180000,0.380859,-0.913574,-0.010498,-0.320435,1.548767,-0.061035,0.9898389966863298
0 days 00:01:35.190000,0.380127,-0.911865,-0.011719,-0.289917,1.708984,-0.1297,0.9879937496335692
0 days 00:01:35.200000,0.377441,-0.911621,-0.010254,-0.221252,2.02179,-0.137329,0.9867216936086892
0 days 00:01:35.210000,0.378906,-0.911865,-0.011475,-0.259399,2.235413,-0.015259,0.9875217520065065
0 days 00:01:35.220000,0.375,-0.909668,-0.012207,-0.236511,2.410889,0.068665,0.9840070533654726
0 days 00:01:35.230000,0.374268,-0.9104,-0.012695,-0.450134,2.586365,0.038147,0.9844114276302363
0 days 00:01:35.240000,0.376709,-0.910889,-0.014404,-0.694275,1.533508,-1.174927,0.9858173848223615
0 days 00:01:35.250000,0.373047,-0.913574,-0.011475,-0.328064,2.662658,0.083923,0.9868704035029119
0 days 00:01:35.260000,0.375244,-0.912109,-0.010986,-0.328064,2.63977,0.1297,0.9863425265155101
0 days 00:01:35.270000,0.369629,-0.911377,-0.008301,-0.076294,0.396728,-0.411987,0.9835153991529568
0 days 00:01:35.280000,0.367676,-0.909912,-0.008057,-0.022888,0.434875,-0.442505,0.9814226428858263
0 days 00:01:35.290000,0.368164,-0.912354,-0.007568,0.038147,0.640869,-0.305176,0.9838657565115273
0 days 00:01:35.300000,0.367432,-0.911865,-0.00708,0.12207,0.938415,-0.205994,0.9831348733764864
0 days 00:01:35.310000,0.371094,-0.909668,-0.01001,-0.152588,0.335693,-0.396728,0.9825002937200579
0 days 00:01:35.320000,0.370605,-0.911377,-0.008545,-0.198364,1.998901,-0.160217,0.9838847082758223
0 days 00:01:35.330000,0.373047,-0.914795,-0.010498,-0.175476,2.380371,-0.106812,0.9879899616079103
0 days 00:01:35.340000,0.372314,-0.913086,-0.011963,-0.297546,2.655029,-0.091553,0.9861474896591279
0 days 00:01:35.350000,0.368408,-0.911865,-0.009766,-0.053406,1.495361,-0.259399,0.983523058928971
0 days 00:01:35.360000,0.374023,-0.910645,-0.020752,-1.197815,3.852844,-0.022888,0.984681758771838
0 days 00:01:35.370000,0.384277,-0.908691,-0.020508,-0.663757,2.632141,0.137329,0.986817472622977
0 days 00:01:35.380000,0.382568,-0.910156,-0.018799,-0.801086,3.074646,0.12207,0.9874693014777725
0 days 00:01:35.390000,0.381592,-0.909668,-0.017822,-0.900268,3.433227,0.061035,0.986623508929318
0 days 00:01:35.400000,0.378906,-0.911133,-0.02002,-1.159668,3.631592,0.083923,0.9869822191534151
0 days 00:01:35.410000,0.378906,-0.910645,-0.020996,-1.167297,3.814697,0.106812,0.9865520284693555
0 days 00:01:35.420000,0.378418,-0.909424,-0.022461,-1.213074,4.020691,0.175476,0.9852698569534136
0 days 00:01:35.430000,0.385742,-0.907227,-0.020996,-0.63324,2.059937,0.0,0.9860520027407277
0 days 00:01:35.440000,0.376953,-0.909424,-0.022705,-1.243591,3.982544,0.160217,0.9847137111922429
0 days 00:01:35.450000,0.375488,-0.910645,-0.022949,-1.235962,3.982544,0.205994,0.9852878821796196
0 days 00:01:35.460000,0.372314,-0.911133,-0.021729,-1.205444,3.616333,-0.061035,0.9845065808444349
0 days 00:01:35.470000,0.369629,-0.910156,-0.019043,-0.75531,1.716614,-0.427246,0.9825335504836463
0 days 00:01:35.480000,0.369385,-0.909912,-0.022461,-0.900268,2.937317,-0.198364,0.9822879529394628
0 days 00:01:35.490000,0.368164,-0.910645,-0.02124,-0.915527,2.677917,-0.228882,0.98248164589523
0 days 00:01:35.500000,0.369873,-0.910156,-0.020508,-0.801086,2.212524,-0.320435,0.9826548521881933
0 days 00:01:35.510000,0.371582,-0.908691,-0.019287,-0.686645,1.335144,-0.366211,0.9819187871580827
0 days 00:01:35.520000,0.369141,-0.909668,-0.019043,-0.663757,0.953674,-0.305176,0.9818979498675002
0 days 00:01:35.530000,0.369629,-0.910889,-0.018311,-0.595093,0.541687,-0.228882,0.9831986883041494
0 days 00:01:35.540000,0.371582,-0.909912,-0.016357,-0.679016,0.267029,-0.198364,0.9829957181580193
0 days 00:01:35.550000,0.373291,-0.908936,-0.013428,-0.732422,0.167847,-0.137329,0.9826958501800035
0 days 00:01:35.560000,0.372803,-0.910889,-0.015137,-0.770569,0.045776,-0.137329,0.9843424078535883
0 days 00:01:35.570000,0.386963,-0.906982,-0.02124,-0.366211,1.586914,0.167847,0.9863102196028387
0 days 00:01:35.580000,0.371338,-0.909424,-0.023682,-0.953674,3.288269,-0.167847,0.9826010172720157
0 days 00:01:35.590000,0.386475,-0.906982,-0.020264,-0.419617,1.197815,0.198364,0.9860983235179948
0 days 00:01:35.600000,0.368408,-0.909668,-0.020264,1.342773,-3.265381,0.320435,0.9816470620258587
0 days 00:01:35.610000,0.386719,-0.910156,-0.02002,-0.198364,0.152588,0.228882,0.9891088563434259
0 days 00:01:35.620000,0.36792,-0.909668,-0.019531,1.289368,-3.479004,0.25177,0.9814491614877462
0 days 00:01:35.630000,0.36792,-0.910156,-0.01709,1.13678,-3.89862,0.244141,0.9818559664411068
0 days 00:01:35.640000,0.367188,-0.910889,-0.02124,1.174927,-4.180908,0.25177,0.9823425753091434
0 days 00:01:35.650000,0.369141,-0.910156,-0.022949,1.121521,-4.180908,0.274658,0.9824335493141507
0 days 00:01:35.660000,0.370605,-0.909912,-0.02417,1.014709,-4.081726,0.152588,0.982787923546581
0 days 00:01:35.670000,0.371338,-0.912109,-0.023193,0.946045,-3.852844,0.076294,0.9850749480998895
0 days 00:01:35.680000,0.370605,-0.914307,-0.017578,0.823975,-3.601074,-0.12207,0.9867189784117867
0 days 00:01:35.690000,0.369873,-0.915283,-0.018311,0.816345,-3.540039,-0.511169,0.9873622936587156
0 days 00:01:35.700000,0.369873,-0.913818,-0.017822,0.808716,-3.799438,-0.808716,0.9859954345416616
0 days 00:01:35.710000,0.37085,-0.910156,-0.017578,0.930786,-3.959656,-0.900268,0.9829662521775607
0 days 00:01:35.720000,0.386719,-0.908203,-0.020508,-0.297546,0.686645,0.190735,0.987322061048977
0 days 00:01:35.730000,0.373291,-0.906494,-0.019287,0.869751,-3.936767,-0.900268,0.9805353288311441
0 days 00:01:35.740000,0.378906,-0.911133,-0.020752,0.640869,-3.387451,-0.862122,0.9869973384102917
0 days 00:01:35.750000,0.379883,-0.912598,-0.02124,0.595093,-3.189087,-0.793457,0.9887352228443165
0 days 00:01:35.760000,0.381348,-0.910645,-0.021484,0.602722,-2.845764,-0.740051,0.9875030001903792
0 days 00:01:35.770000,0.382813,-0.910156,-0.02417,0.320435,-2.487183,-0.62561,0.9876810852724678
0 days 00:01:35.780000,0.383057,-0.910645,-0.022705,0.25177,-2.159119,-0.549316,0.988191529157683
0 days 00:01:35.790000,0.384277,-0.910889,-0.023438,0.114441,-1.777649,-0.335693,0.9889069333835211
0 days 00:01:35.800000,0.385742,-0.909668,-0.02417,0.053406,-1.312256,-0.213623,0.988370856353019
0 days 00:01:35.810000,0.385742,-0.910645,-0.023193,-0.083923,-0.953674,-0.061035,0.9892467446688921
0 days 00:01:35.820000,0.385742,-0.908936,-0.019775,-0.167847,-0.495911,0.12207,0.9875994093178672
0 days 00:01:35.830000,0.38623,-0.908936,-0.019531,-0.175476,-0.213623,0.167847,0.9877852625732984
0 days 00:01:35.840000,0.376221,-0.907959,-0.021729,0.75531,-3.662109,-0.907898,0.9830584600943121
0 days 00:01:35.850000,0.374512,-0.913574,-0.015381,-0.87738,0.099182,-0.1297,0.9874782361049786
0 days 00:01:35.860000,0.375977,-0.910645,-0.018311,-0.976562,0.114441,-0.160217,0.9853772441430744
0 days 00:01:35.870000,0.374268,-0.908936,-0.018555,-0.984192,0.259399,-0.213623,0.9831507900342652
0 days 00:01:35.880000,0.372314,-0.909912,-0.022705,1.167297,-5.119323,-0.663757,0.9833987387448695
0 days 00:01:35.890000,0.374268,-0.913574,-0.022461,1.037598,-4.966736,-0.709534,0.9875213849942693
0 days 00:01:35.900000,0.375,-0.913818,-0.021973,1.00708,-4.905701,-0.518799,0.9880137397086136
0 days 00:01:35.910000,0.374023,-0.910889,-0.020996,0.930786,-4.844666,-0.38147,0.9849125884391975
0 days 00:01:35.920000,0.371582,-0.911865,-0.02124,0.938415,-4.867554,-0.404358,0.9848969989542055
0 days 00:01:35.930000,0.372314,-0.915771,-0.019043,0.88501,-4.859924,-0.274658,0.9887451010680154
0 days 00:01:35.940000,0.373535,-0.915039,-0.020264,1.045227,-5.020141,-0.160217,0.9885521723419559
0 days 00:01:35.950000,0.371826,-0.91626,-0.02002,1.205444,-5.073547,-0.1297,0.9890337518386316
0 days 00:01:35.960000,0.374512,-0.914551,-0.021729,1.014709,-4.852295,-0.106812,0.9885013501184508
0 days 00:01:35.970000,0.37793,-0.915039,-0.023926,0.976562,-4.669189,-0.030518,0.9903029384471198
0 days 00:01:35.980000,0.370605,-0.909668,-0.019775,1.144409,-5.081176,-0.740051,0.9824637331087597
0 days 00:01:35.990000,0.376709,-0.917725,-0.023926,1.121521,-4.53949,-0.12207,0.9923211676579312
0 days 00:01:36,0.376953,-0.919189,-0.017822,1.121521,-4.493713,-0.37384,0.9936395753058551
0 days 00:01:36.010000,0.373047,-0.915283,-0.014648,1.167297,-4.699707,-0.534058,0.9884946121259336
0 days 00:01:36.020000,0.370605,-0.912598,-0.015625,1.342773,-4.989624,-0.526428,0.9851026932528406
0 days 00:01:36.030000,0.372559,-0.909912,-0.016357,1.518249,-5.256652,-0.518799,0.9833654497052456
0 days 00:01:36.040000,0.371826,-0.911621,-0.01709,1.525879,-5.340576,-0.541687,0.984682431049219
0 days 00:01:36.050000,0.374512,-0.912109,-0.017334,1.518249,-5.332946,-0.534058,0.9861554307415236
0 days 00:01:36.060000,0.375732,-0.912842,-0.017822,1.602173,-5.378723,-0.50354,0.9873057664533313
0 days 00:01:36.070000,0.378174,-0.912354,-0.018311,1.663208,-5.40924,-0.534058,0.9877958738084504
0 days 00:01:36.080000,0.374756,-0.910889,-0.018066,1.76239,-5.317688,-0.534058,0.9851330926392636
0 days 00:01:36.090000,0.373291,-0.909912,-0.01709,1.754761,-5.332946,-0.648498,0.9836554714558345
0 days 00:01:36.100000,0.375488,-0.920166,-0.019775,1.174927,-4.447937,-0.198364,0.9940260340277814
0 days 00:01:36.110000,0.368408,-0.908203,-0.019043,1.213074,-5.058288,-0.778198,0.980265157761919
0 days 00:01:36.120000,0.377197,-0.910156,-0.016846,-0.976562,0.175476,-0.190735,0.9853655711770124
0 days 00:01:36.130000,0.364746,-0.908936,-0.012939,1.197815,-4.814148,-0.923157,0.9794752239505602
0 days 00:01:36.140000,0.375244,-0.909912,-0.019287,-1.098633,0.366211,-0.244141,0.9844388734954548
0 days 00:01:36.150000,0.374756,-0.910156,-0.020752,-0.991821,0.465393,-0.228882,0.9845083287489242
0 days 00:01:36.160000,0.374756,-0.911133,-0.020752,-1.045227,0.587463,-0.160217,0.9854116138594063
0 days 00:01:36.170000,0.376709,-0.912354,-0.022949,-1.083374,0.808716,-0.144958,0.9873328459025356
0 days 00:01:36.180000,0.378418,-0.911865,-0.024658,-1.243591,1.235962,-0.1297,0.9875758086916671
0 days 00:01:36.190000,0.375,-0.911865,-0.023926,-1.213074,1.602173,0.007629,0.9862531276001106
0 days 00:01:36.200000,0.374512,-0.912842,-0.027344,-1.312256,2.487183,-0.083923,0.9870600029603064
0 days 00:01:36.210000,0.371826,-0.916504,-0.027832,-1.159668,2.563476,-0.083923,0.9894487235405379
0 days 00:01:36.220000,0.369141,-0.917236,-0.022949,-0.999451,2.555847,-0.183105,0.9889962660081181
0 days 00:01:36.230000,0.370117,-0.916016,-0.023682,-0.869751,2.456665,-0.190735,0.9882473086576052
0 days 00:01:36.240000,0.376221,-0.910889,-0.026367,-1.274109,2.075195,0.015259,0.9858784052057332
0 days 00:01:36.250000,0.365723,-0.916992,-0.025146,-0.610352,1.564026,-0.244141,0.9875525110640954
0 days 00:01:36.260000,0.368164,-0.916504,-0.023438,-0.656128,2.098083,-0.152588,0.9879643985265866
0 days 00:01:36.270000,0.363037,-0.908936,-0.013428,1.045227,-4.15802,-0.808716,0.9788466818909894
0 days 00:01:36.280000,0.362793,-0.910156,-0.012451,0.991821,-3.875732,-0.823975,0.9798763863804455
0 days 00:01:36.290000,0.363037,-0.915283,-0.013916,0.831604,-3.433227,-0.694275,0.9847499624341196
0 days 00:01:36.300000,0.362793,-0.914795,-0.015625,0.701904,-2.807617,-0.587463,0.9842320831485835
0 days 00:01:36.310000,0.36377,-0.906738,-0.012451,1.13678,-4.53949,-0.88501,0.9770657301046844
0 days 00:01:36.320000,0.362305,-0.914063,-0.02002,0.198364,-1.266479,-0.312805,0.9834515145110103
0 days 00:01:36.330000,0.361328,-0.91626,-0.021973,0.022888,-0.274658,-0.366211,0.9851766967975846
0 days 00:01:36.340000,0.362549,-0.916992,-0.022217,-0.267029,0.671387,-0.366211,0.9863111580804509
0 days 00:01:36.350000,0.364014,-0.912109,-0.020508,0.473022,-2.067566,-0.450134,0.982277760178352
0 days 00:01:36.360000,0.367188,-0.908691,-0.016113,1.289368,-5.081176,-0.732422,0.9802071156617871
0 days 00:01:36.370000,0.370117,-0.916748,-0.017822,-1.686096,3.715515,1.800537,0.9888028685622833
0 days 00:01:36.380000,0.359619,-0.917725,-0.022705,-1.655578,2.456665,2.349854,0.9859312946706783
0 days 00:01:36.390000,0.360352,-0.920898,-0.023682,-1.434326,2.098083,2.098083,0.9891751753011193
0 days 00:01:36.400000,0.361572,-0.915527,-0.022461,-1.251221,1.953125,2.037048,0.9845955999464958
0 days 00:01:36.410000,0.360107,-0.914551,-0.023193,-1.281738,1.983642,1.853943,0.9831675840359059
0 days 00:01:36.420000,0.362793,-0.91626,-0.02124,-1.373291,2.01416,1.747131,0.9856988820370042
0 days 00:01:36.430000,0.364258,-0.915283,-0.016357,-1.365662,2.120972,1.655578,0.9852382514407365
0 days 00:01:36.440000,0.368164,-0.91333,-0.02002,-1.51062,2.380371,1.678467,0.9849452879200956
0 days 00:01:36.450000,0.368896,-0.914551,-0.021973,-1.518249,2.822876,1.724243,0.9863927225735194
0 days 00:01:36.460000,0.369873,-0.917236,-0.019775,-1.594543,3.27301,1.747131,0.989201175924291
0 days 00:01:36.470000,0.370361,-0.912109,-0.020264,-2.6474,5.500793,1.525879,0.984642436571774
0 days 00:01:36.480000,0.370117,-0.919189,-0.02002,-1.869202,3.952026,2.052307,0.991108375411085
0 days 00:01:36.490000,0.368896,-0.916504,-0.02124,-1.876831,3.913879,2.075195,0.9881877242872429
0 days 00:01:36.500000,0.369629,-0.916992,-0.022949,-1.945495,4.03595,1.983642,0.9889522649278882
0 days 00:01:36.510000,0.371582,-0.916504,-0.022217,-2.029419,4.219055,1.914978,0.9892150220396979
0 days 00:01:36.520000,0.37085,-0.913086,-0.021973,-2.059937,4.394531,1.823425,0.9857680146084067
0 days 00:01:36.530000,0.369873,-0.912842,-0.022217,-2.13623,4.508972,1.823425,0.9851802617704032
0 days 00:01:36.540000,0.370117,-0.911377,-0.021484,-2.403259,4.676819,1.831055,0.9838984663439617
0 days 00:01:36.550000,0.370605,-0.909912,-0.021484,-2.571106,5.012512,1.647949,0.982725534432173
0 days 00:01:36.560000,0.368164,-0.911621,-0.020996,-2.616882,5.203247,1.548767,0.9833811115498405
0 days 00:01:36.570000,0.356445,-0.917969,-0.021729,-1.846313,2.746582,2.601623,0.9849833868786824
0 days 00:01:36.580000,0.369141,-0.917236,-0.02124,-1.792908,3.837585,1.953125,0.9889580856522688
0 days 00:01:36.590000,0.353271,-0.920898,-0.020752,-2.105713,3.120422,2.761841,0.9865516567058209
0 days 00:01:36.600000,0.350586,-0.917236,-0.009033,-3.471374,4.257202,4.981995,0.9819949175942817
0 days 00:01:36.610000,0.359131,-0.927002,-0.018311,-2.487183,3.860473,3.120422,0.9943053232714788
0 days 00:01:36.620000,0.343262,-0.968262,-0.00293,-7.484436,8.308411,7.316589,1.0273113871597062
0 days 00:01:36.630000,0.344727,-0.96582,-0.003174,-7.217407,7.850646,7.095336,1.0255023409066408
0 days 00:01:36.640000,0.347656,-0.9646,0.0,-6.614685,7.545471,6.935119,1.0253379220218084
0 days 00:01:36.650000,0.348877,-0.959473,0.000732,-6.484985,7.369995,6.752014,1.0209329726686274
0 days 00:01:36.660000,0.350342,-0.954834,-0.001221,-6.332397,7.225036,6.713867,1.017078647578937
0 days 00:01:36.670000,0.35083,-0.949219,-0.001221,-5.897521,7.118225,6.584167,1.0119782061398357
0 days 00:01:36.680000,0.349121,-0.949219,0.001221,-5.447387,6.538391,6.553649,1.011387004782541
0 days 00:01:36.690000,0.348633,-0.943604,0.001465,-4.882813,5.729675,6.454467,1.0059501099607275
0 days 00:01:36.700000,0.348877,-0.938477,-0.000488,-4.501343,4.959106,6.347656,1.001226487265494
0 days 00:01:36.710000,0.349121,-0.934082,-0.003418,-4.333496,4.493713,6.134033,0.9971992469356362
0 days 00:01:36.720000,0.349365,-0.92627,-0.006836,-4.089355,4.333496,5.943298,0.9899892661140322
0 days 00:01:36.730000,0.35083,-0.923584,-0.008057,-3.814697,4.302979,5.584716,0.9880050653741609
0 days 00:01:36.740000,0.352295,-0.919189,-0.010498,-3.692627,4.310608,5.325317,0.9844442049958952
0 days 00:01:36.750000,0.368408,-0.914063,-0.023926,-2.746582,5.622863,1.441955,0.9858032643022643
0 days 00:01:36.760000,0.353027,-0.919434,-0.009521,-3.303528,4.226685,4.585266,0.9849251710287437
0 days 00:01:36.770000,0.352295,-0.918213,-0.006104,-3.265381,4.28772,4.211426,0.9834958765597343
0 days 00:01:36.780000,0.350342,-0.916504,-0.008301,-3.120422,4.516602,3.952026,0.9812176137743349
0 days 00:01:36.790000,0.350586,-0.916992,-0.011719,-3.059387,4.714966,3.753662,0.9817953994702766
0 days 00:01:36.800000,0.351807,-0.917236,-0.016113,-2.975464,4.493713,3.593445,0.9825220983336711
0 days 00:01:36.810000,0.351318,-0.918701,-0.018555,-2.868652,4.135132,3.593445,0.9837581778821459
0 days 00:01:36.820000,0.354492,-0.918945,-0.021729,-2.838135,3.997802,3.677368,0.9851886319532925
0 days 00:01:36.830000,0.35791,-0.923096,-0.020752,-2.89154,3.997802,3.623962,0.9902708916352132
0 days 00:01:36.840000,0.357666,-0.929199,-0.017334,-2.578735,3.997802,3.280639,0.9958093274884505
0 days 00:01:36.850000,0.356934,-0.925537,-0.019287,-2.449036,3.479004,2.922058,0.9921656147508843
0 days 00:01:36.860000,0.367188,-0.912842,-0.025391,-2.700805,5.53894,1.167297,0.984252125823968
0 days 00:01:36.870000,0.370361,-0.918701,-0.021973,-1.777649,4.013062,2.02179,0.9907883782377546
0 days 00:01:36.880000,0.367432,-0.915039,-0.023926,-2.693176,5.378723,0.976562,0.9863443108879374
0 days 00:01:36.890000,0.364502,-0.915283,-0.021729,-0.770569,-3.051758,-0.396728,0.9854323048966884
0 days 00:01:36.900000,0.366455,-0.916748,-0.022217,-0.75531,-3.14331,-0.488281,0.9875270920931739
0 days 00:01:36.910000,0.365479,-0.915039,-0.019287,-0.831604,-3.15094,-0.617981,0.9855167473620121
0 days 00:01:36.920000,0.365723,-0.915039,-0.019775,-0.740051,-3.158569,-0.679016,0.9856169311020383
0 days 00:01:36.930000,0.365479,-0.914795,-0.020996,-0.679016,-3.059387,-0.778198,0.9853251359231632
0 days 00:01:36.940000,0.367188,-0.917969,-0.025635,-0.831604,-2.838135,-0.907898,0.9890153009584837
0 days 00:01:36.950000,0.370361,-0.916992,-0.026611,-0.976562,-2.670288,-0.900268,0.9893178173398072
0 days 00:01:36.960000,0.373047,-0.914063,-0.025879,-0.953674,-2.403259,-0.762939,0.9875955421218748
0 days 00:01:36.970000,0.376709,-0.915771,-0.026855,-0.930786,-1.930237,-0.717163,0.9905894135044044
0 days 00:01:36.980000,0.375977,-0.917236,-0.025879,-0.968933,-1.716614,-0.473022,0.9916402103918538
0 days 00:01:36.990000,0.359619,-0.913574,-0.020264,-0.823975,-2.723694,-0.167847,0.9820152281573845
0 days 00:01:37,0.377197,-0.922119,-0.027344,-1.083374,-1.373291,-0.320435,0.9966587787733573
0 days 00:01:37.010000,0.37207,-0.917725,-0.025146,-0.762939,-1.335144,-0.12207,0.9905996072283696
0 days 00:01:37.020000,0.372803,-0.918457,-0.023926,-0.587463,-1.449585,0.007629,0.9915229655101288
0 days 00:01:37.030000,0.37207,-0.915039,-0.025635,-0.358582,-1.571655,0.160217,0.9881242885619198
0 days 00:01:37.040000,0.374023,-0.916016,-0.025635,-0.099182,-1.739502,0.305176,0.9897654621222142
0 days 00:01:37.050000,0.376709,-0.917236,-0.023926,0.099182,-1.815796,0.343323,0.991868944897964
0 days 00:01:37.060000,0.375,-0.916748,-0.025635,0.267029,-1.861572,0.404358,0.9908123176106562
0 days 00:01:37.070000,0.372559,-0.915527,-0.026367,0.610352,-1.853943,0.37384,0.9887796088608422
0 days 00:01:37.080000,0.369873,-0.912354,-0.026611,0.808716,-2.372742,0.312805,0.9848370437620633
0 days 00:01:37.090000,0.368652,-0.911133,-0.026123,0.88501,-2.624511,0.312805,0.9832344847095223
0 days 00:01:37.100000,0.36792,-0.910156,-0.023682,1.113892,-2.868652,0.25177,0.9819928247497535
0 days 00:01:37.110000,0.373535,-0.919189,-0.027588,-0.991821,-1.213074,-0.236511,0.9925713635250617
0 days 00:01:37.120000,0.359375,-0.915283,-0.019043,-0.663757,-2.5177,0.053406,0.9834917369063148
0 days 00:01:37.130000,0.366943,-0.915039,-0.024414,-2.655029,5.462646,0.999451,0.9861742139023916
0 days 00:01:37.140000,0.356689,-0.913574,-0.021973,-0.88501,-1.518249,0.183105,0.9809828280484832
0 days 00:01:37.150000,0.367188,-0.915527,-0.023682,-2.662658,5.264282,0.953674,0.9867003355614105
0 days 00:01:37.160000,0.365479,-0.913818,-0.023682,-2.63977,5.195617,0.862122,0.9844790874818012
0 days 00:01:37.170000,0.365479,-0.914795,-0.022949,-2.670288,5.081176,0.88501,0.9853686863641447
0 days 00:01:37.180000,0.365723,-0.916748,-0.025635,-2.6474,4.974365,0.946045,0.9873385242448509
0 days 00:01:37.190000,0.365479,-0.915527,-0.02832,-2.616882,4.78363,0.953674,0.9861879179801383
0 days 00:01:37.200000,0.364746,-0.916016,-0.023926,-2.487183,4.53949,1.045227,0.9862542320558123
0 days 00:01:37.210000,0.359131,-0.912598,-0.020996,-0.801086,-2.075195,0.083923,0.9809439417117576
0 days 00:01:37.220000,0.36377,-0.918701,-0.024414,-2.243042,3.540039,1.159668,0.9884008213761256
0 days 00:01:37.230000,0.365967,-0.919189,-0.027344,-1.960754,2.967834,1.281738,0.9897413587124669
0 days 00:01:37.240000,0.365479,-0.918945,-0.025635,-1.914978,2.532959,1.327515,0.9892886159715981
0 days 00:01:37.250000,0.365234,-0.916016,-0.023193,-1.815796,2.220154,1.403808,0.9864173063470654
0 days 00:01:37.260000,0.36499,-0.917725,-0.022949,-2.441406,4.074097,1.037598,0.9879086659838551
0 days 00:01:37.270000,0.364258,-0.917236,-0.022705,-1.579285,1.716614,1.304626,0.9871784475387416
0 days 00:01:37.280000,0.363525,-0.916504,-0.022217,-1.586914,1.907349,1.419067,0.9862168132464585
0 days 00:01:37.290000,0.358887,-0.915771,-0.018799,-1.121521,-0.419617,0.404358,0.9837630840863059
0 days 00:01:37.300000,0.360352,-0.91626,-0.019287,-1.167297,0.061035,0.595093,0.9847628851012816
0 days 00:01:37.310000,0.361816,-0.915771,-0.020752,-1.304626,0.236511,0.778198,0.9848746051152908
0 days 00:01:37.320000,0.362549,-0.91626,-0.019043,-1.243591,0.526428,0.953674,0.9855642043266385
0 days 00:01:37.330000,0.35791,-0.913086,-0.020264,-1.029968,-0.961304,0.343323,0.9809364103712329
0 days 00:01:37.340000,0.362305,-0.914795,-0.02124,-1.38855,0.640869,1.174927,0.9841574785825692
0 days 00:01:37.350000,0.362061,-0.914551,-0.022461,-1.25885,0.968933,1.319885,0.9838679768358151
0 days 00:01:37.360000,0.363037,-0.915283,-0.022705,-1.335144,1.296997,1.312256,0.9849133720703562
0 days 00:01:37.370000,0.36377,-0.915039,-0.021729,-1.525879,1.495361,1.281738,0.984935091192308
0 days 00:01:37.380000,0.362549,-0.915771,-0.019287,-1.350403,0.556946,1.075745,0.985114353875224
0 days 00:01:37.390000,0.279541,-0.848877,-0.16333,-36.903381,53.031918,6.576538,0.9085218878541121
0 days 00:01:37.400000,0.297363,-0.846924,-0.17041,-38.902283,51.170345,5.851745,0.9136435758242927
0 days 00:01:37.410000,0.31665,-0.850098,-0.165771,-40.039063,51.300045,5.958557,0.9221788636403461
0 days 00:01:37.420000,0.330078,-0.849609,-0.154297,-40.061951,51.185604,6.721496,0.9244428068701708
0 days 00:01:37.430000,0.329834,-0.849609,-0.141113,-39.878845,50.971981,7.003784,0.9222466043342202
0 days 00:01:37.440000,0.346924,-0.841309,-0.130371,-40.603634,51.948544,7.438659,0.9193224096572432
0 days 00:01:37.450000,0.365967,-0.838135,-0.121094,-41.679379,54.458614,8.201599,0.9225323192983539
0 days 00:01:37.460000,0.381592,-0.83374,-0.113037,-43.189999,58.738705,9.101868,0.9238572429942843
0 days 00:01:37.470000,0.388916,-0.835205,-0.111572,-45.158382,63.598629,9.70459,0.9280470668371298
0 days 00:01:37.480000,0.401123,-0.839844,-0.108887,-46.905514,69.541931,10.398864,0.9370666914547758
0 days 00:01:37.490000,0.361816,-0.901367,-0.166504,-55.709835,130.0354,12.603759,0.9854424734914768
0 days 00:01:37.500000,0.436523,-0.851807,-0.119141,-50.064083,84.442131,12.390136,0.964532048539083
0 days 00:01:37.510000,0.443604,-0.861572,-0.123047,-51.11694,91.438286,13.458251,0.9768476770761141
0 days 00:01:37.520000,0.442627,-0.869385,-0.130615,-52.154537,97.717278,13.97705,0.9842810663519846
0 days 00:01:37.530000,0.442627,-0.871094,-0.137451,-53.192135,103.759758,14.22882,0.9867199173858812
0 days 00:01:37.540000,0.439209,-0.87207,-0.147461,-54.359432,110.328667,14.404296,0.9874995580262302
0 days 00:01:37.550000,0.432861,-0.872314,-0.155029,-55.244442,116.394035,14.404296,0.9860701550893831
0 days 00:01:37.560000,0.422607,-0.868652,-0.160645,-55.580135,121.009819,14.411925,0.9792649230815939
0 days 00:01:37.570000,0.405029,-0.866455,-0.161621,-55.892941,124.740593,14.343261,0.9700072708526468
0 days 00:01:37.580000,0.390625,-0.876465,-0.164307,-56.213375,127.441399,14.305114,0.9735376608529329
0 days 00:01:37.590000,0.375488,-0.888916,-0.165039,-56.182858,128.890991,13.694762,0.9789794506122179
0 days 00:01:37.600000,0.269043,-0.858154,-0.15625,-34.515381,58.341976,7.843017,0.9128124046401866
0 days 00:01:37.610000,0.422607,-0.845703,-0.111572,-48.530575,76.766968,11.390685,0.9519761298698618
0 days 00:01:37.620000,0.281494,-0.860352,-0.148193,-32.569885,65.887451,8.888245,0.9172816367882877
0 days 00:01:37.630000,0.348389,-0.903809,-0.231201,-18.64624,64.14032,-1.426697,0.9958411048972622
0 days 00:01:37.640000,0.324707,-0.864502,-0.151123,-29.281614,74.821472,8.010864,0.9357545110668717
0 days 00:01:37.650000,0.354492,-0.911621,-0.162842,-55.343624,131.744385,11.787414,0.9915820403118443
0 days 00:01:37.660000,0.428467,-0.84375,-0.294189,-28.617857,92.216484,-10.177611,0.9909819374287303
0 days 00:01:37.670000,0.397949,-0.823242,-0.289063,-25.787352,88.829033,-10.940551,0.9589829065911446
0 days 00:01:37.680000,0.376221,-0.811279,-0.288818,-21.347044,83.892815,-11.054992,0.9397508679463935
0 days 00:01:37.690000,0.363037,-0.80835,-0.287354,-18.02063,78.811646,-11.276244,0.9315567117384749
0 days 00:01:37.700000,0.352295,-0.814697,-0.2854,-16.929626,75.706482,-10.581969,0.9323605144116733
0 days 00:01:37.710000,0.347656,-0.821777,-0.285889,-16.578674,73.34137,-9.040833,0.9369709986899274
0 days 00:01:37.720000,0.335449,-0.830322,-0.282715,-16.426086,70.831299,-7.476806,0.9390891472645182
0 days 00:01:37.730000,0.324463,-0.844971,-0.283203,-16.189575,67.131042,-6.225585,0.9483966303287882
0 days 00:01:37.740000,0.328857,-0.86084,-0.276367,-16.38031,63.636776,-5.432128,0.9620660843923353
0 days 00:01:37.750000,0.308838,-0.860107,-0.145996,-30.860899,72.425842,9.117126,0.9254619353106858
0 days 00:01:37.760000,0.335693,-0.872803,-0.269043,-16.960144,61.94305,-4.974365,0.9730668029004997
0 days 00:01:37.770000,0.349609,-0.892822,-0.246338,-18.562317,63.400265,-2.670288,0.989969689843583
0 days 00:01:37.780000,0.338135,-0.911621,-0.21582,-18.615723,63.705441,-0.25177,0.995975099219855
0 days 00:01:37.790000,0.34082,-0.917969,-0.207031,-19.622803,63.415524,0.50354,1.000843240633617
0 days 00:01:37.800000,0.341064,-0.921387,-0.19751,-20.88928,63.812252,1.548767,1.0021421336142893
0 days 00:01:37.810000,0.33667,-0.923096,-0.189697,-21.697996,64.414978,2.540588,1.0007186747158265
0 days 00:01:37.820000,0.33667,-0.913574,-0.181885,-22.605894,65.658569,3.570556,0.9904778117661193
0 days 00:01:37.830000,0.337158,-0.898926,-0.177002,-23.979185,67.909241,4.867554,0.9762546688461982
0 days 00:01:37.840000,0.337402,-0.891602,-0.172607,-25.29907,70.884705,5.577087,0.9688072111916798
0 days 00:01:37.850000,0.335205,-0.884277,-0.165283,-26.763914,73.364258,6.126403,0.9600138930468662
0 days 00:01:37.860000,0.331299,-0.874268,-0.159424,-27.938841,74.668884,6.858825,0.9484300580438181
0 days 00:01:37.870000,0.341309,-0.882568,-0.26001,-17.89093,62.095638,-4.005432,0.9813375098328811
0 days 00:01:37.880000,0.461426,-0.889404,-0.278809,-26.252745,92.39196,-9.132385,1.0400422525902493
0 days 00:01:37.890000,0.342285,-0.92627,-0.161133,-54.435726,132.995605,11.352538,1.0005493380208694
0 days 00:01:37.900000,0.293701,-0.953857,-0.132324,-50.720211,128.097534,9.490967,1.006783539210887
0 days 00:01:37.910000,0.263184,-0.9646,0.018799,-22.972105,44.647213,7.400512,1.000036189473661
0 days 00:01:37.920000,0.265381,-0.975342,0.018555,-22.163389,41.16058,7.781982,1.010971503134485
0 days 00:01:37.930000,0.270752,-0.980957,0.020752,-21.385191,37.536621,8.361816,1.0178476933495502
0 days 00:01:37.940000,0.272217,-0.976318,0.023926,-20.729063,33.935547,8.872986,1.013839921135975
0 days 00:01:37.950000,0.277588,-0.977783,0.023438,-19.927979,30.372618,9.040833,1.0166926933331428
0 days 00:01:37.960000,0.282715,-0.980957,0.023193,-19.165039,27.091978,8.987427,1.021147551690254
0 days 00:01:37.970000,0.289795,-0.984375,0.021729,-18.257141,24.406431,9.063721,1.0263758727147672
0 days 00:01:37.980000,0.298828,-0.987549,0.020996,-17.38739,22.666929,9.216309,1.0319845119966675
0 days 00:01:37.990000,0.302979,-0.984375,0.019043,-16.677856,21.461485,9.101868,1.0301228329257632
0 days 00:01:38,0.305908,-0.974365,0.018066,-16.235352,20.400999,8.743286,1.0214172693101484
0 days 00:01:38.010000,0.254639,-0.960449,0.015137,-23.307798,48.202511,6.698608,0.9937466632351527
0 days 00:01:38.020000,0.306152,-0.963135,0.015381,-15.632628,19.40918,8.529663,1.010739655148644
0 days 00:01:38.030000,0.309082,-0.953857,0.01001,-14.305114,17.402649,7.865905,1.0027337928248952
0 days 00:01:38.040000,0.308594,-0.955811,0.006348,-13.618468,15.945434,7.598876,1.0044128741015819
0 days 00:01:38.050000,0.310547,-0.955566,0.003418,-12.96234,14.442443,7.400512,1.0047673871543603
0 days 00:01:38.060000,0.31665,-0.958252,0.001709,-12.077331,13.137816,7.575988,1.0092160515395106
0 days 00:01:38.070000,0.320313,-0.963867,0.002686,-11.154174,11.909484,7.743835,1.0157003624366785
0 days 00:01:38.080000,0.323486,-0.967041,0.002197,-10.253905,10.536193,7.820129,1.0197138396069754
0 days 00:01:38.090000,0.328125,-0.970947,-0.001221,-9.422302,9.246826,7.759094,1.0248929618623595
0 days 00:01:38.100000,0.330566,-0.971191,-0.00293,-8.758545,8.544922,7.56073,1.0259115087262642
0 days 00:01:38.110000,0.33667,-0.968018,-0.005127,-8.377075,8.247375,7.606506,1.0249057631572769
0 days 00:01:38.120000,0.342285,-0.966553,-0.004639,-7.789611,8.415222,7.5531,1.0253805358768031
0 days 00:01:38.130000,0.309326,-0.958252,0.013184,-15.029906,18.569946,8.171082,1.0070269547713209
0 days 00:01:38.140000,0.245117,-0.959229,0.012207,-23.887632,52.261349,5.065917,0.9901270771870649
0 days 00:01:38.150000,0.321533,-0.942383,-0.151611,-52.703854,131.767273,10.604857,1.007201610452942
0 days 00:01:38.160000,0.256348,-0.958984,0.009766,-25.245665,61.584469,2.906799,0.9927033716654738
0 days 00:01:38.170000,0.277832,-0.960693,-0.125977,-49.316402,122.459404,8.468628,1.0079642181159012
0 days 00:01:38.180000,0.261475,-0.95874,-0.12207,-48.416134,115.219109,7.453918,1.001225573047852
0 days 00:01:38.190000,0.241943,-0.955811,-0.112305,-46.859737,106.468193,6.378173,0.9923323515813641
0 days 00:01:38.200000,0.225586,-0.949219,-0.100586,-44.68536,96.847527,5.195617,0.9808278629571042
0 days 00:01:38.210000,0.222168,-0.945068,-0.092529,-43.212887,89.11132,3.990173,0.9752301065333249
0 days 00:01:38.220000,0.229492,-0.943115,-0.080322,-42.076107,85.174553,2.708435,0.9739528248190464
0 days 00:01:38.230000,0.249756,-0.95752,0.009521,-24.688719,57.296749,3.547668,0.9896025764805789
0 days 00:01:38.240000,0.255371,-0.938721,-0.070557,-39.428711,85.84594,1.991272,0.9753921025572229
0 days 00:01:38.250000,0.267578,-0.936035,-0.054688,-38.30719,88.279716,2.326965,0.9750642464232805
0 days 00:01:38.260000,0.268066,-0.937012,-0.039551,-36.605835,90.148918,2.14386,0.9754051210143404
0 days 00:01:38.270000,0.258057,-0.94165,-0.032227,-35.15625,89.942924,1.548767,0.9769015903754072
0 days 00:01:38.280000,0.240479,-0.943359,-0.077148,-40.771481,84.388725,1.953125,0.9765798309539266
0 days 00:01:38.290000,0.242188,-0.942139,-0.0271,-33.050537,85.098259,-0.457764,0.9731471279642148
0 days 00:01:38.300000,0.251953,-0.937988,-0.021729,-32.531738,84.33532,0.221252,0.9714802889374545
0 days 00:01:38.310000,0.261475,-0.937256,-0.014404,-31.98242,84.602348,-0.648498,0.9731523315375655
0 days 00:01:38.320000,0.23877,-0.936523,-0.014648,-30.357359,81.42852,-1.358032,0.9665924716926985
0 days 00:01:38.330000,0.251953,-0.93335,-0.008057,-29.312132,79.238892,0.328064,0.9667923520373959
0 days 00:01:38.340000,0.257324,-0.942871,0.000732,-28.610228,77.217102,0.205994,0.9773545413211113
0 days 00:01:38.350000,0.234619,-0.948486,-0.003906,-27.038572,70.869446,0.152588,0.9770808688092302
0 days 00:01:38.360000,0.248779,-0.944824,-0.000244,-26.138304,66.673279,0.87738,0.9770278610935309
0 days 00:01:38.370000,0.259033,-0.94751,0.002686,-25.794981,65.406799,1.335144,0.9822833144185031
0 days 00:01:38.380000,0.256104,-0.958008,0.006592,-25.482176,64.064026,1.983642,0.9916713373613255
0 days 00:01:38.390000,0.251465,-0.940186,-0.029541,-34.370422,88.043205,0.411987,0.9736822025188712
0 days 00:01:38.400000,0.627197,-0.723633,0.11792,-48.110958,91.659538,26.252745,0.9648450248086476
0 days 00:01:38.410000,0.645996,-0.72876,0.115234,-45.631405,77.392578,25.482176,0.9806532742881146
0 days 00:01:38.420000,0.6521,-0.732666,0.105713,-42.778011,62.042233,24.948118,0.9865136166951777
0 days 00:01:38.430000,0.618164,-0.728516,0.096436,-40.977474,49.835201,24.162291,0.9602927653835575
0 days 00:01:38.440000,0.596191,-0.787842,0.053711,-45.402523,76.477051,19.302368,0.989456212758301
0 days 00:01:38.450000,0.581055,-0.758057,0.087402,-42.602535,50.895687,20.606993,0.9591217012861298
0 days 00:01:38.460000,0.584717,-0.782227,0.073975,-43.731686,59.906002,21.339415,0.979410715809767
0 days 00:01:38.470000,0.584229,-0.791748,0.058594,-45.127865,68.840027,21.362303,0.9857087180201868
0 days 00:01:38.480000,0.583252,-0.733398,0.085693,-41.450497,46.020504,22.094725,0.9409563285068017
0 days 00:01:38.490000,0.618896,-0.728027,0.108154,-50.827023,105.773918,26.603697,0.9616407121482534
0 days 00:01:38.500000,0.469482,-0.899414,-0.083008,-29.151915,121.261589,23.567198,1.0179632703511459
0 days 00:01:38.510000,0.612549,-0.757324,0.05835,-52.513119,130.340576,25.863646,0.9757871903632472
0 days 00:01:38.520000,0.609619,-0.776367,0.013428,-52.421566,138.214111,25.81024,0.9871987414062074
0 days 00:01:38.530000,0.609619,-0.793213,-0.044189,-51.193233,142.456055,24.307249,1.0013864669801564
0 days 00:01:38.540000,0.590332,-0.806885,-0.108398,-48.080441,141.700745,23.910521,1.0056368130955629
0 days 00:01:38.550000,0.560303,-0.821045,-0.163818,-43.67065,136.154175,24.398802,1.0074178283899884
0 days 00:01:38.560000,0.539063,-0.832275,-0.199951,-39.56604,128.860474,24.902342,1.0115586962677943
0 days 00:01:38.570000,0.527588,-0.843506,-0.217285,-35.835266,123.481743,25.733946,1.0183635112301501
0 days 00:01:38.580000,0.527832,-0.842773,-0.219238,-32.997131,120.391838,27.976988,1.0183016500021003
0 days 00:01:38.590000,0.508301,-0.845947,-0.199219,-32.00531,119.98748,28.923033,1.0068189724925727
0 days 00:01:38.600000,0.487549,-0.86499,-0.154297,-30.944822,121.223442,27.114866,1.0048478948129413
0 days 00:01:38.610000,0.609863,-0.797363,0.050293,-44.670101,82.267754,17.181396,1.0051119432117999
0 days 00:01:38.620000,0.616943,-0.740479,0.086426,-52.505489,119.35424,25.947569,0.9676762207298473
0 days 00:01:38.630000,0.619629,-0.810059,0.045898,-43.533321,85.441582,15.747069,1.0209026924864093
0 days 00:01:38.640000,0.555664,-0.877686,0.024902,-26.519773,69.80896,7.698059,1.0390935016137863
0 days 00:01:38.650000,0.608154,-0.829102,0.028809,-40.390011,81.504814,12.985229,1.028635685070764
0 days 00:01:38.660000,0.457764,-0.917969,-0.02417,-28.587339,119.415276,19.241333,1.026060014598074
