t,ax,ay,az,gx,gy,gz,acc_mag
0 days 00:00:59.620000,0.186523,1.010742,0.045166,-6.568908,19.607544,25.42877,1.0288003633596752
0 days 00:00:59.630000,0.201416,1.031982,0.000732,-10.520934,14.617919,19.798279,1.0514541308131324
0 days 00:00:59.640000,0.209229,1.011475,0.016113,-7.408142,18.348694,21.64459,1.0330140748484504
0 days 00:00:59.650000,0.201904,1.001953,0.026611,-6.156921,20.248411,24.078367,1.0224398196206954
0 days 00:00:59.660000,0.197754,1.044922,0.002686,-13.946532,9.811401,19.058228,1.0634734811907627
0 days 00:00:59.670000,0.225342,1.048096,-0.003174,-29.876707,-13.336181,11.138915,1.0720514523361273
0 days 00:00:59.680000,0.250488,1.03125,0.038818,-43.197628,-32.234192,-11.177062,1.0619452141085244
0 days 00:00:59.690000,0.210938,1.032715,0.017822,-35.736084,-25.80261,-0.923157,1.0541881875419588
0 days 00:00:59.700000,0.174316,1.033691,0.034424,-38.223267,-28.999327,-4.638672,1.0488508774430232
0 days 00:00:59.710000,0.196777,1.032471,0.038574,-41.252132,-31.013487,-7.469177,1.0517630470053603
0 days 00:00:59.720000,0.172119,1.026611,0.059326,-8.094788,16.448975,26.19171,1.0426287305450583
0 days 00:00:59.730000,0.25708,1.034668,0.025879,-44.570919,-30.677794,-13.34381,1.0664416154975385
0 days 00:00:59.740000,0.273926,1.038574,0.017578,-45.722958,-26.870726,-14.823913,1.0742347941842139
0 days 00:00:59.750000,0.293701,1.039307,0.017334,-45.730587,-19.866943,-16.136169,1.0801480385604558
0 days 00:00:59.760000,0.302002,1.044922,0.025879,-45.707699,-9.07135,-16.578674,1.0879967448154428
0 days 00:00:59.770000,0.311035,1.049072,0.020508,-45.974728,4.043579,-16.639709,1.094401850543483
0 days 00:00:59.780000,0.309326,1.0354,0.016602,-45.013424,17.654419,-16.998291,1.0807457428461147
0 days 00:00:59.790000,0.278076,1.006104,0.035645,-41.580196,31.440733,-18.028259,1.0444338593788505
0 days 00:00:59.800000,0.230469,1.040283,0.001465,-33.561707,-19.805908,5.264282,1.0655077786083966
0 days 00:00:59.810000,0.173584,1.039795,0.067139,-10.429381,11.878966,26.19171,1.0563203550069458
0 days 00:00:59.820000,0.118652,1.054199,0.124268,-27.381895,-11.314391,24.490355,1.0681087793520847
0 days 00:00:59.830000,0.234375,1.032715,0.064453,-11.520385,-1.13678,29.823301,1.0609364264926529
0 days 00:00:59.840000,0.238525,0.982422,0.062012,-36.155701,43.632504,-19.073486,1.0128635889659574
0 days 00:00:59.850000,0.217529,1.007813,0.273438,-70.526123,52.825924,24.200438,1.066665012388613
0 days 00:00:59.860000,0.251221,0.958008,0.293945,-72.242737,58.860775,28.480528,1.0330996960264773
0 days 00:00:59.870000,0.256592,0.921875,0.324219,-69.824219,66.322327,32.241821,1.0103518842710197
0 days 00:00:59.880000,0.246094,0.898926,0.348389,-65.78064,74.645996,37.345886,0.9949900027804299
0 days 00:00:59.890000,0.235352,0.903564,0.343506,-62.499996,82.534782,41.740414,0.9948943853676128
0 days 00:00:59.900000,0.191895,0.927734,0.292725,-62.141415,87.425224,44.509884,0.9915654246725225
0 days 00:00:59.910000,0.125977,0.939697,0.239258,-62.095638,84.396355,45.883175,0.977826695740099
0 days 00:00:59.920000,0.092041,0.942627,0.218506,-59.646603,72.250366,46.997066,0.9719887236208041
0 days 00:00:59.930000,0.095459,0.947266,0.226563,-56.503292,58.715816,48.095699,0.9786501358534623
0 days 00:00:59.940000,0.209473,1.043457,0.062744,-11.894225,5.203247,26.893614,1.0661230032758886
0 days 00:00:59.950000,0.135254,0.963867,0.234131,-55.160519,47.866817,46.06628,1.0010747041884536
0 days 00:00:59.960000,0.134277,0.983643,0.183594,-54.298397,31.372068,35.133362,1.0095992378236032
0 days 00:00:59.970000,0.127686,0.951172,0.197021,-38.42926,15.182494,40.031433,0.9797189202118126
0 days 00:00:59.980000,0.135986,0.963623,0.171631,-33.027649,6.347656,41.252132,0.9881895964267181
0 days 00:00:59.990000,0.151611,0.981201,0.143799,-30.433653,-1.197815,38.902283,1.0032045903618065
0 days 00:01:00,0.171875,0.99707,0.141602,-28.404234,-5.744934,32.943726,1.0216362987526433
0 days 00:01:00.010000,0.175781,1.032715,0.120117,-28.762815,-8.18634,25.627134,1.0544322286780692
0 days 00:01:00.020000,0.141357,1.05957,0.097168,-30.609129,-9.803772,21.530149,1.073364805913162
0 days 00:01:00.030000,0.160645,1.026123,0.138916,-19.081116,-12.96234,29.502867,1.0478706419258055
0 days 00:01:00.040000,0.200928,1.006836,0.118652,-12.077331,-11.276244,32.38678,1.0335226602179557
0 days 00:01:00.050000,0.228027,1.014404,0.080078,-10.421752,-6.935119,32.440186,1.0427963722745683
0 days 00:01:00.060000,0.165771,0.986084,0.207031,-56.289669,38.536072,39.894104,1.0211285494285232
0 days 00:01:00.070000,0.19873,0.972656,0.07251,-29.731749,51.475521,-19.172668,0.995394900195897
0 days 00:01:00.080000,0.106934,0.964844,0.185059,-47.195431,24.490355,36.987305,0.9882336050615766
0 days 00:01:00.090000,0.174316,1.016846,0.045654,-22.430418,54.13818,-16.838074,1.0326887930485156
0 days 00:01:00.100000,0.0625,1.01123,0.080811,35.995483,-129.905701,4.066467,1.0163772826175328
0 days 00:01:00.110000,0.069092,0.999512,0.077393,38.970947,-120.735161,6.111145,1.0048818930884365
0 days 00:01:00.120000,0.044678,0.982178,0.083984,41.343685,-114.364616,10.002136,0.9867740671622862
0 days 00:01:00.130000,0.050049,0.969971,0.106201,46.409603,-106.38427,16.685486,0.9770503035376429
0 days 00:01:00.140000,0.086914,0.971191,0.119385,53.916927,-92.720024,22.964476,0.9823536939931564
0 days 00:01:00.150000,0.123779,1.009033,0.120361,60.455318,-74.958801,30.105589,1.0236970285445788
0 days 00:01:00.160000,0.13501,1.070801,0.112549,62.278744,-54.267879,43.05267,1.0851312174580545
0 days 00:01:00.170000,0.128174,1.136475,0.114502,59.226986,-31.173704,63.545223,1.1493975412819535
0 days 00:01:00.180000,0.154785,1.163574,0.110352,53.977962,-5.149841,87.257378,1.1789997513167678
0 days 00:01:00.190000,0.294434,1.12915,0.111572,61.477657,52.207943,128.761292,1.1722283967043283
0 days 00:01:00.200000,0.028076,1.006104,0.07959,33.905029,-137.779236,-0.50354,1.0096376026535463
0 days 00:01:00.210000,0.312988,1.102783,0.095947,67.16156,80.200195,149.505615,1.150346756435641
0 days 00:01:00.220000,0.308838,1.070068,0.087402,79.704285,124.534599,186.943039,1.1171685389734174
0 days 00:01:00.230000,0.284912,1.078125,0.057373,85.327141,139.732361,206.657394,1.1166109548531216
0 days 00:01:00.240000,0.256104,1.131592,0.015137,86.85302,146.873474,225.723251,1.1603098043406337
0 days 00:01:00.250000,0.228271,1.198242,-0.020996,81.619255,143.501282,236.70195,1.2199722833003217
0 days 00:01:00.260000,0.17749,1.26001,-0.074707,67.993164,133.407593,238.418564,1.2746407478379937
0 days 00:01:00.270000,0.121094,1.269531,-0.129395,48.690792,119.644157,231.071457,1.28184077904473
0 days 00:01:00.280000,0.073486,1.200928,-0.119629,36.216736,103.118889,213.38652,1.2091068402010634
0 days 00:01:00.290000,0.003418,1.067139,-0.068115,37.628174,85.655205,186.592087,1.0693161278452692
0 days 00:01:00.300000,-0.101807,0.956787,-0.009766,49.438473,68.29071,158.348083,0.9622377062732472
0 days 00:01:00.310000,0.168457,0.986816,0.067139,-24.67346,54.626461,-17.967224,1.0033400340991083
0 days 00:01:00.320000,0.310303,1.080566,0.091797,73.066711,104.888908,168.609604,1.127979397584016
0 days 00:01:00.330000,0.000977,0.977783,0.084473,33.477783,-141.517639,-6.843566,0.9814256147803561
0 days 00:01:00.340000,0.241943,1.1521,0.112793,54.946896,22.53723,108.619682,1.1826212775432379
0 days 00:01:00.350000,0.0,0.932129,0.068359,26.664732,-137.985229,-16.12854,0.934632240788857
0 days 00:01:00.360000,-0.005127,0.946289,0.081055,31.188963,-141.075134,-12.08496,0.9497679035822384
0 days 00:01:00.370000,0.20752,1.027588,0.047852,-21.65222,52.131649,-20.576475,1.0494243479393832
0 days 00:01:00.380000,0.181396,1.001465,0.066895,-19.622803,52.803036,-21.278379,1.019956663817635
0 days 00:01:00.390000,0.135742,0.974854,0.074219,-16.807556,52.848812,-20.156858,0.9870535303827245
0 days 00:01:00.400000,0.105469,0.952637,0.080078,-13.572692,50.598141,-19.355774,0.961796989917311
0 days 00:01:00.410000,0.088623,0.940186,0.087402,-9.742737,46.501156,-19.081116,0.9483896142034665
0 days 00:01:00.420000,0.072754,0.947754,0.085449,-7.011413,41.595455,-18.493652,0.9543753562582177
0 days 00:01:00.430000,0.053223,1.001953,0.07251,-6.16455,30.754087,-15.045165,1.0059822076150253
0 days 00:01:00.440000,0.044678,1.026123,0.073242,-7.30133,25.360106,-12.092589,1.0297033191055567
0 days 00:01:00.450000,0.032715,1.023193,0.068848,-7.56073,19.058228,-9.391785,1.0260283785441804
0 days 00:01:00.460000,0.025391,0.999512,0.057373,-6.614685,11.352538,-8.392334,1.0014792070502512
0 days 00:01:00.470000,0.058105,0.970703,0.076904,-5.867004,36.140442,-17.242432,0.9754766683268237
0 days 00:01:00.480000,-0.001465,0.94165,0.059814,21.415709,-132.293701,-18.676758,0.9435489300089318
0 days 00:01:00.490000,0.023438,0.970703,0.055908,-4.53186,1.159668,-10.139464,0.9725941386400598
0 days 00:01:00.500000,-0.014893,0.95166,0.056152,16.777039,-123.115532,-19.393921,0.9534314889665644
0 days 00:01:00.510000,-0.022705,0.963867,0.057861,12.306212,-110.374443,-19.775391,0.965869041865925
0 days 00:01:00.520000,-0.0271,0.973877,0.058838,8.575439,-95.283501,-20.591734,0.9760290627706738
0 days 00:01:00.530000,-0.064941,0.980713,0.060059,7.591247,-77.850342,-22.010801,0.9846940668710256
0 days 00:01:00.540000,0.200195,1.036865,0.035889,-22.308348,52.61993,-17.967224,1.0566243829152344
0 days 00:01:00.550000,-0.073242,0.956543,0.066895,7.354736,-43.090816,-25.619505,0.9616724195057276
0 days 00:01:00.560000,-0.029785,0.950684,0.064941,2.967834,-26.519773,-21.545408,0.9533648554262948
0 days 00:01:00.570000,0.007813,0.953857,0.062988,-1.472473,-11.337279,-14.945983,0.9559663736565215
0 days 00:01:00.580000,-0.093506,0.973145,0.067627,8.544922,-59.822079,-24.79553,0.979963251448747
0 days 00:01:00.590000,0.118164,-0.38916,0.196533,212.425217,-74.714661,171.67662,0.45170062716914616
0 days 00:01:00.600000,0.121582,-0.611816,0.541992,106.575005,65.872192,65.254211,0.826351213857643
0 days 00:01:00.610000,0.128174,-0.599609,0.490479,125.205986,56.884762,76.828003,0.7851937191534328
0 days 00:01:00.620000,0.083984,-0.577881,0.462646,144.561768,45.898434,89.347832,0.7450107943734775
0 days 00:01:00.630000,0.031738,-0.573975,0.452637,162.330612,35.461426,102.172844,0.7316658083018504
0 days 00:01:00.640000,0.001953,-0.569336,0.430664,178.047165,22.209166,116.264336,0.7138758827702474
0 days 00:01:00.650000,0.0,-0.54541,0.396729,189.659103,2.853393,131.858826,0.6744375193752198
0 days 00:01:00.660000,0.002197,-0.505127,0.345215,199.050888,-20.378111,147.674561,0.6118263717452853
0 days 00:01:00.670000,0.027832,-0.462891,0.274658,208.740219,-46.806332,162.292465,0.5389617009296672
0 days 00:01:00.680000,0.111328,-0.621094,0.586182,87.532036,69.610596,54.100033,0.8612554891227109
0 days 00:01:00.690000,0.50708,0.477539,-0.183105,90.461723,-178.955063,249.992355,0.7202090418385484
0 days 00:01:00.700000,0.117188,-0.266357,0.095703,209.571823,-118.240349,191.009506,0.30633012095123785
0 days 00:01:00.710000,0.086426,-0.194092,0.089355,203.498825,-129.295349,205.230698,0.23048963960447333
0 days 00:01:00.720000,0.075439,-0.109863,0.109131,195.022568,-138.679504,226.089462,0.17225126023051326
0 days 00:01:00.730000,0.062012,-0.011475,0.105225,187.263474,-148.31543,246.459946,0.12267625847734352
0 days 00:01:00.740000,0.072998,0.088867,0.075928,181.091293,-158.439636,249.992355,0.13780824676702044
0 days 00:01:00.750000,0.190918,0.186279,0.020264,173.736557,-169.738754,249.992355,0.2675073424431561
0 days 00:01:00.760000,0.43335,0.279541,-0.090088,158.332825,-185.745224,249.992355,0.5234990362216534
0 days 00:01:00.770000,0.55249,0.353027,-0.159424,134.414673,-196.891769,249.992355,0.6747512686946205
0 days 00:01:00.780000,0.510254,0.412109,-0.181152,109.962456,-193.206772,249.992355,0.6804476611033358
0 days 00:01:00.790000,0.118896,-0.64209,0.643311,67.604065,76.187134,43.846127,0.9166596258355661
0 days 00:01:00.800000,0.162109,-0.331543,0.134766,211.479172,-100.776665,180.107101,0.3928892509168455
0 days 00:01:00.810000,0.121338,-0.657959,0.736816,49.133297,90.309135,34.942627,0.9952541252268187
0 days 00:01:00.820000,0.23877,-0.778076,1.209229,74.821472,44.548031,-134.338379,1.457617284858066
0 days 00:01:00.830000,0.13916,-0.713135,0.891357,11.70349,119.697563,14.846801,1.1499757976905427
0 days 00:01:00.840000,0.528809,0.556885,-0.187988,72.433472,-159.27124,249.992355,0.7906322469074987
0 days 00:01:00.850000,-1.304443,-1.455566,0.172363,69.747925,105.239861,77.659607,1.9621296910179
0 days 00:01:00.860000,0.314941,-3.422852,2.826904,111.381523,249.992355,144.760132,4.450448277713269
0 days 00:01:00.870000,5.580078,-3.337402,0.526855,231.422409,69.969177,-16.571045,6.5232736250070795
0 days 00:01:00.880000,4.172607,4.38501,-6.62085,-188.560471,63.804623,-206.504807,8.970764549303977
0 days 00:01:00.890000,-0.441406,1.289551,-0.373047,-249.992355,249.992355,-133.972168,1.4131330803027717
0 days 00:01:00.900000,0.55957,-0.026855,0.53418,-249.992355,249.992355,-115.295403,0.7740723792546793
0 days 00:01:00.910000,0.631836,-0.144775,0.640869,-249.992355,249.992355,-91.423027,0.9115314622556919
0 days 00:01:00.920000,0.792725,-0.251465,0.701172,-249.992355,249.992355,-63.629147,1.0877912232749445
0 days 00:01:00.930000,0.840576,-0.333984,0.726074,-249.992355,249.992355,-47.035213,1.1598692932861012
0 days 00:01:00.940000,0.728271,-0.385986,0.70166,-249.992355,249.992355,-51.658627,1.0824465793917961
0 days 00:01:00.950000,0.528076,-0.422363,0.703857,-249.992355,249.992355,-64.64386,0.9760478687000961
0 days 00:01:00.960000,0.358398,-0.481201,0.755371,-249.847397,249.992355,-64.125061,0.9646703459970146
0 days 00:01:00.970000,0.331787,-0.532715,0.842529,-249.587997,249.992355,-54.756161,1.050582219740559
0 days 00:01:00.980000,0.321777,-0.581299,0.924805,-249.992355,249.68718,-45.104977,1.1387331790876212
0 days 00:01:00.990000,0.302979,-0.640137,0.963135,-246.330246,249.992355,-36.92627,1.1954918157122616
0 days 00:01:01,0.263428,-0.715576,0.98291,-208.930954,249.992355,-31.463621,1.2440077938099905
0 days 00:01:01.010000,0.187012,-0.751953,0.927979,-167.831406,233.589157,-27.633665,1.2089465773118346
0 days 00:01:01.020000,0.183838,-0.742188,0.850342,-129.684448,208.129868,-25.123594,1.1435562752011812
0 days 00:01:01.030000,0.238037,-0.692871,0.834717,-96.748344,182.273849,-22.15576,1.1106233862561152
0 days 00:01:01.040000,0.208496,-0.681152,0.83374,-67.115784,163.337692,-17.448425,1.0966134308497228
0 days 00:01:01.050000,0.142822,-0.708008,0.873047,-39.001465,150.192261,-7.896423,1.1330862791319114
0 days 00:01:01.060000,0.130127,-0.727051,0.899658,-11.83319,136.009216,3.250122,1.1640106140813322
0 days 00:01:01.070000,0.129395,-0.685059,0.830811,32.325745,104.774467,26.084898,1.0845717206469105
0 days 00:01:01.080000,0.573975,0.638916,-0.211914,55.5191,-137.794495,249.992355,0.8846290177679004
0 days 00:01:01.090000,1.553223,1.07666,0.41333,79.704285,26.580809,249.992355,1.9345645846621404
0 days 00:01:01.100000,0.906738,0.633057,-0.090332,28.533934,-118.965141,249.992355,1.109547131093132
0 days 00:01:01.110000,0.638184,1.324951,-0.042969,118.774406,21.415709,96.405022,1.4712648657593914
0 days 00:01:01.120000,0.474854,1.259033,-0.057861,84.732048,3.677368,75.111389,1.3468475458365732
0 days 00:01:01.130000,0.391357,1.164551,-0.052979,57.701107,-8.56781,55.381771,1.2296935014429409
0 days 00:01:01.140000,0.370361,1.081055,0.007568,35.774231,-16.426086,37.216187,1.1427617678107718
0 days 00:01:01.150000,0.374512,1.02417,0.11377,19.454956,-20.774839,22.521971,1.0964155416373849
0 days 00:01:01.160000,0.378906,0.985107,0.205322,8.872986,-21.957396,12.603759,1.0752500555540556
0 days 00:01:01.170000,0.373047,0.948242,0.271973,4.051208,-20.568846,6.912231,1.0546545725980616
0 days 00:01:01.180000,0.394775,0.920166,0.30542,3.120422,-16.113281,2.532959,1.0468209706444556
0 days 00:01:01.190000,0.434326,0.894775,0.327637,2.876281,-8.758545,0.541687,1.0471902304118388
0 days 00:01:01.200000,0.734619,0.654541,-0.178223,42.778011,-123.100273,249.992355,0.9999262140633178
0 days 00:01:01.210000,0.785889,1.358154,-0.047852,153.190613,42.503353,117.065422,1.5698705749013198
0 days 00:01:01.220000,0.396484,0.906006,0.38623,0.350952,10.475158,4.226685,1.0617061962671217
0 days 00:01:01.230000,0.355225,0.893066,0.387939,-1.266479,23.887632,8.804321,1.0364595258388047
0 days 00:01:01.240000,0.351318,0.874023,0.379639,1.487732,28.518675,9.117126,1.0156112996486402
0 days 00:01:01.250000,0.34375,0.876221,0.35791,4.325867,33.14209,9.132385,1.0069890125721332
0 days 00:01:01.260000,0.347656,0.896484,0.321533,5.332946,37.712097,8.354187,1.0138696793380302
0 days 00:01:01.270000,0.340576,0.926025,0.27417,4.28772,41.358944,6.629943,1.0240524895243406
0 days 00:01:01.280000,0.299805,0.960938,0.224365,2.037048,42.205807,5.310058,1.0313217398532817
0 days 00:01:01.290000,0.269043,1.003662,0.180664,-2.075195,39.207458,3.39508,1.054685273903547
0 days 00:01:01.300000,0.281982,1.048828,0.139893,-11.184691,34.561157,0.801086,1.0950452380413334
0 days 00:01:01.310000,0.290771,1.073975,0.134033,-25.619505,34.896851,0.915527,1.1206850227227094
0 days 00:01:01.320000,0.264893,1.06543,0.168457,-42.610165,40.313717,5.943298,1.1107147010812453
0 days 00:01:01.330000,0.365479,0.913574,0.380127,-2.326965,18.341064,7.110595,1.0548406936812782
0 days 00:01:01.340000,0.849121,1.374268,-0.031982,178.268417,63.484188,132.972717,1.615748079617921
0 days 00:01:01.350000,0.433105,0.888184,0.374268,2.883911,0.823975,1.426697,1.056658551616841
0 days 00:01:01.360000,1.008789,1.448975,-0.001709,212.821945,94.932549,164.398178,1.7655556399691854
0 days 00:01:01.370000,0.917969,1.414551,-0.006104,196.144089,81.466667,147.163391,1.6863151767620428
0 days 00:01:01.380000,0.907471,0.610352,-0.023682,12.96234,-116.981499,249.992355,1.0938893988283276
0 days 00:01:01.390000,0.804688,0.601074,0.018066,3.52478,-108.070366,249.992355,1.0045591626061652
0 days 00:01:01.400000,0.756592,0.626221,0.008057,-2.01416,-95.573418,249.992355,0.9821655209556076
0 days 00:01:01.410000,0.790283,0.65625,0.018311,-6.370544,-87.715141,249.992355,1.0273979634542791
0 days 00:01:01.420000,0.845215,0.655029,0.083984,-5.615234,-87.402336,249.992355,1.0726158209359025
0 days 00:01:01.430000,0.903809,0.673828,0.183594,0.724792,-86.685173,249.992355,1.142200349720223
0 days 00:01:01.440000,1.155518,0.797363,0.27002,19.020081,-61.233517,249.992355,1.4296574423591828
0 days 00:01:01.450000,1.298828,0.844971,0.348877,31.875608,-37.956238,249.992355,1.588283767326859
0 days 00:01:01.460000,1.385742,0.88501,0.443848,48.660275,-13.748168,249.992355,1.7030926685791352
0 days 00:01:01.470000,1.39209,0.932373,0.479004,62.522884,8.789063,249.992355,1.742606900951847
0 days 00:01:01.480000,1.018555,0.736084,0.237793,8.857727,-79.185486,249.992355,1.278991576958191
0 days 00:01:01.490000,1.626221,1.17627,0.311523,79.574585,37.696838,249.992355,2.031071744983421
0 days 00:01:01.500000,1.444824,0.992432,0.478516,73.173523,20.63751,249.992355,1.8169796993516467
0 days 00:01:01.510000,1.147461,1.341553,0.123535,236.122116,119.476311,200.637802,1.7696587508768462
0 days 00:01:01.520000,1.278564,1.305664,0.168945,241.920456,133.644104,221.740707,1.8352184600251273
0 days 00:01:01.530000,1.321777,1.302246,0.145508,248.756393,148.986816,245.376572,1.8612124167619881
0 days 00:01:01.540000,1.320313,1.283203,0.135254,246.559128,160.53009,249.992355,1.8461121313977655
0 days 00:01:01.550000,1.056641,1.42041,0.041016,227.554306,107.032768,182.998642,1.7708012545842065
0 days 00:01:01.560000,1.530273,1.229736,0.212402,178.817734,132.194519,249.855026,1.9746140619951535
0 days 00:01:01.570000,1.627686,1.232178,0.21167,135.795593,92.193596,249.992355,2.0524201634119654
0 days 00:01:01.580000,1.641113,1.230469,0.253662,94.635002,57.334896,249.992355,2.0667970991304396
0 days 00:01:01.590000,1.386963,1.257813,0.176514,221.412643,157.897949,249.870285,1.8806693219526924
0 days 00:01:01.600000,0.253662,-0.563965,0.924805,-249.977097,249.992355,-58.578487,1.1125040312259546
0 days 00:01:01.610000,-0.447266,0.219971,0.8125,-249.992355,249.992355,-191.352829,0.9532000658817644
0 days 00:01:01.620000,-0.125732,-0.159424,0.53125,-249.992355,249.992355,-173.919662,0.5687276238235663
0 days 00:01:01.630000,-0.138672,-0.257324,0.710205,-249.992355,249.992355,-154.090881,0.7680082724717228
0 days 00:01:01.640000,-0.132324,-0.354736,0.851563,-249.992355,249.992355,-132.56073,0.9319371296611161
0 days 00:01:01.650000,-0.09668,-0.443848,0.906738,-249.992355,249.992355,-113.914482,1.0141606727476669
0 days 00:01:01.660000,-0.012939,-0.520508,0.954346,-249.992355,249.992355,-97.801201,1.0871394958794387
0 days 00:01:01.670000,0.124756,-0.568115,1.02002,-249.992355,249.992355,-85.250847,1.1742059074800297
0 days 00:01:01.680000,0.231934,-0.574707,0.989014,-249.992355,249.992355,-72.265625,1.1671461812476618
0 days 00:01:01.690000,0.265137,-0.575439,0.923096,-249.671921,249.992355,-49.629208,1.1196132799792973
0 days 00:01:01.700000,0.299805,-0.931885,1.053955,-25.260923,46.051022,7.949829,1.4384414598011974
0 days 00:01:01.710000,2.308105,6.164063,-4.168457,-249.992355,59.242245,-241.905197,7.790959833027186
0 days 00:01:01.720000,0.224854,-0.747803,1.091064,-230.65947,249.992355,-31.311033,1.3417113326721959
0 days 00:01:01.730000,0.208008,-0.803467,1.087158,-204.055771,249.992355,-20.751951,1.3677496353927499
0 days 00:01:01.740000,0.212646,-0.839111,1.045166,-178.695663,236.175522,-12.741088,1.3570915809896547
0 days 00:01:01.750000,0.209473,-0.838867,0.9646,-157.669067,209.999069,-6.828308,1.2953879501593335
0 days 00:01:01.760000,0.223877,-0.824219,0.895508,-139.11438,185.554489,-1.853943,1.2374944238880432
0 days 00:01:01.770000,0.255127,-0.81958,0.880615,-120.674126,159.812927,0.518799,1.2297495439129058
0 days 00:01:01.780000,0.273682,-0.822266,0.902832,-101.005547,132.225037,1.51062,1.2514506910398027
0 days 00:01:01.790000,0.276123,-0.840088,0.951904,-79.437256,103.385918,3.509521,1.2992740219403296
0 days 00:01:01.800000,0.285645,-0.883545,1.011475,-54.13818,73.631287,5.531311,1.3730719240720786
0 days 00:01:01.810000,0.275391,-0.606934,0.942383,-249.992355,249.992355,-44.448849,1.1542507534873
0 days 00:01:01.820000,6.542725,0.268311,-2.996826,147.277832,-16.532898,-95.512383,7.201403147486051
0 days 00:01:01.830000,0.262451,-0.670166,1.023682,-249.992355,249.68718,-39.505005,1.251370381654049
0 days 00:01:01.840000,-0.877686,-1.623047,0.801758,103.332512,12.603759,149.536133,2.0118225988811735
0 days 00:01:01.850000,0.309082,-0.942627,1.035889,0.328064,23.628233,9.780884,1.4342745079565489
0 days 00:01:01.860000,0.917969,-0.539795,-0.614502,127.128593,-128.593445,77.659607,1.2294951951878461
0 days 00:01:01.870000,1.225342,-0.533691,-0.780029,116.493217,-95.153801,90.362541,1.5474929212393833
0 days 00:01:01.880000,1.42334,-0.509766,-0.763184,92.8955,-59.814449,78.887939,1.6935784446585282
0 days 00:01:01.890000,1.357422,-0.469727,-0.688965,56.701656,-24.688719,53.207394,1.5930821422130124
0 days 00:01:01.900000,1.396973,-0.549805,-0.431152,44.418331,18.539429,22.094725,1.5619574731272294
0 days 00:01:01.910000,1.410156,-0.674316,-0.082031,53.985592,65.864563,10.009766,1.565238351546818
0 days 00:01:01.920000,1.327148,-0.643555,0.088867,58.326717,108.207695,12.245177,1.4776272180824228
0 days 00:01:01.930000,1.219482,-0.486328,-0.01709,42.480465,139.526367,11.421203,1.3129902284510726
0 days 00:01:01.940000,1.142822,-0.382568,-0.246826,14.785766,148.422241,4.043579,1.2301721312824478
0 days 00:01:01.950000,1.009521,-0.435547,-0.344238,-6.935119,144.721985,0.12207,1.1520996655211735
0 days 00:01:01.960000,0.90332,-0.583252,-0.342773,-11.169433,123.89373,-4.959106,1.1285668998482101
0 days 00:01:01.970000,0.744141,-0.789063,-0.290771,13.137816,98.930351,-7.202148,1.1229042792201835
0 days 00:01:01.980000,0.611084,-0.925781,-0.32251,48.263546,72.166443,-15.174865,1.1552085591428933
0 days 00:01:01.990000,0.496826,-0.892334,-0.424316,85.914604,32.539368,-41.290279,1.1059566490997736
0 days 00:01:02,0.306641,-0.778809,-0.375244,119.911186,-13.72528,-66.444397,0.9172678021701186
0 days 00:01:02.010000,0.209961,-0.687744,-0.172119,127.609245,-73.654175,-62.20245,0.7393918996161644
0 days 00:01:02.020000,0.227051,-0.601807,-0.149902,105.308525,-133.110046,-27.389524,0.6604501733317965
0 days 00:01:02.030000,0.507324,-0.374756,-0.16333,69.816589,-148.750305,9.941101,0.6515338743396233
0 days 00:01:02.040000,1.063477,-0.106201,-0.647949,42.480465,-138.328552,-58.502193,1.2498399451653799
0 days 00:01:02.050000,1.17627,-0.361328,-1.256104,41.976925,-166.198715,-191.535934,1.7583987873346592
0 days 00:01:02.060000,1.039551,-0.987549,0.380127,98.663322,-163.635239,-249.992355,1.4833798721605331
0 days 00:01:02.070000,-0.16748,-1.35083,1.087891,143.203735,-72.08252,-89.866631,1.742497651987227
0 days 00:01:02.080000,0.531982,-3.227295,3.229492,249.992355,249.992355,111.824028,4.5965265628964875
0 days 00:01:02.090000,0.299316,-0.913574,0.962891,20.698545,6.126403,10.154723,1.3606493299939555
0 days 00:01:02.100000,0.953857,-0.553467,-0.642578,-4.135132,150.131226,29.663084,1.2763523740025715
0 days 00:01:02.110000,0.223145,-0.87915,0.946289,57.922359,-26.580809,7.041931,1.310786513909111
0 days 00:01:02.120000,0.777344,-0.481689,-0.550049,153.22113,-191.627487,54.878231,1.0671653524445028
0 days 00:01:02.130000,0.79834,-0.4729,-0.6521,140.899658,-162.536606,61.454769,1.1341144455477146
0 days 00:01:02.140000,0.796387,-0.496094,-0.73999,131.309509,-123.535149,70.838928,1.1949588740642918
0 days 00:01:02.150000,0.875977,-0.522461,-0.816406,120.445244,-79.414368,73.799133,1.3064531977403553
0 days 00:01:02.160000,1.004639,-0.527832,-0.827148,102.485649,-32.104492,72.441101,1.404307642380757
0 days 00:01:02.170000,1.096924,-0.544434,-0.734619,75.614929,18.203735,65.666199,1.4280461187556235
0 days 00:01:02.180000,1.111816,-0.61084,-0.519775,52.764889,78.010559,52.398678,1.3709217242720315
0 days 00:01:02.190000,1.030029,-0.655029,-0.342529,44.479366,131.492615,57.54089,1.267812623191219
0 days 00:01:02.200000,0.924316,-0.640625,-0.365479,33.088684,162.597641,82.092278,1.1825123077253785
0 days 00:01:02.210000,0.915283,-0.590576,-0.475098,14.61029,170.776352,80.352776,1.1883775037710027
0 days 00:01:02.220000,0.724121,-0.53833,-0.447754,165.878281,-214.202866,54.63409,1.0072904526783721
0 days 00:01:02.230000,0.762451,-0.593018,-0.602539,-16.00647,110.427849,0.488281,1.1384441673819583
0 days 00:01:02.240000,0.115723,-0.671631,-0.406006,-22.354124,-5.363464,2.006531,0.7932974756836176
0 days 00:01:02.250000,0.001953,-0.780029,-0.435059,-17.89856,-74.363708,0.701904,0.8931547394102546
0 days 00:01:02.260000,0.008789,-0.945801,-0.480713,1.708984,-121.971123,-5.470275,1.0609909361021894
0 days 00:01:02.270000,0.095703,-0.936279,-0.450439,31.845091,-152.290344,-23.567198,1.043394806758688
0 days 00:01:02.280000,0.262939,-0.717041,-0.550049,43.617245,-186.500534,-36.78894,0.9411899998422211
0 days 00:01:02.290000,0.468506,-0.658936,-0.447754,39.215088,-225.845322,-30.761717,0.9242175981055543
0 days 00:01:02.300000,0.67627,-1.076172,-0.095459,80.841057,-218.673691,-8.552551,1.2745978609604678
0 days 00:01:02.310000,1.475586,-1.149902,-0.550049,130.981445,-158.882141,1.12915,1.9499186022501043
0 days 00:01:02.320000,1.999023,-0.559814,-1.086426,116.020195,-93.826286,-21.942137,2.3430335299779643
0 days 00:01:02.330000,1.70166,-0.408936,-0.149658,43.022152,-18.249512,-116.08123,1.7564944988983027
0 days 00:01:02.340000,0.377441,-0.631348,-0.465576,-21.659849,65.872192,4.959106,0.8705303081231578
0 days 00:01:02.350000,0.661621,-0.606689,-0.386475,178.077682,-231.636032,57.510372,0.9773314770266023
0 days 00:01:02.360000,0.269775,-0.88916,0.933105,39.764404,-10.459899,9.33075,1.3168405359989492
0 days 00:01:02.370000,0.578369,-0.678955,-0.329102,203.536972,-245.307907,54.206844,0.9506832903706681
0 days 00:01:02.380000,0.23584,-0.878662,0.968262,96.244804,-58.822628,-4.699707,1.3286078113905548
0 days 00:01:02.390000,0.274414,-0.85498,0.968018,116.981499,-71.70105,-7.888793,1.3203608189127698
0 days 00:01:02.400000,0.328369,-0.812988,0.91626,132.957458,-87.089531,-7.659912,1.2681908673007387
0 days 00:01:02.410000,0.341064,-0.775635,0.851563,144.554138,-103.012077,-3.227234,1.201288411785446
0 days 00:01:02.420000,0.356201,-0.762939,0.781006,154.907227,-118.553154,1.930237,1.1484447928211439
0 days 00:01:02.430000,0.374023,-0.780273,0.746338,166.51152,-133.506775,3.578186,1.1426896207203423
0 days 00:01:02.440000,0.374756,-0.802734,0.730713,180.892929,-144.622803,0.175476,1.14837512279786
0 days 00:01:02.450000,0.379395,-0.803467,0.666016,194.625839,-150.810242,-3.837585,1.1104400471749927
0 days 00:01:02.460000,0.364502,-0.778564,0.572021,200.653061,-151.359558,-3.028869,1.0325849284882092
0 days 00:01:02.470000,0.349365,-0.724609,0.501221,199.066147,-150.535583,1.647949,0.9478062022096078
0 days 00:01:02.480000,0.387451,-0.682373,0.431396,198.39476,-153.48053,6.248474,0.8954628397348491
0 days 00:01:02.490000,0.219238,-0.877686,0.952393,75.775146,-43.914791,1.373291,1.3135640226837062
0 days 00:01:02.500000,0.395752,-0.656982,0.360107,204.31517,-159.553528,10.040282,0.8473028061307244
0 days 00:01:02.510000,0.37085,-0.64209,0.286133,213.180527,-166.191086,13.778686,0.7947838601085204
0 days 00:01:02.520000,0.36792,-0.625244,0.208496,220.634445,-175.758347,18.630981,0.7548283036240758
0 days 00:01:02.530000,0.375,-0.607178,0.17627,223.152145,-188.369736,22.811888,0.7350926721060412
0 days 00:01:02.540000,0.380615,-0.586426,0.116211,220.489487,-201.263412,25.3067,0.7087088458753708
0 days 00:01:02.550000,0.387451,-0.5625,0.038818,217.063889,-212.470993,29.502867,0.6841281784322292
0 days 00:01:02.560000,0.411133,-0.546631,-0.049072,213.920578,-221.153244,36.735535,0.6857432865395038
0 days 00:01:02.570000,0.475342,-0.553711,-0.146484,210.670456,-229.743942,43.693539,0.7443140807085407
0 days 00:01:02.580000,0.537842,-0.591309,-0.245117,208.305344,-238.403305,46.653744,0.8360638098458754
0 days 00:01:02.590000,0.560791,-0.64209,-0.30835,207.603439,-243.339523,49.278255,0.9065571334896659
0 days 00:01:02.600000,0.60791,-0.661865,-0.348877,192.031845,-242.294296,57.952877,0.9640202318696428
0 days 00:01:02.610000,-2.106689,-0.907959,0.376953,92.666618,-249.992355,15.541076,2.3247842163544985
0 days 00:01:02.620000,-1.713379,-1.077881,-1.13208,107.421867,-185.302719,-57.296749,2.319288721613159
0 days 00:01:02.630000,-1.254639,-1.119873,-1.72168,97.679131,52.261349,-26.451109,2.406743978667029
0 days 00:01:02.640000,-0.704102,-0.699951,-0.872559,70.968628,249.992355,-42.472836,1.32176027981098
0 days 00:01:02.650000,0.658936,-0.4646,0.082275,2.792358,100.044243,21.537779,0.8104436980574283
0 days 00:01:02.660000,1.586182,-0.522949,0.556152,-2.456665,246.673569,-55.14526,1.7603278219777703
0 days 00:01:02.670000,2.024902,-0.543457,-0.322754,-49.278255,244.255051,8.796692,2.1212599475238765
0 days 00:01:02.680000,1.261963,-0.425537,-0.38208,-24.978636,178.48204,38.505554,1.3855026084919508
0 days 00:01:02.690000,-1.207031,-1.191406,0.605713,22.247313,-249.992355,249.992355,1.8009054195503993
0 days 00:01:02.700000,0.151367,-0.507324,-0.079834,46.440121,249.992355,-73.318481,0.5354092614262477
0 days 00:01:02.710000,1.495361,-1.918701,1.256104,62.904354,-49.880978,94.261162,2.73775734982814
0 days 00:01:02.720000,0.683105,0.004639,1.165527,-249.992355,249.992355,-27.381895,1.3509652656804318
0 days 00:01:02.730000,6.266357,2.579102,-6.106201,-45.143124,-136.451721,-185.829147,9.121660365868378
0 days 00:01:02.740000,0.006592,3.280762,-0.310791,-249.992355,232.696518,-138.641357,3.295456539053277
0 days 00:01:02.750000,0.61084,0.091553,0.984619,-249.992355,249.992355,-65.246582,1.1623175265692247
0 days 00:01:02.760000,0.790771,-0.074951,1.148682,-249.992355,249.992355,-7.369995,1.396569641645557
0 days 00:01:02.770000,0.860352,-0.178711,0.999268,-249.992355,249.992355,-19.233704,1.3306688999330374
0 days 00:01:02.780000,0.764404,-0.286621,1.046875,-249.992355,249.778732,-33.065796,1.3275587890869467
0 days 00:01:02.790000,0.549316,-0.374756,1.179199,-249.992355,249.992355,-28.564451,1.3537726577948752
0 days 00:01:02.800000,0.536865,-0.443359,1.278564,-249.900803,249.992355,-17.440796,1.455856151273882
0 days 00:01:02.810000,0.566406,-0.495117,1.300781,-249.740585,240.821823,-11.32965,1.50266024452835
0 days 00:01:02.820000,0.414551,-0.60376,0.149658,24.467466,70.075989,-12.847899,0.7475133351084782
0 days 00:01:02.830000,5.750488,-4.21582,0.861328,249.992355,-2.586365,-180.427536,7.182140101260069
0 days 00:01:02.840000,0.505615,-0.72998,0.176025,45.56274,65.292358,-45.227047,0.9052635689400077
0 days 00:01:02.850000,0.380615,-0.670654,-0.172607,2.151489,-27.854918,-69.869995,0.7902137320940456
0 days 00:01:02.860000,0.890869,-0.753662,0.280518,32.775879,64.796448,-50.964352,1.2001434638113062
0 days 00:01:02.870000,1.122803,-0.312988,-0.108887,50.170895,-49.560543,-100.021355,1.1706854589179794
0 days 00:01:02.880000,1.070313,-0.218994,-0.078369,35.995483,-48.774715,-119.10247,1.095294476461011
0 days 00:01:02.890000,0.864502,-0.160156,-0.065186,2.922058,-35.415649,-115.83709,0.8816251283487784
0 days 00:01:02.900000,0.80835,-0.188721,-0.020264,1.213074,-23.475645,-86.647026,0.8303348529581304
0 days 00:01:02.910000,0.906494,-0.256592,-0.053711,-4.638672,-7.781982,-70.465088,0.9436396017659496
0 days 00:01:02.920000,0.941895,-0.336914,-0.054932,-5.226135,7.4234,-61.889645,1.0018456762620678
0 days 00:01:02.930000,0.824219,-0.415283,-0.088623,2.838135,10.482787,-62.149044,0.9271736440273742
0 days 00:01:02.940000,0.579102,-0.473389,-0.148926,6.17218,2.227783,-68.161011,0.7626501328925341
0 days 00:01:02.950000,0.388184,-0.516846,-0.196289,4.051208,-8.056641,-71.846008,0.6755338460010719
0 days 00:01:02.960000,0.312988,-0.556885,-0.204102,0.778198,-17.791748,-74.241638,0.6706265859425795
0 days 00:01:02.970000,0.74707,-0.773438,0.280762,45.776363,66.123962,-58.174129,1.1113717764042776
0 days 00:01:02.980000,0.29248,-0.59668,-0.203125,-2.708435,-24.635313,-74.813843,0.6948606611580483
0 days 00:01:02.990000,0.588379,-0.532715,1.244873,-249.992355,217.567429,-9.95636,1.4763752588671348
0 days 00:01:03,0.415039,-0.6875,-0.142578,9.757996,-25.749205,-65.979004,0.8156237537032623
0 days 00:01:03.010000,0.477539,-0.694092,-0.114746,17.555237,-23.54431,-59.844967,0.8502786869615162
0 days 00:01:03.020000,0.572021,-0.685059,-0.092529,22.987364,-22.644041,-52.185055,0.8972599811442612
0 days 00:01:03.030000,0.699219,-0.673828,-0.077881,25.650023,-19.699097,-44.906612,0.9741749502558563
0 days 00:01:03.040000,0.835449,-0.654541,-0.062744,26.008604,-13.282775,-39.588928,1.0631724986181688
0 days 00:01:03.050000,0.910889,-0.632568,-0.032227,25.398252,-4.951477,-37.750244,1.1094591585425757
0 days 00:01:03.060000,0.897949,-0.609375,-0.001953,22.880552,8.68988,-38.063049,1.0851977291880959
0 days 00:01:03.070000,0.891846,-0.619629,0.04541,17.959595,30.265806,-37.437439,1.0869183287887825
0 days 00:01:03.080000,0.904785,-0.688232,0.15332,19.813538,52.406307,-40.481564,1.1470859621009228
0 days 00:01:03.090000,0.335205,-0.63501,-0.19043,-2.799988,-28.129576,-73.097229,0.7428752768971383
0 days 00:01:03.100000,0.609863,-0.55127,1.1521,-247.512802,193.09996,-10.887145,1.4153324350374368
0 days 00:01:03.110000,1.136719,-0.324951,-0.064453,41.40472,-51.162716,-91.232292,1.1840090483484491
0 days 00:01:03.120000,0.626465,-0.556396,1.057861,-202.018723,153.450012,-10.429381,1.3494831604588475
0 days 00:01:03.130000,0.415283,-0.817383,0.456787,159.126282,-86.769096,14.289855,1.0243189455179476
0 days 00:01:03.140000,0.401123,-0.785156,0.455811,165.893539,-81.481926,19.271851,0.9925388018541139
0 days 00:01:03.150000,0.400391,-0.729248,0.450195,171.80632,-80.26123,26.80969,0.9459340021428557
0 days 00:01:03.160000,0.428711,-0.678955,0.398193,175.003036,-82.351677,30.136106,0.8962871631318837
0 days 00:01:03.170000,0.457031,-0.650146,0.355469,179.779037,-85.784904,30.6015,0.8705890914995432
0 days 00:01:03.180000,0.450684,-0.620361,0.329834,184.432968,-91.979973,30.006407,0.8347180995599652
0 days 00:01:03.190000,0.438232,-0.591309,0.280762,184.814438,-101.005547,29.884336,0.7877315024480106
0 days 00:01:03.200000,0.441162,-0.567139,0.225586,181.961044,-108.932487,31.10504,0.75309999267096
0 days 00:01:03.210000,0.500977,-0.54248,0.168945,179.016098,-117.561333,31.188963,0.757499120761206
0 days 00:01:03.220000,0.562256,-0.522705,0.138916,176.513657,-129.829407,29.594419,0.7801602281691883
0 days 00:01:03.230000,0.419189,-0.839111,0.477539,150.57373,-93.795769,13.916015,1.052554124291478
0 days 00:01:03.240000,0.546387,-0.50708,0.123535,174.82756,-142.76123,28.717039,0.7555989520863564
0 days 00:01:03.250000,0.563965,-0.526123,-0.001465,177.192673,-163.459763,37.757874,0.7712743212236488
0 days 00:01:03.260000,0.616455,-0.531006,-0.040771,178.092941,-170.303329,43.983456,0.8146449616256152
0 days 00:01:03.270000,0.645264,-0.518555,-0.095459,173.362717,-174.247726,47.386166,0.833293068735124
0 days 00:01:03.280000,0.676025,-0.496582,-0.151611,165.451035,-177.841171,50.361629,0.8524021226334435
0 days 00:01:03.290000,0.695068,-0.497314,-0.187012,158.592224,-182.64006,55.641171,0.874879550203341
0 days 00:01:03.300000,0.684326,-0.513916,-0.203857,156.303406,-183.547958,63.262936,0.8797553101749372
0 days 00:01:03.310000,0.729004,-0.53125,-0.27124,155.563354,-181.404099,66.345215,0.9419365860375103
0 days 00:01:03.320000,0.789063,-0.562012,-0.390137,152.633667,-176.795944,61.500546,1.044358551878616
0 days 00:01:03.330000,0.827637,-0.592041,-0.484619,147.071838,-170.890793,55.107113,1.1270985425467464
0 days 00:01:03.340000,0.841797,-0.577148,-0.513916,137.008667,-157.913208,58.601376,1.1427299147957055
0 days 00:01:03.350000,0.521973,-0.51123,0.06543,174.644455,-153.656006,31.188963,0.7335482332669065
0 days 00:01:03.360000,0.395996,-0.823242,0.475098,137.687683,-98.037712,14.831542,1.0296884636549057
0 days 00:01:03.370000,0.625488,-0.552002,1.088135,-224.563583,171.524033,-11.535644,1.371123343967639
0 days 00:01:03.380000,0.389893,-0.732422,0.415283,118.804924,-94.375603,16.082764,0.927856943511229
0 days 00:01:03.390000,0.626953,-0.578613,1.028809,-179.809555,136.573792,-8.728027,1.3365294708531497
0 days 00:01:03.400000,0.605469,-0.639648,1.028076,-154.418945,117.492668,-8.995056,1.3537660564665521
0 days 00:01:03.410000,0.537109,-0.714355,1.061768,-126.258842,96.855156,-10.95581,1.3878546140464425
0 days 00:01:03.420000,0.46582,-0.760742,1.058105,-99.693291,79.483032,-11.573791,1.3839446715779502
0 days 00:01:03.430000,0.439941,-0.770752,0.993896,-78.918457,65.917969,-9.895325,1.3324548727071397
0 days 00:01:03.440000,0.433105,-0.770508,0.910156,-62.545773,53.642269,-6.813049,1.2687184334693808
0 days 00:01:03.450000,0.384521,-0.774414,0.439941,125.564568,-97.923271,15.884398,0.9701141821033235
0 days 00:01:03.460000,0.417969,-0.799316,0.831299,-30.052183,20.019531,-4.524231,1.2266467218470034
0 days 00:01:03.470000,0.397949,-0.814209,0.805664,-14.076232,0.999451,-5.630493,1.212598112804898
0 days 00:01:03.480000,0.407715,-0.816162,0.769287,0.1297,-15.846251,-6.652832,1.1933794115192369
0 days 00:01:03.490000,0.437256,-0.817139,0.737061,12.504577,-30.021666,-7.850646,1.1841316956225774
0 days 00:01:03.500000,0.429688,-0.779785,0.859863,-46.485897,38.894653,-4.463196,1.2377644373377352
0 days 00:01:03.510000,0.482178,-0.807617,0.664307,33.073425,-48.034664,-7.141113,1.1515401133360488
0 days 00:01:03.520000,0.496582,-0.813232,0.618164,41.679379,-54.748531,-6.027221,1.1358110315734744
0 days 00:01:03.530000,0.481689,-0.840576,0.611816,51.681515,-62.355038,-3.822326,1.145823338195291
0 days 00:01:03.540000,0.42334,-0.857422,0.616943,62.561031,-68.305969,-0.404358,1.1379841417757104
0 days 00:01:03.550000,0.363525,-0.864258,0.618164,73.928833,-74.020386,2.342224,1.1230400914860519
0 days 00:01:03.560000,0.329102,-0.859375,0.608887,85.494987,-78.865051,4.325867,1.1034386687976818
0 days 00:01:03.570000,0.337891,-0.844727,0.58252,95.619194,-83.129875,6.744384,1.0803071705815896
0 days 00:01:03.580000,0.356201,-0.817383,0.55957,104.782097,-86.502068,9.45282,1.0526693241422018
0 days 00:01:03.590000,0.366943,-0.772461,0.503418,111.465446,-88.729851,11.604308,0.9923572161746999
0 days 00:01:03.600000,0.377686,-0.735596,0.438477,115.547173,-90.194695,14.251708,0.9359542025873916
0 days 00:01:03.610000,0.461426,-0.812256,0.708496,23.368834,-40.794369,-8.125305,1.172450572530885
0 days 00:01:03.620000,0.171143,1.232422,-0.061279,-49.278255,249.992355,248.985275,1.245756408120785
0 days 00:01:03.630000,0.307373,1.327637,-0.086914,-80.459587,249.748215,235.710129,1.365522686847055
0 days 00:01:03.640000,0.341309,1.401123,-0.140869,-94.28405,249.992355,215.347275,1.4489587881547907
0 days 00:01:03.650000,0.318359,1.352295,-0.056396,-95.802299,249.992355,194.976791,1.3904081158861235
0 days 00:01:03.660000,0.295898,0.82959,0.119629,-49.308773,249.992355,42.282101,0.8888679835301754
0 days 00:01:03.670000,0.268555,1.200928,-0.047363,-92.292778,249.992355,136.940002,1.2315003463166383
0 days 00:01:03.680000,0.276611,1.091309,-0.002197,-79.032898,249.992355,107.147209,1.125821391523096
0 days 00:01:03.690000,0.300537,0.952881,0.061035,-61.134335,249.992355,75.042725,1.0010144653075699
0 days 00:01:03.700000,0.309814,1.272705,-0.067139,-95.603935,249.992355,166.275009,1.3115907810525356
0 days 00:01:03.710000,0.121338,1.291748,-0.089111,-21.087645,249.992355,249.992355,1.3004908981107863
0 days 00:01:03.720000,1.104492,2.546631,0.293457,-249.992355,-249.992355,-249.992355,2.7912988086326407
0 days 00:01:03.730000,0.022217,1.507813,-0.087891,-45.989986,217.620834,196.868881,1.5105358208063124
0 days 00:01:03.740000,-0.053223,1.482178,-0.038574,-67.222595,195.068344,134.841919,1.4836348152052108
0 days 00:01:03.750000,-0.145752,1.276855,0.106689,-69.282532,165.107712,65.231323,1.289567710223081
0 days 00:01:03.760000,-0.231445,0.917969,0.363281,-35.78949,126.502983,2.601623,1.0140054033125268
0 days 00:01:03.770000,-0.167725,0.782471,0.55127,20.950315,78.422546,-68.000793,0.9717464455124083
0 days 00:01:03.780000,0.012207,0.952148,0.496338,66.223145,14.72473,-157.546997,1.073818529825687
0 days 00:01:03.790000,0.251465,1.329834,0.219971,43.754574,-89.843742,-230.52977,1.3711602220827441
0 days 00:01:03.800000,0.376709,1.665039,0.127441,-55.702206,-213.172897,-249.992355,1.7118720018397988
0 days 00:01:03.810000,0.497314,1.886475,0.284668,-188.896164,-249.984726,-249.992355,1.971584390901135
0 days 00:01:03.820000,0.86499,2.119873,0.532715,-249.496445,-249.992355,-249.992355,2.350713616639424
0 days 00:01:03.830000,0.301025,0.751221,0.157471,-41.900631,249.80925,9.895325,0.8244671960163121
0 days 00:01:03.840000,0.110596,1.430664,-0.099854,-23.429869,237.159714,240.867599,1.4384025088368
0 days 00:01:03.850000,0.333252,0.713135,0.19873,-33.500671,239.822372,-15.86914,0.8118571528471002
0 days 00:01:03.860000,0.757813,1.039063,0.212158,59.959408,23.16284,7.247924,1.3034352603416866
0 days 00:01:03.870000,0.415771,0.672363,0.286865,-26.451109,202.865585,-42.5415,0.8409691174086003
0 days 00:01:03.880000,1.14624,3.129883,0.155273,-249.992355,-249.526962,-249.992355,3.336786393495694
0 days 00:01:03.890000,-0.129883,1.487793,0.127197,-64.590454,-243.75914,125.41198,1.4988584594106942
0 days 00:01:03.900000,0.359619,1.404053,0.07373,-62.07275,-126.632683,163.24614,1.4512500697226511
0 days 00:01:03.910000,0.455566,1.27124,0.317139,-65.567017,-23.315428,175.697311,1.3871440672392323
0 days 00:01:03.920000,0.479248,1.200439,0.33252,-68.725586,46.363827,181.297287,1.3346542580852168
0 days 00:01:03.930000,0.459229,1.111328,0.314209,-58.517452,90.438835,180.473312,1.2428469309235148
0 days 00:01:03.940000,0.422607,1.040039,0.282471,-40.573116,108.551018,176.589951,1.157612916225022
0 days 00:01:03.950000,0.422363,1.006592,0.27832,-19.706726,105.438225,163.429245,1.126534500418429
0 days 00:01:03.960000,0.388184,1.005127,0.227295,-0.061035,91.38488,138.290405,1.1011948605991584
0 days 00:01:03.970000,0.354492,1.000732,0.176025,15.426635,68.092346,107.040398,1.0761570120168338
0 days 00:01:03.980000,0.356445,0.676758,0.265869,-26.168821,219.894394,-32.806396,0.8097782126915987
0 days 00:01:03.990000,0.381348,0.992188,0.230469,33.630371,39.466858,78.285217,1.0876485114268304
0 days 00:01:04,0.658447,1.015869,0.271484,63.484188,12.367248,28.259275,1.2406634673536574
0 days 00:01:04.010000,0.747803,1.061768,0.229736,53.1311,44.55566,-2.510071,1.318840112496204
0 days 00:01:04.020000,0.751221,1.085693,0.272217,50.941463,66.864014,-5.073547,1.3480223945391263
0 days 00:01:04.030000,0.807617,1.128418,0.233643,44.982906,84.022514,-11.642455,1.4071820965539605
0 days 00:01:04.040000,0.822266,1.161133,0.176514,24.627684,98.525993,-22.605894,1.4337044362911764
0 days 00:01:04.050000,0.788818,1.121582,0.198242,0.991821,110.084526,-35.415649,1.3854529621795177
0 days 00:01:04.060000,0.678711,1.033447,0.267334,-14.961242,121.437065,-47.065731,1.2649619721106244
0 days 00:01:04.070000,0.495605,0.929199,0.300781,-24.444578,138.496399,-52.139278,1.0952188400438518
0 days 00:01:04.080000,0.366455,0.825439,0.290527,-29.579161,163.253769,-49.125668,0.9487068817474658
0 days 00:01:04.090000,0.403076,0.729736,0.272949,-30.380247,185.791,-45.372005,0.8772035385661643
0 days 00:01:04.100000,0.516357,0.991455,0.298584,54.153439,16.220093,52.772518,1.1570479564521083
0 days 00:01:04.110000,-0.544189,1.468018,0.167725,-52.093502,-249.992355,49.896236,1.574595246934907
0 days 00:01:04.120000,0.959473,3.311035,0.198242,-249.43541,-249.633774,-249.992355,3.4529467270026046
0 days 00:01:04.130000,0.87793,3.137451,0.105713,-249.992355,-234.458908,-249.992355,3.2596832822637847
0 days 00:01:04.140000,0.518555,-0.213379,-0.132324,46.546932,-32.63855,-69.168091,0.5761419327231788
0 days 00:01:04.150000,0.574463,-0.230225,-0.12915,50.559994,-18.989563,-58.822628,0.6322112079787893
0 days 00:01:04.160000,0.611328,-0.23877,-0.154297,50.2243,-2.883911,-50.140377,0.6741962627403092
0 days 00:01:04.170000,0.627441,-0.239502,-0.199219,44.952389,14.282226,-43.823238,0.7005223953921816
0 days 00:01:04.180000,0.624268,-0.240967,-0.263916,36.407471,28.907774,-38.742065,0.71932418697622
0 days 00:01:04.190000,0.614502,-0.26123,-0.304932,29.624937,38.192749,-32.409668,0.7340554103935206
0 days 00:01:04.200000,0.614258,-0.291504,-0.270752,28.282164,40.138245,-25.535582,0.7318429599880018
0 days 00:01:04.210000,0.635742,-0.325439,-0.217773,31.333921,33.699036,-21.606443,0.7466615785039431
0 days 00:01:04.220000,0.667725,-0.365479,-0.22876,35.339355,20.713804,-21.308897,0.794835022294564
0 days 00:01:04.230000,0.665771,-0.424561,-0.371338,38.368225,-12.71057,-8.514404,0.8725794963245469
0 days 00:01:04.240000,0.450439,-0.185547,-0.176025,40.161129,-44.082638,-80.688469,0.517984345859023
0 days 00:01:04.250000,0.781982,-0.453857,-0.427002,32.325745,-33.103943,2.258301,0.9999063620044628
0 days 00:01:04.260000,0.974609,-0.451416,-0.388184,32.920837,-56.053158,-9.857178,1.1420708935057402
0 days 00:01:04.270000,0.967041,-0.408691,-0.404541,23.307798,-67.222595,-22.018431,1.125100017706426
0 days 00:01:04.280000,0.900635,-0.366455,-0.361572,11.146544,-80.505363,-38.970947,1.0373846834390799
0 days 00:01:04.290000,0.866699,-0.346191,-0.236328,8.499146,-88.180534,-51.910397,0.9627389514639989
0 days 00:01:04.300000,0.905273,-0.324219,-0.163574,10.757445,-85.922234,-55.953976,0.9753940834175692
0 days 00:01:04.310000,1.042969,-0.306885,-0.118896,9.429932,-82.572929,-62.042233,1.0936631094637872
0 days 00:01:04.320000,1.16333,-0.288574,-0.05957,6.713867,-76.507568,-77.377319,1.2000667595079868
0 days 00:01:04.330000,1.171875,-0.273926,-0.043701,13.442992,-65.65094,-87.333672,1.2042575499045045
0 days 00:01:04.340000,1.153809,-0.293457,-0.022461,29.121397,-56.556698,-89.485161,1.190754683321044
0 days 00:01:04.350000,0.963867,3.230957,0.183594,-249.992355,-249.992355,-249.992355,3.376659515908289
0 days 00:01:04.360000,0.939453,-0.4646,-0.396484,31.98242,-47.309872,-2.502441,1.1205465904927827
0 days 00:01:04.370000,0.379395,-0.156006,-0.21875,34.576416,-54.489132,-93.338005,0.46489783884311614
0 days 00:01:04.380000,0.661865,-0.397461,-0.287354,38.604736,5.004883,-19.302368,0.8237796101276117
0 days 00:01:04.390000,0.255615,-0.103516,-0.213623,33.050537,-72.669983,-118.9804,0.3488400444473082
0 days 00:01:04.400000,0.314941,-0.123291,-0.231201,31.967161,-63.972469,-106.185905,0.40968574122490525
0 days 00:01:04.410000,0.590332,2.720947,0.221924,-183.738693,-73.188782,-249.992355,2.793079789194895
0 days 00:01:04.420000,0.600342,2.011963,0.211914,-122.718803,-2.632141,-249.992355,2.110287462344645
0 days 00:01:04.430000,0.401367,1.809082,0.314941,-50.97961,53.237911,-249.992355,1.8796438452254727
0 days 00:01:04.440000,0.081299,1.770752,0.330322,-53.863522,77.423096,-249.992355,1.8031319409818574
0 days 00:01:04.450000,0.035645,1.67334,0.356934,-94.78759,77.812195,-249.992355,1.7113559542015215
0 days 00:01:04.460000,-0.019775,1.462402,0.408691,-121.887199,67.634583,-249.992355,1.5185647808737037
0 days 00:01:04.470000,-0.012451,1.217773,0.361572,-147.125244,53.794857,-249.992355,1.2703780610959874
0 days 00:01:04.480000,-0.003418,0.935059,0.371582,-159.873962,33.859253,-249.992355,1.0061909356225587
0 days 00:01:04.490000,-0.044922,0.645264,0.393555,-153.190613,9.33075,-249.992355,0.7571453980610329
0 days 00:01:04.500000,-0.06543,0.456055,0.358398,-132.659912,-12.374877,-249.992355,0.5837091521716958
0 days 00:01:04.510000,0.715576,2.989258,0.148926,-224.73143,-157.608032,-249.992355,3.077318858327164
0 days 00:01:04.520000,-0.037842,0.240967,0.207275,-82.214348,-44.158932,-249.992355,0.3200937951257412
0 days 00:01:04.530000,-0.035156,0.172119,0.140381,-58.883663,-55.458065,-249.992355,0.22487267432482766
0 days 00:01:04.540000,-0.028564,0.10791,0.098877,-36.773682,-65.475464,-244.018539,0.14912119676625452
0 days 00:01:04.550000,-0.020996,0.042969,0.063477,-17.272949,-74.890137,-222.991928,0.07947638961351981
0 days 00:01:04.560000,0.008789,-0.007568,0.030029,-1.281738,-83.587639,-204.162582,0.03219102337609042
0 days 00:01:04.570000,0.045654,-0.046143,-0.012695,13.786315,-89.393608,-188.491806,0.06614096453787169
0 days 00:01:04.580000,0.071777,-0.072021,-0.046143,26.19171,-88.935844,-174.026474,0.11166081953397979
0 days 00:01:04.590000,0.112061,-0.08252,-0.09375,33.38623,-88.172905,-160.28595,0.16779833318898016
0 days 00:01:04.600000,0.15918,-0.085449,-0.141357,36.064148,-85.037224,-146.476746,0.22939399610713443
0 days 00:01:04.610000,0.205566,-0.09082,-0.181641,35.316467,-79.689026,-132.369995,0.2889621179964599
0 days 00:01:04.620000,-0.039795,0.331299,0.299316,-106.773369,-30.006407,-249.832138,0.44825521445042893
0 days 00:01:04.630000,0.036133,1.039551,0.092285,10.078429,-67.893982,-52.238461,1.044264524205912
0 days 00:01:04.640000,0.030762,1.043213,0.107666,9.056091,-59.982296,-42.350765,1.0492052380583123
0 days 00:01:04.650000,0.01416,1.043213,0.109375,6.034851,-52.673336,-33.256531,1.0490265771628478
0 days 00:01:04.660000,0.022705,1.048584,0.103516,-1.701355,-4.013062,-0.465393,1.0539257489676395
0 days 00:01:04.670000,0.007568,1.040771,0.098877,2.410889,-36.682129,-20.484922,1.0454846771684412
0 days 00:01:04.680000,0.005371,1.040771,0.098389,0.854492,-25.764463,-14.09912,1.0454250415036936
0 days 00:01:04.690000,0.010742,1.044678,0.099121,-0.663757,-14.160155,-7.278442,1.0494248362264922
0 days 00:01:04.700000,0.032715,1.052734,0.113525,-2.868652,4.051208,5.584716,1.0593427545445337
0 days 00:01:04.710000,0.00293,1.042969,0.098633,3.929138,-45.181271,-26.145933,1.0476265501360684
0 days 00:01:04.720000,-0.013428,1.018555,0.127441,7.17926,-71.723938,-56.091305,1.026584535091972
0 days 00:01:04.730000,0.100098,0.991211,0.16333,31.22711,-97.129814,-69.824219,1.0095521507208036
0 days 00:01:04.740000,0.039063,0.988037,0.128662,20.858763,-92.742912,-61.012264,0.9971443935468925
0 days 00:01:04.750000,0.078613,0.980713,0.148193,26.847837,-98.976128,-64.559937,0.9949568620734267
0 days 00:01:04.760000,0.095215,0.984131,0.158936,30.265806,-99.266045,-68.29071,1.0014191797054817
0 days 00:01:04.770000,0.103516,1.004883,0.156494,29.495237,-95.436089,-71.311951,1.022250349953963
0 days 00:01:04.780000,0.115479,1.006836,0.165283,27.748106,-96.42028,-73.181152,1.0268264704544774
0 days 00:01:04.790000,0.133057,0.995605,0.176758,27.046202,-97.190849,-74.035645,1.0198906175850428
0 days 00:01:04.800000,0.157959,0.983887,0.19043,26.786802,-95.741264,-72.883606,1.0145187328728829
0 days 00:01:04.810000,0.180664,0.966553,0.205322,27.717588,-91.285698,-70.770264,1.004500525828135
0 days 00:01:04.820000,0.206543,0.955322,0.213623,28.724669,-85.426323,-68.397522,1.0004673511224642
0 days 00:01:04.830000,0.04248,1.063477,0.115723,-4.241943,9.109497,9.773254,1.0705978202191522
0 days 00:01:04.840000,0.224121,0.952881,0.214111,29.113768,-77.308655,-65.574646,1.002025919386819
0 days 00:01:04.850000,0.000244,1.003418,0.139404,8.712769,-79.704285,-56.877132,1.0130553871709087
0 days 00:01:04.860000,0.051758,1.071289,0.114014,-4.814148,11.169433,11.802672,1.0785815705272364
0 days 00:01:04.870000,0.044189,1.016846,0.107422,4.875183,-44.876095,-11.489867,1.0234588128112434
0 days 00:01:04.880000,0.068359,1.079102,0.13501,-2.838135,7.240295,11.909484,1.0896613140719458
0 days 00:01:04.890000,-0.036377,1.065918,0.109619,-0.556946,-15.640258,-3.204345,1.0721570752525023
0 days 00:01:04.900000,-0.040039,1.057617,0.10791,-1.083374,-19.966125,-2.609253,1.0638615550484
0 days 00:01:04.910000,-0.043701,1.043945,0.101807,-1.075745,-23.361204,-1.937866,1.0498074136121347
0 days 00:01:04.920000,-0.045654,1.032471,0.098145,-0.839233,-25.611876,-0.961304,1.038129613575299
0 days 00:01:04.930000,-0.045898,1.026367,0.088135,-0.938415,-26.268003,-0.076294,1.0311661472905325
0 days 00:01:04.940000,-0.043701,1.023438,0.075439,-1.098633,-26.550291,0.1297,1.027144663601968
0 days 00:01:04.950000,-0.049316,1.018555,0.066406,-1.251221,-27.931211,-0.183105,1.0219080744944724
0 days 00:01:04.960000,-0.052246,1.013428,0.055664,-0.946045,-31.417845,-1.312256,1.0162993833492175
0 days 00:01:04.970000,-0.043945,1.009033,0.053467,-0.25177,-36.384583,-3.39508,1.0114037167239402
0 days 00:01:04.980000,-0.029541,1.003906,0.060547,0.747681,-41.198727,-5.798339,1.0061639363075978
0 days 00:01:04.990000,0.060547,1.078125,0.117676,-4.066467,10.459899,12.46643,1.0862168732854411
0 days 00:01:05,-0.007324,1.003662,0.074951,1.800537,-44.868465,-8.026123,1.0064833349941766
0 days 00:01:05.010000,0.025635,1.010986,0.098145,4.53949,-46.180721,-11.253356,1.0160621469408255
0 days 00:01:05.020000,0.059814,1.022217,0.121094,4.875183,-41.648861,-10.429381,1.031100900261948
0 days 00:01:05.030000,0.065918,1.025635,0.138916,5.577087,-37.42218,-8.491516,1.037096905310685
0 days 00:01:05.040000,0.072998,1.032471,0.148682,6.942749,-33.416748,-6.820678,1.0456727073845813
0 days 00:01:05.050000,0.080566,1.043701,0.155029,7.156372,-28.106688,-4.53949,1.0582233453283858
0 days 00:01:05.060000,0.079346,1.064941,0.157959,5.752563,-21.781919,-1.525879,1.0795120040453463
0 days 00:01:05.070000,0.075928,1.082031,0.155518,3.639221,-15.632628,1.472473,1.0957837352639435
0 days 00:01:05.080000,0.072021,1.088623,0.15332,1.304626,-9.44519,5.393981,1.1017232333803257
0 days 00:01:05.090000,0.075684,1.092285,0.148438,-0.617981,-3.471374,8.361816,1.104920100697331
0 days 00:01:05.100000,0.074463,1.084961,0.143555,-1.739502,2.26593,10.45227,1.0969471946793974
0 days 00:01:05.110000,0.012939,1.003906,0.089844,3.257751,-46.44775,-9.872437,1.0080012990532303
0 days 00:01:05.120000,0.231201,0.963867,0.218994,28.770445,-69.465637,-60.600277,1.0151117515456118
0 days 00:01:05.130000,0.226318,0.988037,0.224609,27.038572,-64.254761,-54.557796,1.0382129614746678
0 days 00:01:05.140000,0.200439,1.056885,0.217773,16.555786,-61.019894,-44.143673,1.097545796527416
0 days 00:01:05.150000,0.22168,1.055908,0.393799,14.808654,12.298583,28.57971,1.148547508492792
0 days 00:01:05.160000,0.211182,1.034668,0.375977,17.822266,20.835875,31.044004,1.120934615344267
0 days 00:01:05.170000,0.197021,1.032227,0.339355,20.317076,27.435301,30.776976,1.104296912064414
0 days 00:01:05.180000,0.154053,1.029297,0.284912,15.60974,29.594419,32.112122,1.0790549053509741
0 days 00:01:05.190000,0.1521,0.995605,0.281982,12.252807,25.794981,32.691956,1.0458860235938714
0 days 00:01:05.200000,0.162842,0.928955,0.351074,18.203735,19.569397,28.877256,1.0063438092744448
0 days 00:01:05.210000,0.133057,0.862549,0.35083,24.742125,12.832641,22.895811,0.9406256596276757
0 days 00:01:05.220000,0.115234,0.818848,0.359131,25.466917,3.639221,13.160705,0.9015353553915675
0 days 00:01:05.230000,0.071777,0.801758,0.399414,25.650023,-8.857727,-0.37384,0.8986096881789111
0 days 00:01:05.240000,0.037109,0.832764,0.408936,21.415709,-27.038572,-18.920898,0.9284942701347165
0 days 00:01:05.250000,0.213623,1.064453,0.411133,16.76178,4.470825,25.283812,1.1609157243430723
0 days 00:01:05.260000,0.036377,0.87085,0.414063,10.620116,-46.142574,-36.460876,0.9649617487745304
0 days 00:01:05.270000,0.064941,0.935059,0.467529,-12.168883,-76.98822,-47.737118,1.0474426155179097
0 days 00:01:05.280000,0.018555,0.954102,0.473633,-23.681639,-86.425774,-48.553463,1.0653558715837634
0 days 00:01:05.290000,0.012451,0.896484,0.481201,-24.093626,-89.553825,-52.726742,1.017542624197139
0 days 00:01:05.300000,0.025635,0.779053,0.483887,-8.834839,-84.274284,-64.872742,0.9174570065147468
0 days 00:01:05.310000,-0.058838,0.69873,0.490967,16.204834,-73.669434,-85.899345,0.855998900836327
0 days 00:01:05.320000,-0.339355,0.765137,0.497803,33.233643,-67.008972,-108.726494,0.9738604990464497
0 days 00:01:05.330000,-0.740234,0.979492,0.511475,20.423887,-79.719543,-118.896477,1.3300216646524974
0 days 00:01:05.340000,-1.060059,1.162109,0.510254,-8.010864,-135.101318,-91.972343,1.6536570248627738
0 days 00:01:05.350000,-1.119385,1.356445,0.353271,-36.132813,-218.139633,-42.694088,1.7938133168451502
0 days 00:01:05.360000,-0.912842,1.504395,0.193604,-52.49786,-248.367294,-5.172729,1.7703014833087045
0 days 00:01:05.370000,0.068848,0.901855,0.446533,-0.473022,-62.774654,-45.669552,1.0086992654988898
0 days 00:01:05.380000,0.181641,1.061279,0.39502,19.65332,-0.190735,21.636961,1.1468859442516506
0 days 00:01:05.390000,0.215332,1.022705,0.226074,23.361204,-62.187191,-48.96545,1.0693001639974624
0 days 00:01:05.400000,0.14502,1.023926,0.364746,29.350279,2.975464,21.369932,1.096583283837575
0 days 00:01:05.410000,0.186279,1.074463,0.202393,7.904052,-58.639523,-39.222717,1.1091138492774308
0 days 00:01:05.420000,0.192627,1.057373,0.201904,1.88446,-55.931087,-33.599854,1.0935758078313547
0 days 00:01:05.430000,0.194336,1.018555,0.242188,2.319336,-53.588863,-28.541563,1.0648360419637384
0 days 00:01:05.440000,0.152344,0.98999,0.261475,4.066467,-50.697323,-23.399351,1.0352091914492452
0 days 00:01:05.450000,0.087158,0.975098,0.256836,3.852844,-49.652096,-18.356323,1.0121152886227933
0 days 00:01:05.460000,0.040283,0.96582,0.245361,2.418518,-52.650448,-13.97705,0.9973128961414266
0 days 00:01:05.470000,0.167725,1.051025,0.375732,24.589537,-0.770569,18.714905,1.1286982599765094
0 days 00:01:05.480000,0.040771,0.944824,0.266602,0.953674,-60.401913,-7.781982,0.9825636324538987
0 days 00:01:05.490000,0.057617,0.951416,0.268555,1.480102,-58.967587,-3.90625,0.9902696156956449
0 days 00:01:05.500000,0.074463,0.965332,0.265381,1.38092,-54.946896,2.983093,1.0039111931610285
0 days 00:01:05.510000,0.087402,0.990479,0.263672,0.640869,-49.110409,12.313842,1.0286936777432825
0 days 00:01:05.520000,0.029541,0.949707,0.245361,0.640869,-57.846066,-10.505675,0.9813348444088796
0 days 00:01:05.530000,0.120605,1.029541,0.262451,0.823975,-33.920288,29.113768,1.0692898410192628
0 days 00:01:05.540000,0.13501,1.020752,0.264404,3.890991,-23.429869,30.563353,1.0630483624087852
0 days 00:01:05.550000,0.192627,0.99707,0.283203,7.316589,-9.788513,27.023314,1.0542569351149653
0 days 00:01:05.560000,0.185059,0.9729,0.317139,10.475158,6.118774,28.228758,1.0398838342824643
0 days 00:01:05.570000,0.151123,0.966553,0.31665,11.32965,19.332886,34.996033,1.0282655714541842
0 days 00:01:05.580000,0.152588,0.949707,0.321045,12.596129,26.69525,39.176941,1.0140494936727693
0 days 00:01:05.590000,0.173584,0.921387,0.358154,17.730713,26.832579,38.040161,1.0036731024297703
0 days 00:01:05.600000,0.160156,0.917236,0.393799,24.482725,23.66638,33.714294,1.0109646266971957
0 days 00:01:05.610000,0.143555,0.935791,0.380615,29.846189,16.868591,28.877256,1.0203825811581655
0 days 00:01:05.620000,0.138428,0.973633,0.371338,31.951902,8.811951,25.375364,1.0511971461704983
0 days 00:01:05.630000,0.111816,1.019043,0.26416,-0.198364,-42.304989,21.957396,1.0586462862094213
0 days 00:01:05.640000,0.036377,1.029297,0.10791,-12.153625,25.726316,-6.088256,1.0355772151018
0 days 00:01:05.650000,0.049561,1.035156,0.104004,-13.137816,24.742125,-5.836486,1.0415474396651359
0 days 00:01:05.660000,0.0625,1.041748,0.101318,-14.045714,22.636412,-5.516052,1.0485277691258348
0 days 00:01:05.670000,0.072266,1.053467,0.091309,-14.587401,18.707275,-5.729675,1.0598832144750665
0 days 00:01:05.680000,0.062744,1.045166,0.093994,-11.917113,-13.435363,-17.349243,1.051258126783332
0 days 00:01:05.690000,0.075928,1.058105,0.082764,-12.786864,7.575988,-9.773254,1.0640494029437733
0 days 00:01:05.700000,0.061035,1.05835,0.067383,-12.329101,0.869751,-13.023376,1.0622478347419682
0 days 00:01:05.710000,0.065918,1.058105,0.072266,-12.176513,-6.568908,-15.846251,1.062616463501766
0 days 00:01:05.720000,0.085205,1.060791,0.087646,-13.999938,13.397216,-7.308959,1.0678104977110874
0 days 00:01:05.730000,0.035156,1.030273,0.116211,-10.95581,26.664732,-6.263732,1.0374022341338964
0 days 00:01:05.740000,-0.031006,1.012451,0.101318,0.854492,39.993286,13.252257,1.0179802240520197
0 days 00:01:05.750000,0.04126,1.053955,0.110107,-10.169982,31.234739,-4.753113,1.0604937911529704
0 days 00:01:05.760000,0.032715,1.061523,0.102783,-10.498046,34.187317,-2.677917,1.0669890795331507
0 days 00:01:05.770000,0.025879,1.05835,0.10498,-10.620116,36.933899,-0.511169,1.0638586586295191
0 days 00:01:05.780000,0.017822,1.040283,0.104492,-9.658813,39.276123,1.831055,1.045669604529557
0 days 00:01:05.790000,0.011963,1.020508,0.105713,-7.637023,41.252132,3.868103,1.0260384640947922
0 days 00:01:05.800000,0.008057,1.008545,0.107178,-5.516052,42.388912,5.691528,1.014255912458981
0 days 00:01:05.810000,-0.000977,1.001953,0.105713,-3.662109,42.716976,7.415771,1.0075147676868068
0 days 00:01:05.820000,-0.009033,0.999512,0.102295,-1.945495,42.716976,8.995056,1.0047736562320888
0 days 00:01:05.830000,-0.017578,1.004639,0.101074,-0.602722,42.28973,10.490417,1.0098635847880644
0 days 00:01:05.840000,-0.022217,1.010742,0.100586,0.106812,41.442867,12.031554,1.0159776223170467
0 days 00:01:05.850000,0.042236,1.042969,0.095703,-11.817931,-19.836426,-18.875122,1.0482019265704485
0 days 00:01:05.860000,0.04248,1.040283,0.118408,-10.253905,28.587339,-5.897521,1.0478615008449352
0 days 00:01:05.870000,0.018799,1.05957,0.096191,-9.83429,-26.023863,-21.598814,1.0640933679814002
0 days 00:01:05.880000,-0.031738,1.056641,-0.03418,58.609005,-34.317017,-18.577576,1.0576699749567442
0 days 00:01:05.890000,0.028564,1.128174,0.03418,3.707886,-34.942627,-25.604246,1.1290530318687426
0 days 00:01:05.900000,-0.037842,1.004639,0.104492,2.090454,37.757874,14.335631,1.0107670925336856
0 days 00:01:05.910000,-0.054199,0.977783,-0.089844,66.017151,-62.751766,-31.822203,0.9833967007398388
0 days 00:01:05.920000,-0.080322,1.010742,-0.137939,79.017639,-49.423214,-24.711607,1.0232683821798658
0 days 00:01:05.930000,0.011963,1.034424,-0.138184,87.768547,-37.132263,-11.123656,1.0436814375090706
0 days 00:01:05.940000,0.070313,1.05835,-0.118408,91.26281,-29.762266,-3.494262,1.0672717999333627
0 days 00:01:05.950000,0.031006,1.086914,-0.108398,87.387077,-23.994444,-4.104614,1.0927458724863708
0 days 00:01:05.960000,-0.030518,1.118164,-0.106201,74.516296,-19.592285,-7.408142,1.1236105782792363
0 days 00:01:05.970000,-0.06958,1.119385,-0.079102,58.219906,-18.1427,-9.613037,1.124331481827757
0 days 00:01:05.980000,-0.101074,1.087646,-0.043945,51.582333,-19.042969,-8.628845,1.0932158697242735
0 days 00:01:05.990000,-0.080322,1.080566,-0.044434,56.457516,-22.705076,-5.531311,1.0844578758052337
0 days 00:01:06,0.020264,1.090332,0.065186,-4.318237,-31.417845,-24.54376,1.0924668024777688
0 days 00:01:06.010000,-0.023438,1.067383,-0.06543,62.385555,-26.039122,-3.479004,1.0696433487069417
0 days 00:01:06.020000,-0.005615,1.058105,-0.104004,57.701107,-33.500671,-17.272949,1.0632189573488615
0 days 00:01:06.030000,0.051758,1.085938,-0.003174,60.646053,-29.998777,-13.267516,1.087175378990897
0 days 00:01:06.040000,0.106201,1.111328,-0.007568,61.340328,-22.880552,-21.347044,1.11641652200646
0 days 00:01:06.050000,-0.013672,1.076416,0.006592,67.344666,-21.697996,-37.391663,1.0765230063050208
0 days 00:01:06.060000,-0.12915,1.10791,-0.026611,63.850399,-23.185728,-37.162781,1.1157295532166385
0 days 00:01:06.070000,-0.021484,1.173096,-0.071533,41.488644,-26.893614,-22.064207,1.1754712916787886
0 days 00:01:06.080000,0.146484,1.131836,0.009033,19.889832,-37.261963,-12.519835,1.141311477310642
0 days 00:01:06.090000,0.108887,1.100586,0.035156,14.976501,-40.40527,-14.884948,1.106517901572767
0 days 00:01:06.100000,0.058105,1.116455,0.026367,15.785216,-39.306641,-21.77429,1.1182768783888004
0 days 00:01:06.110000,0.052002,1.133057,0.045166,11.314391,-38.124084,-25.268553,1.135148598558356
0 days 00:01:06.120000,0.021729,1.05249,-0.112305,61.027523,-30.036924,-7.865905,1.0586877549901104
0 days 00:01:06.130000,-0.041016,0.990967,0.109131,4.302979,34.736633,14.73236,0.997801324165287
0 days 00:01:06.140000,-0.047607,0.960205,0.000488,50.994869,-70.846558,-22.972105,0.9613845778968997
0 days 00:01:06.150000,-0.034912,0.989502,0.114746,9.277344,27.656553,12.84027,0.99674455115842
0 days 00:01:06.160000,0.01709,1.04541,0.082031,-9.155273,-31.242369,-21.934507,1.0487627096540952
0 days 00:01:06.170000,0.015137,1.039795,0.083252,-8.865356,-33.706665,-23.15521,1.0432323165517832
0 days 00:01:06.180000,0.02002,1.034668,0.095215,-6.835937,-37.071228,-24.436949,1.039232681765253
0 days 00:01:06.190000,0.024902,1.033447,0.099854,-5.630493,-38.169861,-24.574278,1.0385584397273944
0 days 00:01:06.200000,0.030762,1.037598,0.10498,-4.966736,-36.911011,-23.338316,1.0433487962555956
0 days 00:01:06.210000,0.038086,1.042236,0.107422,-5.363464,-33.13446,-21.209715,1.0484492878418106
0 days 00:01:06.220000,0.035156,1.039795,0.112549,-5.485534,-27.816771,-18.379211,1.0464592031044497
0 days 00:01:06.230000,0.034912,1.026855,0.116699,-5.027771,-21.011351,-14.61029,1.0340544934238234
0 days 00:01:06.240000,0.038818,1.016846,0.118896,-3.974914,-12.184142,-10.261535,1.0245090939840407
0 days 00:01:06.250000,0.041992,1.008057,0.11499,-2.372742,-1.594543,-6.401062,1.0154629207474786
0 days 00:01:06.260000,0.018066,1.049316,0.08374,-8.743286,-30.09796,-20.011902,1.052807121847112
0 days 00:01:06.270000,0.039063,1.002197,0.109863,-0.709534,9.635925,-3.128052,1.0089571960925794
0 days 00:01:06.280000,0.011475,1.025146,0.086426,0.366211,26.206968,1.930237,1.0288466603031765
0 days 00:01:06.290000,0.000977,1.033936,0.078857,0.411987,29.33502,2.662658,1.036939261998503
0 days 00:01:06.300000,-0.004883,1.043701,0.07666,0.534058,29.884336,2.708435,1.046523949410619
0 days 00:01:06.310000,-0.006104,1.046631,0.077148,0.473022,28.800962,2.166748,1.0494882195055837
0 days 00:01:06.320000,-0.013672,1.043457,0.085205,0.862122,26.06201,1.205444,1.0470192579212667
0 days 00:01:06.330000,-0.025391,1.036621,0.092041,1.670837,20.690916,-0.076294,1.0410088117797083
0 days 00:01:06.340000,-0.036377,1.033203,0.099121,2.586365,13.008117,-1.480102,1.038583986964463
0 days 00:01:06.350000,-0.041748,1.038818,0.10376,3.15094,4.402161,-2.655029,1.0448214537556164
0 days 00:01:06.360000,-0.039551,1.052734,0.108154,2.784729,-3.730774,-3.601074,1.0590139017373663
0 days 00:01:06.370000,-0.032715,1.064453,0.108398,1.091003,-10.498046,-4.03595,1.0704581200766334
0 days 00:01:06.380000,0.027588,1.01123,0.0979,0.175476,19.622803,-0.083923,1.0163324360877204
0 days 00:01:06.390000,0.00708,1.046387,0.082031,-8.102417,-28.755186,-18.013,1.0496213436901898
0 days 00:01:06.400000,-0.036621,0.981689,0.114746,7.110595,31.265257,13.96942,0.989050572457243
0 days 00:01:06.410000,-0.003662,1.044678,0.072266,-5.874633,-22.842405,-13.687133,1.0471809340720446
0 days 00:01:06.420000,-0.039063,1.017578,0.112305,9.132385,24.414061,12.809752,1.0245014968646948
0 days 00:01:06.430000,-0.0354,1.042969,0.111572,7.942199,20.446775,12.191772,1.049516939427373
0 days 00:01:06.440000,-0.033447,1.047363,0.115967,7.331848,17.272949,11.436461,1.0542942192134983
0 days 00:01:06.450000,-0.029297,1.032959,0.115479,8.049011,14.839171,10.82611,1.0398067172946133
0 days 00:01:06.460000,-0.019531,1.012695,0.110352,9.82666,13.053893,9.658813,1.01887692430931
0 days 00:01:06.470000,-0.017334,1.003906,0.112793,11.512755,11.863708,8.735657,1.0103712116054178
0 days 00:01:06.480000,-0.000244,1.046875,0.075928,-7.041931,-26.542662,-16.372681,1.0496248788710183
0 days 00:01:06.490000,-0.011475,1.021484,0.11377,11.96289,8.537292,6.843566,1.0278642180662776
0 days 00:01:06.500000,-0.009033,1.028076,0.11084,11.230468,7.110595,6.507873,1.034073190091011
0 days 00:01:06.510000,-0.011475,1.027832,0.112305,11.093139,5.256652,6.286621,1.0340129152355884
0 days 00:01:06.520000,-0.01416,1.021973,0.104004,11.009215,3.189087,6.072998,1.0273490888422494
0 days 00:01:06.530000,-0.011719,1.009766,0.112793,12.023925,10.360717,7.637023,1.0161136602595204
0 days 00:01:06.540000,0.000977,1.007568,0.099365,11.566161,1.541138,5.981445,1.0124562372655916
0 days 00:01:06.550000,-0.000732,1.008545,0.103271,11.558532,1.701355,5.744934,1.0138187472571218
0 days 00:01:06.560000,-0.007568,1.017822,0.097656,10.986327,0.907898,5.760192,1.0225241281475952
0 days 00:01:06.570000,-0.010986,1.040283,0.089111,8.750916,-0.862122,5.508422,1.0441504597547233
0 days 00:01:06.580000,-0.009766,1.061035,0.082275,5.485534,-3.02124,4.264832,1.0642649207814752
0 days 00:01:06.590000,-0.008545,1.06958,0.084229,2.39563,-4.798889,2.876281,1.0729254018178522
0 days 00:01:06.600000,-0.006836,1.070557,0.082275,-0.297546,-6.790161,0.549316,1.07373562703768
0 days 00:01:06.610000,-0.003906,1.061523,0.077148,-2.555847,-9.45282,-2.418518,1.0643299066873015
0 days 00:01:06.620000,-0.007324,1.050049,0.072754,-3.89862,-13.259887,-5.805969,1.0525918904746512
0 days 00:01:06.630000,-0.005615,1.043213,0.070801,-4.806519,-18.081665,-9.841919,1.045627884667868
0 days 00:01:06.640000,-0.007324,1.013184,0.101318,11.184691,2.082825,6.134033,1.0182636181048599
0 days 00:01:06.650000,-0.234863,0.996338,-0.16626,-14.251708,35.606384,-18.859863,1.0370595096777233
0 days 00:01:06.660000,-0.236084,1.009277,-0.156494,-16.082764,38.513184,-20.576475,1.0482681383219656
0 days 00:01:06.670000,-0.236084,1.030518,-0.150879,-15.327453,43.876644,-20.240782,1.0679267184694838
0 days 00:01:06.680000,-0.230225,1.029053,-0.139648,-12.84027,51.094051,-18.669128,1.0636988254849207
0 days 00:01:06.690000,-0.198242,1.009766,-0.117188,-16.670227,79.650879,-11.688231,1.0356931459964385
0 days 00:01:06.700000,-0.219482,1.007324,-0.115234,-11.024474,69.17572,-13.648986,1.037377879104813
0 days 00:01:06.710000,-0.234619,1.002686,-0.10791,-12.5885,76.667786,-12.46643,1.035408063449865
0 days 00:01:06.720000,-0.223877,1.007568,-0.108643,-14.533996,80.062866,-12.428283,1.0378427083147042
0 days 00:01:06.730000,-0.217041,1.019043,-0.123047,-11.276244,59.80682,-16.052246,1.049140598651582
0 days 00:01:06.740000,-0.235352,1.00415,-0.171875,-11.779784,34.744263,-14.938354,1.0455853872491716
0 days 00:01:06.750000,-0.24585,1.095703,-0.246338,-41.679379,-45.219418,-61.141964,1.1496476403459455
0 days 00:01:06.760000,-0.209229,1.023438,-0.161865,-10.971068,29.953001,-10.932921,1.0570725578265667
0 days 00:01:06.770000,-0.207764,1.027344,-0.178711,-11.398314,27.336119,-12.054442,1.0632681672809547
0 days 00:01:06.780000,-0.199463,1.043945,-0.19751,-13.46588,23.147581,-14.968871,1.0810258329448006
0 days 00:01:06.790000,-0.202637,1.047852,-0.205811,-17.021179,16.38031,-19.462585,1.0869285787916334
0 days 00:01:06.800000,-0.203369,1.050293,-0.231445,-19.538879,6.393432,-25.108335,1.0945506493694113
0 days 00:01:06.810000,-0.208008,1.060303,-0.250977,-21.240232,-5.805969,-31.570433,1.1092787000578348
0 days 00:01:06.820000,-0.210449,1.087158,-0.246338,-24.017332,-17.723083,-38.024902,1.134408968938892
0 days 00:01:06.830000,-0.204102,1.108643,-0.233398,-27.809141,-27.244566,-44.342037,1.1511826763190107
0 days 00:01:06.840000,-0.213135,1.12085,-0.24707,-32.554626,-34.263611,-50.170895,1.1673794737038166
0 days 00:01:06.850000,-0.234619,1.10791,-0.253662,-37.063599,-40.382381,-55.603024,1.1605408452549182
0 days 00:01:06.860000,-0.177734,1.013428,-0.128418,-18.562317,75.98877,-9.887695,1.0368784252090502
0 days 00:01:06.870000,-0.2146,1.018311,-0.163086,-10.69641,32.722473,-11.558532,1.053379084715944
0 days 00:01:06.880000,-0.184814,1.032959,-0.123047,-19.325256,70.152283,-8.094788,1.0565515011044184
0 days 00:01:06.890000,-0.427979,1.018799,-0.114014,-49.537655,16.609192,-12.283324,1.1109080155611444
0 days 00:01:06.900000,-0.180176,1.050781,-0.122314,-13.984679,50.003048,-6.538391,1.0731098804563304
0 days 00:01:06.910000,-0.250244,1.103271,-0.221924,-48.439022,-47.691341,-66.131592,1.1528569819162304
0 days 00:01:06.920000,-0.568604,0.986572,-0.106689,-5.996704,31.379698,-37.322998,1.1436858671510284
0 days 00:01:06.930000,-0.557373,1.001465,-0.118896,-3.196716,27.084349,-35.194397,1.152272999844221
0 days 00:01:06.940000,-0.536377,1.036621,-0.127686,-4.669189,27.748106,-30.067442,1.1741324875694394
0 days 00:01:06.950000,-0.489746,1.049561,-0.130371,-8.178711,35.354614,-23.101805,1.1655153516269101
0 days 00:01:06.960000,-0.430908,1.07959,-0.135498,-13.679503,45.494076,-18.386841,1.1702802999999615
0 days 00:01:06.970000,-0.470459,1.192383,-0.098145,-36.247253,54.542538,-16.593933,1.2855898764361051
0 days 00:01:06.980000,-0.592041,1.202637,0.014893,-67.977905,58.41827,-17.25769,1.340548432880737
0 days 00:01:06.990000,-0.616455,1.077393,0.048096,-78.987122,53.352352,-18.218994,1.2422180439399517
0 days 00:01:07,-0.536865,1.013184,-0.056396,-71.365356,42.686459,-17.623901,1.1480184471065786
0 days 00:01:07.010000,-0.191406,1.060303,-0.115479,-17.204285,61.424252,-7.17926,1.0836116038904344
0 days 00:01:07.020000,-0.482178,1.02832,-0.114014,-62.171932,32.867432,-17.158508,1.1414625873325852
0 days 00:01:07.030000,-0.454346,1.037109,-0.111328,-54.405209,21.697996,-14.770507,1.1377254893782596
0 days 00:01:07.040000,-0.405029,1.03125,-0.116211,-46.005245,9.849548,-10.498046,1.114015282598044
0 days 00:01:07.050000,-0.392334,1.02832,-0.099365,-44.013973,2.853393,-9.483337,1.1050979111286927
0 days 00:01:07.060000,-0.362061,0.998535,-0.107666,-38.94043,-2.342224,-9.056091,1.067591814085327
0 days 00:01:07.070000,-0.318848,1.003418,-0.135742,-32.417297,-3.410339,-9.132385,1.0615731818353362
0 days 00:01:07.080000,-0.299805,1.007813,-0.134766,-27.015684,1.068115,-9.376526,1.0600622414509442
0 days 00:01:07.090000,-0.29248,0.999756,-0.130859,-22.087095,8.995056,-8.285522,1.0498479355682897
0 days 00:01:07.100000,-0.274902,0.998047,-0.123047,-18.081665,18.104553,-6.225585,1.0425015530069965
0 days 00:01:07.110000,-0.236084,1.003906,-0.102295,-15.884398,27.862547,-5.027771,1.036352825497668
0 days 00:01:07.120000,-0.193115,1.018555,-0.101807,-14.160155,38.520813,-5.302429,1.0416872642492083
0 days 00:01:07.130000,-0.464355,1.051758,-0.120117,-57.395931,26.321409,-16.586304,1.155962175106954
0 days 00:01:07.140000,-0.568359,0.996338,-0.085938,-11.177062,38.024902,-37.979126,1.1502637536534825
0 days 00:01:07.150000,-0.271973,1.122803,-0.195068,-56.571957,-47.71423,-69.145203,1.1716259702490381
0 days 00:01:07.160000,-0.314697,1.102539,-0.183594,-67.382813,-41.015621,-67.146301,1.1611775080348397
0 days 00:01:07.170000,-0.118164,0.96167,-0.258057,41.244503,-14.900207,5.279541,1.0026790787909161
0 days 00:01:07.180000,-0.117676,0.980469,-0.246582,45.593258,-12.069701,3.829956,1.0178260085402613
0 days 00:01:07.190000,-0.112061,0.97998,-0.240967,49.591061,-8.56781,2.876281,1.0153736076981714
0 days 00:01:07.200000,-0.108154,0.99585,-0.232666,52.581783,-5.676269,1.312256,1.0283715173865913
0 days 00:01:07.210000,-0.115723,1.012207,-0.207031,52.673336,-3.883362,-0.862122,1.0396233253149914
0 days 00:01:07.220000,-0.128174,1.00708,-0.200439,52.795406,-5.088806,-3.608703,1.0348016686288246
0 days 00:01:07.230000,-0.138428,0.989014,-0.207275,56.793209,-7.873535,-6.217956,1.0199381986203868
0 days 00:01:07.240000,-0.139893,0.987305,-0.22168,62.614437,-11.848449,-7.316589,1.0215102725249512
0 days 00:01:07.250000,-0.122803,0.993408,-0.221924,67.451477,-17.028809,-6.874084,1.0252757156243388
0 days 00:01:07.260000,-0.119141,1.022949,-0.192871,69.999695,-25.863646,-6.790161,1.047768322255927
0 days 00:01:07.270000,-0.116699,0.950928,-0.259766,35.835266,-16.067505,6.790161,0.9926535611888975
0 days 00:01:07.280000,-0.119141,1.0,-0.193848,73.318481,-28.572081,-11.924743,1.0255591767348191
0 days 00:01:07.290000,-0.122314,1.020264,-0.166016,76.423645,-25.444029,-12.107848,1.0408941620299348
0 days 00:01:07.300000,-0.097656,1.035645,-0.154541,74.607849,-28.923033,-5.516052,1.0516559233142748
0 days 00:01:07.310000,-0.087402,1.060303,-0.148193,73.46344,-39.962769,-8.232117,1.074170715790558
0 days 00:01:07.320000,-0.157959,1.061768,-0.133545,75.378418,-54.649349,-13.290404,1.0817285234891423
0 days 00:01:07.330000,-0.202148,1.003418,-0.128174,81.657402,-69.702148,-11.344909,1.0315716508822836
0 days 00:01:07.340000,-0.107178,0.986816,-0.128906,86.456291,-84.556572,-9.20105,1.0009543937542809
0 days 00:01:07.350000,-0.033447,1.048584,-0.092529,77.354431,-93.986504,-12.191772,1.053189784752017
0 days 00:01:07.360000,-0.05957,1.077148,-0.001709,58.113094,-91.75872,-13.412475,1.0787953093543743
0 days 00:01:07.370000,-0.07959,1.011963,0.059326,45.669552,-80.368034,-14.015197,1.0168201688327192
0 days 00:01:07.380000,-0.300781,1.11792,-0.182373,-63.3316,-45.257565,-68.92395,1.1719531763214774
0 days 00:01:07.390000,-0.116211,1.000732,-0.185303,76.072693,-28.121946,-16.166687,1.0243567416452142
0 days 00:01:07.400000,-0.114746,0.94873,-0.262207,29.815672,-16.860962,7.987976,0.9909630509080548
0 days 00:01:07.410000,-0.11792,1.02124,-0.208984,69.259644,-21.987913,-5.798339,1.04905222761119
0 days 00:01:07.420000,-0.110352,0.946533,-0.271973,19.180298,-17.738342,10.040282,0.990995255650601
0 days 00:01:07.430000,-0.11792,0.945557,-0.267334,24.101255,-17.204285,9.140015,0.9896719831363319
0 days 00:01:07.440000,-0.339355,1.072266,-0.147217,-70.014954,-26.56555,-61.988827,1.1342790820031903
0 days 00:01:07.450000,-0.381592,1.032471,-0.115967,-71.563721,-15.983581,-56.495663,1.1068230054502841
0 days 00:01:07.460000,-0.381592,0.977783,-0.104492,-70.983887,-9.269714,-50.636288,1.0547941162222132
0 days 00:01:07.470000,-0.385254,0.949463,-0.088623,-69.122314,-5.477905,-44.479366,1.0284720069180298
0 days 00:01:07.480000,-0.394775,0.931641,-0.092285,-66.673279,-2.220154,-36.956787,1.0160308926066175
0 days 00:01:07.490000,-0.342285,0.899902,-0.122559,-58.601376,-1.159668,-29.014585,0.9705685649710689
0 days 00:01:07.500000,-0.268799,0.892822,-0.163818,-47.737118,-1.25885,-21.286009,0.9466891587046933
0 days 00:01:07.510000,-0.228516,0.901611,-0.181152,-40.672298,-0.022888,-12.748717,0.947595907906424
0 days 00:01:07.520000,-0.197754,0.909424,-0.210693,-36.361694,1.068115,-6.156921,0.9542275391860162
0 days 00:01:07.530000,-0.184814,0.919189,-0.249756,-31.150816,1.831055,-2.159119,0.9702796977433878
0 days 00:01:07.540000,-0.31543,1.085205,-0.173584,-68.611145,-35.423279,-65.246582,1.1433710604965477
0 days 00:01:07.550000,-0.152832,0.956543,-0.291504,-18.157959,3.364563,1.358032,1.0115862361108914
0 days 00:01:07.560000,-0.170166,0.935791,-0.276855,-24.353025,2.922058,0.427246,0.9906108995271555
0 days 00:01:07.570000,-0.117188,0.927002,-0.284668,7.217407,-16.906738,10.047912,0.976781247553412
0 days 00:01:07.580000,-0.116211,0.92334,-0.281006,-0.061035,-15.159606,9.040833,0.9721245414847833
0 days 00:01:07.590000,-0.113281,0.924805,-0.274414,-6.561279,-11.985778,8.087158,0.9712877618821314
0 days 00:01:07.600000,-0.130371,0.926514,-0.266602,-12.329101,-7.92694,6.912231,0.9728830434543506
0 days 00:01:07.610000,-0.112061,0.941895,-0.276611,13.885497,-17.669678,10.559081,0.9880473187388346
0 days 00:01:07.620000,-0.193848,0.98291,-0.243164,-16.807556,-0.228882,1.838684,1.0309305728806377
0 days 00:01:07.630000,-0.176758,0.981689,-0.265381,-14.625548,1.296997,0.709534,1.0321742868556647
0 days 00:01:07.640000,-0.156006,0.967529,-0.282227,-14.778136,2.433777,1.12915,1.0198540667203324
0 days 00:01:07.650000,-0.175293,0.951416,-0.240967,-16.525269,-3.318786,4.722595,0.9969880320214481
0 days 00:01:07.660000,-0.250488,0.956543,-0.097412,-37.910461,44.425961,14.61029,0.9935833365838016
0 days 00:01:07.670000,-0.263672,1.038818,-0.118164,-27.458189,-0.938415,17.349243,1.078252517550504
0 days 00:01:07.680000,-0.256348,1.01416,-0.118896,-32.814026,2.609253,18.539429,1.0527920314668038
0 days 00:01:07.690000,-0.256348,0.998779,-0.128174,-39.306641,6.713867,17.494202,1.0390872736305647
0 days 00:01:07.700000,-0.288086,0.967285,-0.108154,-45.616146,12.786864,15.228271,1.015052265815411
0 days 00:01:07.710000,-0.306885,0.93335,-0.084961,-48.110958,19.78302,14.877318,0.9861739183561894
0 days 00:01:07.720000,-0.276123,0.919189,-0.10791,-46.287533,25.817869,16.029358,0.9658141109706361
0 days 00:01:07.730000,-0.260498,1.071045,-0.139648,-21.65222,-3.372192,15.663146,1.1110797288822256
0 days 00:01:07.740000,-0.249512,0.921875,-0.12207,-42.747494,31.73065,16.51001,0.9628140208103536
0 days 00:01:07.750000,-0.24585,0.936768,-0.11377,-39.512634,38.101196,16.067505,0.9751513324730681
0 days 00:01:07.760000,-0.261719,0.973633,-0.07959,-37.742615,49.98016,12.519835,1.0113321026003277
0 days 00:01:07.770000,-0.303223,1.006104,-0.090088,-19.226074,56.259151,3.570556,1.0546588520886744
0 days 00:01:07.780000,-0.280029,0.985107,-0.054932,-31.661985,56.076046,9.552002,1.025606926124234
0 days 00:01:07.790000,-0.277588,0.999756,-0.068848,-27.023314,56.602474,7.690429,1.039859223349007
0 days 00:01:07.800000,-0.289795,1.009521,-0.081299,-22.766111,56.53381,5.363464,1.0534340600469494
0 days 00:01:07.810000,-0.315918,0.999512,-0.092285,-17.501831,56.221004,2.746582,1.0523045861788307
0 days 00:01:07.820000,-0.332764,0.97876,-0.08667,-16.677856,56.53381,2.555847,1.0374076856260512
0 days 00:01:07.830000,-0.345215,0.957764,-0.092773,-15.907287,55.534359,1.930237,1.0222974642685954
0 days 00:01:07.840000,-0.382324,0.944824,-0.091797,-14.900207,51.666256,0.480652,1.0233722300126185
0 days 00:01:07.850000,-0.433105,0.931641,-0.085938,-13.076781,45.082088,-0.732422,1.0309802295631085
0 days 00:01:07.860000,-0.459961,0.921143,-0.091309,-11.016845,36.437988,-0.656128,1.0336372097844582
0 days 00:01:07.870000,-0.24707,1.087891,-0.154785,-14.549254,-4.837036,14.030456,1.126280963616983
0 days 00:01:07.880000,-0.281006,0.980957,-0.055664,-36.071777,54.229733,10.841369,1.0219292973493812
0 days 00:01:07.890000,-0.24292,1.101807,-0.155273,-9.895325,-5.607605,12.21466,1.1389023207360673
0 days 00:01:07.900000,-0.452881,0.907715,-0.084717,-10.69641,27.6947,0.587463,1.0179512225421217
0 days 00:01:07.910000,-0.22583,1.172607,-0.136719,-7.720947,-10.910033,8.544922,1.2019560933370237
0 days 00:01:07.920000,-0.253662,1.008301,0.078613,25.291441,-0.869751,31.562803,1.0426865879131657
0 days 00:01:07.930000,-0.267334,1.020752,0.0896,27.015684,-3.723144,30.868528,1.0589760493325617
0 days 00:01:07.940000,-0.280273,1.035889,0.108398,26.237486,-7.164001,30.059813,1.0785958933975226
0 days 00:01:07.950000,-0.277588,1.04248,0.110596,25.169371,-11.352538,29.96063,1.0844589081011784
0 days 00:01:07.960000,-0.266113,1.052734,0.074707,24.955748,-16.464233,29.70886,1.0884145071497349
0 days 00:01:07.970000,-0.272705,1.050781,0.049072,24.848936,-21.926878,29.029844,1.0866999531471417
0 days 00:01:07.980000,-0.273438,1.031982,0.036865,25.108335,-28.533934,27.763365,1.0682294774031467
0 days 00:01:07.990000,-0.265869,1.016846,0.019775,25.520323,-36.422729,26.329039,1.0512150890764458
0 days 00:01:08,-0.258301,1.013428,0.009277,25.253294,-44.364925,25.108335,1.0458689117255566
0 days 00:01:08.010000,-0.235352,1.025146,0.004639,23.582457,-51.643368,23.208616,1.0518252732944762
0 days 00:01:08.020000,-0.236328,1.128662,-0.147705,-8.499146,-6.896972,10.31494,1.1625599343057544
0 days 00:01:08.030000,-0.223389,1.036621,-0.005127,20.835875,-56.312557,20.652769,1.060430115137721
0 days 00:01:08.040000,-0.214111,0.971191,-0.017334,15.830993,-58.54797,16.975403,0.9946637353186252
0 days 00:01:08.050000,-0.193848,0.939209,-0.030762,15.968322,-59.364315,14.259337,0.9594982508733406
0 days 00:01:08.060000,-0.186279,0.943115,-0.040771,15.792846,-58.54034,12.443542,0.9621995861083085
0 days 00:01:08.070000,-0.177002,0.983154,-0.05835,14.335631,-55.755611,11.886596,1.0006628893988225
0 days 00:01:08.080000,-0.162598,1.035156,-0.082764,11.337279,-51.727291,11.009215,1.0511117607733251
0 days 00:01:08.090000,-0.163574,1.087891,-0.098389,7.095336,-46.585079,9.941101,1.1045106050545646
0 days 00:01:08.100000,-0.171875,1.137207,-0.108887,3.349304,-41.023251,8.407593,1.1552649718757166
0 days 00:01:08.110000,-0.185059,1.174072,-0.120361,0.358582,-34.790039,7.041931,1.1946458324482616
0 days 00:01:08.120000,-0.19873,1.20166,-0.132324,-2.571106,-27.236937,6.67572,1.2251489744010726
0 days 00:01:08.130000,-0.21582,1.202637,-0.131348,-5.531311,-18.463135,7.232666,1.2288882468609583
0 days 00:01:08.140000,-0.228516,1.018066,-0.016357,17.539978,-57.937618,18.844604,1.0435255119358606
0 days 00:01:08.150000,-0.423584,0.902344,-0.093994,-11.734008,20.13397,2.593994,1.0012407160258716
0 days 00:01:08.160000,-0.24292,1.019287,0.075195,21.476744,-0.25177,30.84564,1.050528630163881
0 days 00:01:08.170000,-0.433594,0.919922,-0.121826,-17.982483,9.407043,8.537292,1.0242567144988604
0 days 00:01:08.180000,-0.294678,0.892334,-0.02832,1.708984,21.308897,-6.431579,0.9401580258871378
0 days 00:01:08.190000,-0.316162,0.902832,0.000977,-0.137329,23.941038,-7.568359,0.9565902910844328
0 days 00:01:08.200000,-0.307129,0.900391,0.014404,-0.076294,25.535582,-8.369446,0.9514408288159596
0 days 00:01:08.210000,-0.283691,0.919434,-0.018311,1.358032,27.336119,-9.32312,0.9623797361530426
0 days 00:01:08.220000,-0.279297,0.929688,-0.032715,3.173828,30.830381,-9.681702,0.9712861899450645
0 days 00:01:08.230000,-0.2771,0.92627,-0.047607,4.78363,34.690857,-9.475708,0.9680015234228715
0 days 00:01:08.240000,-0.26709,0.919434,-0.049805,5.622863,37.307739,-10.520934,0.9587369224563117
0 days 00:01:08.250000,-0.266846,0.920898,-0.035889,5.317688,38.9328,-13.153075,0.9594518927184416
0 days 00:01:08.260000,-0.27124,0.934814,-0.037354,4.501343,40.290829,-16.342163,0.9740860708951751
0 days 00:01:08.270000,-0.293457,0.963623,-0.05249,1.487732,41.419979,-22.53723,1.0086830508529425
0 days 00:01:08.280000,-0.291992,0.881836,-0.039063,1.991272,16.853333,-5.516052,0.929741887261728
0 days 00:01:08.290000,-0.296875,0.959717,-0.064453,2.311707,41.198727,-25.901793,1.0066507214138378
0 days 00:01:08.300000,-0.325195,0.97583,-0.084473,2.868652,40.596004,-32.676697,1.032052161789316
0 days 00:01:08.310000,-0.349854,0.987061,-0.069336,0.930786,39.299011,-35.354614,1.0495211860334215
0 days 00:01:08.320000,-0.36084,1.004639,-0.081543,-1.106262,37.574768,-36.865234,1.0705859548723773
0 days 00:01:08.330000,-0.364746,1.031494,-0.089844,-3.837585,37.033081,-37.246704,1.0977665785074713
0 days 00:01:08.340000,-0.371338,1.04541,-0.091797,-7.102966,39.474487,-37.307739,1.113193903842902
0 days 00:01:08.350000,-0.393311,1.054443,-0.098877,-10.597228,43.861385,-37.986755,1.129743441715419
0 days 00:01:08.360000,-0.455811,1.058105,-0.088867,-14.411925,47.996517,-38.101196,1.1555289708332717
0 days 00:01:08.370000,-0.523193,1.044434,-0.067139,-16.738892,48.568722,-38.116455,1.1700773226270134
0 days 00:01:08.380000,-0.55542,1.020508,-0.072021,-15.670775,44.593807,-38.17749,1.164094059303199
0 days 00:01:08.390000,-0.416016,0.918457,-0.124268,-14.816283,13.900756,5.15747,1.015910974903313
0 days 00:01:08.400000,-0.306152,0.963867,-0.081299,3.65448,41.229244,-29.350279,1.01458275571488
0 days 00:01:08.410000,-0.311768,0.88916,-0.035645,0.75531,11.016845,-5.058288,0.9429079262838974
0 days 00:01:08.420000,-0.280762,0.960205,-0.048828,2.700805,41.076656,-19.493103,1.0016012760839514
0 days 00:01:08.430000,-0.357178,0.914795,-0.019775,-2.456665,6.019592,-2.89917,0.982251020021868
0 days 00:01:08.440000,-0.336914,0.897949,-0.026611,-0.862122,6.530761,-4.440308,0.9594433778592669
0 days 00:01:08.450000,-0.430908,0.923828,-0.12793,-21.446226,7.530212,15.724181,1.0273781985948505
0 days 00:01:08.460000,-0.430664,0.941162,-0.128662,-23.612974,9.025574,17.959595,1.0429819276401677
0 days 00:01:08.470000,-0.455078,0.966064,-0.119385,-27.343748,10.238647,19.592285,1.0745363727696704
0 days 00:01:08.480000,-0.47583,0.969727,-0.096436,-29.693602,10.009766,20.408628,1.0844743175958573
0 days 00:01:08.490000,-0.468262,0.971436,-0.109863,-29.190062,8.163452,19.882202,1.0839866611305693
0 days 00:01:08.500000,-0.456299,0.988281,-0.118652,-28.45764,7.43103,18.768311,1.0949823786098112
0 days 00:01:08.510000,-0.450439,0.996094,-0.116211,-27.854918,7.637023,17.501831,1.0993650649706856
0 days 00:01:08.520000,-0.444092,0.996094,-0.111328,-26.81732,8.18634,16.052246,1.096273179861662
0 days 00:01:08.530000,-0.444336,0.991699,-0.099609,-24.604795,8.857727,14.656066,1.0912485236544422
0 days 00:01:08.540000,-0.447021,0.993652,-0.08252,-21.675108,9.162903,13.519286,1.0926946608934265
0 days 00:01:08.550000,-0.438965,0.918701,-0.121826,-20.027161,7.255554,12.405395,1.0254478889256147
0 days 00:01:08.560000,-0.445557,0.999756,-0.061035,-14.48059,7.545471,10.505675,1.0962474041063905
0 days 00:01:08.570000,-0.447754,0.994873,-0.063232,-18.257141,8.903503,12.33673,1.0928193887687938
0 days 00:01:08.580000,-0.389404,0.943848,-0.026123,-3.067016,11.863708,2.197266,1.0213554393300113
0 days 00:01:08.590000,-0.380371,0.952148,-0.03125,-3.196716,13.09204,3.486633,1.0257896831441617
0 days 00:01:08.600000,-0.374023,0.964355,-0.034912,-3.64685,11.367797,4.096985,1.0349360455110257
0 days 00:01:08.610000,-0.377197,0.980713,-0.043701,-3.982544,7.591247,4.562378,1.0516583773160368
0 days 00:01:08.620000,-0.384766,0.933594,-0.01709,-3.028869,8.956909,-0.12207,1.0099181648490139
0 days 00:01:08.630000,-0.407471,0.999756,-0.046875,-5.744934,1.754761,5.935668,1.0806210903929276
0 days 00:01:08.640000,-0.432861,0.998535,-0.045654,-7.8125,2.89917,7.369995,1.0892773197225765
0 days 00:01:08.650000,-0.449463,0.999268,-0.048828,-10.932921,5.424499,8.712769,1.09678516482354
0 days 00:01:08.660000,-0.387451,0.993652,-0.044678,-4.570007,3.52478,4.981995,1.0674543073073433
0 days 00:01:08.670000,-0.007324,1.044678,0.071045,-9.712219,-20.217894,-41.854855,1.0471165917341774
0 days 00:01:08.680000,-0.240234,1.018066,0.132568,-4.981995,-22.994993,-22.834776,1.0543932045190731
0 days 00:01:08.690000,-0.19458,1.044434,0.116211,-6.828308,-39.413452,-27.496336,1.0687416681672892
0 days 00:01:08.700000,-0.153076,1.057129,0.08252,-8.81958,-48.629757,-31.242369,1.071337264738327
0 days 00:01:08.710000,-0.106201,1.057617,0.050049,-10.124206,-50.682064,-34.179688,1.064113374359612
0 days 00:01:08.720000,-0.046143,1.041992,0.048096,-11.489867,-47.7066,-36.804199,1.0441215109981212
0 days 00:01:08.730000,0.000244,1.024902,0.061768,-12.763976,-41.969296,-38.55896,1.0267616349299382
0 days 00:01:08.740000,-0.282471,0.995361,0.13623,-4.333496,-0.534058,-18.943787,1.04359570670926
0 days 00:01:08.750000,0.012451,1.029785,0.065918,-13.282775,-34.721375,-39.619446,1.031967710904755
0 days 00:01:08.760000,0.005371,1.04126,0.072021,-12.756347,-27.290342,-40.512081,1.0437615914000669
0 days 00:01:08.770000,-0.006592,1.041748,0.064453,-5.226135,-11.993407,-43.724056,1.0437607672148823
0 days 00:01:08.780000,0.02124,1.041992,0.00293,19.271851,49.079891,-46.501156,1.0422125745566497
0 days 00:01:08.790000,0.019531,1.023926,0.055908,4.333496,10.787963,-46.264645,1.0256371765400276
0 days 00:01:08.800000,0.046875,1.030029,0.031494,9.628296,24.215696,-46.279903,1.031575919892472
0 days 00:01:08.810000,0.050049,1.036621,0.011475,14.617919,37.391663,-46.226498,1.0378919383379948
0 days 00:01:08.820000,-0.013672,1.042725,-0.008789,23.956297,58.853146,-47.111507,1.0428516652573365
0 days 00:01:08.830000,-0.051514,1.046875,-0.022949,28.594969,66.53595,-47.363277,1.0483928721724505
0 days 00:01:08.840000,-0.088867,1.057373,-0.033203,32.028198,72.563171,-46.874996,1.0616201976351993
0 days 00:01:08.850000,-0.117432,1.064941,-0.042725,34.324646,76.828003,-45.295712,1.0722476550359064
0 days 00:01:08.860000,-0.135498,1.072021,-0.066406,35.881042,79.536438,-43.220516,1.0825887904837181
0 days 00:01:08.870000,-0.155273,1.081299,-0.090332,36.811829,81.764214,-40.977474,1.096119109473966
0 days 00:01:08.880000,-0.312988,0.985107,0.128906,-4.920959,24.497984,-16.014099,1.0416400752798445
0 days 00:01:08.890000,0.002686,1.034668,0.058838,-0.541687,-1.617432,-45.417782,1.0363430875265198
0 days 00:01:08.900000,-0.365723,0.994629,0.104492,-6.401062,48.851009,-12.886046,1.0648749872327736
0 days 00:01:08.910000,-0.168457,1.113037,-0.310547,79.162598,249.992355,-48.21777,1.167762203287553
0 days 00:01:08.920000,-0.445557,1.001221,0.108398,-8.010864,88.60778,-7.827758,1.1012332439106622
0 days 00:01:08.930000,-0.2146,1.124268,-0.320801,72.58606,249.992355,-49.072262,1.1886736210688786
0 days 00:01:08.940000,-0.244385,1.122803,-0.362549,66.642761,249.992355,-48.866268,1.2049283723255089
0 days 00:01:08.950000,-0.311035,1.123291,-0.396729,60.394283,249.603256,-48.057552,1.2312267627642766
0 days 00:01:08.960000,-0.401367,1.13623,-0.404297,52.307125,249.992355,-48.431393,1.271050803783232
0 days 00:01:08.970000,-0.52002,1.139648,-0.39209,42.694088,249.992355,-49.880978,1.3126130170023456
0 days 00:01:08.980000,-0.601563,1.127441,-0.396729,34.942627,233.779892,-51.10931,1.3380564826983201
0 days 00:01:08.990000,-0.603027,1.114746,-0.406494,30.380247,197.059616,-50.704952,1.3309912018045047
0 days 00:01:09,-0.521729,1.104004,-0.385986,26.870726,171.844467,-49.629208,1.2806292100576966
0 days 00:01:09.010000,-0.433594,1.108643,-0.356934,22.125242,162.506088,-47.523495,1.2427771073853107
0 days 00:01:09.020000,-0.395752,1.128418,-0.327637,14.343261,164.573654,-44.601437,1.2398761357478414
0 days 00:01:09.030000,-0.437012,1.008301,0.084229,-7.522583,70.144653,-10.06317,1.1021546711718821
0 days 00:01:09.040000,-0.415283,1.132568,-0.273926,5.027771,169.197067,-41.198727,1.2370148334555249
0 days 00:01:09.050000,-0.175537,1.093018,-0.10498,37.216187,85.113518,-38.787842,1.1119902819238126
0 days 00:01:09.060000,-0.49292,1.111816,-0.171631,-7.4234,165.245041,-35.751343,1.228235378263059
0 days 00:01:09.070000,-0.476807,1.078613,-0.120605,-7.8125,159.706116,-31.906126,1.1854520171828973
0 days 00:01:09.080000,-0.421875,1.061279,-0.087158,-5.889892,157.081604,-28.244017,1.1453768586932427
0 days 00:01:09.090000,-0.408936,1.054688,-0.057617,-4.966736,159.126282,-25.131224,1.1326584428365862
0 days 00:01:09.100000,-0.423828,1.032715,-0.016602,-4.829407,163.078293,-19.897461,1.116425578000164
0 days 00:01:09.110000,-0.401367,1.01416,0.038086,-5.554199,160.659775,-12.809752,1.0913599395639368
0 days 00:01:09.120000,-0.400879,1.010254,0.089355,-7.644653,149.238586,-7.293701,1.0905509768837034
0 days 00:01:09.130000,-0.427734,0.999268,0.121582,-9.368896,131.103516,-4.348755,1.0937436140631862
0 days 00:01:09.140000,-0.436523,0.990967,0.134766,-9.002686,109.306328,-5.065917,1.0912056631882003
0 days 00:01:09.150000,-0.453857,1.12793,-0.224121,-2.716064,169.41069,-38.330078,1.2363019388442293
0 days 00:01:09.160000,-0.19458,1.119629,-0.123535,36.384583,90.461723,-37.04071,1.1431060188215265
0 days 00:01:09.170000,-0.124756,0.962158,-0.008545,-3.341675,-54.588314,8.31604,0.9702500159881472
0 days 00:01:09.180000,-0.284668,1.145996,-0.140381,28.045652,104.125969,-35.057068,1.1891381447926896
0 days 00:01:09.190000,-0.112549,1.066406,0.017822,23.04077,-20.431517,30.204771,1.0724768799004478
0 days 00:01:09.200000,-0.107422,1.033447,0.006836,21.232603,-23.460386,26.535032,1.0390374963344682
0 days 00:01:09.210000,-0.100586,0.989502,0.009033,18.745422,-27.542112,22.262571,0.9946423208817328
0 days 00:01:09.220000,-0.096436,0.955566,0.009766,16.448975,-33.866882,17.532349,0.9604694983225651
0 days 00:01:09.230000,-0.104248,0.947021,0.001709,14.076232,-41.496273,12.786864,0.9527430611796656
0 days 00:01:09.240000,-0.116943,0.960205,-0.004883,10.391234,-48.561092,9.19342,0.967312333718019
0 days 00:01:09.250000,-0.126953,0.979004,-0.000488,6.492614,-54.100033,7.728576,0.9872011620581693
0 days 00:01:09.260000,-0.121582,0.989014,0.003174,3.39508,-57.762142,7.545471,0.9964642237411235
0 days 00:01:09.270000,-0.11377,0.987793,-0.004639,1.014709,-58.334347,7.789611,0.99433402037243
0 days 00:01:09.280000,-0.112793,0.977539,-0.013184,-1.403808,-56.671139,8.033752,0.9841130906689536
0 days 00:01:09.290000,-0.106689,1.088623,0.033203,24.253843,-17.593384,34.103394,1.0943422764651833
0 days 00:01:09.300000,-0.14209,0.952393,0.0,-4.379272,-53.436275,8.560181,0.9629340551403299
0 days 00:01:09.310000,-0.175781,0.94043,0.017334,-3.738403,-52.032467,10.406493,0.9568740838882617
0 days 00:01:09.320000,-0.179688,0.945068,0.024658,-3.051758,-50.537106,11.772155,0.962314563400139
0 days 00:01:09.330000,-0.184082,0.948975,0.029785,-1.953125,-46.867367,13.420104,0.9671229909241119
0 days 00:01:09.340000,-0.191895,0.955322,0.030273,-0.785828,-41.175838,14.846801,0.9748744889666567
0 days 00:01:09.350000,-0.21167,0.962891,0.043945,0.62561,-35.255432,16.189575,0.9868608968877022
0 days 00:01:09.360000,-0.234619,0.973389,0.056396,3.120422,-30.105589,17.883301,1.0028522968503388
0 days 00:01:09.370000,-0.236572,0.991699,0.062256,6.958007,-24.787901,19.828796,1.0214249983826518
0 days 00:01:09.380000,-0.22583,1.015137,0.063965,11.154174,-17.64679,22.40753,1.0419183455981567
0 days 00:01:09.390000,-0.223633,1.03418,0.071533,13.938903,-9.788513,25.695799,1.0604984493991492
0 days 00:01:09.400000,-0.231689,1.034424,0.077881,17.25769,-3.341675,28.778074,1.0629102759207854
0 days 00:01:09.410000,-0.165039,0.943848,0.009033,-4.234314,-52.703854,9.254456,0.958211100809211
0 days 00:01:09.420000,-0.106934,1.109131,0.043945,25.466917,-14.587401,38.513184,1.115140178875284
0 days 00:01:09.430000,-0.232666,1.146729,-0.139648,32.646179,97.541801,-36.071777,1.1783982480048925
0 days 00:01:09.440000,-0.139648,1.164795,0.090332,25.375364,-7.667541,45.356747,1.1766090370862363
0 days 00:01:09.450000,-0.329346,1.123291,-0.142822,25.016783,107.26165,-33.004761,1.1792580642425134
0 days 00:01:09.460000,-0.367188,1.100098,-0.158447,23.185728,106.773369,-29.472349,1.1705332497443206
0 days 00:01:09.470000,-0.404785,1.092529,-0.161621,21.347044,103.668205,-23.864744,1.176261815969132
0 days 00:01:09.480000,-0.446045,1.096436,-0.153564,19.447327,99.220268,-16.052246,1.1936121422878538
0 days 00:01:09.490000,-0.480469,1.102783,-0.148438,18.15033,93.933098,-7.949829,1.2120291435827772
0 days 00:01:09.500000,-0.512207,1.107422,-0.14502,17.547607,88.478081,-1.831055,1.2287271045000185
0 days 00:01:09.510000,-0.126953,1.128174,0.067871,26.123045,-11.215209,42.335506,1.1373214634068944
0 days 00:01:09.520000,-0.568115,1.079834,-0.109375,16.944885,80.711357,7.606506,1.22505469731192
0 days 00:01:09.530000,-0.540283,1.06958,-0.065186,18.02063,73.318481,13.832091,1.2000651278514012
0 days 00:01:09.540000,-0.499756,1.078369,-0.033203,19.836426,61.286922,20.26367,1.189007232486834
0 days 00:01:09.550000,-0.470215,1.100586,-0.00708,20.912169,46.478268,28.266905,1.1968466134058282
0 days 00:01:09.560000,-0.549805,1.099854,-0.13916,17.097473,84.442131,2.525329,1.2374691369650397
0 days 00:01:09.570000,-0.415039,1.180176,0.030518,22.468565,15.563964,43.357845,1.251400859365615
0 days 00:01:09.580000,-0.428711,1.224365,0.022705,22.766111,5.79071,44.738766,1.2974506895335174
0 days 00:01:09.590000,-0.438232,1.23999,0.027588,21.934507,3.921509,47.050472,1.3154404523459053
0 days 00:01:09.600000,-0.36084,1.239014,0.065674,21.560667,5.653381,50.811764,1.292158764266992
0 days 00:01:09.610000,-0.237793,1.239258,0.095459,23.28491,5.546569,52.505489,1.2654715809112427
0 days 00:01:09.620000,-0.188232,1.241699,0.108398,26.115416,5.455017,52.795406,1.2605545679695902
0 days 00:01:09.630000,-0.163574,1.245605,0.105957,27.351377,4.730225,52.604671,1.2607597532242216
0 days 00:01:09.640000,-0.156006,1.244141,0.111328,26.672361,3.135681,51.879879,1.2588163581321143
0 days 00:01:09.650000,-0.156006,1.226074,0.119141,25.314329,0.305176,50.537106,1.2416883277992914
0 days 00:01:09.660000,-0.147705,1.200195,0.110596,24.681089,-3.593445,48.294064,1.2142966195563585
0 days 00:01:09.670000,-0.43335,1.130859,0.020508,21.560667,30.555723,37.658691,1.2112204086973601
0 days 00:01:09.680000,1.353027,1.338379,-0.706787,107.688896,133.735657,249.992355,2.0301448898389003
0 days 00:01:09.690000,1.384521,1.230225,-0.668945,93.139641,57.273861,249.992355,1.969223035385022
0 days 00:01:09.700000,1.251953,1.164795,-0.612305,85.914604,-21.194456,249.992355,1.8163290228532385
0 days 00:01:09.710000,1.022461,1.080566,-0.547607,84.686272,-87.562553,249.992355,1.5852201119484952
0 days 00:01:09.720000,0.169922,0.602783,-0.252686,88.23394,-136.306763,200.843796,0.6753303234484588
0 days 00:01:09.730000,0.626953,0.895508,-0.436768,86.517326,-154.167175,249.992355,1.1771877199907412
0 days 00:01:09.740000,0.47583,0.806885,-0.381836,87.234489,-159.095764,247.993454,1.0115712150021865
0 days 00:01:09.750000,0.316895,0.704102,-0.326416,88.61541,-151.901245,228.317245,0.8382896113426433
0 days 00:01:09.760000,0.807129,0.986816,-0.491211,85.655205,-132.377625,249.992355,1.3662178768476132
0 days 00:01:09.770000,1.263428,1.474365,-0.751221,128.044128,193.450912,249.992355,2.0819066874502323
0 days 00:01:09.780000,0.945313,1.612305,-1.303711,-16.235352,87.387077,217.849716,2.2787730146978222
0 days 00:01:09.790000,1.337891,1.65332,-0.928223,148.010254,227.073654,249.992355,2.3205640021361185
0 days 00:01:09.800000,1.350586,1.7229,-1.004639,146.141052,213.745102,249.992355,2.4086856319820984
0 days 00:01:09.810000,1.199707,1.791016,-1.122803,138.298035,174.209579,249.992355,2.4305805427745035
0 days 00:01:09.820000,1.043701,1.846191,-1.233887,130.79071,110.229485,249.961838,2.453611647072739
0 days 00:01:09.830000,1.018311,1.924072,-1.363037,121.612541,44.990536,249.946579,2.5684392570730576
0 days 00:01:09.840000,1.072754,1.967041,-1.45874,101.570122,-1.304626,249.992355,2.6735694918585904
0 days 00:01:09.850000,1.173828,1.934814,-1.459229,80.253601,-12.222289,248.756393,2.692717338047386
0 days 00:01:09.860000,1.238525,1.860107,-1.420654,58.814999,13.557433,242.980942,2.648055893441451
0 days 00:01:09.870000,1.183105,1.812012,-1.376953,26.763914,54.168697,240.753159,2.564980407991063
0 days 00:01:09.880000,1.026367,1.740234,-1.313477,-3.845215,82.366936,235.427841,2.409785347904249
0 days 00:01:09.890000,0.063965,0.528076,-0.176514,84.44976,-112.327568,176.864609,0.5604578264213999
0 days 00:01:09.900000,1.257813,1.569092,-0.841797,143.753052,222.602829,249.992355,2.1800838141323835
0 days 00:01:09.910000,-0.011963,0.474121,-0.119385,78.75061,-81.123344,155.349731,0.48906708561811846
0 days 00:01:09.920000,-0.165771,0.287598,0.185303,-29.487608,-72.662354,0.137329,0.38017079826572686
0 days 00:01:09.930000,-0.106689,0.38501,0.004883,68.809509,-22.598265,119.972221,0.39954860343893084
0 days 00:01:09.940000,0.950684,1.464111,-1.329834,-21.369932,88.928215,192.398056,2.1945112339044885
0 days 00:01:09.950000,0.211426,1.266602,-0.21582,-32.76825,119.087212,-102.279655,1.3021366488506496
0 days 00:01:09.960000,0.067871,1.206055,-0.111084,-33.760071,81.489555,-96.748344,1.2130600936153164
0 days 00:01:09.970000,-0.016846,1.099365,-0.091064,-28.182981,21.690367,-96.694939,1.1032587380288452
0 days 00:01:09.980000,-0.007813,1.036133,-0.053467,-25.581358,-47.760006,-95.146172,1.037541014489066
0 days 00:01:09.990000,0.045898,0.991455,-0.000244,-27.160643,-111.717216,-91.827385,0.9925168527360126
0 days 00:01:10,0.055664,0.933105,0.068115,-27.755735,-155.990601,-88.294975,0.9372422713183608
0 days 00:01:10.010000,-0.023193,0.913574,0.098389,-28.182981,-172.668442,-83.19854,0.9191494786192287
0 days 00:01:10.020000,-0.151611,0.869629,0.135498,-35.926819,-166.053757,-71.815491,0.8930846549829418
0 days 00:01:10.030000,-0.204834,0.757324,0.180664,-45.31097,-150.558472,-57.708736,0.8050689966878615
0 days 00:01:10.040000,-0.079102,0.425781,-0.059814,73.814392,-49.339291,137.290955,0.43717765377589923
0 days 00:01:10.050000,-0.208984,0.573975,0.207764,-49.163815,-132.972717,-43.884274,0.6452034505309159
0 days 00:01:10.060000,-0.166992,0.321045,0.19165,-38.818359,-92.231743,-13.404845,0.4094947406121353
0 days 00:01:10.070000,-0.17627,0.254883,0.184326,-18.005371,-53.62701,11.741637,0.3605725043108529
0 days 00:01:10.080000,-0.178711,0.223389,0.181396,-5.210876,-35.415649,22.209166,0.3387399823729109
0 days 00:01:10.090000,-0.174805,0.192871,0.18335,9.010315,-19.958496,34.011841,0.31839163488697375
0 days 00:01:10.100000,-0.151611,0.179199,0.175293,23.872374,-7.453918,45.81451,0.29296042867766287
0 days 00:01:10.110000,-0.13623,0.203125,0.150879,37.689209,2.807617,57.205196,0.28737232150295894
0 days 00:01:10.120000,-0.134033,0.251709,0.149902,46.928402,9.902954,68.664551,0.32216901678156457
0 days 00:01:10.130000,-0.137695,0.30127,0.178711,50.514217,12.443542,80.902092,0.37637899442715983
0 days 00:01:10.140000,-0.141113,0.32666,0.164551,54.878231,9.140015,92.658989,0.3920416635639636
0 days 00:01:10.150000,-0.131592,0.350098,0.085205,61.95068,-2.220154,105.003349,0.3835947811076162
0 days 00:01:10.160000,-0.200684,0.402344,0.217041,-46.112057,-112.648003,-28.823851,0.4992610117693951
0 days 00:01:10.170000,0.995117,1.408691,-1.251709,-36.064148,94.558708,163.719162,2.131066305362412
0 days 00:01:10.180000,0.312256,1.25708,-0.389893,-22.262571,132.080078,-119.85778,1.3526900928834364
0 days 00:01:10.190000,0.919434,1.268311,-0.845459,-67.207336,118.9804,109.802238,1.7801046580912032
0 days 00:01:10.200000,0.171875,0.726807,0.013428,-15.823363,28.915403,-50.682064,0.7469737224682004
0 days 00:01:10.210000,0.159668,0.765869,-0.007324,-8.163452,36.888123,-50.399776,0.7823700124372099
0 days 00:01:10.220000,0.143066,0.803223,-0.026367,-1.426697,43.67828,-51.765438,0.8162905651629204
0 days 00:01:10.230000,0.095947,0.840088,-0.04126,3.936767,48.736568,-54.290768,0.846555409972082
0 days 00:01:10.240000,0.045166,0.850098,-0.051758,10.040282,50.308224,-56.617733,0.8528689628096452
0 days 00:01:10.250000,0.022949,0.852539,-0.078613,18.333435,48.46954,-58.731075,0.8564633132195448
0 days 00:01:10.260000,0.001709,0.868652,-0.107178,27.786253,46.348568,-60.56213,0.8752407334379496
0 days 00:01:10.270000,-0.008789,0.888428,-0.122803,38.192749,47.088619,-61.06567,0.8969181314445595
0 days 00:01:10.280000,-0.001221,0.912354,-0.139648,48.049923,53.428646,-59.799191,0.922980431028199
0 days 00:01:10.290000,0.000977,0.936768,-0.151367,55.824276,67.077637,-57.640072,0.948918968638524
0 days 00:01:10.300000,0.177979,0.69458,0.041748,-24.391172,21.812437,-51.658627,0.7182344995508082
0 days 00:01:10.310000,-0.010254,0.951172,-0.165771,62.393185,85.823051,-55.427547,0.965563743385697
0 days 00:01:10.320000,-0.068604,0.994385,-0.193848,70.541382,124.572746,-50.392147,1.0154235983790212
0 days 00:01:10.330000,-0.086182,1.001465,-0.213379,72.639465,141.76178,-47.7066,1.027565122505625
0 days 00:01:10.340000,-0.067139,0.99707,-0.234375,75.469971,159.973145,-45.837399,1.026444285310216
0 days 00:01:10.350000,-0.054199,0.994141,-0.254883,79.429626,180.862411,-44.677731,1.0277252566571478
0 days 00:01:10.360000,-0.060303,1.020264,-0.272949,81.535332,204.597458,-43.090816,1.0578639979250641
0 days 00:01:10.370000,-0.055908,1.035156,-0.271484,81.855766,230.628952,-42.762753,1.0716236331175233
0 days 00:01:10.380000,-0.0625,1.037598,-0.277588,82.328789,248.390182,-43.708797,1.075904715738341
0 days 00:01:10.390000,-0.077148,1.037354,-0.289551,83.396904,249.992355,-43.41888,1.0797661398752048
0 days 00:01:10.400000,-0.079834,1.043213,-0.296875,84.617607,249.992355,-43.121334,1.0875668239469243
0 days 00:01:10.410000,-0.103516,1.067139,-0.303223,84.022514,249.992355,-45.1889,1.1142016852015617
0 days 00:01:10.420000,-0.034668,0.975098,-0.181641,67.352295,105.850212,-53.298946,0.9924774217628328
0 days 00:01:10.430000,0.145996,0.681641,0.067139,-33.409119,17.524719,-52.902218,0.700326302674689
0 days 00:01:10.440000,1.01123,1.382324,-1.041016,-55.5191,104.23278,135.429382,2.004275446671939
0 days 00:01:10.450000,0.119385,0.662598,0.099365,-51.689144,18.363953,-56.373592,0.6805602773112753
0 days 00:01:10.460000,0.786377,1.123291,-0.750244,-67.993164,135.238647,93.116753,1.5630219180632112
0 days 00:01:10.470000,0.719482,1.042236,-0.692871,-67.5354,148.81897,83.496086,1.4435998235872016
0 days 00:01:10.480000,0.73291,0.961914,-0.548584,-68.771362,158.149719,74.577332,1.327923196782103
0 days 00:01:10.490000,0.741699,0.922607,-0.430664,-73.028564,168.144211,61.69128,1.259679548117695
0 days 00:01:10.500000,0.676758,0.929443,-0.346191,-83.084099,182.76976,45.219418,1.2007139081787968
0 days 00:01:10.510000,0.586182,0.893555,-0.274414,-90.179436,194.641098,28.411863,1.1033371735534883
0 days 00:01:10.520000,0.117676,0.670898,0.095947,-42.343136,15.922545,-55.038448,0.6878645173208165
0 days 00:01:10.530000,0.401123,0.862061,-0.227051,-88.447563,184.997543,1.998901,0.977548456830146
0 days 00:01:10.540000,0.35376,0.850098,-0.176025,-91.293327,163.269028,-7.019042,0.9374420237161336
0 days 00:01:10.550000,0.355957,0.802246,-0.152588,-92.460625,136.619568,-15.220641,0.8908350734614124
0 days 00:01:10.560000,0.364746,0.786133,-0.157227,-89.706413,111.244194,-24.368284,0.8807752651692712
0 days 00:01:10.570000,0.496094,0.846436,-0.258789,-89.340202,195.74736,13.748168,1.0146599949998028
0 days 00:01:10.580000,0.287354,0.871338,-0.130615,-94.612114,74.729919,-44.876095,0.9267483529982666
0 days 00:01:10.590000,0.24707,0.853271,-0.064941,-103.210442,63.766476,-52.62756,0.8906920443239627
0 days 00:01:10.600000,0.252441,0.788086,-0.019531,-104.827873,54.847713,-57.685848,0.827760509953211
0 days 00:01:10.610000,0.264648,0.747559,-0.023926,-98.69384,48.995968,-61.584469,0.7933823012022639
0 days 00:01:10.620000,0.250977,0.73999,-0.019775,-90.797417,45.867916,-64.01062,0.7816429525390732
0 days 00:01:10.630000,0.218018,0.740234,0.011475,-85.243217,44.548031,-64.353943,0.7717576683810793
0 days 00:01:10.640000,0.188232,0.71875,0.050781,-79.673767,42.297359,-62.881466,0.7447224706459447
0 days 00:01:10.650000,0.175537,0.699951,0.072754,-73.509216,37.826538,-60.874935,0.7252846236381962
0 days 00:01:10.660000,0.157959,0.68457,0.105469,-68.092346,31.700132,-59.013363,0.7104300391607888
0 days 00:01:10.670000,0.133545,0.658691,0.126465,-60.577389,24.612425,-57.53326,0.6838870496880315
0 days 00:01:10.680000,0.34082,0.819824,-0.14917,-88.35601,89.965813,-34.851074,0.9002895935619827
0 days 00:01:10.690000,-0.232666,0.804443,0.223145,-38.948059,-249.992355,225.471481,0.8666346974533157
0 days 00:01:10.700000,-0.35498,0.705811,0.204102,-36.087036,-249.992355,203.208908,0.8159887220574803
0 days 00:01:10.710000,-0.368164,0.635742,0.204102,-40.847775,-249.992355,185.714706,0.76247639167649
0 days 00:01:10.720000,-0.326904,0.596191,0.205566,-46.455379,-249.397263,173.538193,0.7103290181690454
0 days 00:01:10.730000,0.096924,0.752441,0.511963,-63.3316,-105.667107,96.80938,0.9152419535980636
0 days 00:01:10.740000,-0.128418,0.532959,0.281738,-52.200314,-166.839584,151.0849,0.616370650703779
0 days 00:01:10.750000,-0.040527,0.539063,0.369629,-57.403561,-132.095337,133.544922,0.6548717075420193
0 days 00:01:10.760000,0.024414,0.617188,0.44751,-63.674923,-113.960258,115.257256,0.7627465311884414
0 days 00:01:10.770000,-0.240479,0.563721,0.215576,-50.247189,-220.489487,164.131149,0.6496803268208142
0 days 00:01:10.780000,-0.076904,0.926025,0.208984,-58.189388,-249.992355,247.03215,0.9524236652335977
0 days 00:01:10.790000,4.088623,1.29834,-1.123047,38.9328,24.978636,249.992355,4.434383762817332
0 days 00:01:10.800000,0.459229,1.152344,0.098877,-113.891594,-249.992355,249.992355,1.244413367778569
0 days 00:01:10.810000,0.71875,1.335693,-0.057373,-163.810715,-249.992355,249.992355,1.5178830698963606
0 days 00:01:10.820000,1.051514,1.468018,-0.220947,-212.440475,-249.420151,249.992355,1.8192240426426318
0 days 00:01:10.830000,1.458496,1.429199,-0.329346,-222.526535,-249.80162,249.992355,2.068402560270365
0 days 00:01:10.840000,1.861084,1.475098,-0.608643,-229.919418,-249.992355,249.992355,2.451528924183641
0 days 00:01:10.850000,2.318604,1.530029,-0.826904,-205.780014,-229.812607,249.992355,2.8983932574571383
0 days 00:01:10.860000,2.778076,1.528809,-0.98877,-159.65271,-148.353577,249.984726,3.3215402049586875
0 days 00:01:10.870000,3.180908,1.458252,-1.109619,-102.72979,-72.44873,249.992355,3.670957494323382
0 days 00:01:10.880000,3.577393,1.315674,-1.170166,-55.381771,-18.577576,249.992355,3.9872330278378514
0 days 00:01:10.890000,3.82959,1.27417,-1.150635,-11.764525,13.793944,249.504074,4.19681184474894
0 days 00:01:10.900000,0.165527,0.898438,0.564209,-52.764889,-102.516167,77.049255,1.0737419723816333
0 days 00:01:10.910000,0.126221,1.037598,0.157471,-88.005058,-249.984726,249.992355,1.0570423200071037
0 days 00:01:10.920000,0.20459,0.965332,0.607178,-33.798218,-101.036064,53.970333,1.1586147168096907
0 days 00:01:10.930000,-0.085449,0.530518,0.456055,-29.853819,-30.822752,-122.207634,0.7047957455532773
0 days 00:01:10.940000,0.201416,0.841064,0.703369,11.749267,-88.424675,9.056091,1.1147578245130196
0 days 00:01:10.950000,4.517578,1.209961,-1.107666,90.950005,22.438047,249.992355,4.806187738235056
0 days 00:01:10.960000,0.833008,3.013184,-4.312988,-249.992355,205.413803,-219.490036,5.326823221589393
0 days 00:01:10.970000,0.705566,3.009521,-4.016357,-249.992355,136.108398,-239.990219,5.0681518901120155
0 days 00:01:10.980000,0.503662,2.412109,-3.735107,-249.992355,55.488583,-249.992355,4.474703290674589
0 days 00:01:10.990000,0.168213,2.00415,-2.505371,-249.565109,-3.65448,-249.984726,3.2127553102453974
0 days 00:01:11,-0.18335,1.839355,-1.05835,-249.992355,-32.913208,-249.526962,2.130011446219245
0 days 00:01:11.010000,-0.391846,1.501465,-0.436523,-249.992355,-48.263546,-249.992355,1.6119841076977155
0 days 00:01:11.020000,-0.501221,1.106201,-0.113281,-226.188644,-52.932735,-249.992355,1.2197277270780558
0 days 00:01:11.030000,-0.499023,0.697021,0.086426,-188.240036,-55.191036,-224.266037,0.8615867236941387
0 days 00:01:11.040000,-0.361572,0.437012,0.118652,-143.165588,-63.217159,-196.723923,0.5794757082328819
0 days 00:01:11.050000,0.199463,0.912842,0.656006,-11.062621,-97.473137,30.273436,1.141669775972457
0 days 00:01:11.060000,-0.289795,0.413818,0.248047,-102.241508,-64.849854,-176.185593,0.5628088426437523
0 days 00:01:11.070000,-0.175537,0.493652,0.453369,-48.057552,-44.746395,-137.733459,0.6928556744618608
0 days 00:01:11.080000,-0.035156,0.541504,0.411133,-11.573791,-16.769409,-110.66436,0.6808031066622714
0 days 00:01:11.090000,-0.04126,0.56543,0.369141,11.039733,-3.204345,-102.897636,0.6765194382876223
0 days 00:01:11.100000,-0.032471,0.594971,0.373535,32.913208,6.126403,-92.796318,0.7032590226275096
0 days 00:01:11.110000,0.042725,0.653076,0.423584,52.558895,8.621216,-79.88739,0.7795877708487993
0 days 00:01:11.120000,0.127441,0.712402,0.44751,64.910889,2.655029,-65.26947,0.8508954214149939
0 days 00:01:11.130000,0.187744,0.76123,0.520508,64.567566,-12.931823,-50.72784,0.9410884658202968
0 days 00:01:11.140000,0.203613,0.791504,0.653076,56.610104,-32.63855,-36.79657,1.046157300581992
0 days 00:01:11.150000,0.195068,0.791016,0.739258,44.570919,-52.37579,-24.024961,1.1001182788427797
0 days 00:01:11.160000,0.200439,0.792969,0.746582,30.09033,-72.219849,-9.57489,1.1074115361535657
0 days 00:01:11.170000,-0.257813,0.456543,0.400635,-71.19751,-56.037899,-156.112671,0.6598541180010927
0 days 00:01:11.180000,1.417725,2.422607,-4.581543,-249.992355,231.178268,-205.062851,5.373035000158011
0 days 00:01:11.190000,4.726074,0.879395,-1.160645,123.237602,27.412413,230.232224,4.945321813140779
0 days 00:01:11.200000,4.197998,0.53125,-0.858643,184.669479,96.000664,176.109299,4.317717171371117
0 days 00:01:11.210000,1.177979,-0.072021,-0.313232,9.590149,43.762203,-145.820618,1.2210388342333753
0 days 00:01:11.220000,1.294434,-0.025635,-0.365479,-0.808716,44.448849,-150.138855,1.3452848891673466
0 days 00:01:11.230000,1.417725,0.043457,-0.426025,-9.32312,47.515865,-157.196045,1.4809895297060678
0 days 00:01:11.240000,1.556641,0.113037,-0.48291,-7.827758,51.48315,-161.445602,1.633741299701394
0 days 00:01:11.250000,1.675049,0.178223,-0.556885,-11.688231,57.342525,-157.516479,1.774168394869833
0 days 00:01:11.260000,1.818604,0.259766,-0.624023,-14.060973,58.494564,-164.428696,1.9401555577069072
0 days 00:01:11.270000,1.944336,0.35376,-0.739746,-3.303528,54.51202,-176.780685,2.110168894428121
0 days 00:01:11.280000,2.023438,0.482666,-0.89502,0.801086,49.743649,-185.745224,2.2645813316814216
0 days 00:01:11.290000,2.07666,0.633789,-1.008301,3.738403,39.360046,-196.731552,2.3939248440003293
0 days 00:01:11.300000,2.245361,0.99292,-1.135254,4.753113,9.124756,-212.348923,2.704872971367972
0 days 00:01:11.310000,1.072266,-0.138184,-0.243652,18.760681,42.16003,-144.638062,1.1082488392576824
0 days 00:01:11.320000,2.233398,1.142822,-1.13623,-2.754211,5.836486,-218.460068,2.754110993222314
0 days 00:01:11.330000,1.904053,1.194092,-1.230957,0.595093,26.794432,-218.18541,2.562523886156381
0 days 00:01:11.340000,1.781982,1.279785,-1.181396,8.033752,43.144222,-210.23558,2.4917877123392755
0 days 00:01:11.350000,1.573486,1.368652,-1.099121,14.60266,58.609005,-200.744614,2.3573573046827248
0 days 00:01:11.360000,1.298096,1.403076,-1.016113,26.405333,65.628052,-187.950119,2.164754285308381
0 days 00:01:11.370000,1.125732,1.466064,-0.915039,38.238525,65.803528,-175.514206,2.0625015295608873
0 days 00:01:11.380000,1.03125,1.528809,-0.812012,40.184017,71.899414,-167.243942,2.014968240227374
0 days 00:01:11.390000,0.918213,1.515625,-0.729736,27.412413,87.707512,-158.813477,1.9164417245744783
0 days 00:01:11.400000,0.761719,1.365723,-0.627441,8.44574,104.133598,-150.909424,1.6849621230671628
0 days 00:01:11.410000,0.526855,1.263672,-0.532227,-7.743835,121.238701,-140.388489,1.4689141207497463
0 days 00:01:11.420000,4.56543,0.670166,-1.137451,144.416809,43.792721,192.657455,4.752480229296804
0 days 00:01:11.430000,2.081787,1.180664,-1.182373,-5.500793,13.198852,-221.946701,2.669421380260898
0 days 00:01:11.440000,0.981934,-0.225098,-0.199951,24.841307,43.937679,-141.853333,1.0270559343877042
0 days 00:01:11.450000,2.159424,0.806641,-1.094238,6.805419,23.16284,-205.818161,2.551693264344482
0 days 00:01:11.460000,0.785156,-0.416992,-0.138184,32.989502,69.618225,-129.478455,0.8996927754828311
0 days 00:01:11.470000,0.88623,-0.324463,-0.169189,28.945921,53.88641,-135.375977,0.9588038219521238
0 days 00:01:11.480000,3.448975,0.925049,-1.143555,123.481743,212.936386,130.584717,3.74951493410161
0 days 00:01:11.490000,2.71582,0.414063,-0.96582,80.688469,209.976181,98.487846,2.912032745827045
0 days 00:01:11.500000,1.800293,-0.020752,-0.677734,55.732723,195.098862,83.106987,1.9237486598069404
0 days 00:01:11.510000,1.043213,-0.274658,-0.376709,42.175289,168.708786,73.890686,1.1426460742565916
0 days 00:01:11.520000,0.484131,-0.452148,-0.235352,44.776913,145.652771,63.034054,0.7030015668325356
