t,ax,ay,az,gx,gy,gz,acc_mag
0 days 00:00:58.870000,-0.831543,-0.250244,0.484619,188.362106,-61.096188,249.992355,0.9944553260684966
0 days 00:00:58.880000,-0.869385,-0.440918,0.343994,165.901169,-61.973568,249.992355,1.0337169984986219
0 days 00:00:58.890000,-0.862061,-0.401123,0.361084,172.828659,-60.249325,249.992355,1.0170695570638224
0 days 00:00:58.900000,-0.85083,-0.331299,0.400146,179.298386,-61.035152,249.992355,0.9968889294284493
0 days 00:00:58.910000,-0.994629,-0.566895,0.41748,158.203125,-53.413387,249.992355,1.2185837431485782
0 days 00:00:58.920000,-0.895508,-0.482178,0.371094,156.768799,-63.926693,249.992355,1.0826545887696593
0 days 00:00:58.930000,-1.021484,-0.560547,0.390137,167.114243,-52.268978,249.992355,1.2287592849024582
0 days 00:00:58.940000,-1.428223,-0.88501,0.380615,249.992355,73.219299,249.992355,1.7227685323496014
0 days 00:00:58.950000,-1.32666,-0.78125,0.311035,189.231857,-10.513305,249.992355,1.570707194013257
0 days 00:00:58.960000,-1.425293,-0.77832,0.384521,217.758163,15.701293,249.992355,1.668861455510912
0 days 00:00:58.970000,-1.449463,-0.817627,0.385498,244.89592,46.07391,249.992355,1.7082346464997131
0 days 00:00:58.980000,-1.374512,-0.939209,0.366699,249.992355,90.072624,249.732956,1.7046597726308907
0 days 00:00:58.990000,-1.296143,-1.046631,0.29834,249.992355,101.387016,249.992355,1.6924626678925594
0 days 00:00:59,-1.239014,-1.122559,0.272949,249.992355,108.27636,249.992355,1.6940470941735948
0 days 00:00:59.010000,-1.195801,-1.194092,0.347412,249.992355,104.080193,236.900314,1.7252509480678455
0 days 00:00:59.020000,-1.113037,-1.240234,0.341064,249.992355,83.267204,215.469345,1.7009868871396394
0 days 00:00:59.030000,-1.021484,-1.270996,0.27002,249.992355,47.355648,194.892868,1.6528070651688296
0 days 00:00:59.040000,-0.791748,-0.227051,0.509521,193.916306,-59.478756,249.992355,0.9685188183747386
0 days 00:00:59.050000,-1.177246,-0.712891,0.28418,180.7556,-31.883238,249.992355,1.4053042356717638
0 days 00:00:59.060000,-0.71167,-0.216064,0.411865,191.993698,-55.809017,249.992355,0.8501709352953676
0 days 00:00:59.070000,-0.290283,0.500732,-0.000977,155.509949,-21.163939,176.09404,0.5787898672592671
0 days 00:00:59.080000,-0.65332,-0.135742,0.318604,194.602951,-33.294678,249.389633,0.739433176007136
0 days 00:00:59.090000,-0.371826,0.748047,-0.513428,-4.188538,74.775696,89.263908,0.9805290407065974
0 days 00:00:59.100000,-0.449219,0.731934,-0.502197,22.834776,57.975765,93.078606,0.9948501983344025
0 days 00:00:59.110000,-0.448242,0.714844,-0.538086,44.235226,47.71423,97.114555,1.0007294231189567
0 days 00:00:59.120000,-0.397461,0.69751,-0.534912,59.379574,37.078857,103.98101,0.9646897399501044
0 days 00:00:59.130000,-0.331299,0.687744,-0.467529,70.388794,17.623901,110.443108,0.8951727223156434
0 days 00:00:59.140000,-0.280273,0.667725,-0.392822,80.245972,-3.501892,116.485588,0.8238438892399457
0 days 00:00:59.150000,-0.277588,0.635986,-0.333496,90.026848,-16.998291,124.671928,0.7699044563814396
0 days 00:00:59.160000,-0.335938,0.619873,-0.265869,101.34124,-22.789,134.346008,0.7535139024158745
0 days 00:00:59.170000,-0.399902,0.618652,-0.198975,116.615288,-24.452208,143.501282,0.76304846329247
0 days 00:00:59.180000,-0.460205,0.617188,-0.120117,133.262634,-28.564451,151.687622,0.7791904536491704
0 days 00:00:59.190000,-0.657471,-0.193848,0.322754,189.659103,-46.386715,249.992355,0.7576379791569322
0 days 00:00:59.200000,-0.427734,0.594971,-0.067627,143.913269,-32.333374,158.058167,0.735880613092912
0 days 00:00:59.210000,-0.930176,-1.337158,0.221924,249.93132,8.69751,176.46788,1.6439188452341558
0 days 00:00:59.220000,-0.306641,0.440674,0.057861,160.049438,-6.16455,188.293442,0.5399723812177805
0 days 00:00:59.230000,-0.356201,0.412598,0.134766,167.251572,10.643004,196.159348,0.5614963372641001
0 days 00:00:59.240000,-0.425049,0.383545,0.200684,175.170883,20.721434,204.978928,0.6066691744946334
0 days 00:00:59.250000,-0.470703,0.341797,0.275635,182.914719,18.707275,214.042648,0.6437089067606568
0 days 00:00:59.260000,-0.453369,0.294434,0.320068,190.513596,11.978148,218.650803,0.6282343154755239
0 days 00:00:59.270000,-0.44751,0.240479,0.329102,194.24437,6.713867,220.848068,0.6053127092214403
0 days 00:00:59.280000,-0.463867,0.175781,0.341064,197.860703,3.044128,226.104721,0.601993526332302
0 days 00:00:59.290000,-0.513184,0.084229,0.296143,201.263412,-5.134582,234.672531,0.5984588697195489
0 days 00:00:59.300000,-0.60376,-0.024658,0.292969,200.569138,-19.020081,243.537888,0.671539268788505
0 days 00:00:59.310000,-0.33252,0.556885,-0.022949,150.20752,-29.914854,165.374741,0.6490124114575929
0 days 00:00:59.320000,-0.884277,-1.432617,0.205078,249.68718,-21.965025,160.018921,1.6959935930014594
0 days 00:00:59.330000,-1.056641,-0.611572,0.325684,176.788315,-45.669552,249.992355,1.2635586974577002
0 days 00:00:59.340000,-0.915039,-1.443359,0.293213,248.809799,-50.834652,137.390137,1.7339421667895962
0 days 00:00:59.350000,-0.111816,-1.113525,-0.077393,-29.411314,114.883415,9.674072,1.1217978516337068
0 days 00:00:59.360000,-0.140137,-1.099854,-0.080322,-37.643433,107.017509,8.44574,1.111651394893651
0 days 00:00:59.370000,-0.176758,-1.030762,-0.130615,-44.319149,103.759758,13.320922,1.053932620917011
0 days 00:00:59.380000,-0.179688,-0.950928,-0.189941,-48.454281,101.135246,16.517639,0.9862197635461378
0 days 00:00:59.390000,-0.151611,-0.891602,-0.211914,-48.515316,94.108574,17.51709,0.9288958849736606
0 days 00:00:59.400000,-0.11499,-0.875732,-0.205078,-47.363277,82.824699,17.715454,0.9067448494521487
0 days 00:00:59.410000,-0.076416,-0.9021,-0.185791,-49.369808,67.634583,15.73944,0.9241980906369586
0 days 00:00:59.420000,-0.02417,-0.951904,-0.144287,-53.726192,49.011227,11.169433,0.9630805534767068
0 days 00:00:59.430000,-0.119629,-0.994385,-0.057617,-48.881527,20.492552,6.156921,1.003211016962533
0 days 00:00:59.440000,-0.175293,-1.001709,-0.048828,-45.158382,14.038085,2.02179,1.0181025145406526
0 days 00:00:59.450000,-0.179199,-1.084229,-0.107422,-20.652769,122.940056,18.684387,1.1041758429371655
0 days 00:00:59.460000,-0.171387,-0.982178,-0.063721,-37.757874,3.921509,5.477905,0.9990532985251588
0 days 00:00:59.470000,-0.171875,-0.913818,-0.10791,-20.774839,-20.713804,10.742187,0.9360816849233832
0 days 00:00:59.480000,-0.203857,-0.924316,-0.104248,-18.287659,-26.80969,9.605408,0.9522527972177346
0 days 00:00:59.490000,-0.222168,-0.956055,-0.09668,-17.227173,-29.045103,8.81958,0.9862792736588354
0 days 00:00:59.500000,-0.226563,-0.982422,-0.073486,-15.518188,-30.281065,9.010315,1.0108827683015473
0 days 00:00:59.510000,-0.224365,-0.994141,-0.019287,-12.237548,-34.126282,7.919311,1.0193272141344016
0 days 00:00:59.520000,-0.209961,-0.985596,0.0,-7.217407,-39.176941,6.958007,1.007711812343688
0 days 00:00:59.530000,-0.218994,-0.981201,-0.016846,-4.692078,-42.076107,6.91986,1.0054837453449956
0 days 00:00:59.540000,-0.247803,-0.99292,-0.028564,-6.401062,-41.862484,5.775451,1.0237735859578523
0 days 00:00:59.550000,-0.274902,-0.993652,-0.03125,-8.361816,-40.496822,5.584716,1.0314513896485864
0 days 00:00:59.560000,-0.877441,-1.46875,0.256592,249.992355,-40.817257,145.385742,1.7300198627313503
0 days 00:00:59.570000,-0.164307,-0.939209,-0.08374,-27.519224,-9.887695,9.727478,0.9571430005647014
0 days 00:00:59.580000,-0.337891,-1.047607,-0.16748,-13.687133,123.245232,24.16992,1.113418297285436
0 days 00:00:59.590000,-0.026367,-0.983887,-0.094482,-53.337093,31.661985,9.292603,0.9887647322705234
0 days 00:00:59.600000,-0.370117,-0.978271,-0.264893,-8.460999,104.026787,15.281676,1.0789666559162059
0 days 00:00:59.610000,-0.871826,-1.489746,0.241943,222.785934,-59.036251,133.201599,1.742974507570607
0 days 00:00:59.620000,-0.406494,-1.007813,-0.222168,-9.689331,114.997856,20.39337,1.1091812454369214
0 days 00:00:59.630000,-0.623047,-1.45166,0.131592,140.808105,-79.76532,100.860588,1.5851879302697836
0 days 00:00:59.640000,-0.603271,-1.326172,0.083008,103.530876,-86.555473,85.441582,1.4593006547963308
0 days 00:00:59.650000,-0.681641,-1.196777,0.040283,73.501587,-82.344048,72.792053,1.377872403635039
0 days 00:00:59.660000,-0.774902,-1.089111,-0.013184,49.301144,-65.467834,62.156673,1.3367160123904405
0 days 00:00:59.670000,-0.741943,-1.02832,-0.066895,29.21295,-39.024353,53.810116,1.2698017084072615
0 days 00:00:59.680000,-0.662109,-0.970703,-0.076416,17.127991,-10.185241,47.721859,1.177493969048674
0 days 00:00:59.690000,-0.610107,-0.910156,-0.072021,13.366698,13.389586,41.709896,1.0980899417743522
0 days 00:00:59.700000,-0.553223,-0.884521,-0.107422,11.741637,28.70178,35.591125,1.0487957729005204
0 days 00:00:59.710000,-0.504395,-0.892822,-0.136475,9.544373,38.848877,30.548094,1.0344906308584916
0 days 00:00:59.720000,-0.727295,-1.516113,0.179199,183.593735,-68.199158,118.667595,1.691055566028213
0 days 00:00:59.730000,-0.177734,-0.935059,-0.278809,-5.0354,97.427361,23.651121,0.9917959299765249
0 days 00:00:59.740000,-0.480957,-0.914063,-0.1521,1.983642,57.571407,28.388975,1.0440139911983937
0 days 00:00:59.750000,-0.470703,-0.918457,-0.1875,-1.88446,68.115234,28.923033,1.0489427177200858
0 days 00:00:59.760000,-0.487061,-0.919189,-0.233154,-6.767272,83.419792,32.775879,1.0660664253028516
0 days 00:00:59.770000,-0.491455,-0.904053,-0.263672,-11.32965,101.295464,39.085388,1.06224421270158
0 days 00:00:59.780000,-0.455566,-0.87915,-0.288086,-12.199401,115.150444,41.90826,1.0312316162007447
0 days 00:00:59.790000,-0.376221,-0.875,-0.293213,-10.498046,122.528069,42.694088,0.9965646512946363
0 days 00:00:59.800000,-0.268311,-0.899902,-0.282471,-9.536743,118.003838,39.039612,0.9806142300446186
0 days 00:00:59.810000,-0.157959,-0.915771,-0.262451,-6.538391,107.414238,32.76062,0.9656438771736712
0 days 00:00:59.820000,-0.294922,-0.95874,-0.292969,-7.080078,96.229546,16.075134,1.0449843102386753
0 days 00:00:59.830000,-0.48877,-0.907227,-0.145996,5.821228,48.202511,28.549192,1.0408034273795412
0 days 00:00:59.840000,-0.424561,1.070313,-0.378662,71.556091,-55.320736,-11.680602,1.2121084402535938
0 days 00:00:59.850000,-0.456787,1.046875,-0.393799,56.465145,-45.745846,-5.844116,1.2081718757672684
0 days 00:00:59.860000,-0.490723,1.034424,-0.40625,42.282101,-39.421082,-0.923157,1.2148584843532189
0 days 00:00:59.870000,-0.531494,1.034668,-0.419434,29.281614,-32.951355,4.547119,1.236506620530598
0 days 00:00:59.880000,-0.509033,0.588379,0.165039,181.991562,-177.009567,-37.597656,0.7953252883261037
0 days 00:00:59.890000,-0.543213,1.024902,-0.481201,6.759643,-13.420104,13.633727,1.255810047488871
0 days 00:00:59.900000,-0.548828,1.003662,-0.473877,-1.663208,-3.860473,17.745972,1.2381877866289102
0 days 00:00:59.910000,-0.405029,1.088867,-0.371094,87.10479,-65.666199,-19.111633,1.219586237773287
0 days 00:00:59.920000,-0.54248,0.989746,-0.432617,-7.522583,6.317138,20.324705,1.208734529830682
0 days 00:00:59.930000,-0.542236,1.033203,-0.45459,17.379761,-23.193357,9.613037,1.252270093472251
0 days 00:00:59.940000,-0.43457,1.101807,-0.357422,102.081291,-75.195313,-26.550291,1.2371662120479203
0 days 00:00:59.950000,-0.47168,0.860596,-0.13208,176.322922,-118.530266,-47.874447,0.9902285716015268
0 days 00:00:59.960000,-0.493896,1.10083,-0.300781,133.06427,-88.043205,-37.223816,1.2434746308940123
0 days 00:00:59.970000,-0.501709,1.058105,-0.273926,145.294189,-96.17614,-40.496822,1.202636090087937
0 days 00:00:59.980000,-0.492188,0.990234,-0.238281,156.036377,-102.989189,-45.417782,1.1311897440575562
0 days 00:00:59.990000,-0.484375,0.919434,-0.192139,166.755661,-109.52758,-47.882076,1.0568327286292756
0 days 00:01:00,-0.45874,0.829102,-0.082764,184.898361,-130.775452,-48.568722,0.9511584482619077
0 days 00:01:00.010000,-0.466797,0.817627,-0.010986,192.184433,-145.835876,-48.97308,0.9415593675037172
0 days 00:01:00.020000,-0.455811,0.79834,0.023193,196.868881,-158.52356,-47.142025,0.9195913976163544
0 days 00:01:00.030000,-0.475342,0.724609,0.028809,194.129929,-167.366013,-43.388363,0.8670860270619057
0 days 00:01:00.040000,-0.52002,0.63916,0.082031,186.859116,-174.484238,-40.130615,0.8280551859393189
0 days 00:01:00.050000,-0.549805,0.983887,-0.382324,-14.144897,18.852234,24.185179,1.1901641936178384
0 days 00:01:00.060000,-0.469238,1.114502,-0.329102,117.897026,-81.703178,-33.500671,1.2532386584573587
0 days 00:01:00.070000,-0.559326,0.976563,-0.356445,-21.888731,34.767151,29.106138,1.180497312690715
0 days 00:01:00.080000,0.655762,1.395508,1.285645,-199.417099,-58.280941,-236.747726,2.0075730235119718
0 days 00:01:00.090000,-0.539307,0.96875,-0.345703,-41.007992,65.940857,39.222717,1.1613953534253527
0 days 00:01:00.100000,-0.486084,0.56543,0.263184,178.657516,-175.521835,-34.820557,0.7907303951486878
0 days 00:01:00.110000,2.75293,3.789551,4.838379,249.992355,-249.992355,-149.230957,6.734183819449985
0 days 00:01:00.120000,-2.9375,-4.726563,5.999268,-15.083312,-29.266356,131.469727,8.182940827037244
0 days 00:01:00.130000,-0.914063,-0.389893,-0.477295,-249.992355,232.963547,26.992796,1.1024238007422553
0 days 00:01:00.140000,-0.092041,0.357422,-0.189697,-249.992355,249.992355,54.313656,0.4149782928949417
0 days 00:01:00.150000,-0.166504,0.442139,-0.205078,-249.992355,249.93895,63.156124,0.5150412249723317
0 days 00:01:00.160000,-0.286377,0.565674,-0.21167,-249.992355,249.992355,70.083618,0.6684332796210853
0 days 00:01:00.170000,-0.244629,0.660156,-0.265625,-249.992355,249.992355,77.972412,0.7524665657702008
0 days 00:01:00.180000,-0.188477,0.708984,-0.325439,-249.649033,247.383102,84.182732,0.8025536957151215
0 days 00:01:00.190000,-0.246338,0.734619,-0.37915,-249.992355,234.245285,89.233391,0.8626135913055162
0 days 00:01:00.200000,-0.3396,0.763184,-0.463379,-249.992355,211.479172,96.214287,0.9552476513956996
0 days 00:01:00.210000,-0.393311,0.784668,-0.521973,-233.497604,185.28746,97.396843,1.0212018535402294
0 days 00:01:00.220000,-0.455811,0.825684,-0.509521,-206.054672,158.493042,91.468803,1.0719745262915532
0 days 00:01:00.230000,-1.366699,-0.625977,0.282959,-214.14183,123.634331,-111.54174,1.5296336675201028
0 days 00:01:00.240000,-0.487793,0.860352,-0.485107,-182.487473,135.5896,83.335869,1.1015790376554921
0 days 00:01:00.250000,-0.457764,0.880127,-0.462402,-160.453796,122.047417,76.919556,1.0945259363893576
0 days 00:01:00.260000,-0.444824,0.888672,-0.450684,-138.61084,111.869804,69.595337,1.091202264667738
0 days 00:01:00.270000,-0.481201,0.899658,-0.473145,-119.10247,103.569023,60.707088,1.1246355455835457
0 days 00:01:00.280000,-0.53833,0.935059,-0.503906,-100.95977,97.045891,56.388851,1.1908214724369894
0 days 00:01:00.290000,-0.57251,0.963623,-0.510498,-87.532036,90.286247,54.199215,1.2316432901749597
0 days 00:01:00.300000,-0.548584,0.971924,-0.464355,-77.163696,86.692802,49.926754,1.208803637013473
0 days 00:01:00.310000,-0.516113,0.969238,-0.392578,-65.315247,83.915703,44.586178,1.166152826818595
0 days 00:01:00.320000,-0.515869,0.962158,-0.365479,-52.581783,77.392578,41.572567,1.1512791762061885
0 days 00:01:00.330000,-0.552002,0.976074,-0.341309,-30.34973,50.926205,34.324646,1.17214269394174
0 days 00:01:00.340000,-0.465088,0.584473,0.366699,177.780136,-174.003586,-32.974243,0.832095963260248
0 days 00:01:00.350000,-0.30127,0.409424,0.073975,-249.992355,249.992355,57.441708,0.5136768685671956
0 days 00:01:00.360000,-0.388916,0.623291,0.550293,178.161606,-166.496262,-26.397703,0.9179159610694216
0 days 00:01:00.370000,0.79248,1.202393,1.034668,42.884823,79.772949,-90.049736,1.7732206143266551
0 days 00:01:00.380000,0.807617,0.670898,0.899658,-3.753662,-24.719236,-114.57061,1.3826546430895172
0 days 00:01:00.390000,-0.13208,-0.043701,0.820557,-210.685715,-172.470078,-193.580612,0.832267201113921
0 days 00:01:00.400000,-0.356201,3.257813,2.334229,-22.438047,-219.451889,-163.291916,4.0235369663780896
0 days 00:01:00.410000,-1.530762,1.28125,6.612061,249.992355,-50.910946,59.028622,6.906821593965273
0 days 00:01:00.420000,-2.918457,-4.733643,3.4646,-164.733871,212.097153,23.406981,6.551963100651438
0 days 00:01:00.430000,-0.144287,0.172852,0.125244,-249.992355,249.992355,5.783081,0.25764823269139653
0 days 00:01:00.440000,-0.011963,0.343506,0.277344,-249.992355,249.992355,23.994444,0.44165504609480005
0 days 00:01:00.450000,-0.039063,0.375,0.177246,-249.992355,249.992355,41.53442,0.4166138049621016
0 days 00:01:00.460000,-0.658691,0.529297,-0.000488,-249.984726,249.977097,75.515747,0.8450025951640622
0 days 00:01:00.470000,0.476318,1.522949,0.921143,40.817257,161.682114,-78.590393,1.8424866132957385
0 days 00:01:00.480000,-0.812256,0.633789,-0.204834,-249.626144,249.633774,81.459038,1.0504309942176118
0 days 00:01:00.490000,-0.555908,0.723389,-0.554199,-249.992355,249.992355,78.49884,1.067455798328905
0 days 00:01:00.500000,-0.35498,0.71875,-0.568115,-229.339584,229.576096,71.708679,0.9825309237499856
0 days 00:01:00.510000,-0.175293,0.703125,-0.511963,-201.950058,207.626328,63.827511,0.8872533543712303
0 days 00:01:00.520000,-0.197998,0.709473,-0.479004,-175.788864,192.558273,59.288021,0.8786352927973017
0 days 00:01:00.530000,-0.351807,0.746582,-0.5271,-149.475098,181.38121,60.287472,0.9792789479882635
0 days 00:01:00.540000,-0.42749,0.7854,-0.578857,-120.986931,171.56218,66.444397,1.0652118505485189
0 days 00:01:00.550000,-0.422363,0.811279,-0.625488,-94.619743,157.676697,73.0896,1.1080610803353759
0 days 00:01:00.560000,-0.413086,0.809326,-0.640381,-72.921753,138.000488,79.185486,1.1116368304590307
0 days 00:01:00.570000,-0.380859,0.787598,-0.599365,-53.421017,115.562431,83.793633,1.0604728146963505
0 days 00:01:00.580000,-0.4104,0.613525,0.455811,178.443893,-171.93602,-30.3421,0.8675279553685864
0 days 00:01:00.590000,-0.727051,0.69751,-0.427002,-249.992355,249.992355,81.665031,1.094282442838685
0 days 00:01:00.600000,0.192383,1.553711,0.607178,9.841919,199.089035,-15.029906,1.679194513418264
0 days 00:01:00.610000,-0.34082,0.766602,-0.538818,-30.97534,93.765251,86.09008,0.9970765948150624
0 days 00:01:00.620000,-0.645752,0.5354,0.414551,-73.371887,194.602951,40.298458,0.9356822842744219
0 days 00:01:00.630000,-0.203613,1.043457,0.410645,-49.255367,205.688461,39.749146,1.1396885893273656
0 days 00:01:00.640000,-0.364258,0.642822,0.695557,179.389938,-147.529602,-20.927427,1.0147430977823895
0 days 00:01:00.650000,-0.358154,0.62793,0.729736,176.147446,-137.290955,-16.708374,1.0271733068533275
0 days 00:01:00.660000,-0.390625,0.606934,0.78833,172.668442,-123.916618,-12.039184,1.0688409422739193
0 days 00:01:00.670000,-0.44165,0.616943,0.867432,173.301682,-102.287285,-4.547119,1.15243727047202
0 days 00:01:00.680000,-0.486572,0.629395,0.930176,174.499496,-71.998596,1.960754,1.223976212262722
0 days 00:01:00.690000,-0.524414,0.609375,1.023926,171.409592,-37.879944,3.189087,1.30183423963921
0 days 00:01:00.700000,-0.586182,0.628662,1.096191,167.625412,-12.290954,5.630493,1.3930039324599912
0 days 00:01:00.710000,-0.587158,0.618652,1.11792,158.164978,-9.483337,10.711669,1.4061400856486526
0 days 00:01:00.720000,-0.472168,0.507568,1.082031,132.30896,-29.08325,5.691528,1.2850521311639462
0 days 00:01:00.730000,-0.400879,0.446533,0.915527,99.746696,-53.604122,-1.51062,1.0946622220845112
0 days 00:01:00.740000,-0.387695,0.637695,0.644287,179.24498,-157.424927,-24.269102,0.9859351218102539
0 days 00:01:00.750000,-0.545898,0.494873,0.829102,56.617733,-76.629639,-1.251221,1.109195221291996
0 days 00:01:00.760000,-0.547607,0.568359,0.845947,38.124084,-66.436768,-2.914428,1.1569493100991934
0 days 00:01:00.770000,-0.583984,0.744873,0.848877,30.85327,-56.541439,-5.973815,1.2714028706566616
0 days 00:01:00.780000,-0.563965,0.886475,0.763916,32.165527,-57.571407,-12.451171,1.2990235186115762
0 days 00:01:00.790000,-0.588379,0.893555,0.6604,33.950806,-64.483643,-20.462034,1.2572822060563809
0 days 00:01:00.800000,-0.759766,0.757813,0.548096,24.711607,-71.281433,-27.244566,1.2049622993857525
0 days 00:01:00.810000,-1.071045,0.586914,0.574219,4.859924,-51.437374,-27.969358,1.3495676698046677
0 days 00:01:00.820000,-1.393555,0.455566,0.588135,-16.960144,6.622314,-16.174316,1.579695760773574
0 days 00:01:00.830000,-1.443115,0.359131,0.516113,-37.818909,80.703728,4.241943,1.5741437695315508
0 days 00:01:00.840000,-1.104736,0.341064,0.469482,-59.539791,150.131226,21.659849,1.247870037350044
0 days 00:01:00.850000,-0.486328,0.483887,0.810791,75.85907,-69.908142,-1.617432,1.0620939685517472
0 days 00:01:00.860000,-0.603027,0.949707,-0.314941,-60.646053,70.075989,44.990536,1.1682349002058618
0 days 00:01:00.870000,-0.611084,0.94458,-0.360107,-68.405151,84.213249,45.013424,1.1812417546400058
0 days 00:01:00.880000,-0.584229,0.933594,-0.365479,-78.277588,98.419182,45.288082,1.1603862204964346
0 days 00:01:00.890000,-0.772461,0.861572,-0.678711,-186.393723,120.674126,71.334839,1.34151068919558
0 days 00:01:00.900000,-0.575439,0.91333,-0.399902,-110.66436,107.910149,50.430294,1.1511834524631597
0 days 00:01:00.910000,-0.615234,0.895508,-0.455322,-131.141663,109.390251,56.53381,1.1780346244928457
0 days 00:01:00.920000,-0.647705,0.868652,-0.557373,-155.395508,115.509026,62.431332,1.218500195017629
0 days 00:01:00.930000,-0.929443,0.8479,-0.736328,-227.676376,126.678459,83.023064,1.4577302987291578
0 days 00:01:00.940000,-0.558594,0.922607,-0.364746,-92.483513,106.689445,46.630856,1.1385387906439552
0 days 00:01:00.950000,-0.596191,0.938721,-0.255127,-53.092953,57.647701,42.41943,1.1409340955773914
0 days 00:01:00.960000,-0.652588,0.925781,-0.23291,-8.033752,4.714966,19.332886,1.1563687239825367
0 days 00:01:00.970000,-0.606201,0.9375,-0.214111,-34.14917,37.68158,32.00531,1.1367626941107805
0 days 00:01:00.980000,-0.604492,0.935303,-0.21582,-24.864195,27.57263,27.725218,1.1343635009435908
0 days 00:01:00.990000,-0.622803,0.931641,-0.219727,-15.99121,16.433716,23.742674,1.14198007172586
0 days 00:01:01,-0.672852,0.912354,-0.23877,-0.999451,-6.439209,15.182494,1.1585036677197014
0 days 00:01:01.010000,-0.681152,0.898193,-0.239014,6.095886,-14.801024,10.513305,1.152322179144791
0 days 00:01:01.020000,-0.694092,0.880371,-0.242432,12.809752,-19.668579,6.393432,1.1469917509420022
0 days 00:01:01.030000,-0.705566,0.871826,-0.241943,19.996643,-25.184629,3.089905,1.1473623533483222
0 days 00:01:01.040000,-0.691162,0.874023,-0.25,28.533934,-30.326841,-0.099182,1.141981223476551
0 days 00:01:01.050000,-0.695313,0.873535,-0.256348,37.54425,-36.155701,-2.082825,1.145529511316928
0 days 00:01:01.060000,-0.99292,0.783447,-0.73877,-249.992355,133.68988,95.901482,1.4647390351557508
0 days 00:01:01.070000,-0.703369,0.873779,-0.23999,47.363277,-44.876095,-5.104064,1.1470888767231595
0 days 00:01:01.080000,-0.605225,0.935547,-0.220947,-44.006344,47.225948,36.987305,1.1359414890930781
0 days 00:01:01.090000,-1.037109,0.689941,-0.728271,-249.992355,139.305115,110.374443,1.4429110543630195
0 days 00:01:01.100000,-2.107422,1.005371,0.959717,90.904228,-36.865234,8.026123,2.524491048471751
0 days 00:01:01.110000,-0.86792,0.547607,-0.636963,-249.992355,170.845016,141.105652,1.2078412214434477
0 days 00:01:01.120000,-0.680176,0.878906,-0.219971,58.555599,-53.405758,-9.643555,1.1329176442500135
0 days 00:01:01.130000,-0.417725,0.733398,0.50293,-2.029419,4.882813,-62.652584,0.9824995607780189
0 days 00:01:01.140000,-0.471191,0.604004,0.526611,-5.294799,-23.269651,-76.965332,0.9296025687453752
0 days 00:01:01.150000,-0.487793,0.438232,0.520996,-13.267516,-37.895203,-76.301575,0.8375118677899436
0 days 00:01:01.160000,-0.549316,0.273193,0.520264,-28.625486,-31.738279,-62.385555,0.804398603181905
0 days 00:01:01.170000,-0.618164,0.136475,0.523926,-61.202999,-4.096985,-43.228146,0.8217363384912463
0 days 00:01:01.180000,-0.561768,0.112793,0.465088,-102.60009,33.126831,-47.554012,0.7379785866927305
0 days 00:01:01.190000,-0.507568,0.313232,0.328857,-122.566216,55.52673,-88.760368,0.6810921280539073
0 days 00:01:01.200000,-0.365967,0.741455,0.218262,-117.774956,46.165462,-110.755913,0.85517580809913
0 days 00:01:01.210000,0.012207,1.353516,0.329102,-88.470451,-8.262634,-52.764889,1.3930049172594474
0 days 00:01:01.220000,-1.003418,0.602539,-0.69458,-249.481186,152.626038,124.824516,1.3610078271799173
0 days 00:01:01.230000,0.406738,1.937988,0.515381,-7.820129,-89.164726,3.089905,2.046179577639509
0 days 00:01:01.240000,-0.589844,1.246094,0.29541,137.382507,-159.637451,-100.013725,1.40994087438871
0 days 00:01:01.250000,-2.780518,0.39624,1.265137,-122.894279,142.669678,50.468441,3.0803990187462724
0 days 00:01:01.260000,-1.393066,1.549316,2.210449,-194.450363,249.29808,-209.922775,3.0376138217049578
0 days 00:01:01.270000,1.662109,3.844482,6.895752,249.992355,249.992355,-123.565666,8.068087990454059
0 days 00:01:01.280000,1.829834,-5.358154,5.585693,24.475096,181.38884,224.205002,7.953494392122308
0 days 00:01:01.290000,-0.51123,-0.867432,-1.026123,-249.992355,116.355888,165.847763,1.4376100996629788
0 days 00:01:01.300000,-0.478271,0.307373,-0.081543,-249.992355,145.713806,175.956711,0.5743436004858068
0 days 00:01:01.310000,-0.512451,0.374268,-0.134766,-249.992355,166.801437,177.268967,0.6487252407460341
0 days 00:01:01.320000,-0.57251,0.456543,-0.293945,-249.992355,180.37413,169.03685,0.7890518829418
0 days 00:01:01.330000,-0.703613,0.513916,-0.501709,-249.992355,181.953415,156.341553,1.0054316632700604
0 days 00:01:01.340000,0.362061,1.852539,0.406982,95.390312,-156.227112,-56.938168,1.9309643348767476
0 days 00:01:01.350000,-0.429932,0.752686,0.463379,-4.135132,37.010193,-41.732784,0.9829027606335226
0 days 00:01:01.360000,-0.647705,0.880127,-0.205566,69.496155,-59.608456,-13.122558,1.1119364565972283
0 days 00:01:01.370000,-0.624023,0.88916,-0.174072,92.880241,-77.476501,-20.668028,1.1001414778622791
0 days 00:01:01.380000,-0.452393,0.388184,1.26001,172.584518,-45.219418,-25.787352,1.393905105954132
0 days 00:01:01.390000,-0.52002,0.110596,1.363037,152.954102,-55.488583,-22.033689,1.4630523363793246
0 days 00:01:01.400000,-0.498779,-0.124756,1.383301,94.78759,-45.471188,-9.94873,1.4757595356215725
0 days 00:01:01.410000,-0.657227,0.070068,1.227783,44.425961,-24.963377,3.829956,1.3943844338065454
0 days 00:01:01.420000,-0.916504,0.385498,0.956055,18.318176,-14.328002,11.657714,1.3793583483072844
0 days 00:01:01.430000,-0.979736,0.580811,0.755127,2.624511,-5.897521,6.500244,1.3665433888267142
0 days 00:01:01.440000,-0.959473,0.719727,0.554443,-1.564026,-0.061035,-8.171082,1.3213638531861693
0 days 00:01:01.450000,-0.810059,0.795898,0.484863,1.052856,6.431579,-22.216795,1.2348041701638361
0 days 00:01:01.460000,-0.580078,0.847168,0.557617,6.050109,12.603759,-30.548094,1.168383851735807
0 days 00:01:01.470000,-0.464111,0.889893,0.686035,9.490967,12.252807,-39.039612,1.21571073574062
0 days 00:01:01.480000,-0.3479,0.501709,1.138428,170.974716,-33.111572,-22.453306,1.2918067354929683
0 days 00:01:01.490000,-0.493896,0.847656,0.696533,10.467528,5.302429,-47.95837,1.203167558256538
0 days 00:01:01.500000,-0.84668,0.47998,0.569824,-10.406493,7.034301,-56.747433,1.1278063724664797
0 days 00:01:01.510000,-1.063232,0.369385,0.627686,-24.215696,38.513184,-53.672787,1.2887580372765866
0 days 00:01:01.520000,-1.038818,0.276123,0.693115,-32.020569,77.941895,-54.779049,1.2789820762927055
0 days 00:01:01.530000,-0.727539,0.136719,0.697754,-54.718014,87.387077,-77.728271,1.0172835032565897
0 days 00:01:01.540000,-0.460205,0.219238,0.571045,-125.90789,41.976925,-61.492916,0.765471315395946
0 days 00:01:01.550000,-0.184326,0.765869,0.570801,-168.441757,-23.826597,0.37384,0.9728027451842435
0 days 00:01:01.560000,-0.032227,1.681885,0.750732,-77.514648,-52.909847,-14.747619,1.8421113616114528
0 days 00:01:01.570000,-0.249023,2.31665,0.958008,111.129753,-24.833677,-117.34771,2.5192576297578224
0 days 00:01:01.580000,-0.530029,1.833008,1.058594,181.991562,76.011658,-179.306015,2.182079358259227
0 days 00:01:01.590000,-1.0625,0.618408,0.769775,54.702755,148.231506,-142.036438,1.450478629656087
0 days 00:01:01.600000,-0.633301,0.673828,0.602539,3.669739,-1.121521,-53.733822,1.103706290960598
0 days 00:01:01.610000,-0.324463,0.5979,1.031494,177.299484,-31.112669,-23.338316,1.2356134186730896
0 days 00:01:01.620000,-0.631836,0.886475,-0.183105,80.80291,-67.428589,-16.426086,1.1038940608346435
0 days 00:01:01.630000,-0.358154,0.701172,0.921387,183.78447,-39.077759,-38.726807,1.2119696634276784
0 days 00:01:01.640000,-0.634766,0.89502,-0.162109,104.751579,-88.287346,-23.750303,1.109174469160285
0 days 00:01:01.650000,-0.647217,0.906982,-0.141113,116.706841,-97.877495,-26.779173,1.1231291431451684
0 days 00:01:01.660000,-0.655029,0.924805,-0.11377,129.356384,-106.788628,-30.6015,1.1389780031967254
0 days 00:01:01.670000,-0.668701,0.944092,-0.084229,144.683838,-117.607109,-33.401489,1.159985024173157
0 days 00:01:01.680000,-0.661621,0.929932,-0.060791,159.347534,-127.30407,-33.981323,1.142896066117125
0 days 00:01:01.690000,-0.6604,0.888916,-0.046143,169.441208,-133.964539,-36.224365,1.1083451590118485
0 days 00:01:01.700000,-0.328125,0.689453,0.955811,185.333237,-34.446716,-31.585691,1.2233503678648239
0 days 00:01:01.710000,-0.641113,0.814697,0.034668,180.595383,-135.704041,-45.082088,1.0372844117222624
0 days 00:01:01.720000,-0.640381,0.818115,0.044189,184.745773,-134.101868,-46.455379,1.0398810730593187
0 days 00:01:01.730000,-0.656006,0.816162,0.027344,191.33757,-131.698608,-47.142025,1.0474788669066313
0 days 00:01:01.740000,-0.656006,0.7771,0.030762,193.542465,-122.711174,-48.233028,1.017435296556985
0 days 00:01:01.750000,-0.663574,0.841553,-0.002686,176.498398,-137.130737,-41.275021,1.0717038396315468
0 days 00:01:01.760000,-0.665283,0.640625,0.156006,183.082565,-96.527092,-52.61993,0.9366641515239067
0 days 00:01:01.770000,-0.639648,0.599609,0.287354,180.63353,-84.136955,-50.643917,0.9226336424068873
0 days 00:01:01.780000,-0.616455,0.589844,0.352539,178.413376,-77.690125,-47.363277,0.9231557061958724
0 days 00:01:01.790000,-0.555908,0.606689,0.378418,178.703293,-76.797485,-47.424313,0.9057071435673896
0 days 00:01:01.800000,-0.472656,0.614746,0.422607,182.14415,-76.820374,-49.552914,0.8831268398712612
0 days 00:01:01.810000,-0.435059,0.579102,0.490479,182.212814,-74.714661,-49.774166,0.8747600295658233
0 days 00:01:01.820000,-0.463867,0.526855,0.594482,175.682053,-71.144104,-45.44067,0.9198682693940474
0 days 00:01:01.830000,-0.476074,0.511963,0.697021,169.570908,-63.3316,-40.145874,0.9872136755971324
0 days 00:01:01.840000,-0.443848,0.549805,0.781494,170.211777,-53.314205,-39.497375,1.053574609206676
0 days 00:01:01.850000,-0.402588,0.630859,0.869873,176.528915,-45.379635,-40.870663,1.1474925759036527
0 days 00:01:01.860000,-0.674561,0.707275,0.068848,188.232407,-110.115044,-50.86517,0.9798012632416842
0 days 00:01:01.870000,-0.255859,-0.790039,0.040527,-208.824142,109.359734,-249.992355,0.831425214394536
0 days 00:01:01.880000,-0.244629,-0.961426,-0.046631,-224.678024,122.573845,-249.992355,0.9931554517184105
0 days 00:01:01.890000,-0.343262,-1.216309,-0.044434,-244.14061,131.195068,-249.992355,1.2645990528546984
0 days 00:01:01.900000,-0.699463,-1.585938,0.091797,-249.992355,132.263184,-249.992355,1.7357633817493674
0 days 00:01:01.910000,-0.731934,-2.427734,0.239502,-249.992355,-124.931328,-249.992355,2.5469552338264605
0 days 00:01:01.920000,-1.309082,-2.062744,0.137207,-249.839767,67.985535,-249.992355,2.446923426082026
0 days 00:01:01.930000,-1.125977,-2.235352,0.212646,-249.992355,-7.308959,-249.992355,2.5119397066309133
0 days 00:01:01.940000,-0.905518,-2.382568,0.218262,-249.992355,-74.897766,-249.992355,2.558169545513354
0 days 00:01:01.950000,-1.185547,-1.91333,0.146973,-249.992355,115.966789,-249.992355,2.255649449900848
0 days 00:01:01.960000,-0.233398,-0.638672,0.123291,-191.421494,90.530388,-249.992355,0.6910696207105331
0 days 00:01:01.970000,-0.195313,0.154785,0.332764,-17.295837,-20.477293,-178.352341,0.41573722937692265
0 days 00:01:01.980000,-0.194092,-0.406982,0.156738,-153.938293,55.534359,-249.992355,0.4773602972933547
0 days 00:01:01.990000,-0.22168,-0.330811,0.186279,-135.192871,42.152401,-249.992355,0.4396337179539349
0 days 00:01:02,-0.256592,-0.268555,0.215332,-116.607658,32.554626,-249.816879,0.42933566438510556
0 days 00:01:02.010000,-0.290527,-0.224121,0.23999,-99.922173,24.124144,-249.992355,0.43844196933003576
0 days 00:01:02.020000,-0.286621,-0.175049,0.293945,-85.700981,14.648437,-249.992355,0.44631537399802845
0 days 00:01:02.030000,-0.22876,-0.105957,0.343262,-72.753906,5.294799,-239.700302,0.4258953205812433
0 days 00:01:02.040000,-0.17334,-0.029297,0.32959,-59.898373,-3.555298,-225.601181,0.3735433547916493
0 days 00:01:02.050000,-0.161621,0.027344,0.314453,-47.485348,-11.161803,-211.456284,0.35461208550471035
0 days 00:01:02.060000,-0.17334,0.079346,0.316406,-35.873413,-16.532898,-198.27269,0.3693985654438848
0 days 00:01:02.070000,-0.185547,0.121094,0.326172,-25.619505,-19.584656,-187.18718,0.3943090407649817
0 days 00:01:02.080000,-0.790771,-2.427246,0.372803,-249.992355,-176.795944,-249.992355,2.5798883688574588
0 days 00:01:02.090000,-0.190674,-0.507813,0.142334,-172.615036,72.181702,-249.992355,0.560793709666041
0 days 00:01:02.100000,-0.932617,-2.304688,0.395752,-249.992355,-232.612595,-249.992355,2.517534685269897
0 days 00:01:02.110000,-0.178711,-1.347412,0.333984,-44.883724,189.613327,92.52166,1.3996435373054812
0 days 00:01:02.120000,-0.66626,-1.863037,-0.010254,-249.80925,-249.992355,-241.798386,1.978614261417571
0 days 00:01:02.130000,-0.221191,0.180176,0.355957,-10.032654,-19.554138,-168.556198,0.456173470629321
0 days 00:01:02.140000,-0.451904,-0.948242,0.024658,-26.618956,233.711227,4.577637,1.050708395675984
0 days 00:01:02.150000,-0.539551,-0.879883,0.07666,-36.399841,223.815903,3.074646,1.034981222481838
0 days 00:01:02.160000,-0.557617,-0.841309,0.08667,-44.792171,218.856796,8.094788,1.0130396048871928
0 days 00:01:02.170000,-0.540771,-0.831299,0.111572,-52.825924,216.804489,16.639709,0.997967741475645
0 days 00:01:02.180000,-0.619141,-0.83374,0.118164,-58.92181,220.558151,30.403135,1.0451893112623187
0 days 00:01:02.190000,-0.690186,-0.887451,0.114258,-66.78009,230.194077,47.950741,1.1300357881770824
0 days 00:01:02.200000,-0.68042,-0.979248,0.133545,-74.882507,240.882858,61.340328,1.1998884485355295
0 days 00:01:02.210000,-0.650635,-1.063232,0.172852,-81.169121,246.696457,72.639465,1.25843792177167
0 days 00:01:02.220000,-0.613037,-1.111084,0.231934,-85.823051,247.329697,83.076469,1.2900059685059602
0 days 00:01:02.230000,-0.910156,-2.084473,0.221191,-249.992355,-249.992355,-249.992355,2.2852433328960835
0 days 00:01:02.240000,-0.594238,-1.113037,0.298096,-84.030144,241.470322,95.657341,1.2964688153708133
0 days 00:01:02.250000,-0.346924,-1.178223,0.381592,-54.458614,215.888962,106.37664,1.2861485738315772
0 days 00:01:02.260000,-0.087891,-1.490479,0.258789,-45.097347,156.990051,72.013855,1.5153297409616824
0 days 00:01:02.270000,-0.066895,-1.458008,0.180176,-48.027035,119.140617,50.247189,1.470620841707678
0 days 00:01:02.280000,-0.058594,-1.282471,0.094971,-47.622677,79.627991,30.3421,1.2873168271711513
0 days 00:01:02.290000,-0.074707,-1.085449,0.025879,-40.985104,37.04071,9.048462,1.0883245793838345
0 days 00:01:02.300000,-0.145752,-0.969238,-0.052002,-37.391663,-12.535094,-16.731262,0.9815142149515718
0 days 00:01:02.310000,-0.247803,-0.999512,-0.159668,-51.055904,-67.955017,-49.011227,1.0420769814063642
0 days 00:01:02.320000,-0.314453,-1.14624,-0.239258,-85.784904,-125.251762,-89.134209,1.2124319433984738
0 days 00:01:02.330000,-0.34082,-1.374756,-0.25,-143.363953,-185.943588,-137.969971,1.438267128156658
0 days 00:01:02.340000,-0.426514,-1.63501,-0.176758,-217.613205,-238.174423,-194.793686,1.6989453442827407
0 days 00:01:02.350000,-0.514648,-1.105957,0.358643,-71.586609,232.261642,106.109612,1.2714669681914665
0 days 00:01:02.360000,-0.263428,0.195313,0.395752,-3.028869,-15.342711,-156.486511,0.5139660734494058
0 days 00:01:02.370000,-0.419189,-1.038574,0.016357,-16.296387,248.138412,7.400512,1.1200995146173398
0 days 00:01:02.380000,-0.360596,0.206299,0.477539,7.415771,4.79126,-133.132935,0.6329551715074299
0 days 00:01:02.390000,-0.830811,0.265137,0.726807,-14.85443,-64.51416,-65.132141,1.1352501758374671
0 days 00:01:02.400000,-0.832764,0.278076,0.699707,-21.133421,-61.614986,-64.285278,1.1226807325865176
0 days 00:01:02.410000,-0.920654,0.305176,0.666748,-27.130125,-55.595394,-69.923401,1.176983039043469
0 days 00:01:02.420000,-0.984131,0.36499,0.660645,-28.541563,-47.531124,-77.888489,1.2402351959551865
0 days 00:01:02.430000,-0.940918,0.417725,0.646484,-23.498533,-42.953487,-85.151665,1.2156325187345887
0 days 00:01:02.440000,-0.818604,0.432617,0.621582,-18.470764,-43.05267,-90.370171,1.1151834648294423
0 days 00:01:02.450000,-0.696777,0.44751,0.616943,-15.830993,-45.06683,-92.14782,1.0326577618349655
0 days 00:01:02.460000,-0.618164,0.460938,0.650635,-11.230468,-44.120785,-88.119499,1.008918467451657
0 days 00:01:02.470000,-0.598145,0.414795,0.700439,-10.375976,-33.866882,-80.169678,1.0101718298245106
0 days 00:01:02.480000,-0.637695,0.345215,0.752197,-19.584656,-13.381957,-70.320129,1.0448103349694624
0 days 00:01:02.490000,-0.850342,0.281982,0.744629,-8.369446,-64.567566,-65.666199,1.1649324928634277
0 days 00:01:02.500000,-0.712891,0.348389,0.825684,-30.128477,9.857178,-58.372494,1.14513865582208
0 days 00:01:02.510000,-0.572754,0.547852,0.876221,-9.597778,61.843868,-35.087585,1.1815042104288076
0 days 00:01:02.520000,-0.473145,0.581543,0.785645,5.79071,92.452995,-27.94647,1.085954196961824
0 days 00:01:02.530000,-0.450684,0.568115,0.712891,13.09204,114.06707,-23.246763,1.0168993553749555
0 days 00:01:02.540000,-0.4375,0.52417,0.633301,13.404845,122.390739,-20.690916,0.931252165367147
0 days 00:01:02.550000,-0.429199,0.490479,0.588379,10.292052,118.637077,-20.698545,0.8780497017156831
0 days 00:01:02.560000,-0.443604,0.484863,0.568848,6.187438,107.734673,-22.109983,0.8691747147087288
0 days 00:01:02.570000,-0.464844,0.495361,0.543945,1.754761,96.67205,-24.986265,0.8702520483641506
0 days 00:01:02.580000,-0.493164,0.534912,0.50708,-2.441406,88.61541,-28.999327,0.8868323996336624
0 days 00:01:02.590000,-0.523682,0.60498,0.471924,-5.317688,80.848686,-30.532835,0.9289541965565363
0 days 00:01:02.600000,-0.503662,0.686523,0.453369,-6.088256,64.811707,-30.97534,0.9646412234266168
0 days 00:01:02.610000,-0.70874,0.445801,0.908691,-26.405333,33.065796,-45.295712,1.2356254499976926
0 days 00:01:02.620000,-0.773193,0.328125,0.784912,-2.693176,-59.921261,-60.539242,1.149600051590987
0 days 00:01:02.630000,-0.312744,0.199219,0.439941,2.89154,-6.088256,-144.40918,0.5753651909683102
0 days 00:01:02.640000,-0.68042,0.368408,0.787598,0.694275,-46.913143,-51.887508,1.1040862468430626
0 days 00:01:02.650000,-0.400146,0.219482,0.522461,11.909484,11.856078,-122.459404,0.6937252094028297
0 days 00:01:02.660000,-0.413818,0.22876,0.56543,16.25061,13.763427,-112.716667,0.7370804295489062
0 days 00:01:02.670000,-0.404785,0.243164,0.599609,19.508362,12.71057,-104.255669,0.7632238072819794
0 days 00:01:02.680000,-0.410889,0.257813,0.602295,22.613523,9.132385,-96.80175,0.7733411797615591
0 days 00:01:02.690000,-0.42749,0.260498,0.59082,25.062559,5.004883,-89.462273,0.7743869707736565
0 days 00:01:02.700000,-0.446289,0.259766,0.614502,25.856016,1.464844,-82.633965,0.8026611702835761
0 days 00:01:02.710000,-0.709961,0.354004,0.819824,1.174927,-53.962704,-55.168148,1.1408220038695782
0 days 00:01:02.720000,-0.473877,0.2771,0.673828,25.726316,-4.753113,-70.144653,0.8691305970410891
0 days 00:01:02.730000,-0.477051,0.275391,0.691162,25.230406,-8.834839,-64.27002,0.8838115012410735
0 days 00:01:02.740000,-0.485107,0.26709,0.717529,22.186277,-12.870788,-59.577938,0.9063739489802208
0 days 00:01:02.750000,-0.519287,0.263672,0.728271,16.899109,-14.595031,-53.283688,0.9325023117365447
0 days 00:01:02.760000,-0.464111,0.269287,0.650879,25.55847,-1.625061,-76.553345,0.8435389625447066
0 days 00:01:02.770000,-0.567383,0.289795,0.724854,8.255005,-21.865843,-36.224365,0.9650481501096202
0 days 00:01:02.780000,-0.569336,0.267334,0.717773,11.146544,-16.052246,-43.594357,0.9543631530926788
0 days 00:01:02.790000,-0.800293,0.405029,0.718018,-7.072448,-36.4151,-32.585144,1.1489417848672752
0 days 00:01:02.800000,-0.80957,0.399658,0.788086,-10.787963,-41.168209,-30.311583,1.1984196448907203
0 days 00:01:02.810000,-0.712402,0.376709,0.793457,-12.565612,-53.741451,-36.66687,1.1309289505243023
0 days 00:01:02.820000,-0.666504,0.356689,0.806396,-11.45172,-66.444397,-38.993835,1.105318566546767
0 days 00:01:02.830000,-0.707031,0.384277,0.705322,-3.067016,-39.69574,-43.495174,1.0700657789939831
0 days 00:01:02.840000,-0.53833,0.343506,0.824707,-1.38092,-71.327209,-36.590576,1.043042279481038
0 days 00:01:02.850000,-0.493164,0.326172,0.830078,2.822876,-64.292908,-37.536621,1.0191311939902536
0 days 00:01:02.860000,-0.491455,0.321777,0.789307,6.660461,-49.72076,-37.658691,0.9839075134396525
0 days 00:01:02.870000,-0.520752,0.319092,0.750488,8.255005,-33.874512,-35.369873,0.9675921600095776
0 days 00:01:02.880000,-0.621582,0.348633,0.8125,-7.057189,-71.647644,-36.911011,1.0807707441511358
0 days 00:01:02.890000,-0.189697,-1.02124,0.046387,3.158569,-13.229369,4.104614,1.0397441238968363
0 days 00:01:02.900000,-0.198242,-1.029297,0.040527,0.984192,-11.848449,6.706237,1.0489969697296555
0 days 00:01:02.910000,-0.197998,-1.030273,0.04248,-0.915527,-10.025024,9.32312,1.0499858155865724
0 days 00:01:02.920000,-0.192627,-1.025879,0.050293,-1.983642,-8.018494,11.276244,1.0450178322014414
0 days 00:01:02.930000,-0.190674,-1.025879,0.054443,-2.349854,-6.019592,12.054442,1.044867617052993
0 days 00:01:02.940000,-0.196777,-1.031006,0.05542,-2.838135,-3.883362,11.901855,1.0510784633722643
0 days 00:01:02.950000,-0.210205,-1.033936,0.049561,-3.601074,-1.182556,11.116027,1.0562509582679676
0 days 00:01:02.960000,-0.223877,-1.037354,0.04248,-4.745483,2.372742,9.819031,1.062086994009907
0 days 00:01:02.970000,-0.241455,-1.033936,0.032959,-5.805969,6.736755,8.163452,1.062266663697021
0 days 00:01:02.980000,-0.256348,-1.019287,0.026611,-5.805969,11.993407,5.897521,1.0513650321339398
0 days 00:01:02.990000,-0.089355,-0.976563,0.010254,8.911133,30.395506,-3.845215,0.9806960556207004
0 days 00:01:03,-0.260986,-0.999756,0.036621,-4.417419,24.337767,2.433777,1.033908530467275
0 days 00:01:03.010000,-0.265381,-0.996826,0.035156,-4.341125,31.364439,1.533508,1.0321458684570703
0 days 00:01:03.020000,-0.261963,-0.989746,0.03418,-4.135132,38.856506,1.716614,1.0243973986129602
0 days 00:01:03.030000,-0.256836,-0.977051,0.032959,-3.166198,45.799252,2.731323,1.010781718858231
0 days 00:01:03.040000,-0.238525,-0.965332,0.036133,-1.266479,51.61285,3.967285,0.9950204216688218
0 days 00:01:03.050000,-0.214844,-0.952393,0.038818,1.502991,55.442806,4.631042,0.9770963145509249
0 days 00:01:03.060000,-0.181152,-0.949463,0.034912,3.952026,56.15234,4.40979,0.9672201834210243
0 days 00:01:03.070000,-0.143311,-0.954346,0.029785,5.371093,52.848812,2.624511,0.9655058138934224
0 days 00:01:03.080000,-0.122559,-0.958008,0.030029,6.66809,46.501156,0.053406,0.9662824521774159
0 days 00:01:03.090000,-0.106689,-0.965332,0.017822,8.056641,39.276123,-2.037048,0.9713732735817884
0 days 00:01:03.100000,-0.18335,-1.010254,0.04834,4.898071,-14.48059,1.754761,1.0278945094784775
0 days 00:01:03.110000,-0.261963,-1.006348,0.030518,-5.073547,17.852783,3.990173,1.0403327634930086
0 days 00:01:03.120000,-0.18042,-0.99585,0.046631,5.699157,-15.61737,-0.045776,1.0131352570417238
0 days 00:01:03.130000,-0.210205,-0.977539,0.02832,-1.617432,-10.848998,-7.118225,1.0002852897778713
0 days 00:01:03.140000,-0.181396,-0.991943,0.036377,5.92041,-18.173218,-4.524231,1.0090484181613883
0 days 00:01:03.150000,-0.064209,-0.984375,0.003174,9.460449,19.264221,-5.508422,0.986472001925042
0 days 00:01:03.160000,-0.158447,-1.033203,0.044434,0.335693,4.150391,1.289368,1.0462257267788821
0 days 00:01:03.170000,-0.157471,-1.026855,0.047119,-1.266479,1.777649,2.319336,1.0399271642894037
0 days 00:01:03.180000,-0.160645,-1.023193,0.050049,-2.799988,-0.183105,3.044128,1.0369356940885968
0 days 00:01:03.190000,-0.167236,-1.015869,0.046387,-3.974914,-1.464844,3.39508,1.0305869486006505
0 days 00:01:03.200000,-0.170898,-1.010498,0.044922,-4.981995,-2.037048,3.578186,1.0258315263687308
0 days 00:01:03.210000,-0.176514,-1.007813,0.043701,-5.577087,-2.120972,3.486633,1.0240869165095314
0 days 00:01:03.220000,-0.182861,-0.998535,0.041992,-5.699157,-2.456665,2.609253,1.016008671030912
0 days 00:01:03.230000,-0.178955,-0.987305,0.046875,-5.264282,-3.601074,0.442505,1.0044865955676063
0 days 00:01:03.240000,-0.17627,-0.974365,0.044434,-4.402161,-5.79071,-2.426147,0.9911774041416602
0 days 00:01:03.250000,-0.181885,-0.990967,0.042236,6.011962,-16.746521,-2.082825,1.0084054878916515
0 days 00:01:03.260000,-0.182861,-0.968262,0.037354,-3.135681,-8.148193,-5.264282,0.9860855780717006
0 days 00:01:03.270000,-0.206055,-0.976318,0.027588,-1.792908,-10.032654,-7.118225,0.9982066909678576
0 days 00:01:03.280000,-0.214111,-0.970703,0.033447,-0.816345,-11.535644,-7.011413,0.99459868104628
0 days 00:01:03.290000,-0.220459,-0.965332,0.033936,0.617981,-11.489867,-7.04956,0.9907672244281196
0 days 00:01:03.300000,-0.201172,-0.966553,0.03418,2.204895,-11.840819,-7.6828,0.9878578580914361
0 days 00:01:03.310000,-0.158936,-0.970947,0.037842,3.967285,-13.557433,-8.705139,0.9845967427678196
0 days 00:01:03.320000,-0.143066,-0.974121,0.0354,5.813598,-15.86914,-9.170532,0.9852069645495813
0 days 00:01:03.330000,-0.153076,-0.98291,0.029297,6.378173,-17.89856,-8.918762,0.995189752803454
0 days 00:01:03.340000,-0.162598,-0.984619,0.02832,5.836486,-19.40918,-8.750916,0.9983560022181466
0 days 00:01:03.350000,-0.167969,-0.986328,0.027344,5.516052,-19.706726,-8.239746,1.0009016949136413
0 days 00:01:03.360000,-0.172852,-0.991455,0.030518,5.645751,-19.264221,-6.767272,1.0068724741758512
0 days 00:01:03.370000,-0.194336,-0.970459,0.03125,-2.075195,-9.498596,-6.851196,0.9902190232857577
0 days 00:01:03.380000,-0.158447,-1.039551,0.044678,2.029419,6.958007,0.419617,1.0525055140444632
0 days 00:01:03.390000,-0.032227,-0.990234,0.001221,9.94873,4.570007,-6.767272,0.9907590247512257
0 days 00:01:03.400000,-0.00708,-0.983643,-0.009766,11.299132,-29.869078,-6.050109,0.9837169575670637
0 days 00:01:03.410000,-0.198975,-0.94751,-0.136475,29.357908,-247.306808,-65.307617,0.977748268395296
0 days 00:01:03.420000,-0.22168,-0.950195,-0.135986,28.884886,-249.992355,-64.559937,0.9851419961716179
0 days 00:01:03.430000,-0.238525,-0.960449,-0.114746,28.70178,-249.992355,-61.592098,0.996254536623046
0 days 00:01:03.440000,-0.254639,-0.982666,-0.104004,28.602598,-249.992355,-55.358883,1.0204363379912538
0 days 00:01:03.450000,-0.241455,-1.013184,-0.103516,26.840208,-249.748215,-49.995419,1.0466890164404135
0 days 00:01:03.460000,-0.20459,-1.049805,-0.10791,20.988462,-249.992355,-47.424313,1.0749847320892516
0 days 00:01:03.470000,-0.204834,-1.060791,-0.103271,14.022826,-249.992355,-39.169312,1.085310744753778
0 days 00:01:03.480000,-0.313232,-1.046387,-0.080322,9.429932,-239.761337,-24.856565,1.0952130675247624
0 days 00:01:03.490000,-0.479736,-1.052979,-0.047363,5.966186,-209.541306,-9.536743,1.1580823191405696
0 days 00:01:03.500000,-0.556396,-1.078857,0.056885,1.167297,-132.865906,16.052246,1.2152139064749052
0 days 00:01:03.510000,-0.179932,-0.929443,-0.130615,28.785704,-232.16246,-62.088009,0.9556673548353527
0 days 00:01:03.520000,-0.584229,-1.074219,0.097656,0.366211,-91.850273,25.695799,1.2267056202439117
0 days 00:01:03.530000,-0.667236,-1.036133,0.116699,3.105163,-8.666992,36.308289,1.2378990790795508
0 days 00:01:03.540000,-0.696777,-1.023926,0.095459,6.156921,34.820557,39.466858,1.242189623964876
0 days 00:01:03.550000,-0.747803,-1.003906,0.081055,9.552002,81.192009,40.374752,1.2544347319290867
0 days 00:01:03.560000,-0.818115,-0.9646,0.082031,15.624999,130.081177,43.762203,1.2674756006274834
0 days 00:01:03.570000,-0.914795,-0.906738,0.102295,28.259275,182.113632,56.137081,1.2920866688012844
0 days 00:01:03.580000,-0.976563,-0.901855,0.096924,40.573116,231.025681,61.347958,1.3328210666739928
0 days 00:01:03.590000,-0.873779,-0.98584,0.033203,36.560059,249.93132,45.387264,1.3177528924840196
0 days 00:01:03.600000,-0.658447,-1.072754,-0.026611,16.296387,249.839767,26.05438,1.2589923517027417
0 days 00:01:03.610000,-0.467041,-1.092529,0.000244,-4.089355,249.992355,12.794494,1.1881695885091488
0 days 00:01:03.620000,-0.017578,-0.991699,-0.001465,10.528563,-12.46643,-6.874084,0.9918558559135496
0 days 00:01:03.630000,-0.63501,-1.051025,0.11499,1.358032,-50.376888,32.188416,1.2333344845681564
0 days 00:01:03.640000,-0.182617,-0.918457,-0.135254,25.146482,-216.438278,-58.212276,0.9461531979832863
0 days 00:01:03.650000,-0.544434,-1.070801,0.006348,2.944946,-172.401413,4.188538,1.2012757631206084
0 days 00:01:03.660000,-0.163818,-0.881592,-0.156006,17.723083,-193.527206,-49.003597,0.91015309900258
0 days 00:01:03.670000,0.013428,-0.973877,-0.010498,13.244628,-47.20306,-4.821777,0.9740261445756987
0 days 00:01:03.680000,-0.164551,-0.903564,-0.138672,21.217344,-204.513535,-54.527279,0.9288352153536169
0 days 00:01:03.690000,0.034912,-0.989502,-0.010498,14.396667,-64.285278,-3.532409,0.990173350354371
0 days 00:01:03.700000,0.056885,-1.021973,-0.025879,14.678954,-82.206718,-0.900268,1.0238820433013756
0 days 00:01:03.710000,0.060059,-1.064453,-0.042236,13.72528,-99.586479,4.867554,1.0669822643258884
0 days 00:01:03.720000,0.01416,-1.11377,-0.063721,10.238647,-111.785881,13.099669,1.1156811750410598
0 days 00:01:03.730000,-0.027344,-1.149414,-0.088135,4.005432,-114.677422,19.523621,1.15311231714738
0 days 00:01:03.740000,-0.053223,-1.114746,-0.094482,0.160217,-120.986931,33.187866,1.1200081162960382
0 days 00:01:03.750000,-0.072021,-1.078369,-0.094482,0.37384,-127.120964,34.53064,1.0848933463368644
0 days 00:01:03.760000,-0.003906,-1.045654,-0.101807,2.861023,-131.912231,32.684326,1.0506056395246506
0 days 00:01:03.770000,-0.013428,-1.058594,-0.078125,0.511169,-147.003174,33.828735,1.0615578569465727
0 days 00:01:03.780000,-0.025635,-1.133789,-0.095947,1.312256,-114.730827,26.222227,1.1381302546523397
0 days 00:01:03.790000,-0.128662,-1.011963,-0.121094,-0.541687,-141.639709,22.430418,1.0272715222612763
0 days 00:01:03.800000,-0.189209,-0.867676,-0.177246,14.907836,-185.264572,-41.801449,0.9055814878700867
0 days 00:01:03.810000,-0.105957,-1.047607,-0.09375,-3.013611,-150.787354,30.548094,1.0571170109301997
0 days 00:01:03.820000,-0.193848,-0.849121,-0.185791,10.391234,-170.005783,-28.861998,0.8905626398103617
0 days 00:01:03.830000,-0.196777,-0.861328,-0.184814,7.598876,-160.690292,-21.934507,0.9026424130900342
0 days 00:01:03.840000,-0.209717,-0.892822,-0.179443,3.936767,-153.259277,-15.403747,0.934511708873677
0 days 00:01:03.850000,-0.201172,-0.854004,-0.177246,12.687682,-179.023727,-35.324097,0.8951028712477689
0 days 00:01:03.860000,-0.180176,-0.975586,-0.166016,-0.961304,-140.289307,-1.548767,1.0058790914558269
0 days 00:01:03.870000,-0.175049,-0.988281,-0.150146,-0.038147,-137.916565,6.912231,1.0148326505774241
0 days 00:01:03.880000,-0.148682,-1.006104,-0.116943,-0.167847,-139.770508,15.228271,1.0237320260639502
0 days 00:01:03.890000,-0.193604,-0.934814,-0.173584,0.75531,-145.874023,-8.872986,0.9703046575524618
0 days 00:01:03.900000,-0.169434,-0.978271,-0.023438,-3.250122,-15.99121,-3.440857,0.9931119622887442
0 days 00:01:03.910000,-0.127686,-1.015625,0.038574,-9.002686,24.154661,6.004333,1.024346527644332
0 days 00:01:03.920000,-0.118652,-1.020752,0.037354,-11.093139,19.699097,6.500244,1.0283035854863098
0 days 00:01:03.930000,-0.121826,-1.016357,0.033936,-12.390136,14.495849,6.401062,1.0241946972236284
0 days 00:01:03.940000,-0.129883,-1.002197,0.030273,-12.367248,9.147644,6.004333,1.0110315895297237
0 days 00:01:03.950000,-0.127686,-0.98877,0.028564,-11.192321,4.020691,4.737854,0.9973894573294827
0 days 00:01:03.960000,-0.131348,-0.980225,0.02002,-9.567261,-1.091003,2.998352,0.9891886312170192
0 days 00:01:03.970000,-0.137695,-0.978027,0.008545,-7.720947,-5.676269,1.029968,0.9877093412431615
0 days 00:01:03.980000,-0.147217,-0.973145,-0.001465,-5.531311,-9.208679,-0.50354,0.9842185643133339
0 days 00:01:03.990000,-0.157959,-0.974854,-0.016602,-4.043579,-12.817382,-1.701355,0.9877079494471025
0 days 00:01:04,-0.175537,-0.976563,-0.029053,-2.174377,-17.723083,-4.440308,0.9926392134844361
0 days 00:01:04.010000,-0.178711,-1.044434,0.022705,-3.936767,-10.658263,9.208679,1.059856367109242
0 days 00:01:04.020000,-0.180176,-0.981934,-0.026367,-0.946045,-18.943787,-5.760192,0.9986756180166811
0 days 00:01:04.030000,-0.186768,-0.983887,-0.02002,-0.267029,-18.096924,-5.996704,1.0016569846973564
0 days 00:01:04.040000,-0.187988,-0.990723,-0.01001,0.389099,-16.677856,-5.981445,1.0084501727765234
0 days 00:01:04.050000,-0.1875,-1.006104,-0.00415,0.396728,-14.823913,-5.485534,1.0234347714026528
0 days 00:01:04.060000,-0.1875,-1.025879,0.001953,-0.473022,-13.084411,-4.112244,1.0428747704542478
0 days 00:01:04.070000,-0.182129,-1.040771,0.006104,-1.617432,-12.046813,-2.105713,1.0566042333333707
0 days 00:01:04.080000,-0.173096,-1.046143,0.013672,-2.235413,-12.001037,0.228882,1.0604547728446507
0 days 00:01:04.090000,-0.170166,-1.048584,0.019531,-2.555847,-12.229918,2.708435,1.062481215162414
0 days 00:01:04.100000,-0.173096,-1.048828,0.020752,-3.211975,-11.917113,5.760192,1.0632182486695758
0 days 00:01:04.110000,-0.137451,-1.008057,0.041748,-6.935119,27.801512,5.271911,1.018240928343582
0 days 00:01:04.120000,-0.17627,-0.978516,-0.029053,-1.342773,-18.875122,-5.241394,0.9946902794161608
0 days 00:01:04.130000,-0.147949,-1.003174,0.038086,-5.126953,30.632017,4.348755,1.0147401264722904
0 days 00:01:04.140000,-0.156738,-0.979004,0.009766,4.119873,24.902342,7.591247,0.9915195446464986
0 days 00:01:04.150000,-0.182617,-1.006348,0.029297,-1.51062,33.729553,1.38092,1.023202609458166
0 days 00:01:04.160000,-0.185547,-1.034668,0.026855,-4.356384,-8.895874,12.489318,1.0515164052253299
0 days 00:01:04.170000,-0.153564,-0.973633,0.01001,3.944397,20.561216,6.584167,0.9857196969143915
0 days 00:01:04.180000,-0.154053,-0.969238,0.010986,3.90625,16.265869,5.020141,0.9814659034571706
0 days 00:01:04.190000,-0.158447,-0.966553,0.010498,4.440308,12.245177,3.280639,0.9795102662157248
0 days 00:01:04.200000,-0.167236,-0.970215,0.00708,4.989624,9.048462,1.869202,0.984548197053349
0 days 00:01:04.210000,-0.177979,-0.976563,0.007568,4.852295,6.980896,0.938415,0.9926777382584944
0 days 00:01:04.220000,-0.192383,-0.983398,0.005859,4.707336,6.118774,0.610352,1.0020564719485623
0 days 00:01:04.230000,-0.199463,-0.980957,0.006104,4.844666,6.011962,0.389099,1.0010491411684044
0 days 00:01:04.240000,-0.199463,-0.973633,0.004395,5.889892,6.393432,-0.396728,0.9938641874436366
0 days 00:01:04.250000,-0.205566,-0.96875,0.003906,7.347106,7.17926,-1.861572,0.9903278243551475
0 days 00:01:04.260000,-0.21582,-0.973389,0.001953,8.728027,8.81958,-3.417969,0.9970297046377304
0 days 00:01:04.270000,-0.224365,-0.987793,0.002441,9.19342,11.512755,-4.356384,1.0129563774195807
0 days 00:01:04.280000,-0.229248,-1.002197,0.005127,9.025574,14.72473,-4.959106,1.0280952088410877
0 days 00:01:04.290000,-0.162109,-0.987061,0.009766,4.447937,29.342649,8.079529,1.0003320050653184
0 days 00:01:04.300000,-0.233398,-1.004639,0.010986,8.850098,18.096924,-5.332946,1.0314527807519838
0 days 00:01:04.310000,-0.23584,-1.00293,0.018066,8.956909,21.39282,-5.714416,1.0304443074984695
0 days 00:01:04.320000,-0.232666,-1.003174,0.021973,9.284973,24.452208,-5.828857,1.030036093814678
0 days 00:01:04.330000,-0.230225,-1.009277,0.025879,9.002686,27.656553,-5.706787,1.0355256327078532
0 days 00:01:04.340000,-0.224609,-1.016846,0.030029,7.949829,30.273436,-5.40924,1.041790157103627
0 days 00:01:04.350000,-0.217285,-1.018555,0.02832,6.782531,32.096863,-4.798889,1.0418584748659485
0 days 00:01:04.360000,-0.21167,-1.020508,0.03125,5.340576,33.39386,-3.90625,1.0426971417741586
0 days 00:01:04.370000,-0.205322,-1.020752,0.030762,3.166198,34.088135,-2.632141,1.0416516067438288
0 days 00:01:04.380000,-0.197754,-1.01709,0.031738,0.679016,34.141541,-0.709534,1.0366224063081022
0 days 00:01:04.390000,-0.16333,-1.002197,0.03418,-3.440857,32.577515,3.059387,1.0159939901933477
0 days 00:01:04.400000,-0.185547,-1.013916,0.030029,-3.829956,-6.843566,15.1062,1.0311911001875453
0 days 00:01:04.410000,-0.171387,-0.93042,0.028809,-4.508972,-25.588987,-5.584716,0.9465119326506138
0 days 00:01:04.420000,-0.195557,-0.984131,0.046387,-0.511169,-1.281738,15.502929,1.0044441842028853
0 days 00:01:04.430000,-0.156982,-1.014404,0.02124,-12.535094,-8.796692,4.524231,1.026698573652462
0 days 00:01:04.440000,-0.159912,-0.997314,0.025879,-13.107299,-9.32312,4.684448,1.0103844738420122
0 days 00:01:04.450000,-0.16626,-0.986816,0.032959,-13.267516,-10.06317,4.936218,1.0012664486224434
0 days 00:01:04.460000,-0.163574,-0.987549,0.037598,-13.488769,-11.039733,4.486084,1.0017100830484837
0 days 00:01:04.470000,-0.165283,-0.984619,0.041016,-13.381957,-12.901305,3.555298,0.9992373879644416
0 days 00:01:04.480000,-0.161133,-0.974609,0.042236,-12.687682,-15.457152,1.937866,0.9887418400502731
0 days 00:01:04.490000,-0.158936,-0.959961,0.040771,-11.070251,-18.493652,-0.061035,0.9738829745190126
0 days 00:01:04.500000,-0.164063,-0.946289,0.036865,-9.010315,-21.553038,-1.976013,0.9611131919368291
0 days 00:01:04.510000,-0.168457,-0.936035,0.030518,-6.866455,-23.872374,-3.936767,0.9515622052172942
0 days 00:01:04.520000,-0.180176,-0.930908,0.018311,-1.739502,-26.596067,-6.912231,0.9483608955250106
0 days 00:01:04.530000,-0.1521,-1.020508,0.022705,-11.001586,-8.804321,4.226685,1.0320302830290398
0 days 00:01:04.540000,-0.194092,-0.934814,0.010986,0.778198,-25.825499,-7.888793,0.9548139144650124
0 days 00:01:04.550000,-0.210449,-0.956787,0.007568,5.058288,-19.073486,-10.169982,0.9796874091229304
0 days 00:01:04.560000,-0.214355,-0.970947,0.015137,6.92749,-13.313293,-11.291503,0.9944421911820717
0 days 00:01:04.570000,-0.216064,-0.988281,0.021973,8.232117,-6.736755,-12.229918,1.0118625399657801
0 days 00:01:04.580000,-0.216309,-1.007813,0.025635,8.811951,-0.167847,-12.817382,1.031083788872175
0 days 00:01:04.590000,-0.213379,-1.022461,0.030518,8.529663,5.569458,-12.825011,1.044934659433785
0 days 00:01:04.600000,-0.208008,-1.032471,0.03125,7.881164,9.864807,-11.276244,1.053679389759997
0 days 00:01:04.610000,-0.200684,-1.040527,0.032471,7.263183,12.283324,-8.621216,1.0602003921080203
0 days 00:01:04.620000,-0.189941,-1.043945,0.038086,6.439209,12.96234,-5.28717,1.061767060094633
0 days 00:01:04.630000,-0.17749,-1.047363,0.044189,5.096435,12.329101,-2.456665,1.063214287709679
0 days 00:01:04.640000,-0.186768,-0.994873,0.041504,-2.342224,-4.394531,15.884398,1.0131027361373575
0 days 00:01:04.650000,-0.204346,-0.946289,0.007568,2.906799,-23.200987,-9.07135,0.9681308970697093
0 days 00:01:04.660000,-0.147705,-1.019775,0.02832,-9.063721,-9.887695,3.501892,1.0308054326835885
0 days 00:01:04.670000,-0.164551,-1.04541,0.043457,3.677368,10.047912,-0.610352,1.059173078656175
0 days 00:01:04.680000,-0.118164,-1.02002,0.039795,-7.316589,-11.154174,1.220703,1.027612365301722
0 days 00:01:04.690000,-0.135742,-1.017334,0.036133,-7.881164,-11.146544,2.342224,1.0269858576480009
0 days 00:01:04.700000,-0.22998,-0.977539,0.04248,2.334595,8.68988,13.687133,1.0051257868152623
0 days 00:01:04.710000,-0.247559,-0.970215,0.039551,3.501892,14.892577,12.664794,1.002081277295909
0 days 00:01:04.720000,-0.255127,-0.951416,0.040771,5.599975,20.935057,11.123656,0.9858724388205606
0 days 00:01:04.730000,-0.255127,-0.94165,0.044678,7.850646,25.924681,8.728027,0.9766220519284827
0 days 00:01:04.740000,-0.248535,-0.939697,0.045898,9.735107,29.762266,5.889892,0.973091323791349
0 days 00:01:04.750000,-0.246582,-0.945801,0.045166,10.581969,32.775879,3.105163,0.9784590854404696
0 days 00:01:04.760000,-0.240967,-0.952881,0.043457,10.902404,35.40802,0.610352,0.9838372863939443
0 days 00:01:04.770000,-0.236084,-0.963135,0.045898,10.925292,37.834167,-1.335144,0.9927090760565251
0 days 00:01:04.780000,-0.228516,-0.977051,0.049316,10.162353,40.084839,-2.89154,1.0046294275567484
0 days 00:01:04.790000,-0.221191,-0.989014,0.046387,8.728027,41.564938,-3.570556,1.014507715321081
0 days 00:01:04.800000,-0.212158,-0.981201,0.044434,1.220703,3.089905,14.640807,1.0048585968786852
0 days 00:01:04.810000,-0.197266,-0.999512,0.055176,4.608154,40.756222,-2.334595,1.0202855011593568
0 days 00:01:04.820000,-0.109131,-1.023193,0.047852,-7.003784,-8.720398,1.403808,1.030108394448856
0 days 00:01:04.830000,-0.112793,-1.028076,0.054443,-6.41632,-4.28009,1.846313,1.0356768621891677
0 days 00:01:04.840000,-0.116455,-1.031738,0.057129,-5.401611,1.152039,1.693725,1.039859985916373
0 days 00:01:04.850000,-0.112305,-1.03125,0.05835,-3.738403,7.232666,0.648498,1.0389868613341557
0 days 00:01:04.860000,-0.2146,-0.997803,0.050781,6.637573,41.961666,-3.135681,1.0218819387629865
0 days 00:01:04.870000,-0.119141,-1.005127,0.065918,-0.091553,21.080015,-1.289368,1.0143076686755357
0 days 00:01:04.880000,-0.137451,-0.99585,0.067139,0.900268,27.877806,-1.38855,1.0075304686320905
0 days 00:01:04.890000,-0.155029,-0.994629,0.068115,1.770019,33.813477,-1.441955,1.0089402815365238
0 days 00:01:04.900000,-0.175781,-0.997314,0.062744,3.051758,38.093567,-1.76239,1.014628495604672
0 days 00:01:04.910000,-0.112305,-1.018799,0.063477,-1.663208,13.862609,-0.602722,1.0269338561733174
0 days 00:01:04.920000,-0.264648,-0.988281,0.170654,-1.579285,11.161803,6.111145,1.0372370445471952
0 days 00:01:04.930000,-0.265381,-0.971924,0.133545,0.244141,-11.260985,-2.830505,1.0163157009325399
0 days 00:01:04.940000,-0.28125,-0.973145,0.143555,0.25177,-9.841919,-2.754211,1.0230937354661107
0 days 00:01:04.950000,-0.288818,-0.977295,0.15918,0.366211,-8.117676,-1.861572,1.0314357113019696
0 days 00:01:04.960000,-0.294434,-0.980713,0.168457,0.488281,-7.17163,-0.495911,1.0377220868681556
0 days 00:01:04.970000,-0.297119,-0.979004,0.168457,-0.595093,-3.662109,2.433777,1.0368733254481957
0 days 00:01:04.980000,-0.313721,-0.973145,0.164551,-0.564575,-0.465393,4.333496,1.0356201468043194
0 days 00:01:04.990000,-0.3125,-0.97876,0.167725,-0.938415,4.03595,4.447937,1.0410374936691762
0 days 00:01:05,-0.276367,-0.987305,0.161133,-1.88446,9.155273,3.929138,1.0378408959965877
0 days 00:01:05.010000,-0.260254,-0.985107,0.165283,-1.708984,11.932372,4.714966,1.0322240144726336
0 days 00:01:05.020000,-0.27124,-1.003906,0.161377,-2.738952,9.025574,9.277344,1.0523501938827207
0 days 00:01:05.030000,-0.15625,-0.987793,0.110107,-17.631531,1.998901,4.837036,1.0061175998848246
0 days 00:01:05.040000,-0.301514,-0.982422,0.165771,-5.561828,2.89917,14.160155,1.0409340530124855
0 days 00:01:05.050000,-0.266846,-0.993408,0.152832,-8.384705,3.837585,10.391234,1.0399153150156026
0 days 00:01:05.060000,-0.194092,-1.005859,0.123291,-13.671874,4.66156,6.500244,1.0318065240276397
0 days 00:01:05.070000,-0.262939,-0.973877,0.140381,0.740051,-12.7182,-2.006531,1.0184695155040233
0 days 00:01:05.080000,-0.19458,-0.959473,0.135254,-16.448975,-2.029419,5.92041,0.9883033231983994
0 days 00:01:05.090000,-0.224121,-0.953369,0.164551,-13.22174,-6.553649,6.790161,0.9930859501588974
0 days 00:01:05.100000,-0.237549,-0.967041,0.154785,-10.871886,-10.009766,7.797241,1.0077480931795406
0 days 00:01:05.110000,-0.26123,-0.972168,0.156494,-8.19397,-11.322021,11.20758,1.018745358350162
0 days 00:01:05.120000,-0.295898,-0.947021,0.15918,-3.257751,-8.926392,16.265869,1.0048595291109101
0 days 00:01:05.130000,-0.337158,-0.917725,0.13916,2.220154,-6.828308,19.889832,0.9875526305919093
0 days 00:01:05.140000,-0.29126,-1.001465,0.158691,-4.714966,5.424499,13.389586,1.0549632066124393
0 days 00:01:05.150000,-0.283691,-0.966797,0.148438,1.213074,-13.366698,-0.984192,1.0184354974832723
0 days 00:01:05.160000,-0.273193,-0.954834,0.125,-1.190186,-13.023376,0.656128,1.0009832080534617
0 days 00:01:05.170000,-0.280273,-0.960938,0.129395,-0.289917,-12.687682,-1.472473,1.0093056327981134
0 days 00:01:05.180000,-0.294434,-0.969971,0.073242,-16.891479,-17.089844,-6.324768,1.016316639517921
0 days 00:01:05.190000,-0.293457,-0.969482,0.106445,-15.266418,-13.862609,-5.027771,1.018500317721109
0 days 00:01:05.200000,-0.28833,-0.973633,0.134277,-13.320922,-10.498046,-4.676819,1.0242683829534132
0 days 00:01:05.210000,-0.291504,-0.971924,0.128418,-12.519835,-8.049011,-4.737854,1.022791291767778
0 days 00:01:05.220000,-0.290039,-0.972168,0.125,-12.290954,-6.04248,-4.203796,1.022183076432495
0 days 00:01:05.230000,-0.268555,-0.983154,0.118164,-12.748717,-5.027771,-3.227234,1.026000149433225
0 days 00:01:05.240000,-0.251221,-0.99292,0.102295,-14.083861,-4.28009,-2.02179,1.029303834766975
0 days 00:01:05.250000,-0.25708,-0.982178,0.092285,-14.427184,-2.616882,-0.274658,1.0194509656226727
0 days 00:01:05.260000,-0.260254,-0.974854,0.104736,-14.10675,-1.045227,0.915527,1.0144171210739692
0 days 00:01:05.270000,-0.253174,-0.959229,0.10083,-13.580321,-0.068665,1.693725,0.9971880653201782
0 days 00:01:05.280000,-0.298096,-0.964111,0.144531,0.671387,-12.863158,-0.785828,1.019441246712139
0 days 00:01:05.290000,-0.256592,-0.944336,0.107666,-11.863708,0.160217,2.426147,0.984480524396496
0 days 00:01:05.300000,-0.258057,-0.942627,0.110352,-7.606506,-3.173828,3.64685,0.9835225672459174
0 days 00:01:05.310000,-0.261963,-0.947266,0.104492,-6.050109,-5.561828,3.433227,0.9883602916897258
0 days 00:01:05.320000,-0.266846,-0.957275,0.099609,-5.226135,-6.858825,3.219604,0.9987513034895122
0 days 00:01:05.330000,-0.26709,-0.957275,0.107422,-4.096985,-8.056641,2.624511,0.999625919936553
0 days 00:01:05.340000,-0.262451,-0.957031,0.118164,-2.853393,-9.986877,1.930237,0.9993756016923767
0 days 00:01:05.350000,-0.259521,-0.958252,0.118164,-2.410889,-11.558532,1.159668,0.9997803638004699
0 days 00:01:05.360000,-0.269531,-0.950439,0.125244,-1.564026,-12.405395,0.938415,0.9958249405482874
0 days 00:01:05.370000,-0.321777,-0.938721,0.08667,3.807068,-1.571655,15.815734,0.996117082711666
0 days 00:01:05.380000,-0.261475,-0.960205,0.115234,-1.51062,-13.21411,-0.717163,1.00181919147419
0 days 00:01:05.390000,-0.259521,-0.959229,0.117188,-1.167297,-12.954711,-1.831055,1.0006020443842796
0 days 00:01:05.400000,-0.256348,-0.940918,0.113037,-9.788513,-0.961304,3.189087,0.9817425035094488
0 days 00:01:05.410000,-0.250244,-0.968994,0.001221,-0.038147,7.30133,6.652832,1.0007861521888681
0 days 00:01:05.420000,-0.290527,-0.983398,0.16748,0.099182,-5.439758,0.541687,1.0390029425044955
0 days 00:01:05.430000,-0.205811,-0.889648,0.085693,11.360168,1.800537,7.80487,0.9171559419607987
0 days 00:01:05.440000,-0.278564,-0.977539,0.03125,4.676819,31.532286,6.401062,1.016935082056372
0 days 00:01:05.450000,-0.272217,-0.977051,0.020996,4.364014,36.346436,7.705688,1.0144809429979451
0 days 00:01:05.460000,-0.263672,-0.979736,0.030029,4.188538,41.023251,8.499146,1.0150405381663337
0 days 00:01:05.470000,-0.263916,-0.977783,0.035156,4.562378,45.135494,8.834839,1.0133840310963065
0 days 00:01:05.480000,-0.266113,-0.978271,0.039063,5.348205,48.561092,9.44519,1.0145719275531921
0 days 00:01:05.490000,-0.258789,-0.976074,0.038086,6.019592,51.269527,9.841919,1.0105160777508688
0 days 00:01:05.500000,-0.250244,-0.973877,0.035889,6.317138,52.894588,10.131835,1.006154307741114
0 days 00:01:05.510000,-0.241455,-0.977783,0.033447,6.67572,53.88641,10.284423,1.007709687322197
0 days 00:01:05.520000,-0.229248,-0.983154,0.025635,6.912231,54.840084,10.604857,1.0098532499551605
0 days 00:01:05.530000,-0.223877,-0.985352,0.025391,7.041931,54.862972,10.993957,1.0107839422517555
0 days 00:01:05.540000,-0.284912,-0.984375,0.03833,4.768372,26.473997,5.91278,1.0254941137173825
0 days 00:01:05.550000,-0.221191,-0.986084,0.027588,7.400512,54.88586,11.131286,1.0109640009817362
0 days 00:01:05.560000,-0.215088,-0.995117,0.019775,7.499694,53.87878,11.306762,1.0182886339628858
0 days 00:01:05.570000,-0.209717,-0.999268,0.016113,7.316589,52.864071,11.444091,1.0211647196618183
0 days 00:01:05.580000,-0.199219,-1.000244,0.012695,7.217407,51.261898,11.215209,1.0199693292065206
0 days 00:01:05.590000,-0.191895,-0.999512,0.014404,7.125854,48.904415,10.498046,1.0178680682608134
0 days 00:01:05.600000,-0.186035,-0.996338,0.014893,6.881713,46.142574,9.765625,1.0136667267489843
0 days 00:01:05.610000,-0.182373,-0.993164,0.013428,6.79779,43.334957,9.269714,1.009858877868091
0 days 00:01:05.620000,-0.177734,-0.991211,0.013428,6.652832,40.39764,9.010315,1.0071091958973466
0 days 00:01:05.630000,-0.172363,-0.98999,0.013672,6.195068,37.17041,8.636475,1.0049756850058613
0 days 00:01:05.640000,-0.16748,-0.990234,0.012695,5.386352,33.424377,8.323669,1.0043774629993447
0 days 00:01:05.650000,-0.180176,-0.936279,-0.008301,-0.213623,9.483337,3.448486,0.9534939241641763
0 days 00:01:05.660000,-0.216309,-0.990479,0.023193,7.629394,54.51202,11.123656,1.0140888265684618
0 days 00:01:05.670000,-0.277832,-1.003906,0.023193,5.142211,21.385191,5.40924,1.0419000874887188
0 days 00:01:05.680000,-0.23291,-0.981934,0.027588,6.912231,54.557796,10.292052,1.0095556181805934
0 days 00:01:05.690000,-0.26123,-0.999023,0.009277,8.155823,15.274047,4.180908,1.0326539256488594
0 days 00:01:05.700000,-0.280518,-0.886475,0.187256,24.108885,-7.629394,11.062621,0.9484688099695213
0 days 00:01:05.710000,-0.260742,-1.008545,0.008301,6.446838,17.372131,4.364014,1.0417381216937394
0 days 00:01:05.720000,-0.208008,-0.894531,0.197266,43.769833,-20.500181,5.882263,0.9393438735527048
0 days 00:01:05.730000,-0.208252,-0.918457,0.20874,54.183956,-32.028198,7.064819,0.964626634482482
0 days 00:01:05.740000,-0.230957,-0.94165,0.241211,65.292358,-43.914791,2.334595,0.9991139098571293
0 days 00:01:05.750000,-0.267334,-0.973633,0.212646,73.066711,-45.494076,-0.648498,1.0318173324581246
0 days 00:01:05.760000,-0.310059,-1.0,0.157715,72.982788,-39.665222,-0.869751,1.0587778826108902
0 days 00:01:05.770000,-0.309326,-0.996338,0.094482,65.971375,-27.778624,-1.747131,1.047520325742656
0 days 00:01:05.780000,-0.278564,-0.98999,0.047363,57.235714,-15.1062,-5.378723,1.0295248204705898
0 days 00:01:05.790000,-0.244385,-1.008789,0.015625,48.248287,-6.54602,-8.171082,1.038086419991611
0 days 00:01:05.800000,-0.248291,-1.042236,0.012451,38.925171,0.640869,-1.571655,1.071475304324836
0 days 00:01:05.810000,-0.299561,-1.051025,-0.005615,29.594419,3.105163,8.705139,1.0928960936754235
0 days 00:01:05.820000,-0.264893,-0.899658,0.221436,33.287048,-14.816283,6.950378,0.9636320462235572
0 days 00:01:05.830000,-0.264648,-0.975098,0.068359,23.902891,4.180908,11.726378,1.0126833791412793
0 days 00:01:05.840000,-0.297852,-1.001709,0.00415,24.993895,1.274109,11.535644,1.045061700133059
0 days 00:01:05.850000,-0.268066,-1.000488,0.041504,11.062621,15.480041,6.996154,1.0366089911417902
0 days 00:01:05.860000,-0.259521,-1.017334,0.049072,13.359069,14.434813,7.545471,1.051060263819825
0 days 00:01:05.870000,-0.248291,-1.02417,0.051025,16.792297,13.244628,7.614135,1.0550716374758635
0 days 00:01:05.880000,-0.26709,-0.990967,0.026611,9.521484,15.213012,5.40924,1.026674636148181
0 days 00:01:05.890000,-0.259766,-1.002441,0.055664,24.269102,9.750366,7.644653,1.0370461967207631
0 days 00:01:05.900000,-0.268066,-0.973145,0.066162,25.199888,8.789063,9.559631,1.0115572063037266
0 days 00:01:05.910000,-0.270264,-0.963623,0.070801,24.284361,6.561279,10.833739,1.003306880982085
0 days 00:01:05.920000,-0.244873,-1.017578,0.053711,20.89691,11.558532,7.087707,1.0480041239107794
0 days 00:01:05.930000,-0.324951,-0.953369,-0.107666,-11.039733,-44.593807,-6.805419,1.0129647427813073
0 days 00:01:05.940000,-0.330078,-0.949463,-0.091064,-14.465331,-59.42535,-1.365662,1.0093186447049316
0 days 00:01:05.950000,-0.333496,-0.948975,-0.100098,-10.299682,-43.777462,-5.020141,1.0108376438602789
0 days 00:01:05.960000,-0.34082,-0.948975,-0.099121,-10.734557,-42.854305,-2.906799,1.0131815215774516
0 days 00:01:05.970000,-0.335205,-0.945557,-0.103271,-11.367797,-42.602535,-1.296997,1.0085164013118477
0 days 00:01:05.980000,-0.328125,-0.947266,-0.100098,-12.504577,-43.479916,-0.259399,1.0074713395352743
0 days 00:01:05.990000,-0.328857,-0.947998,-0.098145,-13.381957,-45.646664,0.144958,1.0082061175563257
0 days 00:01:06,-0.317627,-0.961914,-0.137451,-11.642455,-43.93005,-8.560181,1.0222808967822885
0 days 00:01:06.010000,-0.323242,-0.943604,-0.092529,-13.236999,-49.262997,-0.610352,1.0017162847937533
0 days 00:01:06.020000,-0.317627,-0.946289,-0.089844,-13.732909,-54.489132,-1.312256,1.0022084249226806
0 days 00:01:06.030000,-0.34668,-0.959229,-0.084961,-14.61029,-62.32452,-1.083374,1.023487014261539
0 days 00:01:06.040000,-0.392334,-1.023193,-0.076904,-22.048948,-72.044373,-0.320435,1.0985281553155568
0 days 00:01:06.050000,-0.368896,-0.990479,-0.07666,-17.356873,-66.009521,-0.312805,1.059721502970002
0 days 00:01:06.060000,-0.368896,-1.007813,-0.078857,-19.050598,-67.955017,-0.534058,1.0760993115107917
0 days 00:01:06.070000,-0.374268,-1.026367,-0.083008,-21.736143,-70.053101,0.75531,1.0956258862298753
0 days 00:01:06.080000,-0.416992,-1.031006,-0.073486,-23.254393,-70.43457,0.282288,1.1145653378317488
0 days 00:01:06.090000,-0.430908,-1.039063,-0.072998,-24.528502,-66.940308,1.029968,1.127236590267101
0 days 00:01:06.100000,-0.439209,-1.039307,-0.08252,-25.367735,-61.737057,1.869202,1.1313147821583522
0 days 00:01:06.110000,-0.447754,-1.0354,-0.078857,-26.168821,-55.931087,4.165649,1.1308206006988908
0 days 00:01:06.120000,-0.452881,-1.019531,-0.061523,-25.459288,-51.025387,6.149292,1.117286775922368
0 days 00:01:06.130000,-0.452881,-1.006348,-0.051025,-24.879454,-46.57745,7.911682,1.1047357366764234
0 days 00:01:06.140000,-0.312012,-0.982178,-0.153076,-11.390685,-42.381283,-10.19287,1.0418528560233447
0 days 00:01:06.150000,-0.360596,-0.979492,-0.080811,-16.067505,-63.96484,-0.160217,1.0468832174607634
0 days 00:01:06.160000,-0.327148,-0.987305,-0.138428,-9.216309,-40.031433,-11.20758,1.049266071172131
0 days 00:01:06.170000,-0.399414,-1.081787,-0.180664,35.03418,58.189388,-16.288757,1.1672335403255854
0 days 00:01:06.180000,-0.343994,-0.97998,-0.118896,-6.484985,-36.590576,-12.115478,1.0453845853330725
0 days 00:01:06.190000,-0.444336,-0.989014,-0.040283,-24.024961,-42.892452,9.063721,1.0849911949785582
0 days 00:01:06.200000,-0.413574,-1.129883,-0.1875,29.190062,68.16864,-9.277344,1.2177172484468632
0 days 00:01:06.210000,-0.39502,-1.149902,-0.164307,24.436949,74.775696,-3.433227,1.226911651364107
0 days 00:01:06.220000,-0.371582,-1.135498,-0.118164,23.475645,75.286865,-0.465393,1.200579702320508
0 days 00:01:06.230000,-0.357178,-1.097412,-0.077148,23.475645,71.838379,1.968384,1.1566507836559834
0 days 00:01:06.240000,-0.348877,-1.054688,-0.046143,22.979734,66.452026,3.723144,1.111850311382787
0 days 00:01:06.250000,-0.34375,-1.020264,-0.033203,21.537779,61.454769,3.486633,1.0771281870812779
0 days 00:01:06.260000,-0.347168,-0.98584,-0.039551,18.569946,57.823177,3.700256,1.0459304027634917
0 days 00:01:06.270000,-0.335449,-0.956055,-0.046875,14.381408,52.459713,4.089355,1.0142802671111175
0 days 00:01:06.280000,-0.303467,-0.941406,-0.060059,8.285522,42.907711,4.219055,0.9909311582577268
0 days 00:01:06.290000,-0.271484,-0.933838,-0.065674,2.13623,28.617857,4.386902,0.9747153670564551
0 days 00:01:06.300000,-0.254395,-0.931885,-0.059326,-2.571106,10.795592,2.578735,0.9678047548581273
0 days 00:01:06.310000,-0.250488,-0.921387,-0.049561,-4.325867,-5.41687,-2.731323,0.9561142895250546
0 days 00:01:06.320000,-0.263184,-0.918945,-0.045898,-4.91333,-16.792297,-8.483887,0.9569913047071013
0 days 00:01:06.330000,-0.285645,-0.92334,-0.053711,-6.698608,-24.398802,-11.695861,0.9680055233034572
0 days 00:01:06.340000,-0.308105,-0.931152,-0.067139,-8.842468,-28.724669,-13.420104,0.9830973417978507
0 days 00:01:06.350000,-0.324463,-0.939209,-0.073486,-10.101317,-30.570982,-13.84735,0.9963884665360192
0 days 00:01:06.360000,-0.331299,-0.95459,-0.080322,-10.57434,-31.196592,-14.144897,1.01363342446123
0 days 00:01:06.370000,-0.333008,-0.969971,-0.089844,-10.19287,-31.379698,-14.183043,1.0294707442375428
0 days 00:01:06.380000,-0.33374,-0.984375,-0.105469,-9.82666,-31.875608,-14.030456,1.044748887621327
0 days 00:01:06.390000,-0.330566,-0.989746,-0.118896,-9.643555,-32.737732,-14.328002,1.0502415358801993
0 days 00:01:06.400000,-0.32959,-0.984619,-0.116699,-8.514404,-34.049988,-14.305114,1.0448553966276863
0 days 00:01:06.410000,-0.33667,-0.982178,-0.115479,-7.057189,-35.423279,-13.168334,1.0446797174373588
0 days 00:01:06.420000,-0.345703,-0.974121,-0.127686,-6.904602,-37.971497,-11.558532,1.04150180098068
0 days 00:01:06.430000,-0.437988,-0.977051,-0.023682,-22.125242,-39.085388,10.078429,1.070991588141102
0 days 00:01:06.440000,-0.317383,-0.959961,0.002441,-26.222227,1.289368,7.392883,1.0110702491375165
0 days 00:01:06.450000,-0.425049,-0.95166,-0.016357,-19.386292,-32.88269,10.131835,1.0423967380273214
0 days 00:01:06.460000,-0.35791,-0.992432,0.038818,-26.512144,-5.615234,11.413573,1.0557119303332705
0 days 00:01:06.470000,-0.365234,-0.987793,0.035889,-25.405882,-4.508972,10.19287,1.0537641604865862
0 days 00:01:06.480000,-0.340332,-0.987549,0.010254,-26.283262,-0.518799,8.041382,1.0445975503230898
0 days 00:01:06.490000,-0.327637,-0.946533,0.024414,-24.79553,1.541138,6.477355,1.0019315182456332
0 days 00:01:06.500000,-0.339111,-0.933838,0.032959,-22.743223,3.196716,6.111145,0.9940502885900693
0 days 00:01:06.510000,-0.331787,-0.924316,0.041504,-20.729063,2.89917,8.125305,0.9829370596538722
0 days 00:01:06.520000,-0.325684,-0.924072,0.043945,-19.386292,0.267029,10.337829,0.9807702544760418
0 days 00:01:06.530000,-0.319336,-0.916016,0.039551,-18.241882,-2.876281,10.726928,0.9708888065854916
0 days 00:01:06.540000,-0.31543,-0.912354,0.041016,-17.051697,-4.692078,10.108947,0.9662133400403867
0 days 00:01:06.550000,-0.316162,-0.910156,0.039307,-15.930175,-6.16455,9.140015,0.9643066912704692
0 days 00:01:06.560000,-0.351318,-1.005127,0.024902,-28.251646,-4.577637,11.016845,1.065046821908314
0 days 00:01:06.570000,-0.313477,-0.909912,0.031982,-15.258788,-8.31604,8.598328,0.9629280999103724
0 days 00:01:06.580000,-0.300293,-0.907959,0.022705,-15.3656,-17.105103,5.241394,0.9565986350371821
0 days 00:01:06.590000,-0.308594,-0.904053,0.0354,-15.350341,-21.881102,3.829956,0.9559263798248272
0 days 00:01:06.600000,-0.31665,-0.907959,0.057861,-14.511107,-24.475096,2.571106,0.9633299868176013
0 days 00:01:06.610000,-0.317871,-0.920654,0.07666,-14.266967,-24.04785,2.388,0.9769966816509665
0 days 00:01:06.620000,-0.315186,-0.924072,0.088867,-14.274596,-24.032591,2.334595,0.9803818743066397
0 days 00:01:06.630000,-0.317627,-0.921143,0.095459,-13.229369,-24.642942,1.266479,0.9790320517015774
0 days 00:01:06.640000,-0.315674,-0.922119,0.091064,-13.153075,-24.917601,0.37384,0.9789004936830914
0 days 00:01:06.650000,-0.3125,-0.924316,0.091064,-12.832641,-23.91815,-1.449585,0.9799535549973785
0 days 00:01:06.660000,-0.311035,-0.932373,0.0896,-13.21411,-21.865843,-4.127502,0.9869601523638125
0 days 00:01:06.670000,-0.436279,-0.972412,-0.016113,-20.523069,-35.499573,10.421752,1.0659193648461407
0 days 00:01:06.680000,-0.302734,-0.910645,0.024902,-15.213012,-12.313842,7.003784,0.9599699476468001
0 days 00:01:06.690000,-0.346191,-1.01416,0.026855,-29.58679,-3.005981,10.856627,1.0719561115577447
0 days 00:01:06.700000,-0.30127,-0.955322,0.074951,-15.350341,-19.317627,-6.134033,1.0045005669411045
0 days 00:01:06.710000,-0.333496,-0.997314,0.036865,-31.028746,2.479553,11.238097,1.0522422842848504
0 days 00:01:06.720000,-0.342529,-1.015137,0.033691,-30.586241,-0.335693,11.245727,1.0718975361903766
0 days 00:01:06.730000,-0.440918,-0.917969,-0.019043,-18.554688,-30.372618,9.315491,1.0185472024084108
0 days 00:01:06.740000,-0.420166,-0.907959,-0.030518,-19.53125,-25.672911,5.973815,1.0009297485643036
0 days 00:01:06.750000,-0.415283,-0.897461,-0.031738,-19.187927,-19.271851,4.241943,0.9893955312482465
0 days 00:01:06.760000,-0.429932,-0.901611,-0.008545,-18.196106,-14.190673,4.898071,0.9989078721133395
0 days 00:01:06.770000,-0.429932,-0.909912,0.002197,-16.746521,-10.330199,5.523681,1.0063727933410165
0 days 00:01:06.780000,-0.440918,-0.918701,0.010986,-15.708922,-5.699157,6.149292,1.0190882701321804
0 days 00:01:06.790000,-0.442627,-0.928711,0.01123,-15.319823,0.259399,6.019592,1.0288580541308894
0 days 00:01:06.800000,-0.429443,-0.933838,0.00708,-16.372681,5.943298,6.271362,1.0278739353116215
0 days 00:01:06.810000,-0.420166,-0.930908,0.011963,-17.189026,10.208129,7.087707,1.0214070126002661
0 days 00:01:06.820000,-0.402344,-0.927979,0.024902,-17.745972,12.817382,7.751464,1.0117538378385327
0 days 00:01:06.830000,-0.429932,-0.929443,-0.014404,-18.249512,-31.929014,10.292052,1.024164679184456
0 days 00:01:06.840000,-0.398438,-0.934326,0.043701,-18.127441,17.76123,9.269714,1.0166748209339111
0 days 00:01:06.850000,-0.400146,-0.95166,0.05127,-19.325256,21.514891,10.902404,1.033635424033058
0 days 00:01:06.860000,-0.388428,-0.963135,0.070313,-19.989014,23.567198,12.901305,1.0408886863531566
0 days 00:01:06.870000,-0.375732,-0.978027,0.075195,-21.728514,23.139952,14.152526,1.050412127013964
0 days 00:01:06.880000,-0.366211,-0.983398,0.060303,-24.284361,21.575926,14.61029,1.05110350334018
0 days 00:01:06.890000,-0.363037,-0.976563,0.053711,-26.496885,19.798279,15.11383,1.0432430339374426
0 days 00:01:06.900000,-0.358643,-0.974365,0.046387,-28.610228,17.242432,15.266418,1.039309245818106
0 days 00:01:06.910000,-0.32959,-0.982666,0.03418,-31.890867,6.156921,12.161254,1.0370295598757058
0 days 00:01:06.920000,-0.34668,-0.97583,0.038818,-31.150816,13.97705,14.595031,1.0363098226032599
0 days 00:01:06.930000,-0.3396,-0.979492,0.033447,-32.440186,10.177611,13.565063,1.037232587163072
0 days 00:01:06.940000,-0.392578,-0.927246,0.034424,-17.807007,14.762877,8.102417,1.0075155792224753
0 days 00:01:06.950000,-0.449951,-0.879639,0.083496,-7.92694,-31.402586,-5.615234,0.9915605149147478
0 days 00:01:06.960000,-0.441895,-0.869385,0.087402,-6.744384,-46.257015,-3.929138,0.9791529905249741
0 days 00:01:06.970000,-0.443359,-0.860596,0.089844,-5.851745,-61.622616,-2.502441,0.9722472023271654
0 days 00:01:06.980000,-0.380127,-0.891113,0.125732,-1.701355,-113.151543,5.271911,0.9769275565373311
0 days 00:01:06.990000,-0.411377,-0.871094,0.119385,-4.722595,-90.49987,0.022888,0.9707154944627185
0 days 00:01:07,-0.385986,-0.88208,0.140137,-3.234863,-102.401726,2.510071,0.9729792892785539
0 days 00:01:07.010000,-0.461914,-0.888672,0.075439,-8.529663,-17.127991,-6.683349,1.0043871313895854
0 days 00:01:07.020000,-0.361084,-0.923828,0.095459,-1.426697,-120.826714,6.958007,0.9964698938357346
0 days 00:01:07.030000,-0.379395,-0.94873,0.037842,-42.732235,-82.19146,-6.095886,1.022477968412523
0 days 00:01:07.040000,-0.464355,-0.893555,0.068115,-8.018494,-2.975464,-7.492065,1.0093095448250748
0 days 00:01:07.050000,-0.434814,-1.008545,0.044189,10.673522,65.704346,-19.432068,1.0991719152807717
0 days 00:01:07.060000,-0.457764,-0.930908,0.069824,-1.953125,37.094116,-12.496947,1.0397177382039802
0 days 00:01:07.070000,-0.453369,-0.955322,0.063477,1.365662,48.835751,-14.465331,1.0593455070816131
0 days 00:01:07.080000,-0.443848,-0.975586,0.055176,6.431579,57.975765,-16.967773,1.0732257364953564
0 days 00:01:07.090000,-0.429199,-1.027832,0.023682,14.015197,71.289063,-22.377012,1.1140966021620389
0 days 00:01:07.100000,-0.423096,-1.027344,-0.000977,16.448975,75.592041,-24.742125,1.1110566475571801
0 days 00:01:07.110000,-0.419434,-1.026123,-0.023193,18.348694,79.467773,-25.80261,1.1087791514697596
0 days 00:01:07.120000,-0.411377,-1.034424,-0.037598,20.011902,83.488457,-27.000425,1.1138571082095763
0 days 00:01:07.130000,-0.406494,-1.042236,-0.049561,20.904539,87.120049,-27.854918,1.1197988857169843
0 days 00:01:07.140000,-0.313477,-0.95752,0.076172,0.198364,-123.481743,8.239746,1.0104031638474813
0 days 00:01:07.150000,-0.39917,-1.054932,-0.053467,21.247862,89.012138,-29.495237,1.1291930453261745
0 days 00:01:07.160000,-0.463867,-0.897217,0.067627,-6.652832,11.024474,-8.888245,1.0122965721106636
0 days 00:01:07.170000,-0.268799,-0.972412,0.072021,3.555298,-121.368401,10.375976,1.0114469954406904
0 days 00:01:07.180000,-0.258789,-0.951172,0.027832,2.357483,-6.401062,20.332335,0.9861412375157019
0 days 00:01:07.190000,-0.216797,-0.977539,0.060791,9.735107,-105.75103,16.319275,1.0031345779161438
0 days 00:01:07.200000,-0.377197,-1.060059,-0.057861,21.110533,88.630669,-30.09796,1.1266545857586523
0 days 00:01:07.210000,-0.359863,-0.932617,0.031982,-42.16766,-77.400208,-6.263732,1.0001493367402692
0 days 00:01:07.220000,-0.35376,-0.924072,0.020264,-40.512081,-72.044373,-5.821228,0.989679659526253
0 days 00:01:07.230000,-0.349609,-0.921875,0.013428,-37.92572,-66.078186,-4.936218,0.9860325956529024
0 days 00:01:07.240000,-0.351563,-0.924316,0.010742,-34.690857,-59.272762,-3.692627,0.9889752278945111
0 days 00:01:07.250000,-0.347412,-0.931152,0.014648,-30.761717,-52.024837,-2.464294,0.993958605150134
0 days 00:01:07.260000,-0.343018,-0.940674,0.012695,-26.702879,-44.006344,-1.228333,1.00134413945706
0 days 00:01:07.270000,-0.340576,-0.942383,0.006592,-22.53723,-35.78186,0.38147,1.0020584738072924
0 days 00:01:07.280000,-0.338135,-0.933838,0.005615,-18.440247,-27.755735,3.219604,0.993186899175578
0 days 00:01:07.290000,-0.333252,-0.916748,0.010254,-13.877868,-20.431517,7.026672,0.9754942006613878
0 days 00:01:07.300000,-0.236328,-0.976074,0.067871,7.064819,-115.19622,13.130187,1.0065673597434996
0 days 00:01:07.310000,-0.318848,-0.906982,0.016357,-9.063721,-13.916015,11.016845,0.9615341631356631
0 days 00:01:07.320000,-0.2771,-0.929932,0.023193,-0.991821,-6.584167,17.799377,0.9706162217236017
0 days 00:01:07.330000,-0.241699,-0.981934,0.024902,4.776001,-8.552551,22.056578,1.0115497499189052
0 days 00:01:07.340000,-0.230469,-1.006592,0.027588,6.591796,-13.641356,23.41461,1.0330075082829746
0 days 00:01:07.350000,-0.219238,-1.011963,0.037354,8.666992,-22.056578,24.734495,1.036112800485063
0 days 00:01:07.360000,-0.21167,-1.006104,0.044678,10.864257,-32.524109,25.924681,1.0290993982118541
0 days 00:01:07.370000,-0.207275,-0.994873,0.054443,12.390136,-43.601986,25.856016,1.0176931030536662
0 days 00:01:07.380000,-0.20459,-0.990723,0.058838,13.389586,-55.488583,25.001524,1.0133365882435115
0 days 00:01:07.390000,-0.202393,-0.990723,0.058838,13.664245,-67.909241,23.712156,1.0128953052620986
0 days 00:01:07.400000,-0.200195,-0.991699,0.059082,12.901305,-80.787651,21.812437,1.0134276626133707
0 days 00:01:07.410000,-0.206299,-0.987793,0.058105,11.535644,-93.795769,19.340515,1.0107771659841749
0 days 00:01:07.420000,-0.297607,-0.916016,0.017578,-4.890442,-9.19342,14.595031,0.9633089975646444
0 days 00:01:07.430000,-0.360352,-1.059326,-0.058594,20.03479,84.632866,-27.282713,1.1204723981499944
0 days 00:01:07.440000,-0.435059,-0.861328,0.094482,-5.294799,-76.713562,-1.396179,0.9695819229900071
0 days 00:01:07.450000,-0.343018,-1.031006,-0.049072,18.753052,78.521729,-26.756285,1.0876777011339342
0 days 00:01:07.460000,-0.296143,-1.064941,-0.04248,18.65387,21.736143,3.921509,1.1061666060454003
0 days 00:01:07.470000,-0.287598,-1.063965,-0.046387,14.427184,19.035339,3.326416,1.103125507183113
0 days 00:01:07.480000,-0.286133,-1.065186,-0.055176,10.353087,12.611388,0.846863,1.104326808178177
0 days 00:01:07.490000,-0.291504,-1.048096,-0.061035,6.378173,5.561828,-1.64032,1.089589408197877
0 days 00:01:07.500000,-0.300049,-1.024658,-0.061523,3.27301,0.289917,-3.15094,1.069457104747077
0 days 00:01:07.510000,-0.3125,-1.007813,-0.065674,0.289917,-3.112793,-3.562927,1.0571926821752977
0 days 00:01:07.520000,-0.30957,-0.993896,-0.071289,-3.509521,-6.370544,-4.104614,1.0434294251347334
0 days 00:01:07.530000,-0.291748,-0.975342,-0.071045,-7.141113,-10.795592,-5.40924,1.0205176649588188
0 days 00:01:07.540000,-0.280762,-0.948242,-0.064941,-9.613037,-15.968322,-6.576538,0.9910638348204418
0 days 00:01:07.550000,-0.278564,-0.924072,-0.063477,-11.276244,-19.714355,-6.805419,0.9672312509472593
0 days 00:01:07.560000,-0.281738,-0.905029,-0.063477,-12.870788,-20.484922,-6.736755,0.9499911162816208
0 days 00:01:07.570000,-0.28418,-0.878174,-0.06665,-12.985229,-19.035339,-6.996154,0.9254134585016581
0 days 00:01:07.580000,-0.286865,-0.863525,-0.059326,-11.192321,-15.86914,-6.54602,0.9118588312485656
0 days 00:01:07.590000,-0.293945,-0.854736,-0.057373,-8.682251,-10.902404,-5.355834,0.9056870065591093
0 days 00:01:07.600000,-0.303711,-0.847656,-0.058105,-4.760742,-6.134033,-6.233215,0.9022955485216582
0 days 00:01:07.610000,-0.304199,-0.834961,-0.059082,1.64032,-2.502441,-7.30133,0.8906107936949788
0 days 00:01:07.620000,-0.291504,-0.831299,-0.058838,9.681702,-0.25177,-5.081176,0.8828898683646789
0 days 00:01:07.630000,-0.310547,-0.858398,-0.074951,18.104553,2.815246,-5.798339,0.9159171458237911
0 days 00:01:07.640000,-0.343262,-0.89502,-0.101318,25.909422,12.977599,-12.489318,0.9639268323726652
0 days 00:01:07.650000,-0.334961,-0.934814,-0.129639,30.982969,28.877256,-18.699646,1.0014401412156395
0 days 00:01:07.660000,-0.324951,-0.969971,-0.147949,35.240173,41.427608,-21.316526,1.0335984712851505
0 days 00:01:07.670000,-0.353027,-1.024658,-0.157959,37.513733,49.369808,-20.744322,1.0952183003282954
0 days 00:01:07.680000,-0.357666,-1.051514,-0.05127,18.791199,79.566956,-23.979185,1.1118611750807743
0 days 00:01:07.690000,-0.298096,-1.061523,-0.039795,22.293089,19.65332,2.624511,1.1033022916544675
0 days 00:01:07.700000,-0.28418,-1.062744,-0.03125,24.368284,15.281676,0.740051,1.1005269848740646
0 days 00:01:07.710000,-0.462891,-0.907715,0.07251,-4.562378,23.956297,-10.612487,1.0215049188359302
0 days 00:01:07.720000,-0.225098,-1.072266,0.006592,26.016233,6.004333,-1.846313,1.0956582217206239
0 days 00:01:07.730000,-0.318848,-0.977051,-0.018555,19.950867,72.624207,-26.626585,1.0279284954363315
0 days 00:01:07.740000,-0.299316,-0.966309,-0.016846,19.454956,67.840576,-25.05493,1.0117445028528695
0 days 00:01:07.750000,-0.281006,-0.958496,-0.016846,18.043518,61.347958,-22.14813,0.9989808515522206
0 days 00:01:07.760000,-0.262695,-0.946045,-0.010986,17.51709,54.862972,-20.278929,0.981901470233139
0 days 00:01:07.770000,-0.249268,-0.924805,-0.004395,18.867493,49.22485,-19.737244,0.9578194714422964
0 days 00:01:07.780000,-0.236816,-0.898193,0.000732,20.858763,44.288631,-19.325256,0.9288880551115941
0 days 00:01:07.790000,-0.230957,-0.884766,0.000244,22.308348,40.710445,-18.096924,0.9144135115695744
0 days 00:01:07.800000,-0.225586,-0.882813,0.000732,23.460386,37.597656,-16.517639,0.9111796596659738
0 days 00:01:07.810000,-0.214355,-0.878906,-0.003906,25.05493,35.484314,-15.312194,0.9046762292096548
0 days 00:01:07.820000,-0.199951,-0.880615,-0.006104,26.725767,33.706665,-14.35089,0.9030506295009157
0 days 00:01:07.830000,-0.257568,-1.068115,-0.013428,25.444029,10.437011,-0.648498,1.0988135597238504
0 days 00:01:07.840000,-0.333008,-0.992676,-0.029053,19.65332,75.889587,-26.893614,1.0474464405634303
0 days 00:01:07.850000,-0.170898,-0.913818,-0.020264,27.999876,29.08325,-12.832641,0.9298817630344194
0 days 00:01:07.860000,-0.163574,-0.938721,-0.030762,27.778624,24.765013,-11.863708,0.9533624022170163
0 days 00:01:07.870000,-0.164551,-0.958008,-0.037109,26.69525,20.431517,-10.803222,0.9727453097013626
0 days 00:01:07.880000,-0.164551,-0.973389,-0.038818,25.062559,16.716003,-9.32312,0.9879625570060842
0 days 00:01:07.890000,-0.1521,-0.985107,-0.0354,23.193357,12.504577,-7.67517,0.997408327340914
0 days 00:01:07.900000,-0.140137,-1.00415,-0.022705,22.392271,7.453918,-6.690979,1.0141356508347392
0 days 00:01:07.910000,-0.133789,-1.0271,-0.005127,22.583006,2.998352,-6.248474,1.0357896469119585
0 days 00:01:07.920000,-0.139404,-1.046143,0.010742,23.750303,0.37384,-5.91278,1.0554449498808547
0 days 00:01:07.930000,-0.164307,-1.0625,0.018555,25.108335,0.610352,-5.043029,1.0752894160522553
0 days 00:01:07.940000,-0.197998,-1.070801,0.018066,25.779722,2.655029,-3.318786,1.0891025525454432
0 days 00:01:07.950000,-0.184814,-0.893799,-0.012451,27.732847,32.13501,-13.786315,0.9127912655136442
0 days 00:01:07.960000,-0.21582,-0.703613,0.054932,-3.990173,-29.930113,14.35089,0.7380156169031926
0 days 00:01:07.970000,-0.205566,-0.715576,0.09668,-7.255554,-38.215637,13.442992,0.7507685492427078
0 days 00:01:07.980000,-0.251709,-0.713623,0.123047,-8.94165,-45.394894,16.777039,0.7666523142983396
0 days 00:01:07.990000,-0.309082,-0.733398,0.163086,-11.19995,-47.431942,18.196106,0.8124046728841483
0 days 00:01:08,-0.224854,-1.091797,0.213867,-24.742125,-22.6593,-32.119751,1.1350414548438308
0 days 00:01:08.010000,-0.316406,-0.877686,0.213135,-19.355774,-30.921934,1.068115,0.9570120164642657
0 days 00:01:08.020000,-0.26123,-0.9646,0.212646,-21.492002,-25.955198,-13.34381,1.021720409023917
0 days 00:01:08.030000,-0.224609,-1.047363,0.229492,-23.483274,-25.276182,-25.588987,1.0954839271819556
0 days 00:01:08.040000,-0.281982,-0.687256,0.055908,0.63324,-24.986265,19.439697,0.7449566177462953
0 days 00:01:08.050000,-0.335205,-0.802002,0.215576,-15.548705,-41.648861,13.038634,0.8955683177764832
0 days 00:01:08.060000,-0.320313,-0.677246,0.057373,5.966186,-25.115965,23.132322,0.7513682343658136
0 days 00:01:08.070000,-0.306641,-0.881836,-0.02002,17.341614,-27.000425,17.288208,0.9338437953838961
0 days 00:01:08.080000,-0.313477,-0.721191,0.040283,14.747619,-28.472898,22.926329,0.787405237535921
0 days 00:01:08.090000,-0.296875,-0.775391,0.031494,17.26532,-28.839109,20.462034,0.8308777530672007
0 days 00:01:08.100000,-0.294922,-0.841553,0.005859,17.982483,-27.770994,19.073486,0.8917537584860521
0 days 00:01:08.110000,-0.302246,-0.882324,-0.037354,17.494202,-28.572081,16.082764,0.9334043104721554
0 days 00:01:08.120000,-0.312256,-0.882324,-0.04126,19.27948,-33.210754,17.662048,0.9368574267795501
0 days 00:01:08.130000,-0.343262,-0.89917,-0.02832,22.514341,-39.649963,20.64514,0.9628798013999463
0 days 00:01:08.140000,-0.373535,-0.923584,-0.020996,26.367186,-46.760555,23.551939,0.9964821289401029
0 days 00:01:08.150000,-0.394531,-0.945801,-0.026123,30.158995,-52.970882,26.390074,1.0251227500602063
0 days 00:01:08.160000,-0.416016,-0.980469,-0.035889,32.150269,-57.601925,28.648375,1.0656813747729665
0 days 00:01:08.170000,-0.245605,-1.164307,0.216553,-23.529051,-19.14978,-34.843445,1.2094741866129266
0 days 00:01:08.180000,-0.324707,-0.687012,0.042969,10.734557,-27.084349,24.482725,0.7610955649286099
0 days 00:01:08.190000,-0.295654,-1.266113,0.278564,-16.799927,-16.273499,-35.491943,1.3296809085570118
0 days 00:01:08.200000,-0.676025,-1.369385,0.309814,-37.750244,-4.714966,-47.645565,1.5582714119966392
0 days 00:01:08.210000,-0.3479,-1.366699,0.310303,-10.993957,-2.334595,-43.212887,1.4440181849305085
0 days 00:01:08.220000,-0.934814,-0.398682,0.289063,-5.805969,79.788208,-42.083736,1.056589783070516
0 days 00:01:08.230000,-0.894531,-0.503174,0.279297,-11.718749,78.971863,-46.882626,1.063661881636265
0 days 00:01:08.240000,-0.84668,-0.570557,0.29126,-14.465331,67.893982,-52.757259,1.0617130969565178
0 days 00:01:08.250000,-0.821533,-0.642578,0.316162,-14.86206,50.666805,-57.487484,1.0898538280049301
0 days 00:01:08.260000,-0.818604,-0.763916,0.320801,-19.714355,28.144835,-60.127254,1.164728915015421
0 days 00:01:08.270000,-0.821777,-0.890381,0.293701,-27.648924,2.861023,-63.987728,1.2467381602770486
0 days 00:01:08.280000,-0.816406,-0.998779,0.277832,-35.148621,-20.683287,-69.702148,1.319571471312183
0 days 00:01:08.290000,-0.816162,-1.095215,0.266846,-41.831966,-39.855957,-72.669983,1.3916979177195747
0 days 00:01:08.300000,-0.824951,-1.183105,0.250488,-49.705502,-47.882076,-73.661804,1.4639077264534128
0 days 00:01:08.310000,-0.843506,-1.230957,0.281494,-51.200863,-45.616146,-72.776794,1.5185507498667934
0 days 00:01:08.320000,-0.309082,-1.314941,0.331787,-9.719849,-11.184691,-36.613464,1.3909292324104774
0 days 00:01:08.330000,-0.863281,-1.305908,0.32251,-48.126217,-33.843994,-67.359924,1.5983311576531944
0 days 00:01:08.340000,-0.429199,-1.01123,-0.068115,29.953001,-60.409542,29.228209,1.1006532368216613
0 days 00:01:08.350000,-0.72168,-1.396973,0.296143,-34.690857,27.473448,-35.003662,1.6000175816465267
0 days 00:01:08.360000,-0.58252,-1.396729,0.312012,-28.129576,45.295712,-33.111572,1.5451643724811288
0 days 00:01:08.370000,-0.409668,-1.434082,0.296631,-21.469114,39.772034,-35.377502,1.5206607126867586
0 days 00:01:08.380000,-0.293213,-1.499512,0.293945,-16.540527,23.811338,-41.107174,1.5559285859376708
0 days 00:01:08.390000,-0.229736,-1.551025,0.273682,-14.404296,4.020691,-50.361629,1.591652919905907
0 days 00:01:08.400000,-0.28418,-1.563232,0.26416,-16.349792,-9.376526,-56.343075,1.6106623059549134
0 days 00:01:08.410000,-0.381104,-1.519531,0.267578,-16.12854,-10.276793,-58.006283,1.5892805620345956
0 days 00:01:08.420000,-0.415283,-1.473389,0.267578,-15.464782,-6.347656,-54.756161,1.5540055024014556
0 days 00:01:08.430000,-0.416504,-1.432129,0.27002,-14.259337,-1.457214,-49.659725,1.5157110064445003
0 days 00:01:08.440000,-0.732178,-1.363037,0.325195,-43.502804,-23.132322,-59.448238,1.581045943379888
0 days 00:01:08.450000,-0.41626,-1.023926,-0.094727,24.070738,-62.965389,28.114317,1.1093556894003833
0 days 00:01:08.460000,-0.942871,-0.290039,0.302734,-1.617432,68.817139,-37.872314,1.0318799440429105
0 days 00:01:08.470000,-0.415283,-1.007324,-0.111572,12.390136,-67.802429,27.923582,1.0952670552194108
0 days 00:01:08.480000,-0.628418,-0.898193,0.064941,-2.922058,-95.123283,52.467342,1.0981243925229964
0 days 00:01:08.490000,-0.637451,-0.899414,0.074219,-1.907349,-92.308037,51.345821,1.10489718107976
0 days 00:01:08.500000,-0.640625,-0.915039,0.083252,-1.907349,-90.950005,48.652645,1.1201016282686138
0 days 00:01:08.510000,-0.624268,-0.930176,0.094238,-2.914428,-92.346184,44.204708,1.1241969255624211
0 days 00:01:08.520000,-0.595703,-0.936768,0.093994,-4.844666,-95.66497,39.176941,1.1141055704326228
0 days 00:01:08.530000,-0.579834,-0.934326,0.088135,-7.255554,-98.983757,33.821106,1.103150180191709
0 days 00:01:08.540000,-0.580566,-0.935791,0.08374,-9.628296,-101.043694,28.526304,1.10443382039713
0 days 00:01:08.550000,-0.571289,-0.942871,0.086914,-12.550353,-102.72216,23.483274,1.105862056297258
0 days 00:01:08.560000,-0.578613,-0.956543,0.094971,-15.907287,-103.668205,19.607544,1.1219567752186357
0 days 00:01:08.570000,-0.601318,-0.963135,0.10498,-18.623352,-102.432243,15.899657,1.1402776704597
0 days 00:01:08.580000,-0.625977,-0.906494,0.065674,-3.89862,-98.014824,52.74963,1.1035812842020292
0 days 00:01:08.590000,-0.609619,-0.968262,0.117676,-21.171568,-100.166313,11.978148,1.1502235725201426
0 days 00:01:08.600000,-0.520996,-0.974854,0.094727,-28.556822,-93.231194,4.447937,1.1093918865130572
0 days 00:01:08.610000,-0.483887,-0.974854,0.084229,-31.799314,-90.583794,2.26593,1.091595838452126
0 days 00:01:08.620000,-0.4646,-0.969482,0.086914,-33.874512,-89.134209,0.595093,1.0785650428787315
0 days 00:01:08.630000,-0.437256,-0.968262,0.081543,-35.964966,-88.569633,-1.029968,1.0655390049308378
0 days 00:01:08.640000,-0.405762,-0.961914,0.068848,-37.338257,-89.988701,-2.441406,1.046260670743195
0 days 00:01:08.650000,-0.397949,-0.966309,0.058105,-38.261414,-92.193596,-3.14331,1.0466578624875467
0 days 00:01:08.660000,-0.401611,-0.973389,0.053955,-39.466858,-92.880241,-3.387451,1.0543664840400608
0 days 00:01:08.670000,-0.399902,-0.972412,0.058594,-40.702816,-92.224113,-4.058838,1.0530621843860883
0 days 00:01:08.680000,-0.394775,-0.970459,0.05957,-41.564938,-90.415947,-5.058288,1.0493743641837265
0 days 00:01:08.690000,-0.391602,-0.962891,0.048828,-42.480465,-86.936943,-5.546569,1.0406225914658014
0 days 00:01:08.700000,-0.576904,-0.973633,0.114502,-24.604795,-96.984856,7.80487,1.1374929238940346
0 days 00:01:08.710000,-0.623779,-0.911377,0.064453,-4.768372,-100.845329,52.986141,1.106283176306591
0 days 00:01:08.720000,-0.395264,-1.012939,-0.112061,17.448425,-65.460205,27.168272,1.093085868144859
0 days 00:01:08.730000,-0.61377,-0.924316,0.049072,-6.225585,-105.827324,52.970882,1.1106222318772483
0 days 00:01:08.740000,-0.612793,-0.915771,0.053711,-5.691528,-103.454582,53.009029,1.103193843715147
0 days 00:01:08.750000,-0.45874,-1.011963,-0.080811,9.407043,-70.068359,29.510496,1.11402060963431
0 days 00:01:08.760000,-0.481689,-1.006592,-0.052246,7.766723,-72.166443,31.082151,1.1171308749206603
0 days 00:01:08.770000,-0.492432,-0.998779,-0.031982,6.317138,-74.127197,32.417297,1.1140339374493937
0 days 00:01:08.780000,-0.514404,-0.977783,-0.02832,5.554199,-75.973511,33.8974,1.1052027382815335
0 days 00:01:08.790000,-0.526367,-0.956543,-0.031738,5.706787,-77.194214,35.102844,1.0922655492974225
0 days 00:01:08.800000,-0.523438,-0.946533,-0.0271,5.867004,-78.468323,35.346985,1.0819641722039597
0 days 00:01:08.810000,-0.519531,-0.947021,-0.028076,5.218505,-87.959282,33.64563,1.0805320431056176
0 days 00:01:08.820000,-0.538574,-0.954102,-0.02417,4.318237,-92.124931,32.989502,1.0958817312009541
0 days 00:01:08.830000,-0.55127,-0.966553,-0.020996,3.341675,-95.252983,32.279968,1.1129079686681196
0 days 00:01:08.840000,-0.55249,-0.989014,-0.02002,1.808166,-99.411003,31.433104,1.1330466418890266
0 days 00:01:08.850000,-0.51416,-0.945557,-0.024902,5.638122,-82.336418,34.614563,1.0765958644974445
0 days 00:01:08.860000,-0.555908,-1.034912,-0.02124,-3.410339,-113.533012,32.402039,1.1749585906779865
0 days 00:01:08.870000,-0.55957,-1.0354,-0.018311,-5.638122,-119.789116,33.905029,1.1770756295247133
0 days 00:01:08.880000,-0.553223,-1.008789,-0.019287,-6.813049,-123.107903,36.216736,1.1506880214111033
0 days 00:01:08.890000,-0.609863,-0.928223,0.048828,-6.553649,-108.795158,52.108761,1.1117171358227775
0 days 00:01:08.900000,-0.556641,-0.98291,-0.006348,-6.385803,-125.190727,39.352417,1.129602393802793
0 days 00:01:08.910000,-0.577637,-0.970215,0.009521,-5.950927,-124.90081,43.136593,1.1291909933377082
0 days 00:01:08.920000,-0.597168,-0.959473,0.008057,-6.507873,-122.116081,45.997616,1.1301605961994958
0 days 00:01:08.930000,-0.612305,-0.940186,0.013184,-6.66809,-118.461601,47.622677,1.1220699378724126
0 days 00:01:08.940000,-0.616943,-0.924805,0.027832,-6.340026,-114.334099,49.003597,1.1120510660477783
0 days 00:01:08.950000,-0.608398,-0.926758,0.03833,-6.912231,-111.213676,50.521847,1.1092780110810816
0 days 00:01:08.960000,-0.552002,-1.015137,-0.019043,-0.663757,-105.728142,31.448362,1.1556694910838479
0 days 00:01:08.970000,0.516602,-0.860596,0.125,-171.874985,-81.375114,-249.992355,1.0114979493899134
0 days 00:01:08.980000,0.479004,-0.977051,0.295898,-176.612839,-76.828003,-249.93132,1.12766533821919
0 days 00:01:08.990000,0.362549,-1.095703,0.530029,-182.77739,-56.549068,-249.816879,1.2700147961543597
0 days 00:01:09,-2.18335,-3.535645,1.651123,-126.708977,190.567001,-249.992355,4.471466196859147
0 days 00:01:09.010000,-0.489014,-1.726563,1.014648,-194.709763,58.746334,-249.992355,2.0614715736747375
0 days 00:01:09.020000,-1.016846,-2.572021,1.314453,-200.859055,141.113281,-249.992355,3.0621976587682904
0 days 00:01:09.030000,-1.677002,-3.26123,1.431885,-177.848801,194.778427,-249.992355,3.9367818677352444
0 days 00:01:09.040000,0.609863,-0.690674,0.046387,-160.385132,-78.422546,-243.606552,0.922559053293609
0 days 00:01:09.050000,-0.031738,-1.332031,0.792969,-187.660202,-13.153075,-249.992355,1.550520467638528
0 days 00:01:09.060000,0.680176,-0.604492,0.074707,-140.50293,-74.775696,-217.246994,0.9130340108062788
0 days 00:01:09.070000,0.491943,-0.910156,-0.42627,-7.980346,-12.5885,140.708923,1.1189718372170945
0 days 00:01:09.080000,0.735107,-0.616943,0.086426,-90.011589,-68.534851,-147.315979,0.9635716995501684
0 days 00:01:09.090000,0.755859,-0.595947,-0.022217,-61.462399,-71.937561,-105.224602,0.9627924229962552
0 days 00:01:09.100000,0.707031,-0.571045,-0.141357,-35.934448,-76.583862,-59.898373,0.9197646592661625
0 days 00:01:09.110000,0.623535,-0.574463,-0.261475,-17.204285,-79.177856,-16.029358,0.8872275977555025
0 days 00:01:09.120000,0.573242,-0.649414,-0.390137,-8.415222,-72.250366,20.271299,0.9500272694659876
0 days 00:01:09.130000,0.550293,-0.764893,-0.461914,-7.392883,-53.840633,51.849361,1.0494037500857332
0 days 00:01:09.140000,0.541504,-0.84375,-0.485596,-7.522583,-39.474487,85.510246,1.1139767141785326
0 days 00:01:09.150000,0.592529,-0.872314,-0.521729,-9.140015,-32.447815,112.197868,1.1765302715519053
0 days 00:01:09.160000,0.615479,-0.868652,-0.508789,-11.100768,-26.771544,124.366753,1.1799309060559435
0 days 00:01:09.170000,0.584961,-0.865234,-0.462402,-10.292052,-18.722534,130.279541,1.1422017579574109
0 days 00:01:09.180000,-2.758301,-3.248779,2.315186,-88.203423,148.971558,-249.992355,4.850038722735933
0 days 00:01:09.190000,0.713135,-0.608643,0.115234,-116.775505,-69.80896,-185.661301,0.9446092866524233
0 days 00:01:09.200000,-3.497559,-2.760254,2.849609,-80.101013,75.553894,-249.992355,5.288874412942512
0 days 00:01:09.210000,-0.774902,0.327148,0.724609,67.092896,-16.159058,-70.121765,1.1102058936922465
0 days 00:01:09.220000,-3.841309,-2.312988,2.626221,-99.945061,-158.7677,-247.062668,5.196403088913138
0 days 00:01:09.230000,-0.210693,0.602051,-0.090088,101.875298,-65.742493,45.509335,0.6441838205000184
0 days 00:01:09.240000,0.328125,-0.972656,-0.417969,-5.180358,-12.863158,157.592773,1.1083428147112246
0 days 00:01:09.250000,-0.260742,0.535889,-0.109375,93.284599,-63.995358,18.074036,0.6059094829345386
0 days 00:01:09.260000,-0.290283,0.524902,-0.077393,89.187614,-54.878231,6.889343,0.6047941849439361
0 days 00:01:09.270000,-0.312744,0.518799,-0.032959,84.785454,-45.333858,-0.862122,0.6066691912550035
0 days 00:01:09.280000,-0.352783,0.509766,0.002686,81.451408,-36.308289,-7.6828,0.6199390570378673
0 days 00:01:09.290000,-0.404541,0.515625,0.054443,77.415466,-28.053282,-14.564513,0.6576371351703004
0 days 00:01:09.300000,-0.407227,0.528076,0.094971,72.181702,-21.797178,-25.161741,0.6735856160474332
0 days 00:01:09.310000,-0.380127,0.546387,0.1875,68.130493,-15.319823,-38.871765,0.6915139477248452
0 days 00:01:09.320000,-0.428467,0.518799,0.268311,60.111996,-5.760192,-51.269527,0.7243805389510405
0 days 00:01:09.330000,-0.493896,0.479248,0.345215,52.467342,10.116576,-57.945248,0.7699255162319275
0 days 00:01:09.340000,-0.5354,0.469971,0.438232,54.832455,22.193907,-62.70599,0.8364049178866657
0 days 00:01:09.350000,-0.563965,0.463623,0.530273,59.020992,24.108885,-66.696167,0.9023260285966487
0 days 00:01:09.360000,-0.655518,0.428467,0.623047,63.4613,10.650634,-69.152832,1.0007374194173015
0 days 00:01:09.370000,-0.927246,0.193115,0.857422,67.680359,-47.866817,-69.42749,1.2775958022101512
0 days 00:01:09.380000,-1.125977,0.013184,1.022217,62.347408,-78.018188,-66.810608,1.5208305682994407
0 days 00:01:09.390000,-1.359131,-0.195801,1.25293,58.769222,-104.904167,-62.255856,1.8588729627551208
0 days 00:01:09.400000,-1.603516,-0.468262,1.470947,52.37579,-123.748772,-63.003536,2.225807255740937
0 days 00:01:09.410000,-1.814697,-0.821045,1.60083,35.255432,-138.923645,-70.266724,2.5553662717375762
0 days 00:01:09.420000,-2.049072,-1.178223,1.757324,8.483887,-162.727341,-81.520073,2.94535110638596
0 days 00:01:09.430000,-2.360107,-1.526855,2.025879,-21.621702,-206.031784,-105.659477,3.46490648721073
0 days 00:01:09.440000,-2.793457,-1.875977,2.243408,-53.848263,-244.689926,-151.817322,4.044202167281206
0 days 00:01:09.450000,-3.346191,-2.106201,2.427734,-83.984367,-232.559189,-210.525497,4.639716503800421
0 days 00:01:09.460000,-4.002686,-2.543701,2.842773,-93.551628,-41.320797,-249.992355,5.529309931765988
0 days 00:01:09.470000,-0.23877,0.565186,-0.129395,97.068779,-67.703247,31.585691,0.6270481588530501
0 days 00:01:09.480000,0.166992,-1.039063,-0.4104,-2.937317,-19.088745,174.339279,1.1295868297891047
0 days 00:01:09.490000,-0.019775,-1.133057,-0.376465,-4.53186,-40.916439,200.004562,1.194125249753559
0 days 00:01:09.500000,-1.741211,-0.704834,-0.01416,-13.923644,-177.35289,188.529953,1.878511969532534
0 days 00:01:09.510000,-1.595947,-0.650879,-0.018799,-18.066406,-174.194321,177.894577,1.7236715759827914
0 days 00:01:09.520000,-1.377686,-0.610596,-0.040039,-25.909422,-166.89299,156.944275,1.5074645307047858
0 days 00:01:09.530000,-1.200928,-0.508545,-0.05957,-33.233643,-150.58136,129.699707,1.3055246696669505
0 days 00:01:09.540000,-1.165527,-0.348145,-0.0271,-36.308289,-124.732964,99.380486,1.2167138277976461
0 days 00:01:09.550000,-1.184082,-0.185547,0.073975,-29.556273,-98.953239,75.386047,1.2008122969715127
0 days 00:01:09.560000,-1.101074,-0.064453,0.15625,-17.372131,-82.93914,59.906002,1.1139713664116329
0 days 00:01:09.570000,-0.883789,-0.010986,0.201416,-10.620116,-81.039421,48.042294,0.9065164608395151
0 days 00:01:09.580000,-0.667725,0.018799,0.194336,-12.138366,-93.391411,37.109375,0.6956842379427609
0 days 00:01:09.590000,-0.565186,0.138672,0.224365,-16.052246,-123.443596,25.062559,0.6237024862905389
0 days 00:01:09.600000,-1.805176,-0.838379,-0.00293,-12.947082,-179.275497,191.261276,1.9903638671150057
0 days 00:01:09.610000,-0.611084,0.196289,0.280029,-8.659363,-126.342766,24.223326,0.7002637127668404
0 days 00:01:09.620000,-0.658203,0.100342,0.24292,-25.596617,-106.498711,2.426147,0.7087381974840922
0 days 00:01:09.630000,-0.664307,0.064941,0.265869,-35.797119,-84.770195,-5.867004,0.7184757817010954
0 days 00:01:09.640000,-0.678467,0.051025,0.268066,-28.007505,-64.071655,-0.564575,0.7312868117708674
0 days 00:01:09.650000,-0.70874,0.018066,0.268555,-24.818419,-45.928951,-1.480102,0.7581296432543712
0 days 00:01:09.660000,-0.75708,-0.009521,0.32959,-17.166138,-27.656553,-6.088256,0.8257665190239915
0 days 00:01:09.670000,-0.782959,-0.038818,0.355225,-6.752014,-8.384705,-11.32965,0.8606488444365681
0 days 00:01:09.680000,-0.809082,-0.089111,0.357422,-1.152039,10.856627,-17.982483,0.8889909668433083
0 days 00:01:09.690000,-0.86084,-0.145996,0.339355,0.228882,29.846189,-25.352476,0.9367615244239059
0 days 00:01:09.700000,-0.914307,-0.212158,0.3125,0.091553,49.903866,-32.363892,0.9892545462180096
0 days 00:01:09.710000,0.065918,-1.092773,-0.400391,-2.76947,-29.281614,187.087997,1.1656804730002128
0 days 00:01:09.720000,-0.650879,0.178223,0.275635,-8.476257,-120.895378,17.608643,0.7289592331502496
0 days 00:01:09.730000,-1.966553,-1.068115,0.000488,-10.681151,-185.9207,202.67485,2.2379009346211016
0 days 00:01:09.740000,-0.56958,0.064697,0.18042,-16.700745,-111.206047,28.625486,0.6009646034576412
0 days 00:01:09.750000,-2.567871,-1.582275,-0.028076,-2.868652,-222.106918,249.992355,3.0163461190722125
0 days 00:01:09.760000,-2.243896,-1.350098,-0.018799,-7.019042,-199.554428,229.202255,2.618814096269722
0 days 00:01:09.770000,-0.243652,-1.136963,-0.343994,-9.010315,-60.9436,236.633286,1.2125935149542075
0 days 00:01:09.780000,-0.385742,-1.128174,-0.346191,-13.137816,-67.741394,249.328598,1.241540040965655
0 days 00:01:09.790000,-0.516113,-1.12207,-0.335205,-17.944336,-70.655823,249.992355,1.2797562680815437
0 days 00:01:09.800000,-0.636719,-1.148438,-0.322754,-21.034239,-71.640015,249.992355,1.3522170940056186
0 days 00:01:09.810000,-0.75293,-1.211426,-0.294189,-21.347044,-74.386597,249.992355,1.4563666111583993
0 days 00:01:09.820000,-0.878418,-1.30127,-0.267578,-19.363403,-82.984917,249.992355,1.5926455292085555
0 days 00:01:09.830000,-1.070068,-1.405762,-0.246338,-15.266418,-98.770134,249.992355,1.7837866283588966
0 days 00:01:09.840000,-1.302734,-1.520508,-0.222656,-11.016845,-122.039787,249.992355,2.014605705133389
0 days 00:01:09.850000,-1.521729,-1.644531,-0.201172,-7.659912,-149.978638,249.992355,2.2495803015198192
0 days 00:01:09.860000,-1.796875,-1.7771,-0.18335,-5.226135,-174.896225,249.992355,2.533862939885463
0 days 00:01:09.870000,-0.112793,-1.146729,-0.348633,-6.988525,-51.467892,216.346725,1.2038499196241201
0 days 00:01:09.880000,-2.410889,-2.096191,-0.092041,-4.173279,-193.290695,249.992355,3.1960716550920756
0 days 00:01:09.890000,-2.773926,-1.642822,-0.009033,0.465393,-243.782028,249.992355,3.2239124014540157
0 days 00:01:09.900000,-2.631836,-2.219971,-0.062012,-4.219055,-192.062363,249.992355,3.4436430505906097
0 days 00:01:09.910000,-2.739258,-2.260986,-0.043945,-7.392883,-188.18663,249.992355,3.5521153198882773
0 days 00:01:09.920000,-2.732178,-2.181152,-0.007813,-9.880066,-187.400803,249.992355,3.4960380023330697
0 days 00:01:09.930000,-2.688965,-2.057617,0.063477,-6.896972,-194.892868,249.992355,3.3864952117850398
0 days 00:01:09.940000,-2.640869,-1.966064,0.079834,-3.204345,-213.485703,249.992355,3.293322060596716
0 days 00:01:09.950000,-2.611328,-1.855469,0.065674,0.732422,-233.489975,249.992355,3.2040774347417074
0 days 00:01:09.960000,-2.700195,-1.750732,0.06958,2.853393,-247.436508,249.992355,3.218844039441644
0 days 00:01:09.970000,-2.784912,-1.675049,0.040283,2.151489,-249.992355,249.603256,3.2500994938976864
0 days 00:01:09.980000,-2.123047,-1.926758,-0.140137,-4.341125,-188.880905,249.992355,2.8704291201041703
0 days 00:01:09.990000,-3.947021,-1.230225,1.751221,10.765075,176.429733,-240.539536,4.489900145427178
0 days 00:01:10,-3.620117,-1.113525,1.515381,1.983642,121.50573,-198.7686,4.079407382754877
0 days 00:01:10.010000,-3.088379,-1.003174,1.346191,0.366211,86.860649,-158.01239,3.5152059869085908
0 days 00:01:10.020000,-1.674072,-0.557617,0.916992,-21.064756,72.563171,-70.228577,1.9885492470484607
0 days 00:01:10.030000,-2.333252,-0.800537,1.11499,-11.45935,79.38385,-104.850761,2.7070513633791657
0 days 00:01:10.040000,-1.953613,-0.663574,1.037598,-15.945434,75.157166,-84.213249,2.3094466473268005
0 days 00:01:10.050000,-3.890137,-1.385254,2.055664,34.141541,225.49437,-249.992355,4.6127918882365595
0 days 00:01:10.060000,-1.455811,-0.452637,0.776123,-22.338865,65.551758,-62.049862,1.7107404340282018
0 days 00:01:10.070000,-2.667236,-0.916992,1.202148,-4.776001,80.116272,-129.753113,3.06597162766781
0 days 00:01:10.080000,-3.419922,-0.385254,0.685791,-2.212524,-89.805595,249.992355,3.509215927565729
0 days 00:01:10.090000,-0.465576,-1.456055,0.499756,-247.726425,188.217148,-249.992355,1.6082951328462698
0 days 00:01:10.100000,-2.500977,-2.408936,1.024658,-8.308411,248.908981,-249.992355,3.6204671830564905
0 days 00:01:10.110000,-2.540039,-2.700684,0.867188,-101.72271,249.992355,-249.992355,3.8075592203826587
0 days 00:01:10.120000,-1.575684,-2.204834,0.97876,-196.365341,249.992355,-249.992355,2.881326807741878
0 days 00:01:10.130000,0.141602,-1.001953,0.221924,-249.992355,125.328056,-249.755844,1.0359590737036866
0 days 00:01:10.140000,0.391357,-0.714355,0.304932,-249.992355,83.480827,-249.862656,0.8697395541758464
0 days 00:01:10.150000,0.49292,-0.516113,0.375,-249.992355,68.122864,-249.992355,0.8062057771865692
0 days 00:01:10.160000,0.480469,-0.447021,0.438721,-249.992355,73.84491,-241.813644,0.7894012606038833
0 days 00:01:10.170000,0.383301,-0.437744,0.359863,-249.992355,80.79528,-207.870468,0.6841351072017866
0 days 00:01:10.180000,-1.21582,-0.344482,0.639404,-18.508911,56.747433,-60.638424,1.4162357134107302
0 days 00:01:10.190000,0.321533,-0.460205,0.241211,-249.954208,84.228508,-182.89946,0.611027706929072
0 days 00:01:10.200000,-2.733887,-2.257324,1.587158,40.382381,249.923691,-249.992355,3.884420199554755
0 days 00:01:10.210000,-0.986084,-0.260498,0.529053,-13.229369,50.559994,-63.323971,1.1489638549010146
0 days 00:01:10.220000,-0.573486,0.851563,0.592773,4.295349,-33.813477,-9.460449,1.1855064591532178
0 days 00:01:10.230000,-0.615234,-0.071533,0.367432,-6.050109,56.587215,-72.608948,0.720163953186356
0 days 00:01:10.240000,0.30542,-0.497803,0.205811,-249.824509,90.644829,-164.657578,0.6192312741859861
0 days 00:01:10.250000,-2.749023,0.092041,0.572021,-46.485897,-79.963684,183.547958,2.8094140002233563
0 days 00:01:10.260000,-2.124268,0.355469,0.3396,-68.817139,-109.138481,155.754089,2.180413012661821
0 days 00:01:10.270000,-1.57373,0.580811,0.241943,-73.654175,-143.180847,120.826714,1.6948462897472443
0 days 00:01:10.280000,-1.274658,0.798096,0.2771,-62.904354,-168.876633,88.813774,1.529213736591455
0 days 00:01:10.290000,-1.056885,0.9646,0.322021,-46.646114,-177.505478,66.03241,1.4666821699557133
0 days 00:01:10.300000,-0.875244,1.041992,0.314453,-35.568237,-173.019394,49.110409,1.3966674897086278
0 days 00:01:10.310000,-0.692627,1.036377,0.317139,-32.821655,-166.587814,34.873962,1.2862296033675327
0 days 00:01:10.320000,-0.510986,1.013672,0.336914,-36.865234,-164.794907,23.834227,1.1841235827294379
0 days 00:01:10.330000,-0.430176,1.010498,0.369141,-41.954037,-166.328415,15.151977,1.1586296547477972
0 days 00:01:10.340000,-0.777344,-0.175049,0.437256,-8.758545,50.247189,-67.550659,0.90889969538613
0 days 00:01:10.350000,-0.467529,1.02832,0.426758,-36.941528,-159.973145,11.024474,1.207537899531522
0 days 00:01:10.360000,-0.588135,0.99292,0.552979,-1.724243,-87.631218,5.317688,1.2796791312926845
0 days 00:01:10.370000,-0.510986,0.661865,0.597412,-1.747131,13.47351,-28.610228,1.0276541578590535
0 days 00:01:10.380000,-0.431641,0.487793,0.536377,-12.435912,45.715328,-43.380733,0.8437749995460875
0 days 00:01:10.390000,-0.382568,0.379639,0.469727,-19.187927,66.131592,-50.674435,0.7149318145627596
0 days 00:01:10.400000,-0.417725,0.342529,0.439453,-17.791748,79.086304,-54.656979,0.6963757826597647
0 days 00:01:10.410000,-0.484375,0.337402,0.408691,-10.536193,86.936943,-59.585567,0.7179746400187127
0 days 00:01:10.420000,-0.527832,0.310059,0.383545,-2.624511,89.401237,-63.888546,0.7223918401601723
0 days 00:01:10.430000,-0.534912,0.238525,0.374023,0.541687,85.281364,-68.008423,0.6949231812927239
0 days 00:01:10.440000,-0.509766,0.134277,0.345215,-1.785278,77.217102,-73.905945,0.6301310051965385
0 days 00:01:10.450000,-0.523926,0.029297,0.341797,-4.226685,66.978455,-76.133728,0.6262443268357807
0 days 00:01:10.460000,-0.540039,1.04248,0.491943,-19.317627,-133.338928,10.551452,1.2729550609389164
0 days 00:01:10.470000,-3.162842,-0.189697,0.697998,-20.912169,-72.410583,223.297104,3.2444962130933366
0 days 00:01:10.480000,-3.528564,-1.863525,2.038086,49.880978,247.604355,-249.992355,4.480768223320305
0 days 00:01:10.490000,0.235107,-0.679932,0.106445,-235.06926,125.267021,-108.963005,0.7272643014049294
0 days 00:01:10.500000,-1.688232,-0.282959,2.915283,249.992355,62.858578,249.702438,3.3806904696517246
0 days 00:01:10.510000,-1.693848,-0.282715,2.994385,249.877914,62.499996,249.992355,3.451867660637354
0 days 00:01:10.520000,-1.754395,-0.262207,3.153076,249.80925,67.001343,249.992355,3.6178090868162185
0 days 00:01:10.530000,-1.674561,-0.086182,3.276367,249.992355,62.309261,232.261642,3.680511187122517
0 days 00:01:10.540000,-1.403564,-0.026611,3.221436,246.467575,23.422239,229.90416,3.5140219050986294
0 days 00:01:10.550000,-1.513916,0.031494,3.02417,213.523849,-8.995056,249.992355,3.3820907314842987
0 days 00:01:10.560000,-1.830078,0.350098,2.892578,181.625351,44.006344,237.266525,3.4407501481177034
0 days 00:01:10.570000,-0.729492,0.212891,2.766602,205.749496,47.821041,104.202263,2.8690708918304892
0 days 00:01:10.580000,-0.499268,0.183105,2.31665,127.288811,-103.309624,219.512924,2.376902017195703
0 days 00:01:10.590000,-0.66626,0.243408,2.178467,66.268921,-141.784668,248.023972,2.2910408796337527
0 days 00:01:10.600000,-1.755127,-0.311279,2.762939,249.992355,61.248775,249.961838,3.2880385216251646
0 days 00:01:10.610000,-0.534424,0.362549,1.752441,65.109253,-126.632683,224.792465,1.8676456429574642
0 days 00:01:10.620000,-0.299561,0.569824,0.977051,74.447632,-82.397453,186.012253,1.1700704424512227
0 days 00:01:10.630000,-0.207275,0.613037,0.748535,78.048706,-64.26239,177.017197,0.989485692276043
0 days 00:01:10.640000,-0.120605,0.627197,0.552246,81.855766,-44.677731,164.25322,0.844332450726608
0 days 00:01:10.650000,-0.046875,0.657715,0.351563,86.021416,-28.785704,146.842957,0.7472501788684965
0 days 00:01:10.660000,-0.023438,0.665771,0.16626,91.934196,-23.048399,129.341125,0.6866168887268941
0 days 00:01:10.670000,-0.074463,0.633301,0.081055,95.985405,-25.108335,115.821831,0.6427945301532987
0 days 00:01:10.680000,-0.14624,0.597168,0.060791,97.328178,-32.897949,101.46331,0.6178117055422307
0 days 00:01:10.690000,-0.192871,0.609131,0.033936,100.036613,-46.257015,84.182732,0.6398370494883834
0 days 00:01:10.700000,-0.19873,0.614014,-0.015137,103.034966,-58.486935,63.888546,0.6455508762793215
