t,ax,ay,az,gx,gy,gz,acc_mag
0 days 00:00:59.430000,0.169189,0.990479,-0.173096,0.25177,-0.823975,-0.190735,1.0196253196042162
0 days 00:00:59.440000,0.168701,0.990479,-0.174316,0.244141,-0.869751,-0.099182,1.0197522957551997
0 days 00:00:59.450000,0.169922,0.990967,-0.175537,0.144958,-0.747681,-0.091553,1.0206381922806926
0 days 00:00:59.460000,0.175781,0.992188,-0.179199,0.213623,-1.411438,-0.236511,1.023449201917711
0 days 00:00:59.470000,0.171143,0.991455,-0.17627,0.114441,-0.350952,-0.38147,1.0214421453875888
0 days 00:00:59.480000,0.171387,0.992432,-0.174316,0.106812,-0.511169,-0.221252,1.0220962998900835
0 days 00:00:59.490000,0.169434,0.993164,-0.167236,-0.083923,-0.160217,-0.457764,1.021298433832149
0 days 00:00:59.500000,0.172607,0.99585,-0.169189,-0.190735,-0.328064,-0.541687,1.0247611022428593
0 days 00:00:59.510000,0.174072,0.996582,-0.171631,-0.282288,-0.465393,-0.579834,1.026125696037771
0 days 00:00:59.520000,0.171387,0.996338,-0.173096,-0.320435,-0.572205,-0.640869,1.0256827673452449
0 days 00:00:59.530000,0.168701,0.991943,-0.169189,0.061035,-0.007629,-0.37384,1.0203116486500583
0 days 00:00:59.540000,0.172852,0.993408,-0.17749,-0.213623,-0.427246,-0.694275,1.0238359089561178
0 days 00:00:59.550000,0.171387,0.993652,-0.178711,-0.091553,-0.38147,-0.572205,1.02403877973151
0 days 00:00:59.560000,0.17041,0.991699,-0.177246,0.068665,-0.328064,-0.411987,1.0217253149535837
0 days 00:00:59.570000,0.171143,0.993652,-0.175537,-0.205994,-0.564575,-0.686645,1.0234488076704178
0 days 00:00:59.580000,0.706055,0.252686,-0.097412,13.488769,2.63977,129.737854,0.7562096107330295
0 days 00:00:59.590000,0.674805,0.035889,-0.010986,-6.233215,-10.620116,74.684143,0.6758479862676222
0 days 00:00:59.600000,0.625488,0.064941,-0.03418,-3.486633,-11.58142,81.169121,0.6297784086684777
0 days 00:00:59.610000,0.634033,0.108887,-0.050049,-1.655578,-10.612487,89.355461,0.645258960618913
0 days 00:00:59.620000,0.671631,0.146484,-0.057617,-0.25177,-8.789063,98.541252,0.6898300378397566
0 days 00:00:59.630000,0.701172,0.166504,-0.046875,2.090454,-8.407593,105.041496,0.7221932021453816
0 days 00:00:59.640000,0.70166,0.178711,-0.061768,5.073547,-8.766174,110.023491,0.7266908991758463
0 days 00:00:59.650000,0.708496,0.032715,-0.015869,-9.109497,-8.888245,71.182251,0.7094284166862785
0 days 00:00:59.660000,0.701416,0.201904,-0.072266,7.957458,-6.965637,116.119377,0.7334657490489928
0 days 00:00:59.670000,0.703369,0.231201,-0.094727,10.650634,-2.388,123.26049,0.7464281995550544
0 days 00:00:59.680000,0.70459,0.270996,-0.093994,15.754699,6.980896,136.199951,0.7607369927589955
0 days 00:00:59.690000,0.750732,0.418701,-0.11084,22.720335,10.177611,167.366013,0.8667148140103524
0 days 00:00:59.700000,0.721436,0.307373,-0.077393,20.63751,16.891479,149.406433,0.7879960277019167
0 days 00:00:59.710000,0.7146,0.329102,-0.077148,23.147581,17.120361,153.953552,0.7905144529406152
0 days 00:00:59.720000,0.722656,0.376465,-0.090332,23.857115,14.045714,159.767151,0.8198277018892445
0 days 00:00:59.730000,0.80249,0.418701,-0.118164,22.300718,7.545471,170.120224,0.9128326562941315
0 days 00:00:59.740000,0.835205,0.416504,-0.138916,22.476194,8.720398,168.220505,0.9435786289954854
0 days 00:00:59.750000,0.822998,0.438232,-0.173096,21.369932,15.136718,169.960007,0.9483328629990633
0 days 00:00:59.760000,0.791504,0.453613,-0.167725,19.851685,23.513792,175.117477,0.9275640201139757
0 days 00:00:59.770000,0.80249,0.454346,-0.114014,19.645691,30.952452,178.87114,0.9292037882036427
0 days 00:00:59.780000,0.83252,0.459717,-0.037842,21.835325,36.651611,182.128891,0.9517674545039876
0 days 00:00:59.790000,0.702393,0.038818,-0.064453,-11.489867,-8.026123,67.642212,0.7064113198286109
0 days 00:00:59.800000,0.706543,0.287842,-0.086182,18.226624,12.306212,143.432617,0.7677782003528103
0 days 00:00:59.810000,0.712646,0.028076,-0.112549,-11.405944,-6.263732,59.974667,0.72202483370934
0 days 00:00:59.820000,0.835205,0.473633,-0.001953,25.794981,38.780212,183.387741,0.9601559378158321
0 days 00:00:59.830000,0.731689,-0.01709,-0.132813,-7.743835,4.226685,53.398129,0.7438414843163832
0 days 00:00:59.840000,0.972168,-0.30835,-0.089111,-16.197205,17.417908,23.452757,1.0237827469951815
0 days 00:00:59.850000,0.977295,-0.300781,-0.076172,-15.396117,21.476744,22.186277,1.0253667151658474
0 days 00:00:59.860000,0.972656,-0.303955,-0.034424,-13.275146,18.859863,19.874573,1.0196241210058734
0 days 00:00:59.870000,0.948242,-0.296143,-0.014648,-10.69641,13.366698,17.997742,0.9935180576703173
0 days 00:00:59.880000,0.93457,-0.29248,-0.025879,-7.263183,10.261535,15.754699,0.9796097988183866
0 days 00:00:59.890000,0.924072,-0.287354,-0.041748,-4.02832,11.680602,13.72528,0.9686197798950835
0 days 00:00:59.900000,0.908447,-0.268555,-0.060303,-1.533508,15.838622,14.060973,0.9492282084109174
0 days 00:00:59.910000,0.892578,-0.258301,-0.068115,0.312805,18.829346,15.48767,0.931694448792092
0 days 00:00:59.920000,0.884033,-0.253174,-0.075928,2.449036,19.355774,15.762328,0.9227006451439166
0 days 00:00:59.930000,0.883057,-0.240967,-0.080566,4.646301,18.760681,15.266418,0.9188828220692777
0 days 00:00:59.940000,0.727051,0.004639,-0.134521,-9.841919,-2.02179,55.152889,0.7394055560806938
0 days 00:00:59.950000,0.865234,-0.219238,-0.098389,5.348205,18.928528,17.364502,0.897984170640552
0 days 00:00:59.960000,0.85376,-0.203857,-0.110596,5.683898,18.173218,19.294739,0.8847006777803439
0 days 00:00:59.970000,0.836182,-0.185547,-0.126465,4.898071,17.723083,20.362852,0.8658068044073112
0 days 00:00:59.980000,0.822754,-0.169189,-0.120605,3.845215,18.539429,22.964476,0.848583895829988
0 days 00:00:59.990000,0.813232,-0.156982,-0.098145,3.120422,18.218994,24.101255,0.8340396124723333
0 days 00:01:00,0.775635,-0.150635,-0.082764,2.738952,16.387939,26.329039,0.7944497694291314
0 days 00:01:00.010000,0.748535,-0.14209,-0.079346,2.388,15.60974,31.005857,0.7660221942222041
0 days 00:01:00.020000,0.754639,-0.129395,-0.077637,1.998901,16.075134,34.660339,0.7695781897344803
0 days 00:01:00.030000,0.755371,-0.109375,-0.092773,0.740051,15.495299,37.696838,0.7688660922390843
0 days 00:01:00.040000,0.718994,-0.075684,-0.120605,-1.945495,13.504027,43.17474,0.7329570286974538
0 days 00:01:00.050000,0.718994,-0.043457,-0.129639,-4.859924,9.994507,49.484249,0.7318791930407641
0 days 00:01:00.060000,0.856201,-0.210449,-0.104492,5.447387,19.065857,19.775391,0.8878555693726317
0 days 00:01:00.070000,0.838867,0.506836,-0.009033,29.365538,36.399841,183.059677,0.9801337509105581
0 days 00:01:00.080000,0.142578,0.994385,-0.174316,13.130187,52.330013,-4.348755,1.0195666148736922
0 days 00:01:00.090000,0.843262,0.567627,-0.074951,34.713745,33.241272,185.195908,1.0192687889727616
0 days 00:01:00.100000,0.345703,1.089844,-0.30957,57.655331,127.967827,44.212337,1.1845269492269899
0 days 00:01:00.110000,0.318115,1.080078,-0.31543,51.86462,117.736809,36.506653,1.1692996725429285
0 days 00:01:00.120000,0.303955,1.06665,-0.303711,45.463558,109.962456,30.372618,1.1499440143093924
0 days 00:01:00.130000,0.313477,1.051514,-0.262939,40.130615,104.438774,22.636412,1.1283113220410403
0 days 00:01:00.140000,0.278564,1.037109,-0.234863,35.820007,97.076408,13.572692,1.0992513856011281
0 days 00:01:00.150000,0.200928,1.026855,-0.248535,31.646727,87.409966,6.568908,1.0754407926213325
0 days 00:01:00.160000,0.158203,1.020996,-0.270264,25.520323,77.606201,4.203796,1.0679436553119273
0 days 00:01:00.170000,0.162598,1.01123,-0.247314,19.889832,70.709229,2.471924,1.0536547997802697
0 days 00:01:00.180000,0.185547,1.003418,-0.195557,16.769409,65.200806,-1.091003,1.0389985140422482
0 days 00:01:00.190000,0.17627,1.002197,-0.177246,14.663695,58.555599,-3.799438,1.0329017785951382
0 days 00:01:00.200000,0.383057,1.086914,-0.296143,63.095089,136.802673,53.062435,1.1898804078956842
0 days 00:01:00.210000,0.12085,0.990723,-0.177246,11.299132,44.700619,-3.77655,1.0136828546172616
0 days 00:01:00.220000,0.085938,0.991699,-0.223389,6.317138,22.560118,-1.76239,1.0201739517190194
0 days 00:01:00.230000,0.099609,1.000244,-0.225586,3.868103,13.526916,-0.938415,1.030193698200974
0 days 00:01:00.240000,0.124023,1.000732,-0.208984,2.357483,7.888793,-0.617981,1.0298157857641335
0 days 00:01:00.250000,0.138184,0.996094,-0.197754,1.495361,4.638672,-0.587463,1.024892540322155
0 days 00:01:00.260000,0.146973,0.996094,-0.191406,0.87738,2.723694,-0.534058,1.0249100333204861
0 days 00:01:00.270000,0.154297,0.996826,-0.184326,0.488281,1.663208,-0.434875,1.0254002695342925
0 days 00:01:00.280000,0.157227,0.993652,-0.180908,0.320435,0.961304,-0.63324,1.0221508357855018
0 days 00:01:00.290000,0.160645,0.993408,-0.179443,0.205994,0.549316,-0.816345,1.0221869010792497
0 days 00:01:00.300000,0.167236,0.994141,-0.17749,0.198364,0.480652,-0.869751,1.023614628498929
0 days 00:01:00.310000,0.828125,0.548096,-0.037109,32.188416,32.997131,185.127243,0.9937692482271727
0 days 00:01:00.320000,0.098389,0.988037,-0.194824,9.063721,33.988953,-2.914428,1.0118566596440426
0 days 00:01:00.330000,0.424072,1.072754,-0.300049,67.718506,142.440796,60.325619,1.1919176180009254
0 days 00:01:00.340000,0.166016,0.995117,-0.176025,0.1297,0.587463,-0.946045,1.0241113008701739
0 days 00:01:00.350000,0.472656,1.040527,-0.333984,73.646545,139.49585,73.692322,1.1906491692858145
0 days 00:01:00.360000,0.460205,1.058838,-0.321777,70.747375,143.348694,66.78772,1.198527008455796
0 days 00:01:00.370000,0.865723,0.622803,-0.138184,41.809078,50.407406,178.535446,1.0753858411723674
0 days 00:01:00.380000,0.851074,0.679443,-0.163574,43.884274,64.376831,180.114731,1.1012384833454558
0 days 00:01:00.390000,0.865723,0.726074,-0.165771,46.356197,76.86615,181.106552,1.141989400408778
0 days 00:01:00.400000,0.890381,0.759033,-0.153564,49.797054,85.990898,179.573044,1.1800386952748625
0 days 00:01:00.410000,0.90918,0.784668,-0.154785,53.688046,95.66497,175.994858,1.2108965847044908
0 days 00:01:00.420000,0.937012,0.810547,-0.160645,58.54034,109.840385,171.653732,1.2493137089530395
0 days 00:01:00.430000,0.952637,0.840576,-0.167725,63.499447,126.853935,167.160019,1.281490125272138
0 days 00:01:00.440000,0.921143,0.874756,-0.187256,67.726135,139.198303,162.10173,1.2840433386459353
0 days 00:01:00.450000,0.865723,0.897461,-0.221436,70.19043,142.63916,155.227661,1.2664700791357053
0 days 00:01:00.460000,0.805176,0.90332,-0.256348,71.533203,139.938354,146.896362,1.2369356129079638
0 days 00:01:00.470000,0.867432,0.583984,-0.102783,38.444519,39.31427,180.809006,1.0507330450542611
0 days 00:01:00.480000,0.72876,0.921143,-0.280029,75.691223,137.428284,131.462097,1.2074815960874932
0 days 00:01:00.490000,0.685303,0.937012,-0.291748,77.705383,139.328003,125.549309,1.1969747639181871
0 days 00:01:00.500000,0.655518,0.953369,-0.297607,79.620361,139.953613,120.155327,1.194648996539988
0 days 00:01:00.510000,0.622314,0.972412,-0.308594,80.718987,138.000488,114.364616,1.1950272252865204
0 days 00:01:00.520000,0.591797,0.984619,-0.320068,80.917351,134.407043,108.093254,1.1925358648669648
0 days 00:01:00.530000,0.559326,0.992188,-0.331543,80.917351,130.279541,101.402275,1.1862560273688814
0 days 00:01:00.540000,0.525879,0.998047,-0.342041,80.375664,127.532951,95.146172,1.1788293271423986
0 days 00:01:00.550000,0.484375,1.011963,-0.3479,78.979492,127.136223,90.614311,1.1746159644726442
0 days 00:01:00.560000,0.455322,1.016113,-0.349854,77.270508,129.310608,86.616508,1.1671339142399213
0 days 00:01:00.570000,0.458496,1.019775,-0.341553,76.004028,133.827209,80.825798,1.1691099539607044
0 days 00:01:00.580000,0.771484,0.907471,-0.272949,73.58551,137.130737,138.664246,1.221962493163354
0 days 00:01:00.590000,0.716553,-0.438477,-0.24292,147.987366,-159.721375,23.719786,0.8744829373624164
0 days 00:01:00.600000,0.761719,-0.936279,1.262207,-50.064083,-1.625061,37.185669,1.7464251234023749
0 days 00:01:00.610000,0.839111,-0.881104,1.312012,-87.791435,2.975464,37.567139,1.7893649759847765
0 days 00:01:00.620000,1.019287,-0.778076,1.368652,-125.335686,6.66809,42.861935,1.8755150085373884
0 days 00:01:00.630000,1.199219,-0.664551,1.352051,-249.526962,72.181702,112.007133,1.9255638520088083
0 days 00:01:00.640000,1.155518,-0.739014,1.423828,-210.49498,-0.938415,65.826416,1.9770305293808694
0 days 00:01:00.650000,1.209961,-0.720947,1.509766,-247.756943,13.084411,81.68029,2.064742979909606
0 days 00:01:00.660000,1.206787,-0.749512,1.480469,-249.992355,39.230347,95.329277,2.051802027846254
0 days 00:01:00.670000,1.11084,-0.765381,1.378662,-165.580734,1.045227,51.963802,1.928855228109409
0 days 00:01:00.680000,0.762939,-0.872559,1.08374,-20.187376,1.907349,38.871765,1.586797880576477
0 days 00:01:00.690000,0.783447,-0.544434,0.243896,35.545349,9.925842,32.554626,0.9847247539190837
0 days 00:01:00.700000,0.839111,-0.635742,0.554443,13.481139,17.89856,41.427608,1.1898244413080443
0 days 00:01:00.710000,0.824951,-0.58252,0.358643,21.812437,18.066406,38.230896,1.0716802248105541
0 days 00:01:00.720000,0.824951,-0.556885,0.2771,29.449461,14.869689,34.240723,1.0331744604015334
0 days 00:01:00.730000,1.016602,0.450195,-2.549805,-249.877914,129.570007,130.218506,2.7816650953078446
0 days 00:01:00.740000,0.782715,-0.55249,0.275391,42.617794,2.983093,31.417845,0.9968591546482383
0 days 00:01:00.750000,0.796387,-0.562744,0.312256,50.628658,-6.309509,28.732298,1.0239222982438658
0 days 00:01:00.760000,0.786621,-0.568115,0.309814,58.471676,-15.007018,26.336668,1.0185833129705197
0 days 00:01:00.770000,0.793701,-0.557129,0.295166,66.070557,-19.119263,25.169371,1.0136453855259244
0 days 00:01:00.780000,0.812988,-0.542725,0.259033,73.402405,-18.959045,23.521421,1.0112358819078762
0 days 00:01:00.790000,0.828857,-0.54126,0.206055,80.406181,-15.281676,21.110533,1.0111503236779384
0 days 00:01:00.800000,0.852295,-0.538818,0.145996,86.639397,-8.766174,17.120361,1.018845639027326
0 days 00:01:00.810000,0.820801,-0.754639,0.8125,1.106262,10.917663,40.733334,1.3796197127911733
0 days 00:01:00.820000,-1.933838,6.848633,-6.77832,-226.150497,166.976913,93.223564,9.827976668741792
0 days 00:01:00.830000,1.032715,1.234375,-1.348389,11.146544,187.461838,-33.14209,2.099603488083167
0 days 00:01:00.840000,2.060547,-3.757813,1.091309,244.934067,-249.992355,-104.545586,4.42243912515017
0 days 00:01:00.850000,0.865967,-0.523926,0.07959,92.01049,-2.098083,11.024474,1.0152496573084868
0 days 00:01:00.860000,0.787598,-0.431152,-0.337158,147.270203,-158.760071,27.481077,0.9591027961965287
0 days 00:01:00.870000,0.898438,-0.431396,-0.444824,145.6604,-144.256592,26.664732,1.0914035640568525
0 days 00:01:00.880000,0.994385,-0.405273,-0.591309,141.670227,-119.468681,20.378111,1.2258442259255455
0 days 00:01:00.890000,1.020264,-0.329102,-0.712891,133.369446,-95.634453,15.975951,1.2874239138609318
0 days 00:01:00.900000,0.997314,-0.262207,-0.751221,116.394035,-84.594719,20.088194,1.275821584817407
0 days 00:01:00.910000,1.018066,-0.341309,-0.643066,97.839348,-88.752739,25.871275,1.2515926230978671
0 days 00:01:00.920000,1.14624,-0.520996,-0.433105,89.37072,-99.655144,17.959595,1.3314964929135187
0 days 00:01:00.930000,1.225586,-0.594971,-0.306152,86.174004,-103.546135,2.357483,1.3963454376840283
0 days 00:01:00.940000,1.166504,-0.524902,-0.332275,82.420341,-97.236626,-5.699157,1.3216127902093713
0 days 00:01:00.950000,4.632568,3.194092,-1.258057,-133.491516,-60.371395,-157.051086,5.765901264705891
0 days 00:01:00.960000,1.115967,-0.453857,-0.428955,75.866699,-82.084648,-9.086609,1.2788162157100604
0 days 00:01:00.970000,1.131348,-0.520508,-0.61792,57.212826,-20.13397,-19.737244,1.3902165304613523
0 days 00:01:00.980000,0.778809,-0.45166,-0.667725,33.805847,39.093018,-36.087036,1.1208911141167994
0 days 00:01:00.990000,0.496338,-0.278564,-0.578125,11.795043,26.870726,-12.657165,0.8112815959733094
0 days 00:01:01,0.273438,-0.189453,-0.48584,0.823975,-20.866392,-2.845764,0.588813454884482
0 days 00:01:01.010000,0.337158,-0.252441,-0.665771,-19.462585,-63.613888,-18.196106,0.7878153336194974
0 days 00:01:01.020000,0.454346,-0.366455,-0.892578,-30.647276,-35.957336,-9.262085,1.066496620165765
0 days 00:01:01.030000,1.084229,0.024414,-0.986816,16.204834,79.971313,-10.848998,1.4662722754294306
0 days 00:01:01.040000,0.274658,1.60791,-1.360107,-111.053459,167.137131,34.675598,2.1238414810227715
0 days 00:01:01.050000,-1.282227,-0.791748,-0.589111,-200.744614,-6.454467,224.510178,1.6180305143457585
0 days 00:01:01.060000,-1.204102,-4.299316,1.585449,36.331177,-236.503586,235.557541,4.737892804386883
0 days 00:01:01.070000,1.071533,-0.463623,-0.534424,66.688538,-57.502743,-10.925292,1.2840320354235715
0 days 00:01:01.080000,0.861816,-0.506104,0.025635,94.894402,1.327515,6.271362,0.9997625867659782
0 days 00:01:01.090000,1.020996,-0.541016,-0.692383,47.744747,20.042419,-34.973145,1.3470431926857431
0 days 00:01:01.100000,0.856689,-0.502686,0.02832,100.845329,-6.011962,0.75531,0.9936857046959063
0 days 00:01:01.110000,0.941406,-2.270752,0.591064,64.796448,-199.1577,15.975951,2.528223992140728
0 days 00:01:01.120000,3.853516,-0.250732,1.442871,-7.4234,-57.601925,-96.160881,4.122417836745931
0 days 00:01:01.130000,2.863525,1.9021,0.308105,36.483765,133.392334,-59.272762,3.4514762822088176
0 days 00:01:01.140000,-2.360596,4.793213,-6.426514,1.983642,168.167099,79.055786,8.357474889629103
0 days 00:01:01.150000,0.06958,1.154297,-3.619385,-227.661118,21.591185,88.638298,3.7996303397612246
0 days 00:01:01.160000,1.057373,-0.251953,0.599121,-248.451218,8.766174,78.071594,1.241154280490141
0 days 00:01:01.170000,1.068604,-0.343262,0.6604,-226.341232,11.482238,70.716858,1.302256299451072
0 days 00:01:01.180000,1.041748,-0.433838,0.731445,-197.463974,17.14325,63.728329,1.3447922121179168
0 days 00:01:01.190000,1.061768,-0.490967,0.765381,-166.26738,26.863096,53.405758,1.3979298823882405
0 days 00:01:01.200000,0.976807,-0.565918,0.729248,-107.63549,45.524593,37.948608,1.3439560050377395
0 days 00:01:01.210000,-0.6875,-2.521729,0.302246,-2.319336,-180.984482,95.603935,2.6311833923079173
0 days 00:01:01.220000,0.920166,-0.597412,0.645508,-85.823051,55.068966,36.880493,1.272905001704369
0 days 00:01:01.230000,0.943115,-0.571289,0.477539,-52.833553,64.498901,38.993835,1.2016157960292468
0 days 00:01:01.240000,0.923096,-0.557129,0.367676,-44.532772,52.009579,38.108826,1.1391595976126436
0 days 00:01:01.250000,0.904785,-0.541748,0.302246,-38.146973,30.067442,35.636902,1.0970321035616961
0 days 00:01:01.260000,0.90332,-0.498047,0.238037,-32.25708,7.369995,32.981873,1.0586309319011984
0 days 00:01:01.270000,0.902832,-0.440186,0.153564,-27.458189,-8.750916,30.868528,1.0160960766167735
0 days 00:01:01.280000,0.916016,-0.394531,0.071289,-23.620604,-14.305114,29.907225,0.9999110679145422
0 days 00:01:01.290000,0.932861,-0.368164,0.010742,-20.462034,-10.803222,28.427122,1.0029405599441077
0 days 00:01:01.300000,0.950684,-0.346924,-0.044189,-18.165588,-2.006531,25.772093,1.0129703832556014
0 days 00:01:01.310000,0.960449,-0.325439,-0.077148,-16.792297,8.270264,24.124144,1.0170175211007921
0 days 00:01:01.320000,0.853271,-0.501953,0.010986,97.412102,0.511169,3.799438,0.9900246996141056
0 days 00:01:01.330000,0.927979,-0.60376,0.572754,-66.848755,63.659664,37.750244,1.2464823731433188
0 days 00:01:01.340000,-0.269531,-0.445313,0.105957,-79.978943,-61.088558,42.472836,0.5312038344919962
0 days 00:01:01.350000,1.039551,-0.533203,0.767334,-135.108948,36.720276,43.411251,1.3977743696197895
0 days 00:01:01.360000,1.04834,0.444336,-0.422852,10.94818,63.385006,-54.878231,1.2146007781983346
0 days 00:01:01.370000,0.64209,0.796631,-0.287109,-45.478817,53.176876,-47.45483,1.0627003792894778
0 days 00:01:01.380000,0.813721,-0.437744,0.008545,108.055107,-31.09741,-2.151489,0.9240317594119805
0 days 00:01:01.390000,0.81958,-0.35376,-0.049805,110.91613,-40.557858,0.007629,0.8940570742547704
0 days 00:01:01.400000,0.836426,-0.291748,-0.149414,111.67907,-44.494625,2.250671,0.8983595562891286
0 days 00:01:01.410000,0.874512,-0.270752,-0.258545,111.686699,-40.977474,1.403808,0.9512746189576383
0 days 00:01:01.420000,0.920166,-0.27124,-0.345703,110.687248,-31.196592,-1.541138,1.0196995485754616
0 days 00:01:01.430000,0.925537,-0.256592,-0.401123,107.849113,-22.239683,-3.578186,1.0408447789954083
0 days 00:01:01.440000,0.875977,-0.226074,-0.390381,94.009392,-45.661922,1.792908,0.985313393375935
0 days 00:01:01.450000,0.902344,-0.268799,-0.352783,85.426323,-74.111938,0.63324,1.0054518595268498
0 days 00:01:01.460000,1.003418,-0.308105,-0.273193,80.093384,-93.284599,-1.647949,1.084624722656643
0 days 00:01:01.470000,1.084717,-0.281006,-0.2146,77.560425,-93.940727,-1.716614,1.1408893470117951
0 days 00:01:01.480000,0.911133,-0.22998,-0.403564,102.310173,-25.207518,-1.495361,1.0227013475032678
0 days 00:01:01.490000,0.796631,-0.142334,-0.60498,9.620667,14.625548,-29.541014,1.0103864201962534
0 days 00:01:01.500000,1.116455,-0.20874,-0.195313,72.990417,-79.704285,-0.312805,1.1524718315837486
0 days 00:01:01.510000,0.800293,-0.251709,-0.516113,4.699707,-45.967098,-25.238035,0.9849867690984484
0 days 00:01:01.520000,0.70874,-0.122559,-0.370605,13.366698,-73.493958,-14.09912,0.809123700126254
0 days 00:01:01.530000,0.706299,0.029541,-0.351807,17.349243,-66.53595,0.030518,0.7896196003969254
0 days 00:01:01.540000,0.924805,-0.027344,-0.290771,39.001465,-52.085873,-21.026609,0.9698246010501074
0 days 00:01:01.550000,0.831543,-0.489746,0.024902,104.080193,-18.066406,-1.846313,0.9653678133069281
0 days 00:01:01.560000,1.167725,-0.284912,-0.185059,67.306519,-24.734495,-19.737244,1.216142819265073
0 days 00:01:01.570000,1.097168,-0.284668,-0.163086,68.870544,-36.216736,0.450134,1.1451683430151218
0 days 00:01:01.580000,1.098145,-0.216309,-0.188477,68.710327,-57.884212,2.532959,1.1350046713714441
0 days 00:01:01.590000,1.103271,-0.183838,-0.254395,59.120174,-32.493591,-38.589478,1.1470484408733572
0 days 00:01:01.600000,0.526611,-0.218994,-0.564209,15.045165,89.530937,-117.790215,0.8022526491311824
0 days 00:01:01.610000,0.935547,-0.333984,-0.181152,60.9436,167.816147,-122.474663,1.0097571730713282
0 days 00:01:01.620000,0.854248,-0.257568,-0.360596,53.184505,160.568237,-124.496452,0.9623462969970842
0 days 00:01:01.630000,0.794678,-0.237305,-0.48877,44.868465,152.198792,-128.730774,0.9626644792496502
0 days 00:01:01.640000,0.703369,-0.241211,-0.564697,37.719727,143.2724,-132.011414,0.9336987728871662
0 days 00:01:01.650000,0.631592,-0.24707,-0.601807,32.905579,135.894775,-134.933472,0.9067103752648913
0 days 00:01:01.660000,0.582275,-0.245605,-0.630615,30.433653,129.653931,-134.399414,0.8927716784682408
0 days 00:01:01.670000,0.537354,-0.229736,-0.625977,26.229856,122.062675,-129.119873,0.8563732571379141
0 days 00:01:01.680000,0.522705,-0.209473,-0.585205,20.698545,108.6502,-123.01635,0.8121356701801737
0 days 00:01:01.690000,1.031738,-0.463623,-0.049072,65.483093,171.333298,-124.137871,1.1321826919525841
0 days 00:01:01.700000,0.359375,-0.491211,-0.465576,-13.519286,12.802123,-53.596493,0.766289533350156
0 days 00:01:01.710000,0.470459,-0.275391,-0.503174,7.110595,45.639034,-106.910698,0.7418597898781144
0 days 00:01:01.720000,0.420166,-0.290283,-0.478516,6.29425,19.790649,-104.820244,0.6998437324867601
0 days 00:01:01.730000,0.308838,-0.296631,-0.485107,3.219604,-3.173828,-98.915092,0.6470700594634247
0 days 00:01:01.740000,0.19751,-0.308594,-0.502197,-1.617432,-21.110533,-89.172356,0.6216448212162633
0 days 00:01:01.750000,0.182617,-0.32666,-0.513428,-8.644104,-34.408569,-79.612732,0.6353456031743668
0 days 00:01:01.760000,0.20874,-0.358154,-0.526855,-15.2359,-44.013973,-71.090698,0.6703900852048753
0 days 00:01:01.770000,0.255127,-0.399902,-0.536377,-19.813538,-45.577999,-64.689636,0.7160388829260601
0 days 00:01:01.780000,0.32666,-0.437012,-0.541992,-21.095274,-34.263611,-60.798641,0.7690523856071184
0 days 00:01:01.790000,0.382568,-0.464355,-0.522705,-18.363953,-11.283874,-57.586666,0.796997087619522
0 days 00:01:01.800000,1.111328,-0.595703,-0.008545,64.529419,172.500595,-125.053398,1.2609460753013986
0 days 00:01:01.810000,0.504883,-0.240967,-0.544189,8.56781,69.114685,-111.412041,0.780457306006549
0 days 00:01:01.820000,1.114746,-0.657227,-0.020508,59.867855,174.354538,-116.355888,1.2942281684884624
0 days 00:01:01.830000,0.776855,-0.08252,0.182129,55.908199,-46.943661,-98.419182,0.8021746780259271
0 days 00:01:01.840000,1.045898,-0.546875,-0.145996,54.237362,191.20787,-91.606133,1.1892391366100428
0 days 00:01:01.850000,0.23999,-0.522949,-0.412109,-9.178162,23.345945,-46.897884,0.7077462006835501
0 days 00:01:01.860000,0.848389,-0.112061,0.194824,59.127804,-57.395931,-94.352715,0.8776548034495111
0 days 00:01:01.870000,0.932861,-0.123535,0.172852,59.356686,-60.089108,-92.475883,0.9567488465893231
0 days 00:01:01.880000,0.947266,-0.154053,0.143799,60.096737,-54.00848,-89.981071,0.9704243164544054
0 days 00:01:01.890000,0.931885,-0.191406,0.157959,65.010071,-42.457577,-91.178886,0.9643634977237577
0 days 00:01:01.900000,0.859131,-0.202637,0.138672,66.65802,-34.515381,-91.949455,0.8935310585055227
0 days 00:01:01.910000,0.696045,-0.214111,0.105713,66.27655,-31.883238,-87.661736,0.7358650696391289
0 days 00:01:01.920000,0.632324,-0.222656,0.130127,67.253113,-31.814573,-81.207268,0.6828926500124306
0 days 00:01:01.930000,0.614014,-0.21167,0.153076,67.749023,-34.553528,-72.8302,0.6672702922144818
0 days 00:01:01.940000,0.622803,-0.210205,0.147461,66.680908,-33.798218,-63.20953,0.6736575282404257
0 days 00:01:01.950000,0.684814,-0.229492,0.12915,65.887451,-24.482725,-55.046078,0.7337005623277115
0 days 00:01:01.960000,0.749268,-0.250244,0.11377,65.90271,-7.354736,-49.568172,0.7981028807490924
0 days 00:01:01.970000,0.797119,-0.264648,0.109375,66.055298,15.518188,-45.005795,0.8469947784313667
0 days 00:01:01.980000,0.836914,-0.286377,0.112793,66.848755,43.739315,-41.046139,0.8917169339953123
0 days 00:01:01.990000,0.882813,-0.307861,0.111328,67.596436,76.225281,-39.047241,0.9415578112224442
0 days 00:01:02,0.920898,-0.333252,0.101563,68.649292,109.443657,-37.712097,0.9845938578302222
0 days 00:01:02.010000,0.954346,-0.351563,0.091797,69.259644,140.769958,-38.200378,1.021175557822454
0 days 00:01:02.020000,0.986816,-0.368896,0.066162,69.168091,167.587265,-40.710445,1.055588692112605
0 days 00:01:02.030000,1.01123,-0.388184,0.033936,68.786621,189.422592,-43.632504,1.0837087167924784
0 days 00:01:02.040000,1.0354,-0.411621,-0.014404,66.650391,206.489548,-46.897884,1.1143125606655433
0 days 00:01:02.050000,1.061768,-0.433105,-0.069092,63.179012,216.04155,-53.085323,1.1487841099671425
0 days 00:01:02.060000,1.078125,-0.4646,-0.116699,61.202999,215.248093,-66.429138,1.1797564715762316
0 days 00:01:02.070000,1.071289,-0.495117,-0.153809,58.181759,205.20018,-81.985466,1.190150483632637
0 days 00:01:02.080000,1.075684,-0.622559,-0.078125,54.63409,180.290207,-101.806633,1.2453028916540747
0 days 00:01:02.090000,0.093262,-0.54541,-0.400146,-7.606506,12.901305,-35.675049,0.6828518800296298
0 days 00:01:02.100000,-0.359863,0.566162,-1.39624,-53.25317,-46.508785,208.694443,1.5490406471790854
0 days 00:01:02.110000,-0.084229,-0.587646,-0.45752,-13.47351,-44.418331,-4.936218,0.7494977626097359
0 days 00:01:02.120000,0.473877,-1.009766,1.044189,-38.871765,90.393059,21.705626,1.5279127768318452
0 days 00:01:02.130000,0.449707,-0.942383,0.880615,-18.257141,70.098877,22.491453,1.3659446851036832
0 days 00:01:02.140000,0.424805,-0.901855,0.693604,-3.52478,48.583981,21.858213,1.2144497675350758
0 days 00:01:02.150000,0.412842,-0.870361,0.581299,10.002136,30.3421,21.728514,1.125111245471309
0 days 00:01:02.160000,0.401611,-0.811035,0.486084,21.163939,16.700745,22.216795,1.0273007454499388
0 days 00:01:02.170000,0.394043,-0.784424,0.404541,30.258177,4.135132,22.216795,0.9665631476039214
0 days 00:01:02.180000,0.404297,-0.78418,0.382568,38.833618,-8.544922,21.507261,0.9616405831873985
0 days 00:01:02.190000,0.418945,-0.777588,0.373535,47.256466,-20.225523,20.240782,0.9590028190751058
0 days 00:01:02.200000,0.445068,-0.759521,0.363037,54.88586,-31.394957,19.592285,0.9522360723234549
0 days 00:01:02.210000,-0.03125,-0.560791,-0.417725,-8.979797,-14.495849,-20.378111,0.6999694877678598
0 days 00:01:02.220000,0.535889,-0.981689,1.17627,-68.443298,110.359184,21.934507,1.6231147297532604
0 days 00:01:02.230000,0.511719,-0.723877,0.31665,68.778992,-53.710934,18.363953,0.9413402512322523
0 days 00:01:02.240000,0.527832,-0.684814,0.255127,83.747856,-79.948425,15.151977,0.901480238801162
0 days 00:01:02.250000,0.524414,-0.671875,0.224854,91.583244,-93.704216,13.656615,0.8814677420853245
0 days 00:01:02.260000,0.530273,-0.675537,0.210938,100.418083,-106.231682,12.832641,0.8843271638607513
0 days 00:01:02.270000,0.546387,-0.67334,0.201172,110.740654,-115.051262,12.145995,0.8901660985192595
0 days 00:01:02.280000,0.592773,-0.641113,0.152588,120.559685,-119.98748,11.299132,0.8863908878378658
0 days 00:01:02.290000,0.618652,-0.60376,0.077393,128.005981,-123.718254,11.367797,0.8678975234167914
0 days 00:01:02.300000,0.637451,-0.585449,0.012695,134.536743,-128.77655,10.131835,0.8655954436265246
0 days 00:01:02.310000,0.650391,-0.573975,-0.028809,140.800476,-136.299133,9.765625,0.8679203373507272
0 days 00:01:02.320000,0.651611,-0.537598,-0.073486,145.805359,-144.927979,13.877868,0.8479438054028109
0 days 00:01:02.330000,0.678467,-0.480957,-0.13916,148.269653,-153.198242,19.378662,0.8432097079244286
0 days 00:01:02.340000,0.532715,-0.707031,0.289307,76.225281,-66.53595,16.433716,0.9313305784924063
0 days 00:01:02.350000,0.673096,-0.908691,1.325195,-101.852409,126.136772,23.460386,1.7421019909069617
0 days 00:01:02.360000,0.477539,-0.741211,0.34082,61.767574,-42.366024,19.538879,0.9453018118262547
0 days 00:01:02.370000,0.932373,-0.841309,1.5,-189.475998,140.029907,28.022764,1.9563026975930897
0 days 00:01:02.380000,0.785156,-0.893066,1.430176,-141.563416,133.735657,24.238585,1.8599570467266173
0 days 00:01:02.390000,-0.014648,-0.649902,-0.490967,-15.571593,-58.967587,4.760742,0.8146384281366795
0 days 00:01:02.400000,0.131836,-0.686768,-0.496826,-11.413573,-47.927853,8.491516,0.8578269586554156
0 days 00:01:02.410000,0.246582,-0.653564,-0.498779,-13.816833,-15.449523,14.762877,0.858329235003096
0 days 00:01:02.420000,0.12915,-0.7229,-0.453369,-22.682188,13.244628,30.113218,0.8630223535117733
0 days 00:01:02.430000,-0.111816,-0.960693,-0.268066,-16.540527,12.306212,48.042294,1.0036399944506995
0 days 00:01:02.440000,-0.05957,-0.741943,-0.381836,-0.259399,-27.580259,40.214535,0.8365564721194858
0 days 00:01:02.450000,0.420898,-0.224609,-0.787354,-11.299132,18.043518,41.595455,0.9206142789469431
0 days 00:01:02.460000,0.385254,0.121338,-1.191162,-4.234314,111.976616,80.818169,1.2577799747984542
0 days 00:01:02.470000,0.030029,0.233154,-1.373291,6.904602,163.36058,140.441895,1.3932661982686583
0 days 00:01:02.480000,-0.258301,0.276123,-1.436279,-2.349854,104.560844,201.492294,1.485214019450059
0 days 00:01:02.490000,-0.275635,-1.048828,-0.182373,0.061035,-12.405395,51.429745,1.0996702860121301
0 days 00:01:02.500000,0.033691,-1.580566,-0.272217,-165.641769,-197.998032,249.992355,1.6041901567226997
0 days 00:01:02.510000,1.03418,0.592773,-1.191406,-147.659302,-146.492004,169.03685,1.6853356813302802
0 days 00:01:02.520000,1.217041,-0.692139,1.61792,-249.992355,183.265671,48.828121,2.1396051779246563
0 days 00:01:02.530000,1.274414,-0.621094,1.60376,-249.847397,226.036057,64.277649,2.1405454767026093
0 days 00:01:02.540000,1.334473,-0.409424,1.391846,-249.664291,249.992355,80.505363,1.9712132018685853
0 days 00:01:02.550000,1.442871,-0.126709,0.669678,-249.992355,249.992355,92.384331,1.5957445024207355
0 days 00:01:02.560000,1.095215,-0.743896,1.555908,-238.441452,155.044556,36.865234,2.0429701073449413
0 days 00:01:02.570000,3.555176,5.949707,-4.074951,-216.346725,96.763603,-177.177414,8.040119117850557
0 days 00:01:02.580000,5.091553,-3.305176,-0.553955,158.210754,-132.141113,-208.168015,6.095487386978173
0 days 00:01:02.590000,-0.452881,-4.820557,1.819824,115.722649,-249.992355,204.002365,5.1724878328891215
0 days 00:01:02.600000,0.08252,4.443115,-6.459229,-249.992355,238.586411,68.733215,7.840262733356963
0 days 00:01:02.610000,0.318359,1.117676,-0.216064,-37.559509,-13.275146,-83.496086,1.1820472689165182
0 days 00:01:02.620000,0.274658,1.030762,-0.147217,-8.895874,-15.098571,1.091003,1.0768380392134185
0 days 00:01:02.630000,0.280518,1.046143,-0.160156,-12.733459,-17.539978,-4.928589,1.0948769196165384
0 days 00:01:02.640000,0.291504,1.061035,-0.172607,-16.563416,-18.547058,-11.634826,1.113805651669087
0 days 00:01:02.650000,0.292969,1.074463,-0.18335,-20.751951,-18.745422,-19.729614,1.1286801122683077
0 days 00:01:02.660000,0.297607,1.086914,-0.187988,-24.711607,-18.455505,-29.21295,1.14249352645387
0 days 00:01:02.670000,0.295166,1.092041,-0.185059,-27.511595,-17.906189,-39.199829,1.1462649548503174
0 days 00:01:02.680000,0.29248,1.103516,-0.1875,-30.380247,-17.219543,-49.377438,1.1569132908978097
0 days 00:01:02.690000,0.298584,1.110352,-0.192627,-33.630371,-16.349792,-59.875484,1.165821225612658
0 days 00:01:02.700000,0.304688,1.112305,-0.202393,-35.675049,-15.220641,-71.311951,1.1709056822895685
0 days 00:01:02.710000,0.333984,1.127686,-0.217285,-40.542599,-10.299682,-95.611565,1.196007440644497
0 days 00:01:02.720000,0.509766,1.030762,-0.193604,-58.700558,110.633842,-146.110535,1.1661107083875013
0 days 00:01:02.730000,0.386719,1.124756,-0.168701,-44.631954,-0.968933,-128.051758,1.2012858410461684
0 days 00:01:02.740000,0.406982,1.12793,-0.141846,-44.55566,2.922058,-137.367249,1.2074687246218845
0 days 00:01:02.750000,0.425293,1.134277,-0.12793,-44.30389,7.514953,-145.011902,1.2181233654593446
0 days 00:01:02.760000,0.443848,1.141846,-0.130371,-44.227596,13.801574,-150.20752,1.231994290758281
0 days 00:01:02.770000,0.46167,1.147949,-0.149414,-45.181271,23.010252,-152.34375,1.2462947640494202
0 days 00:01:02.780000,0.482666,1.148438,-0.180908,-47.485348,36.064148,-152.084351,1.2588105543980794
0 days 00:01:02.790000,0.501709,1.133789,-0.206543,-50.300594,52.940365,-151.092529,1.2569206132652133
0 days 00:01:02.800000,0.513916,1.104248,-0.224121,-53.031918,72.853088,-150.398254,1.2384278433566487
0 days 00:01:02.810000,0.520996,1.063477,-0.216553,-55.915829,93.032829,-148.841858,1.203875144420716
0 days 00:01:02.820000,0.273193,1.014404,-0.139404,-5.493164,-11.360168,6.362915,1.0597562765471125
0 days 00:01:02.830000,0.349365,1.131836,-0.212402,-42.678829,-7.232666,-107.177727,1.2034214738507039
0 days 00:01:02.840000,0.275146,0.999268,-0.130859,-2.494812,-7.011413,10.559081,1.0446846103111695
0 days 00:01:02.850000,0.36499,1.12793,-0.195313,-43.80035,-4.203796,-118.087761,1.2014952987710772
0 days 00:01:02.860000,0.283936,0.984375,-0.125488,2.410889,-0.183105,17.402649,1.0321632772313691
0 days 00:01:02.870000,0.486572,1.006836,-0.175049,-60.836788,122.825615,-142.524719,1.1318627100850174
0 days 00:01:02.880000,0.217773,1.040771,-0.100342,2.548218,-83.396904,46.722408,1.0680345832106748
0 days 00:01:02.890000,0.229248,1.033447,-0.110352,2.319336,-80.787651,45.684811,1.0643048957967824
0 days 00:01:02.900000,0.228027,1.029053,-0.121338,1.525879,-78.720093,44.792171,1.0609756358097955
0 days 00:01:02.910000,0.233154,1.023193,-0.128662,1.083374,-76.873779,43.579098,1.057278872014853
0 days 00:01:02.920000,0.235596,1.012939,-0.136963,1.052856,-74.882507,41.824337,1.048956508300511
0 days 00:01:02.930000,0.245361,1.003662,-0.138428,1.235962,-71.929932,40.176388,1.0424498749335624
0 days 00:01:02.940000,0.251465,0.994385,-0.141113,1.564026,-67.817688,38.490295,1.0353497250779564
0 days 00:01:02.950000,0.255859,0.987305,-0.138184,2.14386,-62.667843,36.827087,1.029237488999502
0 days 00:01:02.960000,0.262451,0.983154,-0.135742,3.112793,-57.067867,35.270691,1.0265954440192104
0 days 00:01:02.970000,0.278809,0.988525,-0.127197,0.274658,-3.059387,14.09912,1.0349372980596458
0 days 00:01:02.980000,0.270264,0.978027,-0.131104,4.173279,-50.834652,33.7677,1.0231166606213584
0 days 00:01:02.990000,0.283203,0.970459,-0.136963,6.240844,-37.315369,30.6015,1.0201732564907786
0 days 00:01:03,0.288086,0.96582,-0.136963,7.102966,-30.105589,28.938292,1.0171335601409481
0 days 00:01:03.010000,0.288574,0.9646,-0.139893,7.835388,-22.91107,27.549742,1.0165127470548514
0 days 00:01:03.020000,0.288086,0.969482,-0.143799,8.31604,-16.448975,26.618956,1.0215512929466635
0 days 00:01:03.030000,0.286621,0.971436,-0.141357,8.178711,-11.123656,25.978086,1.0226540476554131
0 days 00:01:03.040000,0.286377,0.976563,-0.140137,7.644653,-6.973266,25.390623,1.0272903474028168
0 days 00:01:03.050000,0.287842,0.978271,-0.138184,7.194519,-3.829956,24.330137,1.0290587856196556
0 days 00:01:03.060000,0.289551,0.980469,-0.135742,6.507873,-1.373291,23.139952,1.0313026384752442
0 days 00:01:03.070000,0.292725,0.981934,-0.134277,5.004883,0.62561,21.881102,1.033398576885995
0 days 00:01:03.080000,0.29248,0.983398,-0.128906,3.761291,1.159668,20.019531,1.034037201284364
0 days 00:01:03.090000,0.275879,0.974121,-0.131836,5.325317,-44.273373,32.180786,1.0209807423149566
0 days 00:01:03.100000,0.461182,0.991211,-0.160156,-62.904354,127.746574,-138.473511,1.10491539403748
0 days 00:01:03.110000,0.410889,0.969727,-0.163086,-67.848206,115.356438,-129.486084,1.0657378984750425
0 days 00:01:03.120000,0.738037,-0.05835,0.144531,55.633541,-36.109924,-106.750481,0.7543159456288857
0 days 00:01:03.130000,0.783203,0.17749,-0.019287,52.047726,-94.711296,-102.935783,0.8032942348093879
0 days 00:01:03.140000,0.82666,0.194336,-0.000732,51.971432,-62.393185,-94.207756,0.8491959563728503
0 days 00:01:03.150000,0.876953,0.213379,0.019531,51.536556,-35.079956,-86.021416,0.9027505867131851
0 days 00:01:03.160000,0.935059,0.234619,0.033203,50.712582,-11.825561,-80.566399,0.9646159069033643
0 days 00:01:03.170000,0.976074,0.246582,0.040283,49.186703,8.300781,-78.048706,1.0075444686409627
0 days 00:01:03.180000,1.036865,0.242676,0.064453,47.935482,26.329039,-77.49176,1.0668340350823085
0 days 00:01:03.190000,1.070068,0.254639,0.085693,45.761105,41.481014,-78.285217,1.1032813943840438
0 days 00:01:03.200000,1.08374,0.268066,0.112793,44.494625,50.666805,-80.299377,1.1220846798726911
0 days 00:01:03.210000,1.117676,0.286377,0.152832,43.945309,51.513668,-83.396904,1.1638595479390972
0 days 00:01:03.220000,1.159424,0.309326,0.152588,39.093018,49.072262,-83.671562,1.2096403117439498
0 days 00:01:03.230000,0.748779,0.170166,-0.032959,50.575253,-130.67627,-112.236015,0.7685783981338534
0 days 00:01:03.240000,1.209473,0.279541,0.13623,36.422729,52.36816,-83.679192,1.2488101222003287
0 days 00:01:03.250000,1.244629,0.184326,0.142822,37.269592,69.68689,-103.065483,1.2662841488390353
0 days 00:01:03.260000,1.084717,0.125244,0.111084,36.598206,72.410583,-108.299248,1.097559421936234
0 days 00:01:03.270000,1.035645,0.111084,0.164063,39.108276,67.268372,-116.744987,1.0544272801146601
0 days 00:01:03.280000,0.908691,0.162598,0.171875,38.078308,42.358395,-121.658318,0.9389879971064593
0 days 00:01:03.290000,0.708496,0.184082,0.155273,31.997679,-1.731872,-113.082878,0.7483064006601841
0 days 00:01:03.300000,0.694092,0.108398,0.177734,29.998777,-45.135494,-103.057854,0.7246400524563903
0 days 00:01:03.310000,0.873535,-0.009521,0.219971,41.542049,-70.289612,-110.015862,0.9008558633360833
0 days 00:01:03.320000,1.020752,-0.039063,0.182373,51.528927,-72.601318,-128.295898,1.0376514224931221
0 days 00:01:03.330000,0.88208,-0.037109,0.077637,53.993221,-62.683102,-133.369446,0.8862672892812867
0 days 00:01:03.340000,0.724854,-0.045654,0.065918,55.915829,-46.661373,-125.503532,0.7292755252687423
0 days 00:01:03.350000,1.291992,0.225586,0.166504,38.894653,61.859127,-92.750542,1.3220650337543913
0 days 00:01:03.360000,0.721191,0.163818,-0.040039,47.386166,-168.312057,-122.322075,0.7406456083215508
0 days 00:01:03.370000,0.720459,-0.050537,0.106445,56.373592,-34.896851,-116.134636,0.7300312986954737
0 days 00:01:03.380000,0.663086,0.166992,-0.036133,34.675598,-235.015854,-141.540527,0.6847444524412009
0 days 00:01:03.390000,0.414307,0.959229,-0.17627,-69.366455,102.828972,-125.274651,1.0596422403764396
0 days 00:01:03.400000,0.437744,0.953369,-0.198975,-70.365906,89.942924,-122.642509,1.0677655689906844
0 days 00:01:03.410000,0.46167,0.943115,-0.223633,-71.44165,77.209473,-122.871391,1.0735999305206758
0 days 00:01:03.420000,0.468018,0.935303,-0.24585,-71.647644,63.072201,-125.274651,1.0743718037220635
0 days 00:01:03.430000,0.445313,0.943604,-0.272705,-71.784973,44.120785,-127.593987,1.0784526850121892
0 days 00:01:03.440000,0.399414,0.966309,-0.315674,-74.081421,17.677307,-127.113335,1.0922155012418566
0 days 00:01:03.450000,0.687256,0.162354,-0.040771,42.114254,-204.627975,-132.225037,0.7073485034217574
0 days 00:01:03.460000,0.309082,0.974121,-0.387939,-84.144585,-58.578487,-115.715019,1.0931331451776587
0 days 00:01:03.470000,0.328125,0.910156,-0.402344,-86.067192,-102.790825,-114.82238,1.04782186191022
0 days 00:01:03.480000,0.395996,0.797852,-0.386719,-84.518425,-145.378113,-125.061028,0.9710469766602438
0 days 00:01:03.490000,0.40625,0.675781,-0.349121,-80.902092,-183.723434,-139.778137,0.8623250518812497
0 days 00:01:03.500000,0.342529,0.984131,-0.356689,-78.895569,-17.01355,-122.352592,1.1013932012333287
0 days 00:01:03.510000,0.377686,0.577637,-0.270996,-73.417664,-212.516769,-151.351929,0.7414513135607759
0 days 00:01:03.520000,0.416992,0.526367,-0.188232,-62.477108,-230.453476,-160.293579,0.6974065045416482
0 days 00:01:03.530000,0.502197,0.513184,-0.14624,-50.262447,-242.897018,-165.054306,0.7327658440900475
0 days 00:01:03.540000,0.604248,0.551514,-0.116455,-41.481014,-249.366745,-161.125168,0.8263444225775352
0 days 00:01:03.550000,0.703613,0.603027,-0.099609,-40.077209,-249.992355,-144.035339,0.9320057775459334
0 days 00:01:03.560000,0.80835,0.5896,-0.067871,-39.031982,-249.656662,-118.049614,1.0028281782743242
0 days 00:01:03.570000,0.967529,0.480713,-0.000244,-25.146482,-246.261581,-105.430595,1.0803691099554817
0 days 00:01:03.580000,1.175537,0.361328,0.080078,-3.044128,-243.453964,-122.76458,1.2324194286187637
0 days 00:01:03.590000,1.154541,0.26416,0.069336,12.46643,-247.360214,-145.935059,1.186403349277555
0 days 00:01:03.600000,0.83252,0.190186,-0.012207,24.406431,-249.992355,-149.238586,0.8540546094044572
0 days 00:01:03.610000,0.432373,0.978271,-0.157471,-65.567017,124.809258,-134.048462,1.081090965835438
0 days 00:01:03.620000,0.230957,1.003906,-0.162842,-6.141662,-6.248474,-6.484985,1.042921813775606
0 days 00:01:03.630000,0.232178,0.998779,-0.151611,-6.080627,-9.597778,-5.882263,1.0365577696616817
0 days 00:01:03.640000,0.230957,0.997559,-0.145508,-5.989074,-12.21466,-5.767822,1.0342328907910443
0 days 00:01:03.650000,0.232422,0.994141,-0.140381,-5.79071,-14.137267,-5.592346,1.0305547725016853
0 days 00:01:03.660000,0.238037,0.994629,-0.126709,-4.745483,-23.780821,-6.324768,1.0305356042810943
0 days 00:01:03.670000,0.238037,0.993896,-0.13208,-5.195617,-17.913818,-5.310058,1.030502789217477
0 days 00:01:03.680000,0.239258,0.994629,-0.12915,-4.966736,-20.332335,-5.516052,1.031121215330671
0 days 00:01:03.690000,0.237793,0.994385,-0.127197,-4.867554,-22.468565,-5.966186,1.0303038949179022
0 days 00:01:03.700000,0.235596,0.992676,-0.136719,-5.500793,-15.800475,-5.363464,1.0293702935061804
0 days 00:01:03.710000,0.220947,1.00415,-0.171387,-6.16455,-2.693176,-7.446289,1.0423570900022698
0 days 00:01:03.720000,0.14502,1.052002,-0.181396,-13.641356,-9.513855,11.734008,1.0773316653751528
0 days 00:01:03.730000,0.185303,1.011719,-0.188477,-5.752563,3.425598,-8.605957,1.0456749572878754
0 days 00:01:03.740000,0.170166,1.016357,-0.197998,-6.095886,5.798339,-8.232117,1.0493527657603994
0 days 00:01:03.750000,0.151123,1.020508,-0.203613,-6.500244,7.408142,-7.453918,1.0515383934797626
0 days 00:01:03.760000,0.134521,1.022949,-0.207031,-6.874084,7.064819,-6.210327,1.0523223797881522
0 days 00:01:03.770000,0.123779,1.027588,-0.207031,-7.789611,4.852295,-4.669189,1.0555189119793165
0 days 00:01:03.780000,0.116699,1.030518,-0.204102,-8.995056,2.296448,-2.616882,1.056997460417479
0 days 00:01:03.790000,0.120361,1.033936,-0.197021,-9.719849,0.579834,0.091553,1.0593996870199651
0 days 00:01:03.800000,0.128418,1.041748,-0.194824,-10.124206,-0.549316,3.280639,1.0675609908590702
0 days 00:01:03.810000,0.133545,1.045654,-0.19165,-11.07788,-2.037048,6.431579,1.0714272150925608
0 days 00:01:03.820000,0.138428,1.050537,-0.185547,-12.557982,-5.004883,9.32312,1.0757406698465948
0 days 00:01:03.830000,0.237061,0.995361,-0.124023,-4.730225,-24.223326,-6.538391,1.0306906143799894
0 days 00:01:03.840000,0.205322,1.004395,-0.179932,-5.851745,0.495911,-8.331299,1.0408371459229344
0 days 00:01:03.850000,0.236816,0.997803,-0.123779,-4.78363,-24.055479,-6.805419,1.0329636419090462
0 days 00:01:03.860000,0.200684,0.977783,-0.108643,-0.724792,-26.733397,-0.968933,1.004060239424906
0 days 00:01:03.870000,0.231201,0.998047,-0.120117,-4.127502,-22.27783,-7.484436,1.0314939700739894
0 days 00:01:03.880000,0.161621,1.050293,-0.175293,-15.029906,-14.114379,13.877868,1.0770164201807695
0 days 00:01:03.890000,0.153564,0.983154,-0.107178,-2.624511,-19.14978,-3.044128,1.0008300622463335
0 days 00:01:03.900000,0.155029,0.987061,-0.107178,-2.525329,-20.164488,-3.097534,1.00489329396011
0 days 00:01:03.910000,0.152344,0.989258,-0.110107,-2.204895,-21.430967,-3.173828,1.006957613978364
0 days 00:01:03.920000,0.154541,0.991943,-0.111328,-1.88446,-22.78137,-2.922058,1.0100632453039762
0 days 00:01:03.930000,0.157227,0.994141,-0.112549,-1.686096,-23.872374,-2.632141,1.0127704255215
0 days 00:01:03.940000,0.153809,0.996094,-0.112061,-1.441955,-25.207518,-2.39563,1.0141095271409297
0 days 00:01:03.950000,0.155029,0.996582,-0.111328,-1.228333,-26.977537,-1.991272,1.014693844048046
0 days 00:01:03.960000,0.158691,0.999268,-0.105957,-1.487732,-28.602598,-1.296997,1.0173230829751185
0 days 00:01:03.970000,0.165039,0.994873,-0.109131,-1.556396,-29.579161,-0.572205,1.0143568074454867
0 days 00:01:03.980000,0.231689,0.998047,-0.121582,-4.577637,-23.399351,-7.102966,1.0317750673736985
0 days 00:01:03.990000,0.172363,0.98999,-0.107666,-1.13678,-29.449461,-0.099182,1.0106340442637978
0 days 00:01:04,0.190918,0.982178,-0.104736,-1.00708,-27.862547,-0.083923,1.0060282978644288
0 days 00:01:04.010000,0.209473,0.981445,-0.111816,-0.709534,-25.138853,-1.724243,1.0097603892062712
0 days 00:01:04.020000,0.219727,0.987061,-0.116211,-0.869751,-23.010252,-2.494812,1.0178773839569282
0 days 00:01:04.030000,0.228027,0.989014,-0.115479,-1.190186,-20.774839,-3.417969,1.0215088860925292
0 days 00:01:04.040000,0.233398,0.990967,-0.118652,-1.502991,-18.714905,-4.40979,1.0249724477257913
0 days 00:01:04.050000,0.233643,0.990234,-0.120117,-1.739502,-17.074585,-5.363464,1.0244903708156556
0 days 00:01:04.060000,0.231934,0.993164,-0.120117,-2.067566,-16.349792,-6.217956,1.0269353460374222
0 days 00:01:04.070000,0.231934,0.994385,-0.12207,-2.700805,-17.021179,-6.843566,1.028346242022112
0 days 00:01:04.080000,0.22998,0.994873,-0.117432,-3.295898,-18.638611,-7.385253,1.0278391708594297
0 days 00:01:04.090000,0.229248,0.995605,-0.118164,-3.707886,-20.530699,-7.774353,1.0284681290273412
0 days 00:01:04.100000,0.179688,0.988525,-0.103516,-1.12915,-28.800962,0.183105,1.0100420858682078
0 days 00:01:04.110000,0.179688,1.046143,-0.161865,-17.364502,-17.883301,15.624999,1.0737333151290407
0 days 00:01:04.120000,0.151611,0.984375,-0.105469,-2.830505,-18.280029,-2.906799,1.0015506706637463
0 days 00:01:04.130000,0.202881,1.027344,-0.123779,-20.668028,-24.826048,14.961242,1.0544750520225692
0 days 00:01:04.140000,0.20752,0.926025,-0.088623,1.533508,0.160217,3.105163,0.953121653910979
0 days 00:01:04.150000,0.193848,0.925537,-0.089355,3.570556,0.587463,7.469177,0.9498316174449029
0 days 00:01:04.160000,0.179443,0.927246,-0.099365,5.172729,-0.068665,11.863708,0.9496622231035623
0 days 00:01:04.170000,0.166504,0.930664,-0.103271,6.034851,-2.243042,16.12854,0.9510646467790715
0 days 00:01:04.180000,0.150879,0.937012,-0.105713,7.026672,-5.645751,19.966125,0.9549508883466207
0 days 00:01:04.190000,0.138184,0.94458,-0.111328,8.018494,-9.902954,23.780821,0.9611035937088155
0 days 00:01:04.200000,0.132568,0.952393,-0.113525,8.758545,-14.404296,28.137205,0.9682533897167621
0 days 00:01:04.210000,0.123779,0.960449,-0.114502,9.460449,-19.485474,31.661985,0.9751380571211442
0 days 00:01:04.220000,0.110596,0.968506,-0.115234,9.994507,-26.138304,34.355164,0.981587602819025
0 days 00:01:04.230000,0.092773,0.975098,-0.11499,10.56671,-34.126282,36.354065,0.986227985423756
0 days 00:01:04.240000,0.209961,0.927002,-0.085205,-0.083923,-0.717163,-1.045227,0.9542935719944885
0 days 00:01:04.250000,0.084717,0.985596,-0.115479,10.81848,-43.022152,38.42926,0.9959477118533885
0 days 00:01:04.260000,0.07666,1.00293,-0.099121,11.466979,-59.989925,42.778011,1.010727615701184
0 days 00:01:04.270000,0.084717,1.018555,-0.094482,11.192321,-67.550659,43.754574,1.026429786414054
0 days 00:01:04.280000,0.094238,1.034912,-0.092529,10.551452,-74.546814,43.319698,1.0433049718222376
0 days 00:01:04.290000,0.106934,1.049316,-0.091553,9.841919,-80.230713,43.518063,1.0587166287638066
0 days 00:01:04.300000,0.12915,1.067627,-0.101563,8.621216,-83.305351,45.883175,1.080195434446008
0 days 00:01:04.310000,0.151855,1.071533,-0.111572,7.415771,-83.030693,47.973629,1.0879757452710055
0 days 00:01:04.320000,0.179932,1.065186,-0.112793,6.370544,-81.260674,47.019955,1.0861487007168955
0 days 00:01:04.330000,0.186035,1.056885,-0.109131,5.012512,-82.069389,44.906612,1.0786679283315141
0 days 00:01:04.340000,0.172852,1.049805,-0.104492,3.120422,-85.288994,45.791622,1.0690588992160348
0 days 00:01:04.350000,0.184326,1.047852,-0.100098,2.418518,-85.952751,47.065731,1.0686390867753246
0 days 00:01:04.360000,0.078613,0.993896,-0.105225,11.100768,-51.826473,40.733334,1.002537561994562
0 days 00:01:04.370000,0.212402,0.922852,-0.084717,-1.991272,-1.091003,-5.455017,0.9507614809177958
0 days 00:01:04.380000,0.189453,1.035645,-0.13916,-19.348145,-21.080015,16.059875,1.0619879993832322
0 days 00:01:04.390000,0.235352,0.921631,-0.084473,-6.378173,0.564575,-13.183593,0.9549502352447482
0 days 00:01:04.400000,0.205322,1.023682,-0.110107,-21.812437,-28.747557,13.046264,1.0498597583758509
0 days 00:01:04.410000,0.212646,1.02124,-0.101074,-23.368834,-32.669067,10.56671,1.0480292993957754
0 days 00:01:04.420000,0.222656,1.022949,-0.095703,-24.765013,-36.048889,7.278442,1.0512656253992139
0 days 00:01:04.430000,0.227539,1.019775,-0.094238,-25.718687,-38.825989,3.417969,1.0490928690015962
0 days 00:01:04.440000,0.237061,1.019043,-0.095703,-26.68762,-40.931698,-0.762939,1.0506215387945366
0 days 00:01:04.450000,0.243652,1.02124,-0.093994,-27.6947,-42.472836,-5.043029,1.054102607311072
0 days 00:01:04.460000,0.22168,0.921143,-0.083008,-4.066467,-0.221252,-9.681702,0.9510713837104974
0 days 00:01:04.470000,0.258545,1.018311,-0.092773,-29.136656,-43.037411,-13.183593,1.0547083195248816
0 days 00:01:04.480000,0.262695,1.015381,-0.090088,-29.418943,-42.022701,-16.860962,1.052674254425366
0 days 00:01:04.490000,0.267578,1.012451,-0.093506,-29.525755,-40.138245,-20.317076,1.0513792776733808
0 days 00:01:04.500000,0.269287,1.006348,-0.094482,-29.258726,-37.696838,-23.307798,1.0460299392450485
0 days 00:01:04.510000,0.250244,1.020996,-0.093018,-28.57971,-43.189999,-9.231567,1.0553232869012226
0 days 00:01:04.520000,0.272705,0.990479,-0.093506,-27.565001,-31.524656,-27.801512,1.0315813290778386
0 days 00:01:04.530000,0.271484,0.984131,-0.091797,-26.229856,-28.060911,-28.938292,1.0250093056289782
0 days 00:01:04.540000,0.270752,0.976807,-0.091797,-24.787901,-24.703978,-29.45709,1.0177844810970542
0 days 00:01:04.550000,0.271729,0.96875,-0.089355,-22.857664,-21.324156,-29.472349,1.0100977813885148
0 days 00:01:04.560000,0.268311,0.956299,-0.091064,-20.683287,-17.990112,-29.022215,0.9973922108268141
0 days 00:01:04.570000,0.265625,0.948975,-0.090332,-18.440247,-14.48059,-27.816771,0.9895807503554219
0 days 00:01:04.580000,0.263672,0.941406,-0.090088,-16.151428,-10.597228,-25.703428,0.9817759561957097
0 days 00:01:04.590000,0.260986,0.932617,-0.088867,-13.618468,-6.622314,-22.895811,0.9725150407957709
0 days 00:01:04.600000,0.25415,0.928223,-0.088135,-11.123656,-2.952575,-19.432068,0.966414992875214
0 days 00:01:04.610000,0.248779,0.924316,-0.083252,-8.773804,-0.37384,-16.151428,0.9608235812057279
0 days 00:01:04.620000,0.269775,0.998535,-0.094727,-28.663633,-34.828186,-25.817869,1.0386644796944777
0 days 00:01:04.630000,0.164795,1.005127,-0.136475,1.716614,-0.602722,-0.030518,1.0276493097253556
0 days 00:01:04.640000,0.15918,1.006348,-0.134766,1.564026,-1.38092,-0.030518,1.0277336446083685
0 days 00:01:04.650000,0.15625,1.009521,-0.136963,1.38092,-2.02179,0.083923,1.0306820922622066
0 days 00:01:04.660000,0.155762,1.013672,-0.13623,1.13678,-2.304077,0.198364,1.034577854551314
0 days 00:01:04.670000,0.149658,1.007568,-0.138672,1.396179,-0.869751,-0.930786,1.028017857418829
0 days 00:01:04.680000,0.149414,1.01416,-0.137695,1.327515,-1.38092,-0.434875,1.0343137638168602
0 days 00:01:04.690000,0.148926,1.011963,-0.140137,1.274109,-0.923157,-0.762939,1.032417766998418
0 days 00:01:04.700000,0.149902,1.010254,-0.141357,1.312256,-0.778198,-0.953674,1.0310507046547226
0 days 00:01:04.710000,0.15332,1.014648,-0.140381,1.220703,-2.006531,-0.053406,1.0357241000696082
0 days 00:01:04.720000,0.164307,1.003662,-0.136475,1.800537,0.190735,0.007629,1.0261382100467753
0 days 00:01:04.730000,0.143311,0.99707,-0.132324,2.983093,2.029419,1.411438,1.0159706041992553
0 days 00:01:04.740000,0.164795,1.002197,-0.135498,1.76239,1.296997,-0.282288,1.024654052272278
0 days 00:01:04.750000,0.162354,0.999268,-0.134277,1.815796,1.625061,-0.473022,1.0212373229905967
0 days 00:01:04.760000,0.1604,0.999268,-0.137451,1.953125,1.831055,-0.488281,1.0213508081090454
0 days 00:01:04.770000,0.161621,1.003174,-0.138184,1.930237,1.922607,-0.228882,1.0254629392489034
0 days 00:01:04.780000,0.161377,1.002197,-0.134277,1.88446,2.02179,0.190735,1.0239490591172005
0 days 00:01:04.790000,0.15625,1.00293,-0.133057,1.876831,1.930237,0.556946,1.0237122704397952
0 days 00:01:04.800000,0.152344,0.999512,-0.133301,2.120972,1.457214,0.663757,1.019804926974272
0 days 00:01:04.810000,0.150879,0.993896,-0.134033,2.311707,1.167297,0.762939,1.014178769520443
0 days 00:01:04.820000,0.149658,0.995117,-0.131104,2.525329,1.296997,0.762939,1.0148121104268513
0 days 00:01:04.830000,0.144775,0.994385,-0.130127,2.845764,1.670837,1.052856,1.0132592782595182
0 days 00:01:04.840000,0.148438,1.005371,-0.136963,1.25885,-1.281738,-0.846863,1.0254577274827081
0 days 00:01:04.850000,0.165039,1.005371,-0.135254,1.785278,0.793457,-0.068665,1.0277657143911738
0 days 00:01:04.860000,0.147705,1.001709,-0.13916,1.12915,-1.777649,-0.801086,1.0220583120869375
0 days 00:01:04.870000,0.162598,1.001221,-0.130615,2.761841,2.716064,-0.572205,1.0227129991693662
0 days 00:01:04.880000,0.144531,1.002197,-0.137939,1.228333,-1.998901,-0.686645,1.0219174156902309
0 days 00:01:04.890000,0.141602,1.000977,-0.131348,3.013611,1.930237,1.525879,1.019440227790232
0 days 00:01:04.900000,0.161133,1.004395,-0.1604,1.235962,3.532409,-1.495361,1.0298064476949051
0 days 00:01:04.910000,0.158447,1.00415,-0.154785,1.266479,3.639221,-1.487732,1.028290362949104
0 days 00:01:04.920000,0.157471,1.000244,-0.151367,1.251221,3.662109,-1.487732,1.0238149950386544
0 days 00:01:04.930000,0.154053,1.002686,-0.151123,1.358032,3.65448,-1.197815,1.02564599279381
0 days 00:01:04.940000,0.1521,1.005371,-0.148926,1.335144,3.761291,-0.762939,1.0276595793924173
0 days 00:01:04.950000,0.152588,1.0,-0.142822,1.571655,3.997802,-0.518799,1.0216071756932799
0 days 00:01:04.960000,0.155518,0.997314,-0.141113,1.89209,4.058838,-0.640869,1.0191829775310222
0 days 00:01:04.970000,0.154541,0.992676,-0.141113,2.105713,3.90625,-0.976562,1.0144956581602504
0 days 00:01:04.980000,0.152832,0.994629,-0.137939,2.426147,3.715515,-0.923157,1.0157123783758866
0 days 00:01:04.990000,0.14502,1.001465,-0.138428,1.113892,-2.067566,-0.793457,1.02133503700255
0 days 00:01:05,0.154297,0.997803,-0.135986,2.456665,3.318786,-0.556946,1.0187789668097786
0 days 00:01:05.010000,0.162354,1.002441,-0.131104,2.548218,2.89917,-0.534058,1.0239311688844126
0 days 00:01:05.020000,0.160645,1.002441,-0.132813,2.655029,2.578735,-0.602722,1.0238818620695453
0 days 00:01:05.030000,0.1604,1.00415,-0.131836,2.555847,2.311707,-0.648498,1.0253907125559505
0 days 00:01:05.040000,0.158936,1.002686,-0.133789,2.426147,1.792908,-0.793457,1.023982110787586
0 days 00:01:05.050000,0.156006,1.002441,-0.135742,2.281189,1.289368,-0.854492,1.0235485924376038
0 days 00:01:05.060000,0.154297,1.001709,-0.13501,2.082825,0.823975,-0.869751,1.0224755180394296
0 days 00:01:05.070000,0.151123,1.002441,-0.136475,1.846313,0.297546,-0.900268,1.022913263788773
0 days 00:01:05.080000,0.147461,1.002686,-0.137451,1.63269,-0.297546,-0.846863,1.0227495971732279
0 days 00:01:05.090000,0.145508,1.001465,-0.139893,1.396179,-1.060486,-0.701904,1.021604021007161
0 days 00:01:05.100000,0.145264,1.001465,-0.13916,1.266479,-1.602173,-0.602722,1.0214691779593743
0 days 00:01:05.110000,0.159912,1.001953,-0.134521,2.426147,3.013611,-0.37384,1.0235123650420643
0 days 00:01:05.120000,0.160889,1.001465,-0.156982,1.243591,3.082275,-1.609802,1.0263823677704134
0 days 00:01:05.130000,0.136963,1.006592,-0.127441,2.861023,0.366211,1.777649,1.0238298326938904
0 days 00:01:05.140000,0.135742,1.012207,-0.125977,2.6474,-0.663757,2.090454,1.0290087977962095
0 days 00:01:05.150000,0.174561,1.00293,-0.131348,-5.706787,-20.248411,-1.022339,1.026446503586524
0 days 00:01:05.160000,0.176025,1.007813,-0.131592,-5.981445,-20.431517,-1.144409,1.0314980843695252
0 days 00:01:05.170000,0.181641,1.011475,-0.133545,-6.332397,-20.462034,-1.243591,1.036295998029038
0 days 00:01:05.180000,0.185059,1.008301,-0.13501,-6.408691,-20.51544,-1.464844,1.0339948936924204
0 days 00:01:05.190000,0.185791,1.00293,-0.135254,-6.095886,-20.362852,-1.876831,1.028922020901973
0 days 00:01:05.200000,0.184814,1.003906,-0.135986,-6.210327,-20.103453,-1.922607,1.0297939908680764
0 days 00:01:05.210000,0.182861,1.005615,-0.134277,-6.54602,-19.65332,-1.197815,1.0308879600979923
0 days 00:01:05.220000,0.180664,1.002686,-0.137207,-6.759643,-19.40918,-0.595093,1.028029404414582
0 days 00:01:05.230000,0.177246,0.993164,-0.136475,-6.729125,-19.180298,-0.389099,1.0180453334881507
0 days 00:01:05.240000,0.173828,0.976318,-0.132568,-6.54602,-18.2724,-0.938415,1.0004935208845682
0 days 00:01:05.250000,0.169678,1.001221,-0.131348,-5.302429,-20.042419,-0.328064,1.0239562547438243
0 days 00:01:05.260000,0.172852,0.978271,-0.129883,-6.324768,-17.677307,-1.075745,1.0018790131717503
0 days 00:01:05.270000,0.171143,0.985352,-0.123291,-6.248474,-17.196655,-0.946045,1.0076751267318251
0 days 00:01:05.280000,0.170166,0.984863,-0.122803,-5.851745,-17.349243,-1.304626,1.006971783683138
0 days 00:01:05.290000,0.167969,0.984375,-0.122314,-5.28717,-17.692566,-2.052307,1.0060658229867467
0 days 00:01:05.300000,0.172363,0.988037,-0.123535,-4.623413,-17.326355,-2.479553,1.0105379821476281
0 days 00:01:05.310000,0.172119,0.998535,-0.12085,-4.135132,-16.708374,-2.502441,1.0204419723266973
0 days 00:01:05.320000,0.168701,1.006104,-0.116455,-4.089355,-16.311646,-2.365112,1.0267750743186164
0 days 00:01:05.330000,0.16333,1.009521,-0.113037,-3.890991,-16.456604,-2.204895,1.0288764268414357
0 days 00:01:05.340000,0.152832,1.001709,-0.112305,-3.486633,-16.937256,-2.304077,1.0195052495843264
0 days 00:01:05.350000,0.151855,0.992188,-0.108643,-3.27301,-17.63916,-2.510071,1.0096040163440319
0 days 00:01:05.360000,0.13916,1.002686,-0.130615,3.036499,1.296997,1.564026,1.0206884923525883
0 days 00:01:05.370000,0.171631,0.981934,-0.126709,-6.29425,-17.26532,-0.87738,1.0048416547884547
0 days 00:01:05.380000,0.168213,0.998291,-0.13208,-4.882813,-20.111082,0.328064,1.0209435148185233
0 days 00:01:05.390000,0.175049,0.981689,-0.132813,-6.698608,-18.753052,-0.602722,1.0059794918839051
0 days 00:01:05.400000,0.157471,0.999756,-0.129883,-4.051208,-21.484373,1.121521,1.0203816781312764
0 days 00:01:05.410000,0.161621,0.999512,-0.130859,-4.570007,-20.668028,0.869751,1.0209160904138987
0 days 00:01:05.420000,0.138672,1.017578,-0.123291,2.761841,-1.564026,3.013611,1.0343575689040034
0 days 00:01:05.430000,0.139404,1.015625,-0.124512,2.883911,-1.426697,2.937317,1.0326813903547405
0 days 00:01:05.440000,0.140625,1.015625,-0.12207,3.265381,-1.739502,2.76947,1.0325553816381956
0 days 00:01:05.450000,0.135986,1.018066,-0.118896,3.425598,-2.510071,2.586365,1.0339665523449004
0 days 00:01:05.460000,0.135254,1.02002,-0.120361,3.196716,-3.334045,2.433777,1.0359639063389225
0 days 00:01:05.470000,0.131348,1.019287,-0.116211,3.112793,-4.348755,2.372742,1.0342646092726948
0 days 00:01:05.480000,0.128174,1.019287,-0.117432,2.89154,-5.79071,2.02179,1.0340042733320787
0 days 00:01:05.490000,0.124512,1.015625,-0.119385,2.792358,-7.095336,1.770019,1.0301699650999343
0 days 00:01:05.500000,0.124268,1.013916,-0.120605,2.487183,-8.163452,1.63269,1.0285979568835435
0 days 00:01:05.510000,0.124268,1.012207,-0.120605,2.174377,-9.307861,1.64032,1.0269133910403547
0 days 00:01:05.520000,0.136719,1.017822,-0.123047,2.723694,-1.411438,2.540588,1.0343085965291015
0 days 00:01:05.530000,0.122803,1.015625,-0.123291,1.068115,-12.565612,1.617432,1.0304248580634108
0 days 00:01:05.540000,0.123291,1.013428,-0.120117,1.731872,-10.681151,1.586914,1.0279421557432111
0 days 00:01:05.550000,0.139893,0.997314,-0.123047,-2.967834,-22.712706,1.64032,1.0145668190188362
0 days 00:01:05.560000,0.135498,1.001465,-0.126465,-2.593994,-22.491453,1.853943,1.018472017511527
0 days 00:01:05.570000,0.130371,1.004883,-0.125488,-1.983642,-21.804808,2.166748,1.0210453856092785
0 days 00:01:05.580000,0.125732,1.010254,-0.124023,-1.518249,-20.851133,2.296448,1.0255746607970577
0 days 00:01:05.590000,0.148193,0.998291,-0.126465,-3.250122,-22.216795,1.335144,1.0171231401138214
0 days 00:01:05.600000,0.120605,1.019043,-0.122803,-0.312805,-17.944336,1.983642,1.0334770334569607
0 days 00:01:05.610000,0.121338,1.015381,-0.125488,0.198364,-16.281128,1.663208,1.0302760424027146
0 days 00:01:05.620000,0.121338,1.016113,-0.125977,0.526428,-14.411925,1.548767,1.0310571000395663
0 days 00:01:05.630000,0.123047,1.017334,-0.120605,-1.098633,-19.561768,2.319336,1.031821010539134
0 days 00:01:05.640000,0.205078,0.950928,-0.11084,-23.132322,-61.271664,19.111633,0.9790845483756753
0 days 00:01:05.650000,0.075928,0.977539,-0.305664,-17.837524,-24.971006,2.258301,1.02702387440653
0 days 00:01:05.660000,0.09668,0.974121,-0.290771,-21.209715,-45.280453,4.196167,1.021178985037393
0 days 00:01:05.670000,0.146973,0.973633,-0.249268,-24.017332,-56.373592,6.034851,1.0157247743567153
0 days 00:01:05.680000,0.176514,0.965332,-0.181396,-25.222776,-60.005184,8.552551,0.9979617083014758
0 days 00:01:05.690000,0.180664,0.961426,-0.142578,-25.436399,-61.088558,11.291503,0.9885888530911119
0 days 00:01:05.700000,0.075684,0.989258,-0.327637,-13.519286,0.648498,0.328064,1.04484709990936
0 days 00:01:05.710000,0.182373,0.956299,-0.127686,-25.0473,-61.912533,14.167785,0.981871378096948
0 days 00:01:05.720000,0.193848,0.953369,-0.11792,-24.085997,-62.049862,16.960144,0.9799972569680999
0 days 00:01:05.730000,0.215088,0.947754,-0.10376,-22.293089,-60.157772,21.240232,0.9773774244681529
0 days 00:01:05.740000,0.258545,0.952881,-0.080566,-14.144897,-54.13055,29.548643,0.9906152621184472
0 days 00:01:05.750000,0.233154,0.950439,-0.087646,-20.027161,-57.853695,25.070189,0.9825359544327119
0 days 00:01:05.760000,0.241699,0.951416,-0.085449,-18.722534,-56.640621,26.679991,0.9853488434346488
0 days 00:01:05.770000,0.248535,0.950684,-0.081299,-17.341614,-55.221554,27.976988,0.985991501729097
0 days 00:01:05.780000,0.256348,0.950439,-0.082764,-15.594481,-54.275509,28.877256,0.987875735870155
0 days 00:01:05.790000,0.260254,0.954834,-0.082031,-12.878417,-54.664608,29.945372,0.993060520327437
0 days 00:01:05.800000,0.263916,0.955322,-0.081543,-11.413573,-54.977413,29.953001,0.9944551470976456
0 days 00:01:05.810000,0.272461,0.952637,-0.084961,-9.69696,-53.894039,29.922483,0.9944700205692477
0 days 00:01:05.820000,0.281006,0.954834,-0.084473,-7.720947,-50.918575,29.655455,0.9989034124083268
0 days 00:01:05.830000,0.293701,0.958252,-0.080078,-5.470275,-45.783993,29.685972,1.005445005452312
0 days 00:01:05.840000,0.107422,0.993652,-0.349854,-8.354187,23.483274,-1.686096,1.0589058525213655
0 days 00:01:05.850000,0.223877,0.951416,-0.094238,-21.202085,-59.005733,23.178099,0.9819338658122552
0 days 00:01:05.860000,0.145752,0.993164,-0.365234,-3.952026,38.513184,-4.562378,1.0681826862274075
0 days 00:01:05.870000,0.307129,0.960693,-0.080322,-3.219604,-39.001465,29.869078,1.011785988524253
0 days 00:01:05.880000,0.192139,0.984619,-0.35791,3.280639,48.828121,-10.391234,1.0651251281337795
0 days 00:01:05.890000,0.225586,0.956055,-0.123291,-7.461547,3.585815,-24.360655,0.9900155943731391
0 days 00:01:05.900000,0.216064,0.949951,-0.123047,-6.713867,-0.816345,-23.468016,0.9819527069599635
0 days 00:01:05.910000,0.218262,0.951416,-0.128662,-5.821228,-4.867554,-22.315977,0.9845733166930739
0 days 00:01:05.920000,0.225586,0.952637,-0.130371,-5.401611,-8.094788,-21.316526,0.9876248755504288
0 days 00:01:05.930000,0.226318,0.955322,-0.128418,-4.91333,-11.489867,-20.416258,0.9901268320432489
0 days 00:01:05.940000,0.223633,0.956543,-0.130615,-4.180908,-15.144347,-19.798279,0.9909825971040057
0 days 00:01:05.950000,0.228271,0.960938,-0.132324,-4.074097,-18.52417,-18.798828,0.9965034522072665
0 days 00:01:05.960000,0.238281,0.961182,-0.126953,-4.005432,-21.301268,-17.318726,0.9983815584705078
0 days 00:01:05.970000,0.25293,0.961182,-0.121582,-3.417969,-22.834776,-15.594481,1.001312441123149
0 days 00:01:05.980000,0.270752,0.964111,-0.11792,-3.479004,-22.560118,-14.60266,1.00832623303423
0 days 00:01:05.990000,0.17334,0.990967,-0.368408,0.083923,45.959469,-7.827758,1.0713481250989334
0 days 00:01:06,0.286377,0.964111,-0.116699,-2.937317,-20.881651,-14.297484,1.0124922039457884
0 days 00:01:06.010000,0.240479,0.960449,-0.115967,-7.720947,7.072448,-24.810789,0.996865475443402
0 days 00:01:06.020000,0.275391,0.968506,-0.131348,-0.854492,-16.014099,-13.862609,1.0154291565742042
0 days 00:01:06.030000,0.276367,0.966309,-0.13916,0.343323,-14.671325,-13.664245,1.014641467598284
0 days 00:01:06.040000,0.286621,0.969727,-0.154297,0.892639,-10.650634,-13.420104,1.0229025449078715
0 days 00:01:06.050000,0.300781,0.971191,-0.176514,1.953125,-1.960754,-13.458251,1.0319100545289788
0 days 00:01:06.060000,0.320068,0.962646,-0.199219,3.936767,11.589049,-13.671874,1.033837054811347
0 days 00:01:06.070000,0.321289,0.959961,-0.225342,6.103515,26.840208,-14.160155,1.0370779912841657
0 days 00:01:06.080000,0.265625,0.969238,-0.271973,7.141113,47.08099,-13.191222,1.041128356158836
0 days 00:01:06.090000,0.233154,0.972656,-0.293457,6.469726,50.056454,-12.435912,1.042371091742763
0 days 00:01:06.100000,0.207275,0.976318,-0.326416,5.432128,50.155636,-11.726378,1.050098646701823
0 days 00:01:06.110000,0.287354,0.964844,-0.124023,-1.976013,-18.699646,-14.259337,1.0143362214675171
0 days 00:01:06.120000,0.316162,0.962891,-0.08252,-0.915527,-31.402586,30.158995,1.0168220289337757
0 days 00:01:06.130000,0.281982,0.970459,-0.128906,-1.739502,-16.983032,-14.09912,1.0187842145621417
0 days 00:01:06.140000,0.323975,0.954834,-0.088135,3.868103,-15.457152,29.647825,1.012144034417039
0 days 00:01:06.150000,0.096191,1.006836,-0.265137,9.925842,29.884336,-1.205444,1.0455950784821053
0 days 00:01:06.160000,0.152588,1.001221,-0.216309,6.858825,23.361204,-1.487732,1.0356235667780063
0 days 00:01:06.170000,0.165283,0.987305,-0.157715,6.317138,19.989014,-2.235413,1.0133921522979148
0 days 00:01:06.180000,0.163574,0.983398,-0.140625,5.569458,16.448975,-3.39508,1.0067787594625743
0 days 00:01:06.190000,0.153809,0.98291,-0.145752,4.981995,12.298583,-4.104614,1.0054913833966952
0 days 00:01:06.200000,0.142334,0.98999,-0.158691,4.348755,7.728576,-4.066467,1.0126806017382777
0 days 00:01:06.210000,0.149658,0.995117,-0.164307,3.372192,3.852844,-3.585815,1.0196333414036636
0 days 00:01:06.220000,0.162598,0.999756,-0.158936,2.853393,1.495361,-3.433227,1.0252857266323372
0 days 00:01:06.230000,0.168213,1.000488,-0.151855,2.616882,0.312805,-3.311157,1.02583224385764
0 days 00:01:06.240000,0.168213,0.997803,-0.152588,2.738952,-0.030518,-2.861023,1.0233227926329014
0 days 00:01:06.250000,0.092285,0.99707,-0.238281,15.380858,43.067928,-1.670837,1.0292924468225733
0 days 00:01:06.260000,0.166016,0.998291,-0.155762,2.937317,-0.083923,-2.502441,1.023917981862317
0 days 00:01:06.270000,0.164551,1.008057,-0.166992,2.487183,0.953674,-1.434326,1.0349600354187596
0 days 00:01:06.280000,0.164551,1.008057,-0.172607,2.105713,1.998901,-0.63324,1.0358808441606593
0 days 00:01:06.290000,0.164063,1.003174,-0.177246,1.602173,3.074646,-0.442505,1.0318385953050022
0 days 00:01:06.300000,0.15625,0.994629,-0.180908,1.525879,3.448486,-0.862122,1.022950934602926
0 days 00:01:06.310000,0.152344,0.98877,-0.176025,1.670837,3.349304,-1.083374,1.015804906397385
0 days 00:01:06.320000,0.150879,0.989746,-0.172363,1.457214,2.922058,-1.159668,1.0159087660444712
0 days 00:01:06.330000,0.157715,0.993896,-0.163086,1.464844,2.601623,-1.350403,1.0194608003434953
0 days 00:01:06.340000,0.160156,0.996826,-0.153564,1.586914,2.487183,-1.579285,1.0212217784144637
0 days 00:01:06.350000,0.156982,0.999268,-0.156738,1.449585,2.655029,-1.647949,1.023594980835682
0 days 00:01:06.360000,0.323242,0.956299,-0.083496,1.441955,-23.315428,30.075071,1.0128991805609282
0 days 00:01:06.370000,0.166504,1.004395,-0.15918,2.685547,0.167847,-2.197266,1.030471334119004
0 days 00:01:06.380000,0.139404,0.98877,-0.191162,18.760681,61.111446,-1.876831,1.0166821029013937
0 days 00:01:06.390000,0.296143,0.965088,-0.249023,7.339477,39.352417,-13.938903,1.0397634244009548
0 days 00:01:06.400000,0.206787,0.99585,-0.173584,22.239683,88.668816,1.502991,1.0317991524153332
0 days 00:01:06.410000,0.322754,0.955078,-0.116699,8.232117,-2.052307,27.915953,1.0148708229134387
0 days 00:01:06.420000,0.311035,0.958984,-0.128174,9.590149,2.326965,27.091978,1.0162783367547494
0 days 00:01:06.430000,0.302246,0.961182,-0.140137,10.879516,5.210876,26.390074,1.0172816032982215
0 days 00:01:06.440000,0.284668,0.962402,-0.148438,11.917113,6.492614,25.413511,1.0145379833559707
0 days 00:01:06.450000,0.273193,0.963623,-0.156982,12.802123,6.622314,23.79608,1.0138279191766224
0 days 00:01:06.460000,0.269531,0.9646,-0.158691,14.137267,6.530761,22.384642,1.0140428755442248
0 days 00:01:06.470000,0.268555,0.969971,-0.161133,15.892028,7.286071,21.423338,1.0192788492630462
0 days 00:01:06.480000,0.275635,0.978027,-0.1604,17.01355,9.132385,21.324156,1.0287077456469353
0 days 00:01:06.490000,0.283447,0.985352,-0.156738,18.112183,12.306212,21.568296,1.0372210788240857
0 days 00:01:06.500000,0.29248,0.98999,-0.165039,19.561768,17.01355,20.606993,1.0454006992636842
0 days 00:01:06.510000,0.299316,0.99707,-0.177246,20.202635,23.391722,19.287109,1.0560089001859785
0 days 00:01:06.520000,0.324463,0.954346,-0.10083,6.309509,-8.087158,28.907774,1.0130247849806044
0 days 00:01:06.530000,0.287598,0.989502,-0.181396,22.239683,39.825439,19.638062,1.0462940917466752
0 days 00:01:06.540000,0.289307,0.973389,-0.186035,22.949217,49.247738,17.364502,1.0323728526046199
0 days 00:01:06.550000,0.281982,0.958496,-0.188232,24.29199,58.113094,13.549804,1.0166905705100249
0 days 00:01:06.560000,0.27002,0.958252,-0.195801,25.901793,66.337585,11.024474,1.0146406888672461
0 days 00:01:06.570000,0.250488,0.980225,-0.222412,25.466917,74.790955,10.520934,1.035882419250853
0 days 00:01:06.580000,0.259277,0.994385,-0.223633,23.986814,83.755486,9.986877,1.0516833219382153
0 days 00:01:06.590000,0.272217,0.995117,-0.186279,23.025511,91.667168,8.277893,1.0483605317919023
0 days 00:01:06.600000,0.177734,0.991211,-0.179199,20.38574,77.384949,-0.244141,1.0228396271547167
0 days 00:01:06.610000,0.264893,0.991943,-0.175781,23.208616,96.511833,5.271911,1.041642057838968
0 days 00:01:06.620000,0.258545,0.996826,-0.174316,23.735044,98.121635,2.349854,1.0444585483191757
0 days 00:01:06.630000,0.238281,1.000488,-0.172363,23.498533,95.558159,1.647949,1.042814977296548
0 days 00:01:06.640000,0.296875,0.99707,-0.180908,21.011351,30.929564,19.378662,1.0559408387731768
0 days 00:01:06.650000,0.179688,0.996582,-0.148682,3.768921,-0.923157,-2.63977,1.0235085721145671
0 days 00:01:06.660000,0.174561,0.995361,-0.136963,3.738403,-1.449585,-2.548218,1.0197911190096725
0 days 00:01:06.670000,0.175049,0.998047,-0.134766,3.501892,-2.098083,-2.471924,1.0222044029282988
0 days 00:01:06.680000,0.168945,0.996094,-0.127197,3.265381,-2.716064,-2.456665,1.0182950194663627
0 days 00:01:06.690000,0.156006,0.993652,-0.130615,0.740051,-4.02832,-4.829407,1.014269415572115
0 days 00:01:06.700000,0.15918,0.99585,-0.124756,2.120972,-3.326416,-3.211975,1.0161788988342555
0 days 00:01:06.710000,0.158203,0.996582,-0.128906,1.678467,-3.440857,-3.738403,1.0172613374983834
0 days 00:01:06.720000,0.155518,0.993652,-0.128906,1.235962,-3.845215,-4.295349,1.0139757897819848
0 days 00:01:06.730000,0.182129,0.997559,-0.152344,3.616333,-0.297546,-2.929687,1.025428508214005
0 days 00:01:06.740000,0.163818,0.997559,-0.121582,2.815246,-3.181457,-2.746582,1.0182055187087722
0 days 00:01:06.750000,0.1875,1.0,-0.155273,3.52478,0.259399,-3.234863,1.0292064683672562
0 days 00:01:06.760000,0.195068,1.008057,-0.172119,0.457764,-0.671387,-3.051758,1.041083757453741
0 days 00:01:06.770000,0.197266,1.01001,-0.1604,2.372742,0.015259,-3.921509,1.0415191956253134
0 days 00:01:06.780000,0.194824,1.013184,-0.166016,1.907349,-0.434875,-3.723144,1.0450165171364518
0 days 00:01:06.790000,0.196777,1.013428,-0.169189,1.350403,-0.656128,-3.425598,1.0461273424559745
0 days 00:01:06.800000,0.198975,1.010498,-0.172607,0.785828,-0.671387,-3.219604,1.0442655002814178
0 days 00:01:06.810000,0.195313,1.002197,-0.168213,0.198364,-0.411987,-2.746582,1.0348147699694858
0 days 00:01:06.820000,0.195557,0.999512,-0.165527,-0.106812,0.289917,-2.624511,1.031826519392674
0 days 00:01:06.830000,0.19873,0.993652,-0.160889,-0.1297,1.091003,-2.563476,1.0260229921034907
0 days 00:01:06.840000,0.196533,0.989014,-0.156982,-0.099182,1.976013,-2.548218,1.0204985353291791
0 days 00:01:06.850000,0.194336,0.989258,-0.161133,-0.038147,2.708435,-2.586365,1.0209611722044085
0 days 00:01:06.860000,0.154785,0.99585,-0.12915,0.068665,-3.768921,-5.485534,1.0160488872219682
0 days 00:01:06.870000,0.191895,1.001953,-0.154785,3.372192,0.671387,-3.448486,1.0318390869990341
0 days 00:01:06.880000,0.152588,0.994629,-0.128418,-0.434875,-3.013611,-6.233215,1.0144265020734622
0 days 00:01:06.890000,0.155762,1.013428,-0.143311,0.007629,9.620667,-7.766723,1.0352952016449222
0 days 00:01:06.900000,0.151611,0.995117,-0.128174,-1.190186,-0.801086,-7.575988,1.0147277040102927
0 days 00:01:06.910000,0.157471,0.988281,-0.149414,2.426147,16.738892,-6.484985,1.0118403995680345
0 days 00:01:06.920000,0.156494,0.985352,-0.146484,2.426147,16.540527,-6.263732,1.0083979860134589
0 days 00:01:06.930000,0.153076,0.982666,-0.145508,2.609253,16.494751,-6.210327,1.0051056200201052
0 days 00:01:06.940000,0.148193,0.979492,-0.145264,2.807617,16.38031,-6.484985,1.0012329264506836
0 days 00:01:06.950000,0.149414,0.975586,-0.144531,2.853393,16.059875,-6.713867,0.9974877426580238
0 days 00:01:06.960000,0.146973,0.982666,-0.144287,2.662658,15.61737,-6.790161,1.0040180619162187
0 days 00:01:06.970000,0.143799,0.988037,-0.148193,2.449036,14.762877,-6.881713,1.0093841840543174
0 days 00:01:06.980000,0.143799,0.995605,-0.150635,1.983642,13.679503,-6.881713,1.0171520887512349
0 days 00:01:06.990000,0.145752,0.999756,-0.15332,1.556396,12.46643,-6.820678,1.0218917395888862
0 days 00:01:07,0.14624,1.004395,-0.149414,1.098633,11.596679,-7.072448,1.0259239723395686
0 days 00:01:07.010000,0.151611,0.996338,-0.125732,-0.87738,-2.059937,-6.843566,1.0156199295942356
0 days 00:01:07.020000,0.149658,1.006836,-0.150879,0.785828,10.833739,-7.400512,1.0290193003539827
0 days 00:01:07.030000,0.19165,0.990723,-0.159424,-0.053406,3.089905,-2.532959,1.0216054996939867
0 days 00:01:07.040000,0.156982,1.01416,-0.137939,-0.236511,8.430481,-8.262634,1.0354665719592304
0 days 00:01:07.050000,0.156738,1.014648,-0.138428,-0.50354,6.935119,-8.56781,1.0359728161163304
0 days 00:01:07.060000,0.158203,1.016602,-0.143311,-1.029968,5.40924,-8.743286,1.0387713214822596
0 days 00:01:07.070000,0.1604,1.016602,-0.145508,-1.426697,4.005432,-8.842468,1.0394134713712344
0 days 00:01:07.080000,0.158203,1.015869,-0.145508,-1.754761,3.128052,-8.743286,1.0383595679888542
0 days 00:01:07.090000,0.15918,1.012451,-0.143066,-2.189636,2.5177,-8.468628,1.0348251930432502
0 days 00:01:07.100000,0.158691,1.005371,-0.137695,-2.227783,2.006531,-8.300781,1.0270898666363133
0 days 00:01:07.110000,0.157715,1.002686,-0.133789,-1.823425,1.335144,-8.163452,1.0237933054782102
0 days 00:01:07.120000,0.156006,0.998291,-0.129883,-1.548767,0.404358,-8.026123,1.018720956104271
0 days 00:01:07.130000,0.151123,1.008057,-0.14624,0.38147,10.345458,-7.568359,1.0297588134985785
0 days 00:01:07.140000,0.187256,0.992432,-0.152344,-0.167847,2.76947,-2.174377,1.0213690706576148
0 days 00:01:07.150000,0.196289,1.00708,-0.158691,2.868652,0.518799,-3.761291,1.038230384549595
0 days 00:01:07.160000,0.179443,0.996826,-0.14209,-0.007629,0.915527,-1.213074,1.0227665582257761
0 days 00:01:07.170000,0.286133,0.987793,-0.206543,5.516052,21.736143,0.732422,1.0489361827046486
0 days 00:01:07.180000,0.289307,0.997314,-0.200928,4.486084,29.304502,-0.656128,1.057688903236202
0 days 00:01:07.190000,0.280029,1.001221,-0.194824,3.051758,34.233093,-2.220154,1.0577410470705955
0 days 00:01:07.200000,0.280762,1.00293,-0.190674,1.358032,36.987305,-4.119873,1.0587976481934591
0 days 00:01:07.210000,0.287354,1.0,-0.191406,0.320435,40.290829,-7.263183,1.057926546671365
0 days 00:01:07.220000,0.295654,1.000977,-0.197754,-0.839233,46.165462,-10.57434,1.062296044782715
0 days 00:01:07.230000,0.286133,1.005859,-0.20459,-1.937866,52.330013,-13.107299,1.0655897379714203
0 days 00:01:07.240000,0.267578,1.012207,-0.207275,-3.585815,55.206295,-15.388488,1.0672974855015822
0 days 00:01:07.250000,0.243896,1.015137,-0.208008,-6.401062,51.788326,-17.63916,1.0645448396610637
0 days 00:01:07.260000,0.225098,1.008545,-0.199707,-9.07135,43.380733,-19.767761,1.052480409545945
0 days 00:01:07.270000,0.274902,0.980225,-0.205078,5.676269,13.839721,2.044678,1.0384936910318714
0 days 00:01:07.280000,0.219482,1.003906,-0.190674,-11.45935,34.27124,-22.40753,1.0451584470481017
0 days 00:01:07.290000,0.194092,0.998291,-0.150879,-13.946532,18.043518,-27.153013,1.0281153134673173
0 days 00:01:07.300000,0.1875,0.99585,-0.141357,-14.251708,10.490417,-28.068541,1.0231594567558862
0 days 00:01:07.310000,0.190674,0.989502,-0.140869,-14.236449,4.096985,-28.541563,1.0175042296919459
0 days 00:01:07.320000,0.203857,0.981201,-0.144043,-13.259887,-0.396728,-28.526304,1.0124531913619514
0 days 00:01:07.330000,0.2229,0.974121,-0.145508,-11.611938,-1.335144,-28.259275,1.0098359820807534
0 days 00:01:07.340000,0.245361,0.966309,-0.14624,-10.299682,0.862122,-27.664183,1.0076414250128862
0 days 00:01:07.350000,0.262695,0.958496,-0.137451,-8.94165,4.631042,-27.122496,1.0033025577770647
0 days 00:01:07.360000,0.273438,0.958984,-0.125488,-7.957458,8.079529,-26.847837,1.0050700922045188
0 days 00:01:07.370000,0.268066,0.966797,-0.114746,-8.262634,9.613037,-25.955198,1.0098130837343116
0 days 00:01:07.380000,0.181641,0.995361,-0.147949,-0.167847,2.006531,-1.701355,1.022558497007873
0 days 00:01:07.390000,0.214844,1.001465,-0.176758,-13.206481,26.031492,-25.222776,1.0393909183387162
0 days 00:01:07.400000,0.262695,0.984619,-0.200928,5.432128,8.674622,3.555298,1.0386795941819595
0 days 00:01:07.410000,0.251465,0.963135,-0.10791,-8.087158,9.056091,-25.108335,1.0012533358496238
0 days 00:01:07.420000,0.247803,0.97876,-0.190186,6.484985,4.981995,4.226685,1.0273987439183483
0 days 00:01:07.430000,0.251709,0.987549,-0.198486,5.882263,6.347656,4.295349,1.0382712267408742
0 days 00:01:07.440000,0.176514,1.0,-0.134766,0.442505,-1.899719,-0.450134,1.0243627614043767
0 days 00:01:07.450000,0.178223,1.000977,-0.132568,0.534058,-3.425598,-0.068665,1.025325639434614
0 days 00:01:07.460000,0.177002,1.000244,-0.12793,0.839233,-5.050659,0.030518,1.023808503793556
0 days 00:01:07.470000,0.179688,1.000488,-0.126465,1.197815,-6.599426,-0.137329,1.0243326665263586
0 days 00:01:07.480000,0.18457,1.0,-0.125244,1.350403,-7.8125,-0.167847,1.0245741283264964
0 days 00:01:07.490000,0.187744,0.998535,-0.125244,1.602173,-8.987427,-0.221252,1.0237216493251473
0 days 00:01:07.500000,0.190918,0.996826,-0.12793,1.770019,-10.131835,-0.274658,1.0229749957354775
0 days 00:01:07.510000,0.191895,0.994873,-0.129883,1.88446,-11.276244,-0.427246,1.0215016254725198
0 days 00:01:07.520000,0.193848,0.992188,-0.130127,2.128601,-12.359618,-0.862122,1.0192875504866132
0 days 00:01:07.530000,0.196777,0.987549,-0.13208,2.235413,-13.236999,-1.144409,1.0155881751625508
0 days 00:01:07.540000,0.177002,0.997559,-0.135986,0.198364,-0.465393,-0.808716,1.0222259332852988
0 days 00:01:07.550000,0.20459,0.983643,-0.139648,2.830505,-12.283324,-0.846863,1.0143530861849832
0 days 00:01:07.560000,0.211426,0.97998,-0.144775,3.234863,-10.482787,-0.671387,1.0129272207325657
0 days 00:01:07.570000,0.211182,0.973633,-0.150879,3.555298,-8.483887,-0.534058,1.0076326356634147
0 days 00:01:07.580000,0.209717,0.974365,-0.1521,3.837585,-7.362365,0.030518,1.0082176269605685
0 days 00:01:07.590000,0.205322,0.974609,-0.155762,4.089355,-7.354736,0.938415,1.0081079442247245
0 days 00:01:07.600000,0.206299,0.97876,-0.159912,3.982544,-7.911682,1.998901,1.0129670590621394
0 days 00:01:07.610000,0.211182,0.975586,-0.170898,4.196167,-7.93457,2.952575,1.0127052912491372
0 days 00:01:07.620000,0.223633,0.969727,-0.177734,4.737854,-6.034851,3.578186,1.0109260843276329
0 days 00:01:07.630000,0.237793,0.964844,-0.18335,5.41687,-2.029419,3.967285,1.0104883362439172
0 days 00:01:07.640000,0.247559,0.968018,-0.183838,6.340026,2.326965,3.959656,1.015943264680169
0 days 00:01:07.650000,0.199219,0.983643,-0.135742,2.410889,-13.252257,-1.052856,1.012752512696957
0 days 00:01:07.660000,0.177734,0.993896,-0.1521,-0.289917,-1.693725,2.441406,1.0210548680516636
0 days 00:01:07.670000,0.187256,1.005615,-0.156006,-2.845764,-8.705139,0.961304,1.0347290513931653
0 days 00:01:07.680000,0.188232,1.001221,-0.154053,-3.082275,-9.498596,0.511169,1.0303431969368264
0 days 00:01:07.690000,0.186279,0.998291,-0.151367,-3.211975,-10.56671,-0.183105,1.0267408413085555
0 days 00:01:07.700000,0.179199,0.998047,-0.145264,-4.15802,-11.83319,-1.213074,1.024359177977139
0 days 00:01:07.710000,0.180664,0.995117,-0.151123,-3.707886,-11.871337,-0.892639,1.0226120895598683
0 days 00:01:07.720000,0.156738,0.99585,-0.127197,1.38092,-0.25177,1.205444,1.0161019141567444
0 days 00:01:07.730000,0.177246,0.99585,-0.14917,-3.944397,-11.83319,-0.984192,1.0224407346716973
0 days 00:01:07.740000,0.177734,1.000488,-0.150879,-3.967285,-11.70349,-1.106262,1.0272925997694133
0 days 00:01:07.750000,0.184082,0.998047,-0.1521,-3.379822,-11.489867,-0.671387,1.0262155752730515
0 days 00:01:07.760000,0.188721,1.001709,-0.152344,-2.700805,-7.888793,1.213074,1.0306528178091785
0 days 00:01:07.770000,0.19043,0.993408,-0.155029,-1.815796,-3.707886,1.396179,1.0233069090966795
0 days 00:01:07.780000,0.187256,0.994873,-0.156738,-2.319336,-6.362915,1.38092,1.02440416648362
0 days 00:01:07.790000,0.192139,0.994141,-0.156006,-2.174377,-5.447387,1.426697,1.0244860151500361
0 days 00:01:07.800000,0.19458,0.993408,-0.155029,-2.13623,-4.53949,1.472473,1.0240873115633256
0 days 00:01:07.810000,0.18457,0.990723,-0.153076,-1.686096,-3.135681,1.403808,1.0193284109672407
0 days 00:01:07.820000,0.158447,0.993896,-0.127686,1.350403,-0.221252,1.197815,1.0145138861646992
0 days 00:01:07.830000,0.181152,0.992432,-0.157715,-1.525879,-2.868652,1.487732,1.0210834162559883
0 days 00:01:07.840000,0.177734,0.996582,-0.154541,-1.358032,-2.761841,1.731872,1.0240351449833156
0 days 00:01:07.850000,0.17749,0.993408,-0.152344,-1.068115,-2.525329,1.976013,1.0205737841528166
0 days 00:01:07.860000,0.177246,0.993652,-0.152588,-0.686645,-2.082825,2.204895,1.0208053386243627
0 days 00:01:07.870000,0.178711,0.995117,-0.145996,-4.371643,-12.21466,-1.457214,1.0215235177057844
0 days 00:01:07.880000,0.187012,0.998047,-0.154297,-2.502441,-7.156372,1.243591,1.027072960680983
0 days 00:01:07.890000,0.175049,0.994141,-0.153076,-4.776001,-12.901305,-1.792908,1.020975387586792
0 days 00:01:07.900000,0.173828,1.018311,-0.128418,-3.463745,-13.664245,1.098633,1.0409921464780607
0 days 00:01:07.910000,0.180908,0.981201,-0.14624,-5.1651,-13.816833,-1.914978,1.0083993477115105
0 days 00:01:07.920000,0.179688,0.999512,-0.149658,0.083923,-1.602173,2.746582,1.0265035472184203
0 days 00:01:07.930000,0.154297,0.997559,-0.132813,1.167297,-0.671387,1.403808,1.018121218548656
0 days 00:01:07.940000,0.150635,0.998535,-0.135254,0.732422,-1.205444,1.472473,1.018850673045859
0 days 00:01:07.950000,0.149658,0.994873,-0.134521,0.595093,-1.922607,1.426697,1.0150200503113227
0 days 00:01:07.960000,0.144531,0.999268,-0.134521,0.442505,-3.089905,1.220703,1.0185880645413041
0 days 00:01:07.970000,0.14209,1.00293,-0.137939,-0.12207,-4.592896,1.220703,1.0222941458900174
0 days 00:01:07.980000,0.14209,1.008789,-0.132813,-0.816345,-6.393432,1.464844,1.0273675620682208
0 days 00:01:07.990000,0.142822,1.014648,-0.12915,-1.243591,-8.049011,1.76239,1.0327576724905025
0 days 00:01:08,0.148926,1.014893,-0.128418,-1.594543,-9.361267,1.976013,1.033768802803122
0 days 00:01:08.010000,0.155029,1.016846,-0.127441,-1.914978,-10.505675,1.76239,1.0364607986016643
0 days 00:01:08.020000,0.176025,0.989502,-0.148682,-4.974365,-13.565063,-1.953125,1.015975071423015
0 days 00:01:08.030000,0.157715,1.020996,-0.126221,-2.342224,-11.650084,1.525879,1.040787487473788
0 days 00:01:08.040000,0.168701,1.025879,-0.128418,-3.089905,-13.389586,1.441955,1.0475585581560585
0 days 00:01:08.050000,0.177002,1.005371,-0.12915,-3.669739,-13.816833,0.205994,1.0289704943024363
0 days 00:01:08.060000,0.176758,0.994873,-0.129639,-3.799438,-14.175414,-1.113892,1.0187354646884539
0 days 00:01:08.070000,0.177002,0.988037,-0.132568,-3.723144,-14.579772,-1.89209,1.0124826398496916
0 days 00:01:08.080000,0.176025,0.990234,-0.138428,-4.203796,-14.923095,-2.151489,1.0152391277748312
0 days 00:01:08.090000,0.177002,0.991455,-0.143066,-4.898071,-15.144347,-2.113342,1.0172416651833525
0 days 00:01:08.100000,0.177002,0.98999,-0.140381,-5.363464,-14.938354,-2.029419,1.0154391824550597
0 days 00:01:08.110000,0.179688,0.987793,-0.13916,-5.41687,-14.526366,-1.861572,1.013601644529546
0 days 00:01:08.120000,0.176025,0.983643,-0.142822,-5.599975,-14.205932,-1.655578,1.0094238335595214
0 days 00:01:08.130000,0.177246,0.981201,-0.145264,-5.554199,-14.068603,-1.754761,1.0076076501362026
0 days 00:01:08.140000,0.161621,1.02417,-0.126465,-2.76947,-12.71057,1.480102,1.0445280909415506
0 days 00:01:08.150000,0.178955,0.999756,-0.150635,0.343323,-1.701355,3.089905,1.0267559859995947
0 days 00:01:08.160000,0.19751,0.984131,-0.170166,1.419067,6.698608,0.083923,1.0180768599752181
0 days 00:01:08.170000,0.185059,0.992188,-0.155518,0.968933,-0.87738,2.861023,1.021209924133623
0 days 00:01:08.180000,0.166504,0.995361,-0.13916,6.599426,19.584656,-0.236511,1.0187406971045183
0 days 00:01:08.190000,0.166504,0.996094,-0.140137,6.530761,19.348145,-0.335693,1.01959071083499
0 days 00:01:08.200000,0.163574,0.999023,-0.142822,6.378173,19.104004,-0.312805,1.0223509826321877
0 days 00:01:08.210000,0.1604,0.995605,-0.143799,6.111145,18.608093,-0.297546,1.0186440145732953
0 days 00:01:08.220000,0.161865,0.990723,-0.144043,5.996704,18.058777,-0.473022,1.0141403881134998
0 days 00:01:08.230000,0.16333,0.984619,-0.144775,5.905151,17.333984,-1.022339,1.0085192435873498
0 days 00:01:08.240000,0.165283,0.98584,-0.145508,5.599975,16.738892,-1.678467,1.0101344236055911
0 days 00:01:08.250000,0.166504,0.987061,-0.142822,5.41687,16.51001,-1.991272,1.011143473212877
0 days 00:01:08.260000,0.169678,0.990234,-0.145996,4.936218,16.601563,-2.243042,1.015218612150112
0 days 00:01:08.270000,0.174072,0.991943,-0.145752,4.562378,16.723633,-2.815246,1.0175930532079118
0 days 00:01:08.280000,0.169434,0.994873,-0.138428,6.576538,19.699097,-0.244141,1.0186473765091628
0 days 00:01:08.290000,0.174805,0.990723,-0.14917,4.28009,16.525269,-3.601074,1.0170253387472703
0 days 00:01:08.300000,0.178223,0.993652,-0.151855,3.540039,15.762328,-5.065917,1.020866140029142
0 days 00:01:08.310000,0.18042,1.0,-0.145508,3.105163,15.792846,-5.53894,1.0265105720176486
0 days 00:01:08.320000,0.182617,0.999268,-0.146729,2.830505,16.204834,-6.088256,1.026360026479013
0 days 00:01:08.330000,0.182861,0.997803,-0.143066,2.89154,16.944885,-6.66809,1.0244592976228972
0 days 00:01:08.340000,0.184082,0.994141,-0.144775,2.845764,17.730713,-7.148742,1.0213531765408086
0 days 00:01:08.350000,0.180664,0.993164,-0.14624,2.761841,18.310547,-7.240295,1.020000171270574
0 days 00:01:08.360000,0.175049,0.996094,-0.147217,2.563476,18.341064,-7.30133,1.0220167583391184
0 days 00:01:08.370000,0.168457,0.991455,-0.145264,2.6474,17.929077,-7.232666,1.0161015734511978
0 days 00:01:08.380000,0.161133,0.990723,-0.146973,2.502441,17.25769,-6.889343,1.0144441675848899
0 days 00:01:08.390000,0.182617,0.996338,-0.1521,0.709534,-1.541138,3.036499,1.0242913593958507
0 days 00:01:08.400000,0.175537,0.994873,-0.149902,3.967285,16.090393,-4.402161,1.021301196563482
0 days 00:01:08.410000,0.170166,0.995361,-0.140869,6.484985,19.737244,-0.244141,1.0195803367258511
0 days 00:01:08.420000,0.177979,0.986084,-0.148926,5.310058,18.547058,0.610352,1.0130237573586316
0 days 00:01:08.430000,0.174316,0.996338,-0.143311,6.439209,19.371033,0.030518,1.021574040792443
0 days 00:01:08.440000,0.188721,0.989014,-0.161133,1.228333,0.274658,2.5177,1.0196706094254162
0 days 00:01:08.450000,0.17334,0.994629,-0.141357,6.469726,19.515991,-0.091553,1.019468196997827
0 days 00:01:08.460000,0.192627,0.990479,-0.161133,1.403808,1.869202,2.166748,1.0218207544667508
0 days 00:01:08.470000,0.194336,0.989258,-0.162842,1.373291,3.417969,1.724243,1.0212322891605023
0 days 00:01:08.480000,0.195801,0.98877,-0.166016,1.274109,4.600525,1.403808,1.021550516008386
0 days 00:01:08.490000,0.196533,0.986328,-0.170166,1.251221,5.432128,1.228333,1.0200120642565949
0 days 00:01:08.500000,0.195313,0.983398,-0.174072,1.289368,6.072998,0.793457,1.0176049604620645
0 days 00:01:08.510000,0.198242,0.991699,-0.166016,1.922607,9.048462,-0.083923,1.024855165094561
0 days 00:01:08.520000,0.200195,0.995361,-0.16333,2.151489,10.612487,-0.053406,1.028347337841646
0 days 00:01:08.530000,0.19873,0.994629,-0.164307,2.479553,12.08496,0.061035,1.0275102193117107
0 days 00:01:08.540000,0.196045,0.992188,-0.163818,2.906799,13.160705,-0.152588,1.0245521004287679
0 days 00:01:08.550000,0.19751,0.986572,-0.167236,1.617432,7.698059,-0.183105,1.0199521513188743
0 days 00:01:08.560000,0.188477,0.987305,-0.162842,3.479004,14.251708,-0.526428,1.018239784882716
0 days 00:01:08.570000,0.186279,0.989014,-0.160156,3.616333,14.633178,-0.427246,1.0190674670368984
0 days 00:01:08.580000,0.186768,0.991211,-0.159912,3.784179,15.48767,0.137329,1.0212508898840675
0 days 00:01:08.590000,0.184326,0.991943,-0.156982,4.066467,16.616821,0.549316,1.0210633368449775
0 days 00:01:08.600000,0.183594,0.987061,-0.151611,4.425049,17.64679,0.656128,1.0153728723370543
0 days 00:01:08.610000,0.180176,0.98291,-0.147217,4.875183,18.302917,0.671387,1.010073415235249
0 days 00:01:08.620000,0.179443,0.987549,-0.148682,5.470275,18.569946,0.579834,1.014671944410606
0 days 00:01:08.630000,0.17749,0.98999,-0.144775,5.66864,18.676758,0.442505,1.0161410831301922
0 days 00:01:08.640000,0.193115,0.988525,-0.162354,3.196716,13.778686,-0.495911,1.020212673988125
0 days 00:01:08.650000,0.175293,0.992676,-0.140625,6.179809,19.088745,0.213623,1.0177959851807237
0 days 00:01:08.660000,0.177979,0.98999,-0.142822,5.889892,18.882751,0.350952,1.0159502193636263
0 days 00:01:08.670000,0.232666,0.963623,-0.175537,-8.003235,-0.190735,-1.914978,1.0067353138010011
0 days 00:01:08.680000,0.238281,0.972656,-0.165771,-8.224487,-1.449585,-1.831055,1.0150455919504306
0 days 00:01:08.690000,0.236816,0.986816,-0.162598,-8.69751,-2.845764,-1.869202,1.0277770893126583
0 days 00:01:08.700000,0.24292,0.980713,-0.165039,-9.750366,-9.651184,-3.768921,1.0237411715321407
0 days 00:01:08.710000,0.243408,0.989014,-0.166992,-8.995056,-5.493164,-3.662109,1.0321252224047235
0 days 00:01:08.720000,0.246094,0.984131,-0.167725,-9.216309,-7.347106,-4.043579,1.0282060871352592
0 days 00:01:08.730000,0.241455,0.989746,-0.154785,-10.459899,-11.520385,-3.715515,1.0304640011984894
0 days 00:01:08.740000,0.229736,0.961914,-0.182373,-8.148193,1.289368,-1.724243,1.0056426225160706
0 days 00:01:08.750000,0.236816,0.992188,-0.162354,-8.918762,-4.241943,-2.609253,1.0328977038003329
0 days 00:01:08.760000,0.232178,0.96582,-0.184814,-7.835388,3.39508,-1.556396,1.0103816658471194
0 days 00:01:08.770000,0.205566,0.998047,-0.143555,-1.586914,20.080564,0.946045,1.029059392158684
0 days 00:01:08.780000,0.233398,0.979736,-0.177734,-7.164001,8.94928,-1.396179,1.0227153224900858
0 days 00:01:08.790000,0.235596,0.989502,-0.171875,-6.744384,11.70349,-0.793457,1.031581649141259
0 days 00:01:08.800000,0.234131,0.997559,-0.162598,-6.454467,14.35089,0.160217,1.0374870569052899
0 days 00:01:08.810000,0.229736,0.996826,-0.158936,-5.874633,16.815186,0.717163,1.0352300981269815
0 days 00:01:08.820000,0.22876,0.986084,-0.157227,-4.928589,18.836975,0.610352,1.0244086695186643
0 days 00:01:08.830000,0.221436,0.980957,-0.157715,-4.081726,20.118711,0.198364,1.0179315100585107
0 days 00:01:08.840000,0.213867,0.983154,-0.155029,-3.265381,20.614622,0.045776,1.0180200745790822
0 days 00:01:08.850000,0.210205,0.988525,-0.147461,-2.433777,20.751951,0.389099,1.0213288227456425
0 days 00:01:08.860000,0.242676,1.002686,-0.152832,-10.978698,-12.351989,-4.142761,1.0428942783408106
0 days 00:01:08.870000,0.203857,1.008057,-0.141113,-0.930786,18.920898,1.213074,1.0380989694952019
0 days 00:01:08.880000,0.233154,0.97168,-0.183105,-7.484436,6.004333,-1.525879,1.015898740594258
0 days 00:01:08.890000,0.248291,1.00708,-0.147949,-11.047362,-12.924193,-4.714966,1.0477344385301075
0 days 00:01:08.900000,0.234131,1.009521,-0.149414,-7.263183,-31.387327,-1.060486,1.0470312879747194
0 days 00:01:08.910000,0.254639,1.017334,-0.1521,-11.489867,-17.280579,-5.455017,1.0596904726744503
0 days 00:01:08.920000,0.172607,1.004639,-0.093018,-1.289368,-30.174253,1.296997,1.0235941798847823
0 days 00:01:08.930000,0.16748,1.000244,-0.097412,-1.89209,-32.608032,0.953674,1.0188359571982135
0 days 00:01:08.940000,0.161865,0.993652,-0.102051,-2.426147,-35.179138,0.75531,1.0119085837811634
0 days 00:01:08.950000,0.160645,0.989746,-0.105957,-2.799988,-37.460327,0.564575,1.0082811345998692
0 days 00:01:08.960000,0.1604,0.986572,-0.108887,-3.379822,-39.43634,0.63324,1.0054396301882078
0 days 00:01:08.970000,0.15918,0.983398,-0.11499,-3.707886,-40.863033,0.793457,1.0028123448103339
0 days 00:01:08.980000,0.161621,0.97998,-0.118896,-3.913879,-41.336056,0.839233,1.000309155639895
0 days 00:01:08.990000,0.169678,0.977783,-0.120361,-4.15802,-41.168209,0.808716,0.9996684395808442
0 days 00:01:09,0.173584,0.981689,-0.121826,-4.325867,-40.817257,0.747681,1.0043337453521115
0 days 00:01:09.010000,0.179199,0.988281,-0.125732,-4.684448,-40.718075,1.068115,1.0122352258175962
0 days 00:01:09.020000,0.18457,0.996582,-0.127197,-5.149841,-40.588375,1.167297,1.0214797327568472
0 days 00:01:09.030000,0.193115,1.00293,-0.134277,-5.844116,-39.779663,0.984192,1.030141883846104
0 days 00:01:09.040000,0.207275,1.006836,-0.137695,-6.286621,-37.940979,0.762939,1.037131413826618
0 days 00:01:09.050000,0.226074,1.005371,-0.143555,-6.690979,-34.858704,0.12207,1.0404269984684174
0 days 00:01:09.060000,0.201416,1.01416,-0.13623,-0.274658,17.311096,1.502991,1.0429034104633084
0 days 00:01:09.070000,0.239746,1.010498,-0.152588,-7.957458,-28.640745,-2.5177,1.0496987426228537
0 days 00:01:09.080000,0.238281,1.016602,-0.155029,-8.651733,-26.969908,-3.517151,1.0556000436746866
0 days 00:01:09.090000,0.238525,1.024658,-0.159668,-9.429932,-26.18408,-4.081726,1.0641015284327902
0 days 00:01:09.100000,0.241943,1.028809,-0.159912,-10.208129,-25.985716,-4.78363,1.068904215294336
0 days 00:01:09.110000,0.242432,1.027832,-0.1604,-10.803222,-26.268003,-5.516052,1.0681479555042925
0 days 00:01:09.120000,0.248535,1.026123,-0.156494,-10.986327,-25.627134,-6.034851,1.0673277047795582
0 days 00:01:09.130000,0.253174,1.025391,-0.158691,-11.283874,-23.635862,-6.16455,1.0680386746920731
0 days 00:01:09.140000,0.255859,1.022461,-0.158447,-11.543273,-20.584105,-5.798339,1.06583102610639
0 days 00:01:09.150000,0.252441,1.012939,-0.148438,-11.154174,-14.47296,-5.149841,1.0544219819626297
0 days 00:01:09.160000,0.200195,1.014893,-0.134766,0.328064,15.731811,2.113342,1.0431911206629398
0 days 00:01:09.170000,0.203613,0.962891,-0.164307,1.525879,15.174865,-3.410339,0.9978046511712602
0 days 00:01:09.180000,0.212646,0.990967,-0.130859,1.289368,14.98413,1.541138,1.0219383515095224
0 days 00:01:09.190000,0.16626,0.992676,-0.131592,4.173279,7.6828,-0.419617,1.015068708531595
0 days 00:01:09.200000,0.163086,0.993408,-0.133301,3.852844,7.019042,-0.63324,1.0154928135939714
0 days 00:01:09.210000,0.204346,1.008057,-0.132813,0.656128,14.961242,2.410889,1.0370995593162693
0 days 00:01:09.220000,0.159424,0.993408,-0.138428,3.02124,6.896972,-0.335693,1.01559725158352
0 days 00:01:09.230000,0.155762,0.991699,-0.138916,2.677917,6.820678,-0.205994,1.0134230914583504
0 days 00:01:09.240000,0.148926,0.99585,-0.139404,2.426147,5.996704,0.320435,1.0165282343309505
0 days 00:01:09.250000,0.147949,1.000977,-0.139404,2.113342,4.53949,1.045227,1.021409485145894
0 days 00:01:09.260000,0.148682,1.002686,-0.138428,1.89209,2.807617,1.548767,1.0230580936115015
0 days 00:01:09.270000,0.15625,1.001953,-0.135986,1.968384,1.670837,1.441955,1.0231402977622375
0 days 00:01:09.280000,0.164063,1.001221,-0.13501,2.258301,1.548767,1.00708,1.0235173955092312
0 days 00:01:09.290000,0.170654,1.001709,-0.135742,2.494812,2.189636,0.747681,1.0251680832726895
0 days 00:01:09.300000,0.175293,1.004395,-0.132813,2.5177,2.89154,0.411987,1.0281907628660159
0 days 00:01:09.310000,0.176514,1.007324,-0.133545,2.227783,3.303528,0.114441,1.031354982630617
0 days 00:01:09.320000,0.175537,1.004883,-0.137695,1.823425,3.036499,0.106812,1.0293507638715775
0 days 00:01:09.330000,0.17041,1.001709,-0.13916,1.350403,2.372742,0.160217,1.0255856835881632
0 days 00:01:09.340000,0.167725,0.997559,-0.141357,0.900268,1.38855,0.12207,1.021389952738424
0 days 00:01:09.350000,0.163086,0.996826,-0.138672,0.762939,0.602722,0.25177,1.0195533538054788
0 days 00:01:09.360000,0.162354,0.996094,-0.134521,0.679016,0.228882,0.579834,1.0181640229319637
0 days 00:01:09.370000,0.163818,0.99585,-0.131836,0.724792,0.305176,0.930786,1.0178085726304333
0 days 00:01:09.380000,0.163574,0.996094,-0.125488,1.029968,0.015259,1.091003,1.0172054602960015
0 days 00:01:09.390000,0.159912,0.994873,-0.128662,1.075745,-0.236511,1.251221,1.0158238253343934
0 days 00:01:09.400000,0.169678,0.996338,-0.12915,4.478455,8.811951,0.198364,1.0189012495958574
0 days 00:01:09.410000,0.168945,1.0,-0.125977,4.684448,9.895325,0.839233,1.0219650764845147
0 days 00:01:09.420000,0.161865,0.99292,-0.134766,3.349304,6.767272,-0.495911,1.0150134380297633
0 days 00:01:09.430000,0.171143,0.999512,-0.124023,5.073547,11.322021,1.213074,1.021614344614444
0 days 00:01:09.440000,0.215576,0.973877,-0.135986,1.876831,15.426635,0.236511,1.0066785063271193
0 days 00:01:09.450000,0.21167,0.965088,-0.140381,2.067566,15.655517,-0.984192,0.9979508313564351
0 days 00:01:09.460000,0.211426,0.957764,-0.146973,2.151489,15.434264,-1.815796,0.9917731070668331
0 days 00:01:09.470000,0.210938,0.957275,-0.154541,1.88446,14.945983,-2.464294,0.9923473112524667
0 days 00:01:09.480000,0.206055,0.959229,-0.15918,1.586914,14.72473,-3.227234,0.993940244615339
0 days 00:01:09.490000,0.169434,0.998291,-0.125732,4.852295,10.734557,1.220703,1.020343734660531
0 days 00:01:09.500000,0.19751,0.984131,-0.155029,1.472473,17.402649,-1.76239,1.015656445901861
0 days 00:01:09.510000,0.195313,0.990234,-0.146729,1.564026,18.623352,-0.801086,1.0199215372596069
0 days 00:01:09.520000,0.194092,0.98291,-0.139648,2.174377,19.477844,-0.228882,1.0115756701641256
0 days 00:01:09.530000,0.187744,0.97583,-0.139648,2.662658,19.821167,-0.228882,1.0034906887161434
0 days 00:01:09.540000,0.181152,0.972168,-0.142578,2.868652,20.103453,-0.183105,0.999127195812425
0 days 00:01:09.550000,0.201172,0.971191,-0.162598,1.51062,16.136169,-2.815246,1.0050473827979456
0 days 00:01:09.560000,0.174805,0.980713,-0.138184,3.448486,20.195005,0.259399,1.0057085036182203
0 days 00:01:09.570000,0.176514,0.974365,-0.141846,3.097534,20.332335,-0.068665,1.0003322613696912
0 days 00:01:09.580000,0.174072,1.0,-0.117432,5.134582,11.825561,1.220703,1.021807876172424
0 days 00:01:09.590000,0.170166,0.997559,-0.114502,5.149841,12.222289,1.243591,1.0184258117511555
0 days 00:01:09.600000,0.168213,0.997803,-0.115967,5.1651,13.09204,0.87738,1.018506153769824
0 days 00:01:09.610000,0.170166,0.99585,-0.115723,5.210876,14.381408,0.823975,1.0168901134267163
0 days 00:01:09.620000,0.168457,0.990479,-0.123047,4.882813,16.448975,0.816345,1.0122089579227205
0 days 00:01:09.630000,0.169922,0.989746,-0.127197,4.53186,16.975403,0.793457,1.0122498246030966
0 days 00:01:09.640000,0.169189,0.988281,-0.127197,4.203796,17.64679,0.831604,1.010694478807023
0 days 00:01:09.650000,0.167725,0.986328,-0.130127,3.860473,18.623352,0.801086,1.0089140871937512
0 days 00:01:09.660000,0.168457,0.985596,-0.134521,3.555298,19.569397,0.640869,1.0088969895415487
0 days 00:01:09.670000,0.170898,0.991455,-0.117676,5.15747,15.61737,0.88501,1.0129347384728198
0 days 00:01:09.680000,0.180664,1.022217,-0.170654,3.982544,14.015197,3.311157,1.0519932812052555
0 days 00:01:09.690000,0.18335,1.008789,-0.160645,4.417419,15.480041,3.372192,1.0378243035533519
0 days 00:01:09.700000,0.183838,1.000244,-0.156738,4.890442,17.044067,3.471374,1.0290049904757508
0 days 00:01:09.710000,0.179199,0.993652,-0.155518,5.317688,17.791748,3.265381,1.0215881885715985
0 days 00:01:09.720000,0.172119,0.992432,-0.159424,5.325317,17.105103,2.601623,1.0197853875012133
0 days 00:01:09.730000,0.167969,0.986816,-0.159912,4.959106,15.495299,2.182007,1.0137017562187607
0 days 00:01:09.740000,0.170166,0.987061,-0.155762,4.592896,13.999938,1.777649,1.0136605378138186
0 days 00:01:09.750000,0.172363,0.988525,-0.152588,4.03595,12.855529,1.327515,1.0149747667494005
0 days 00:01:09.760000,0.171143,0.991211,-0.150879,3.639221,11.825561,1.075745,1.017130102597991
0 days 00:01:09.770000,0.168701,0.99292,-0.145264,3.265381,10.864257,0.999451,1.0175715127188851
0 days 00:01:09.780000,0.17334,1.034912,-0.173828,3.829956,13.656615,3.311157,1.0636285897473798
0 days 00:01:09.790000,0.170898,0.98584,-0.13501,3.044128,8.728027,0.87738,1.0096109805781632
0 days 00:01:09.800000,0.172363,0.991211,-0.133789,2.922058,8.422852,1.152039,1.014942238164813
0 days 00:01:09.810000,0.173096,0.992676,-0.131348,2.975464,8.125305,1.350403,1.016179198417287
0 days 00:01:09.820000,0.173584,0.99292,-0.130371,2.952575,7.705688,1.197815,1.016374994328865
0 days 00:01:09.830000,0.177734,0.991699,-0.130859,3.036499,7.17926,0.63324,1.0159627745335948
0 days 00:01:09.840000,0.18042,0.993896,-0.131348,3.036499,6.866455,0.144958,1.0186426911925497
0 days 00:01:09.850000,0.18042,1.000977,-0.131836,2.990722,6.286621,-0.045776,1.0256154551414483
0 days 00:01:09.860000,0.179199,1.006836,-0.132568,2.876281,5.767822,-0.205994,1.0312154416614405
0 days 00:01:09.870000,0.180176,1.00708,-0.13208,2.830505,5.134582,-0.587463,1.0315612651587882
0 days 00:01:09.880000,0.180176,1.007813,-0.131836,2.761841,4.447937,-0.75531,1.032245690153754
0 days 00:01:09.890000,0.165771,0.987793,-0.145996,2.929687,9.887695,1.00708,1.0121906279481152
0 days 00:01:09.900000,0.170654,1.034668,-0.178467,4.188538,14.35089,2.784729,1.0637251186415595
0 days 00:01:09.910000,0.17041,0.98291,-0.141113,2.906799,9.086609,0.862122,1.0075041017132387
0 days 00:01:09.920000,0.164307,1.010986,-0.185059,5.256652,15.052794,1.541138,1.040834432523252
0 days 00:01:09.930000,0.177002,1.008789,-0.135254,2.433777,4.043579,-0.617981,1.0330917669989437
0 days 00:01:09.940000,0.189453,0.932861,-0.150391,9.910583,41.885372,-3.501892,0.9637113351055907
0 days 00:01:09.950000,0.17627,0.928711,-0.165283,9.529114,35.499573,-3.608703,0.9596320672580715
0 days 00:01:09.960000,0.172852,0.925293,-0.179688,8.69751,29.983519,-3.555298,0.9582967844551082
0 days 00:01:09.970000,0.165527,0.927734,-0.181396,7.774353,25.703428,-3.623962,0.9596843602461175
0 days 00:01:09.980000,0.159912,0.932373,-0.178955,7.202148,21.667479,-3.738403,0.9627648471449298
0 days 00:01:09.990000,0.156494,0.935547,-0.173828,6.652832,17.990112,-3.952026,0.9643416069158274
0 days 00:01:10,0.158936,0.936279,-0.169189,6.103515,15.220641,-4.28772,0.9646263191816818
0 days 00:01:10.010000,0.162598,0.937744,-0.160156,6.04248,13.504027,-4.608154,0.9651175386842786
0 days 00:01:10.020000,0.165039,0.94043,-0.15918,6.233215,12.580871,-4.852295,0.9679797150875632
0 days 00:01:10.030000,0.168945,0.947266,-0.164795,5.737304,12.229918,-5.126953,0.9762236832847276
0 days 00:01:10.040000,0.17041,0.948242,-0.168213,5.714416,12.489318,-5.630493,0.9780071942644389
0 days 00:01:10.050000,0.169189,0.951904,-0.175781,6.187438,13.153075,-5.729675,0.9826724290922179
0 days 00:01:10.060000,0.169189,0.969238,-0.182129,5.91278,13.97705,-5.348205,1.0006089101172346
0 days 00:01:10.070000,0.168213,0.982178,-0.183105,5.226135,14.587401,-4.699707,1.013161723555524
0 days 00:01:10.080000,0.16333,0.990479,-0.186279,5.264282,15.197753,-3.929138,1.0209922645064458
0 days 00:01:10.090000,0.162109,0.999512,-0.182373,5.523681,15.914916,-2.784729,1.0288651404115117
0 days 00:01:10.100000,0.160889,1.004395,-0.175781,5.516052,16.387939,-1.777649,1.0322759060963302
0 days 00:01:10.110000,0.156006,1.00293,-0.174072,5.958557,16.181946,-1.213074,1.0298094571909893
0 days 00:01:10.120000,0.148438,1.002686,-0.176758,6.16455,15.2359,-0.457764,1.028910319223206
0 days 00:01:10.130000,0.151367,1.004883,-0.179199,6.050109,14.450072,0.701904,1.0318982963349634
0 days 00:01:10.140000,0.155029,1.008545,-0.187012,5.737304,14.442443,1.609802,1.0373863773975442
0 days 00:01:10.150000,0.161865,1.009033,-0.189209,5.241394,14.686584,1.731872,1.039301649664331
0 days 00:01:10.160000,0.165771,1.02417,-0.185547,5.050659,15.144347,1.914978,1.0539601048189633
0 days 00:01:10.170000,0.176025,1.009277,-0.139404,2.243042,3.662109,-0.434875,1.0339527738586516
0 days 00:01:10.180000,0.17627,1.008545,-0.137939,1.983642,3.14331,-0.534058,1.0330833933647372
0 days 00:01:10.190000,0.176758,1.005859,-0.135742,1.853943,2.845764,-0.63324,1.0302531771409396
0 days 00:01:10.200000,0.121582,1.01123,-0.115967,-1.335144,-8.277893,1.64032,1.0250934790120363
0 days 00:01:10.210000,0.124512,1.012451,-0.114258,-1.602173,-10.231017,1.899719,1.0264575763805341
0 days 00:01:10.220000,0.125732,1.010254,-0.112793,-1.716614,-11.642455,2.227783,1.0242772774932578
0 days 00:01:10.230000,0.129639,1.01001,-0.112061,-1.76239,-12.992858,2.708435,1.0244433308592524
0 days 00:01:10.240000,0.132324,1.010742,-0.110596,-1.785278,-14.190673,3.288269,1.0253489682815309
0 days 00:01:10.250000,0.13501,1.009277,-0.105469,-1.739502,-15.327453,3.936767,1.0237145465362891
0 days 00:01:10.260000,0.140625,1.005371,-0.104492,-1.556396,-16.410828,4.920959,1.0205218353029004
0 days 00:01:10.270000,0.144775,1.004639,-0.102295,-1.426697,-17.14325,6.103515,1.0201586092226052
0 days 00:01:10.280000,0.154053,1.000977,-0.099121,-1.358032,-17.631531,6.91986,1.0176012254213338
0 days 00:01:10.290000,0.160889,0.993652,-0.095947,-0.999451,-17.89093,7.537841,1.0111554748079052
0 days 00:01:10.300000,0.122803,1.009766,-0.116455,-1.037598,-5.905151,1.533508,1.0238504376079545
0 days 00:01:10.310000,0.16748,0.989746,-0.091797,-0.434875,-17.776489,7.881164,1.008004654813161
0 days 00:01:10.320000,0.183105,0.991455,-0.087402,0.564575,-17.272949,7.919311,1.012002750813455
0 days 00:01:10.330000,0.189941,0.990723,-0.089355,0.88501,-17.059326,7.8125,1.0127161311221422
0 days 00:01:10.340000,0.193359,0.987793,-0.089111,1.38855,-17.021179,7.347106,1.0104768597305926
0 days 00:01:10.350000,0.196045,0.990967,-0.088379,1.571655,-17.082214,6.378173,1.01403159948544
0 days 00:01:10.360000,0.195313,0.994141,-0.088379,1.686096,-17.547607,5.615234,1.0169927942178352
0 days 00:01:10.370000,0.190186,0.995117,-0.08667,1.678467,-18.218994,4.974365,1.0168285239827806
0 days 00:01:10.380000,0.190918,0.998047,-0.086426,1.350403,-19.470215,4.310608,1.0198122133064498
0 days 00:01:10.390000,0.188965,0.997314,-0.084717,1.121521,-21.163939,3.723144,1.018587235297007
0 days 00:01:10.400000,0.185303,1.000244,-0.088623,0.694275,-23.330687,2.761841,1.021116691408969
0 days 00:01:10.410000,0.185059,1.004395,-0.091797,0.068665,-25.695799,1.945495,1.0254183725265507
0 days 00:01:10.420000,0.175537,0.988525,-0.089844,0.175476,-17.50946,7.858276,1.0080014178214236
0 days 00:01:10.430000,0.130859,1.011475,-0.117432,-0.686645,-3.311157,1.472473,1.0266430870219698
0 days 00:01:10.440000,0.179199,1.00708,-0.092285,-0.679016,-28.07617,1.541138,1.0270535181897775
0 days 00:01:10.450000,0.144043,1.013184,-0.120605,-0.312805,-0.274658,1.342773,1.03045415702495
0 days 00:01:10.460000,0.17749,1.002686,-0.13623,1.63269,2.63977,-0.564575,1.027346352305784
0 days 00:01:10.470000,0.179688,1.001221,-0.135254,1.480102,2.655029,-0.480652,1.02617002134198
0 days 00:01:10.480000,0.180664,0.997559,-0.13501,1.487732,2.998352,-0.419617,1.0227370822831252
0 days 00:01:10.490000,0.181396,0.995117,-0.137207,1.403808,3.303528,-0.297546,1.0207781900853876
0 days 00:01:10.500000,0.185303,0.99292,-0.13501,1.358032,3.578186,-0.213623,1.0190461364967731
0 days 00:01:10.510000,0.187256,0.990723,-0.134277,1.411438,3.875732,-0.221252,1.0171662523865015
0 days 00:01:10.520000,0.137939,1.013672,-0.119141,-0.495911,-1.396179,1.51062,1.029928477704156
0 days 00:01:10.530000,0.190918,0.992188,-0.134521,1.312256,4.447937,0.0,1.0193049639381728
0 days 00:01:10.540000,0.192627,0.993896,-0.132324,1.281738,4.516602,0.030518,1.0210014989807803
0 days 00:01:10.550000,0.19043,0.994873,-0.13208,1.274109,4.211426,0.045776,1.0215091763802222
0 days 00:01:10.560000,0.192139,0.995605,-0.130371,1.228333,3.77655,0.038147,1.022322507326822
0 days 00:01:10.570000,0.187988,0.988281,-0.135498,1.419067,4.165649,-0.1297,1.015085479705527
0 days 00:01:10.580000,0.192383,1.0,-0.131836,0.75531,3.517151,0.37384,1.0268358922364371
0 days 00:01:10.590000,0.189941,0.999512,-0.130127,0.732422,3.601074,0.465393,1.02568750492243
0 days 00:01:10.600000,0.189209,0.998535,-0.127441,0.740051,3.723144,0.320435,1.0242623689206785
0 days 00:01:10.610000,0.187256,0.999512,-0.126221,0.686645,3.593445,0.022888,1.0247052203053324
0 days 00:01:10.620000,0.181152,1.003662,-0.127197,0.640869,3.265381,-0.144958,1.0277803919889696
0 days 00:01:10.630000,0.175293,1.009766,-0.127441,0.38147,2.723694,0.099182,1.0327614531371705
0 days 00:01:10.640000,0.171143,1.01416,-0.125488,0.114441,2.075195,0.572205,1.0361262810068086
0 days 00:01:10.650000,0.163574,1.012695,-0.124268,0.0,1.457214,0.762939,1.0333199660923038
0 days 00:01:10.660000,0.158691,1.011475,-0.124023,-0.022888,0.862122,0.839233,1.0313322518155823
0 days 00:01:10.670000,0.1521,1.009277,-0.123047,-0.091553,0.297546,1.075745,1.028063731943696
0 days 00:01:10.680000,0.190918,0.998047,-0.131592,0.999451,3.540039,0.259399,1.0246286895246492
0 days 00:01:10.690000,0.587891,0.552002,-0.293945,-16.548157,-38.963318,69.747925,0.8583272679520324
0 days 00:01:10.700000,0.552246,0.566895,-0.327637,-13.786315,-39.207458,69.801331,0.8565579894613091
0 days 00:01:10.710000,0.535889,0.584961,-0.343506,-9.399414,-37.887573,68.473816,0.8644956702482667
0 days 00:01:10.720000,0.538086,0.60083,-0.334229,-3.509521,-34.713745,65.208435,0.8730648639917884
0 days 00:01:10.730000,0.538818,0.666504,-0.199219,24.826048,-21.369932,49.377438,0.8799094436934973
0 days 00:01:10.740000,0.532227,0.614746,-0.300049,9.475708,-26.641844,58.79974,0.8667223468020194
0 days 00:01:10.750000,0.526367,0.618164,-0.265869,15.640258,-23.841856,55.908199,0.854327381479723
0 days 00:01:10.760000,0.533691,0.635742,-0.230469,20.370481,-22.270201,52.780148,0.8614580280002039
0 days 00:01:10.770000,0.536377,0.612793,-0.32373,2.876281,-30.563353,61.729427,0.8763655971556621
0 days 00:01:10.780000,0.610352,0.563232,-0.275879,-18.356323,-38.322449,71.31958,0.8751394588115656
0 days 00:01:10.790000,0.703125,0.686523,-0.24292,5.516052,-37.216187,117.34771,1.0122789741736218
0 days 00:01:10.800000,0.66748,0.61084,-0.260986,-20.431517,-34.461975,79.147339,0.9416839959328183
0 days 00:01:10.810000,0.703125,0.597656,-0.260742,-19.989014,-30.647276,82.298271,0.9589389190793124
0 days 00:01:10.820000,0.720215,0.567383,-0.253174,-17.807007,-27.336119,83.236687,0.9511730595375376
0 days 00:01:10.830000,0.706299,0.543701,-0.245605,-14.892577,-26.321409,84.342949,0.9245490094240543
0 days 00:01:10.840000,0.678223,0.538818,-0.241455,-11.978148,-27.359007,87.776176,0.899228442542828
0 days 00:01:10.850000,0.663574,0.54248,-0.236328,-8.895874,-28.533934,93.246452,0.8890815077708005
0 days 00:01:10.860000,0.656738,0.556396,-0.227051,-5.271911,-29.365538,98.449699,0.8901873207707466
0 days 00:01:10.870000,0.671631,0.577637,-0.228271,-1.678467,-30.525206,102.188103,0.9148007178456956
0 days 00:01:10.880000,0.679443,0.614502,-0.238281,1.350403,-32.432556,106.239311,0.9465903724494561
0 days 00:01:10.890000,0.6875,0.6521,-0.241699,3.562927,-34.713745,111.946098,0.9779105616573532
0 days 00:01:10.900000,0.556152,0.69873,-0.17749,29.624937,-20.812986,45.524593,0.9105115925148893
0 days 00:01:10.910000,0.634521,0.593262,-0.266846,-19.775391,-37.086487,74.813843,0.9087262997190078
0 days 00:01:10.920000,0.580566,0.719482,-0.173584,34.812927,-20.278929,41.28265,0.9406607431672696
0 days 00:01:10.930000,0.945801,0.71582,-0.377197,102.447502,29.273985,-14.717101,1.2446748092614393
0 days 00:01:10.940000,0.63501,0.765625,-0.233398,44.769283,-17.547607,36.277771,1.0217112934332282
0 days 00:01:10.950000,0.736328,0.712891,-0.249268,7.141113,-39.009094,120.254509,1.0547639723127635
0 days 00:01:10.960000,0.968506,0.079834,-0.293457,119.1101,54.374691,-57.762142,1.0151326762748798
0 days 00:01:10.970000,1.01001,0.092285,-0.281006,119.041435,64.414978,-59.036251,1.0524262888017384
0 days 00:01:10.980000,1.053467,0.109375,-0.272705,119.941704,71.868896,-61.775204,1.0936743700658802
0 days 00:01:10.990000,1.074219,0.134277,-0.271729,121.322624,74.874878,-64.559937,1.1161601238760503
0 days 00:01:11,1.065674,0.179932,-0.272461,122.108452,73.188782,-64.064026,1.1145723823157472
0 days 00:01:11.010000,1.055664,0.240234,-0.276123,121.452324,67.756653,-59.04388,1.1173105059834532
0 days 00:01:11.020000,1.062256,0.311279,-0.285156,120.10955,61.111446,-53.474422,1.1430644643732917
0 days 00:01:11.030000,1.076416,0.387939,-0.299316,118.034355,55.160519,-49.827572,1.1826910588285515
0 days 00:01:11.040000,1.05835,0.449463,-0.314941,115.608208,50.003048,-44.708248,1.192186874759993
0 days 00:01:11.050000,0.605469,0.737061,-0.189209,39.863586,-19.40918,37.979126,0.9724462316051207
0 days 00:01:11.060000,1.022461,0.507324,-0.31958,114.128105,47.523495,-37.460327,1.1852997569800645
0 days 00:01:11.070000,0.991455,0.648193,-0.364258,106.910698,38.970947,-23.330687,1.2392824830675209
0 days 00:01:11.080000,0.927979,0.778809,-0.391602,97.923271,19.271851,-6.874084,1.273200930460703
0 days 00:01:11.090000,0.924805,0.829834,-0.395508,93.231194,9.841919,1.25885,1.303961400366207
0 days 00:01:11.100000,0.902588,0.885498,-0.384521,88.630669,3.265381,9.429932,1.3216006224230525
0 days 00:01:11.110000,0.897461,0.938721,-0.378906,82.450859,-0.137329,16.418457,1.3528499987796134
0 days 00:01:11.120000,0.861084,0.976807,-0.377197,75.424194,-2.868652,23.452757,1.3556899155463245
0 days 00:01:11.130000,0.804199,0.981934,-0.354736,68.618774,-3.990173,30.105589,1.3178649557724038
0 days 00:01:11.140000,0.762451,0.939697,-0.331055,62.32452,-5.317688,35.179138,1.254575383241278
0 days 00:01:11.150000,0.716553,0.877686,-0.301758,56.40411,-8.659363,36.827087,1.172535205001965
0 days 00:01:11.160000,0.672119,0.81543,-0.273682,50.315853,-13.351439,36.079407,1.091591440139121
0 days 00:01:11.170000,1.019287,0.572266,-0.337646,111.396782,45.669552,-30.776976,1.2167329963640339
0 days 00:01:11.180000,0.758789,0.72998,-0.259033,8.476257,-38.909912,121.925346,1.0843106759642276
0 days 00:01:11.190000,0.920654,0.06543,-0.300049,120.36132,44.700619,-56.915279,0.9705226813511367
0 days 00:01:11.200000,0.77832,0.748047,-0.257568,12.176513,-30.044554,124.725334,1.109818728997218
0 days 00:01:11.210000,0.519775,0.907715,-0.275879,19.920349,80.162048,27.290342,1.0817679023205486
0 days 00:01:11.220000,0.498291,0.923096,-0.279053,17.906189,93.711845,22.315977,1.0854817928947496
0 days 00:01:11.230000,0.462646,0.929688,-0.265869,15.830993,101.417534,17.150879,1.0719362965311883
0 days 00:01:11.240000,0.428955,0.929443,-0.239502,14.709472,104.507439,12.931823,1.051298192844447
0 days 00:01:11.250000,0.406494,0.922852,-0.225586,14.076232,105.773918,9.69696,1.0333354873108733
0 days 00:01:11.260000,0.388672,0.919678,-0.222656,13.282775,106.277458,6.195068,1.0229610166589926
0 days 00:01:11.270000,0.365234,0.924805,-0.227539,12.290954,105.606071,2.14386,1.02001674461844
0 days 00:01:11.280000,0.33252,0.936279,-0.238281,10.765075,103.469841,-1.335144,1.0217464221625638
0 days 00:01:11.290000,0.299072,0.954346,-0.250977,8.68988,99.151604,-3.730774,1.0311206541569227
0 days 00:01:11.300000,0.277588,0.968018,-0.258789,6.263732,93.132011,-6.072998,1.0397527074208561
0 days 00:01:11.310000,0.527832,0.90625,-0.259033,21.446226,63.613888,32.302856,1.0802748621591638
0 days 00:01:11.320000,0.277832,0.972412,-0.242188,4.440308,85.952751,-9.414673,1.0399186243701957
0 days 00:01:11.330000,0.279785,0.966553,-0.193115,4.974365,70.610046,-12.901305,1.0245963845627213
0 days 00:01:11.340000,0.276611,0.969727,-0.17749,5.92041,64.697266,-11.993407,1.0239076129954303
0 days 00:01:11.350000,0.268311,0.971436,-0.167969,6.881713,60.676571,-10.887145,1.0217104676854396
0 days 00:01:11.360000,0.253662,0.969238,-0.178223,7.591247,57.769772,-9.811401,1.0176100179425318
0 days 00:01:11.370000,0.231934,0.967285,-0.185059,8.117676,55.847164,-8.293152,1.011770964725713
0 days 00:01:11.380000,0.222656,0.968018,-0.188721,7.93457,54.824825,-6.584167,1.011063874590028
0 days 00:01:11.390000,0.227783,0.970703,-0.172607,7.759094,54.824825,-5.187988,1.0119004821359658
0 days 00:01:11.400000,0.227295,0.963623,-0.145996,8.422852,54.626461,-4.142761,1.0007732686128263
0 days 00:01:11.410000,0.218018,0.953857,-0.135498,9.208679,52.61993,-3.311157,0.9877928592458036
0 days 00:01:11.420000,0.204834,0.942383,-0.140869,9.757996,48.133846,-3.173828,0.9746213425766952
0 days 00:01:11.430000,0.284668,0.967285,-0.213623,4.356384,78.041077,-12.199401,1.0306846887278378
0 days 00:01:11.440000,0.523682,0.913818,-0.25293,22.90344,48.873898,38.002014,1.0831803908620208
0 days 00:01:11.450000,0.765869,0.73999,-0.262207,10.040282,-36.125183,123.794548,1.0967648043723868
0 days 00:01:11.460000,0.506592,0.929443,-0.224609,27.32086,33.912659,50.697323,1.0821039449119478
0 days 00:01:11.470000,0.782715,0.76001,-0.256104,14.266967,-22.735594,124.511711,1.120645898641047
0 days 00:01:11.480000,0.77417,0.775635,-0.250977,16.197205,-16.494751,124.603264,1.1242501041378647
0 days 00:01:11.490000,0.752441,0.791992,-0.24707,17.776489,-12.199401,125.335686,1.1200278440489773
0 days 00:01:11.500000,0.746582,0.803955,-0.249512,19.27948,-9.185791,124.549858,1.1251597943816691
