t,ax,ay,az,gx,gy,gz,acc_mag
0 days 00:01:02.030000,0.807861,-0.295654,-0.133545,-19.203186,-50.712582,-218.399033,0.8705658792199474
0 days 00:01:02.040000,0.857178,-0.330566,-0.141846,-21.682737,-54.740902,-219.345078,0.9295957679314165
0 days 00:01:02.050000,0.873291,-0.356934,-0.160645,-23.307798,-54.092403,-221.115097,0.9569983631448907
0 days 00:01:02.060000,0.878174,-0.379639,-0.182129,-25.001524,-49.430843,-225.051865,0.973902622051096
0 days 00:01:02.070000,0.916992,-0.427979,-0.199707,-26.43585,-41.442867,-228.027328,1.0314665473751439
0 days 00:01:02.080000,0.686523,0.077881,-0.288086,-27.6947,-42.388912,-105.545036,0.7485805388106213
0 days 00:01:02.090000,0.731934,-0.155029,-0.289551,-26.504515,-43.869015,-191.551193,0.8022475632857977
0 days 00:01:02.100000,0.637207,0.112549,-0.266357,-24.04785,-45.776363,-98.640434,0.6997471612654101
0 days 00:01:02.110000,0.720947,0.542725,-0.327148,0.50354,-2.464294,-33.203125,0.9598649990170492
0 days 00:01:02.120000,0.651855,0.159424,-0.263672,-19.187927,-33.088684,-87.676994,0.721008929476605
0 days 00:01:02.130000,0.945557,-0.537598,-0.161133,-25.405882,-33.599854,-230.697617,1.099569685623426
0 days 00:01:02.140000,0.712158,0.526855,-0.333008,0.114441,-4.371643,-33.462524,0.9463823413679061
0 days 00:01:02.150000,0.710205,0.520264,-0.344238,-0.328064,-10.589599,-33.493042,0.9452859738539443
0 days 00:01:02.160000,0.703125,0.508057,-0.332764,-0.259399,-17.723083,-34.233093,0.9291063236088752
0 days 00:01:02.170000,0.709473,0.498535,-0.316162,-0.328064,-22.5296,-35.194397,0.9229558462884343
0 days 00:01:02.180000,0.718262,0.493896,-0.306885,-1.281738,-23.765562,-36.064148,0.9241276766145466
0 days 00:01:02.190000,0.702637,0.484619,-0.303223,-2.380371,-22.193907,-37.628174,0.9058137317677405
0 days 00:01:02.200000,0.687256,0.475098,-0.310791,-3.677368,-18.348694,-39.93988,0.8914201954303033
0 days 00:01:02.210000,0.693359,0.456299,-0.330566,-5.393981,-12.71057,-42.510983,0.8934368252081397
0 days 00:01:02.220000,0.710449,0.437744,-0.343506,-5.935668,-7.568359,-44.715878,0.9024156266227885
0 days 00:01:02.230000,0.724609,0.416992,-0.342285,-6.317138,-4.730225,-47.012325,0.9033822846226286
0 days 00:01:02.240000,0.740234,0.394775,-0.324219,-5.622863,-5.195617,-49.140926,0.899395149721189
0 days 00:01:02.250000,0.749268,0.37915,-0.300049,-5.020141,-8.781433,-50.323483,0.8917323929997161
0 days 00:01:02.260000,0.732666,0.366943,-0.27832,-5.470275,-13.763427,-51.460262,0.8653950861918503
0 days 00:01:02.270000,0.701416,0.350586,-0.26709,-5.752563,-18.386841,-53.230282,0.828391221918726
0 days 00:01:02.280000,0.685547,0.337646,-0.267578,-7.217407,-21.133421,-56.159969,0.8096774028024989
0 days 00:01:02.290000,0.711426,0.324707,-0.284424,-10.490417,-21.01898,-59.783932,0.8321409742952213
0 days 00:01:02.300000,0.735352,0.30542,-0.309814,-13.565063,-17.189026,-63.20953,0.8544054394138652
0 days 00:01:02.310000,0.753906,0.273438,-0.330811,-16.63208,-11.672973,-67.436218,0.8675128324128698
0 days 00:01:02.320000,0.763916,0.240234,-0.328369,-18.005371,-7.461547,-71.159363,0.8655092315931703
0 days 00:01:02.330000,0.751465,0.220947,-0.319824,-18.432617,-7.720947,-74.028015,0.8460523707253589
0 days 00:01:02.340000,0.721436,0.202148,-0.29541,-18.508911,-13.572692,-77.545166,0.8053575504705968
0 days 00:01:02.350000,0.671875,0.176025,-0.272217,-18.066406,-22.560118,-82.786552,0.7459912273874271
0 days 00:01:02.360000,0.647217,0.141113,-0.261475,-21.163939,-42.549129,-92.086784,0.7121600237888954
0 days 00:01:02.370000,0.965576,-0.597168,-0.117676,-24.55139,-35.652161,-230.110153,1.1414001371017966
0 days 00:01:02.380000,0.327393,-0.926025,-0.106934,2.02179,-3.211975,-1.289368,0.9879996748126996
0 days 00:01:02.390000,1.029785,-0.683105,-0.072266,-28.564451,-44.776913,-226.684555,1.2378658901536952
0 days 00:01:02.400000,0.355713,-0.935059,-0.137451,-4.264832,18.257141,-18.211365,1.009831594500291
0 days 00:01:02.410000,0.363525,-0.934326,-0.138916,-1.823425,12.565612,-15.1062,1.012132972962051
0 days 00:01:02.420000,0.363281,-0.939209,-0.140137,0.518799,8.621216,-11.383056,1.016722680680922
0 days 00:01:02.430000,0.36377,-0.935547,-0.142578,1.976013,4.478455,-8.552551,1.013856640848695
0 days 00:01:02.440000,0.344482,-0.930664,-0.113525,2.27356,1.792908,-6.477355,0.99884496036422
0 days 00:01:02.450000,0.335449,-0.929688,-0.106445,2.243042,-0.274658,-4.768372,0.9940705945605673
0 days 00:01:02.460000,0.337158,-0.927979,-0.104492,1.945495,-1.441955,-3.585815,0.9928439552462411
0 days 00:01:02.470000,0.336426,-0.925293,-0.104736,1.930237,-2.197266,-2.441406,0.9901107104869638
0 days 00:01:02.480000,0.33374,-0.925537,-0.106689,1.998901,-2.853393,-1.625061,0.9896381503812391
0 days 00:01:02.490000,0.982422,-0.648926,-0.07666,-25.360106,-40.824886,-229.64476,1.1798875773394684
0 days 00:01:02.500000,0.37793,-0.934082,-0.132324,-6.790161,23.513792,-21.186827,1.0162922358258968
0 days 00:01:02.510000,0.323242,-0.925293,-0.107422,1.869202,-3.303528,-1.197815,0.9859979779375818
0 days 00:01:02.520000,0.329346,-0.928223,-0.106934,1.808166,-2.601623,-1.281738,0.9907076288194212
0 days 00:01:02.530000,0.328369,-0.925537,-0.104492,1.670837,-2.151489,-1.296997,0.987604939535035
0 days 00:01:02.540000,0.328125,-0.923584,-0.102295,1.594543,-1.76239,-1.281738,0.985463184348355
0 days 00:01:02.550000,0.327881,-0.925537,-0.101807,1.464844,-1.548767,-1.251221,0.9871622732757772
0 days 00:01:02.560000,0.32666,-0.924316,-0.101318,1.426697,-1.38092,-1.029968,0.9855618502052522
0 days 00:01:02.570000,0.328369,-0.925537,-0.103027,1.327515,-1.296997,-0.938415,0.9874510120805994
0 days 00:01:02.580000,0.329102,-0.925781,-0.103271,1.304626,-1.358032,-0.747681,0.9879491311833823
0 days 00:01:02.590000,0.327393,-0.923584,-0.102539,1.167297,-1.480102,-0.488281,0.9852450598840878
0 days 00:01:02.600000,0.327637,-0.921387,-0.105713,1.091003,-1.396179,-0.274658,0.9836031953521704
0 days 00:01:02.610000,0.327393,-0.921387,-0.105225,1.037598,-1.228333,-0.328064,0.9834696135839682
0 days 00:01:02.620000,0.326172,-0.927002,-0.106689,1.800537,-3.051758,-1.213074,0.9884854193709688
0 days 00:01:02.630000,0.474609,-0.929688,-0.112793,-8.056641,28.152464,-25.718687,1.0499027293392469
0 days 00:01:02.640000,0.328613,-0.921143,-0.100098,0.907898,-1.152039,-0.411987,0.9831126791075375
0 days 00:01:02.650000,0.583496,-0.93042,-0.144043,-8.354187,27.153013,-43.632504,1.107653982191641
0 days 00:01:02.660000,1.061279,-0.72876,-0.078125,-32.165527,-46.394344,-222.549423,1.289770432699556
0 days 00:01:02.670000,1.060791,-0.781494,-0.08667,-34.423828,-45.349117,-218.261703,1.3204249719756893
0 days 00:01:02.680000,1.036621,-0.823486,-0.099121,-33.859253,-41.824337,-212.997421,1.327605838522112
0 days 00:01:02.690000,1.025391,-0.841797,-0.111084,-33.164978,-36.903381,-207.267746,1.3313108379135203
0 days 00:01:02.700000,1.030029,-0.859375,-0.106689,-33.248901,-29.525755,-200.340256,1.3456848346425696
0 days 00:01:02.710000,1.030518,-0.872314,-0.109375,-34.111023,-18.814087,-192.337021,1.3545707635797402
0 days 00:01:02.720000,0.546631,-0.927246,-0.119629,-8.659363,29.693602,-34.423828,1.0830058597800845
0 days 00:01:02.730000,0.982178,-0.897461,-0.111328,-34.805298,8.850098,-176.162704,1.335104413066259
0 days 00:01:02.740000,0.95874,-0.897217,-0.125244,-34.889221,21.865843,-167.579636,1.3190401025840723
0 days 00:01:02.750000,0.923584,-0.896729,-0.119873,-34.629822,33.340454,-159.225464,1.292864973856899
0 days 00:01:02.760000,0.88916,-0.892822,-0.143555,-34.988403,45.043941,-148.803711,1.2682052938341646
0 days 00:01:02.770000,1.004639,-0.883789,-0.114502,-34.721375,-4.989624,-184.295639,1.3429420035303088
0 days 00:01:02.780000,0.781494,-0.933838,-0.15625,-29.556273,43.907162,-128.974915,1.2276808806770592
0 days 00:01:02.790000,0.716309,-0.970703,-0.13623,-25.199888,31.562803,-123.031609,1.2140516918937183
0 days 00:01:02.800000,0.762939,-0.946777,-0.149658,-24.757383,28.350828,-115.783684,1.225095964573388
0 days 00:01:02.810000,0.75293,-0.932373,-0.149902,-23.185728,31.654356,-106.353752,1.2077638865411566
0 days 00:01:02.820000,0.708008,-0.929688,-0.162354,-21.499632,34.072876,-96.870415,1.1798109707592992
0 days 00:01:02.830000,0.65918,-0.94043,-0.179688,-19.256592,33.546448,-87.203972,1.1624175818715063
0 days 00:01:02.840000,0.616943,-0.952148,-0.194824,-15.930175,30.761717,-77.445984,1.1511563187200076
0 days 00:01:02.850000,0.587646,-0.953369,-0.208252,-12.4588,26.43585,-68.29071,1.1391264929677476
0 days 00:01:02.860000,0.578613,-0.94458,-0.203857,-9.803772,23.086546,-60.119625,1.126313480616298
0 days 00:01:02.870000,0.584473,-0.9375,-0.176758,-8.468628,23.841856,-51.879879,1.1188200607305
0 days 00:01:02.880000,0.819824,-0.914795,-0.162598,-32.546997,48.332211,-138.931274,1.2391123405910378
0 days 00:01:02.890000,0.606445,0.675537,-0.081787,-28.152464,-18.157959,-14.549254,0.9114904770555752
0 days 00:01:02.900000,0.625488,0.678711,-0.035156,-21.194456,-5.317688,-17.105103,0.9236448473309425
0 days 00:01:02.910000,0.657959,0.693115,0.01709,-12.931823,5.012512,-19.454956,0.9558297531495868
0 days 00:01:02.920000,0.662598,0.718262,0.086426,-0.88501,13.870238,-21.65222,0.9810228660556287
0 days 00:01:02.930000,0.788086,0.74585,0.506836,110.519402,92.658989,-47.485348,1.1976036476196956
0 days 00:01:02.940000,0.714355,0.799316,0.352539,31.806944,39.916992,-26.94702,1.128491417956734
0 days 00:01:02.950000,0.753906,0.820801,0.481689,55.061337,57.693478,-32.897949,1.2141304835799156
0 days 00:01:02.960000,0.789551,0.80127,0.547119,80.963127,76.118469,-41.191097,1.2509051101750286
0 days 00:01:02.970000,0.671387,0.752686,0.203613,13.793944,25.115965,-24.200438,1.0289581974667386
0 days 00:01:02.980000,0.608154,0.664551,-0.113281,-35.560608,-30.052183,-13.198852,0.9079162429861027
0 days 00:01:02.990000,0.664063,0.575928,-0.416992,-83.32061,-49.484249,4.096985,0.9729106111133745
0 days 00:01:03,0.633057,0.666016,-0.17627,-46.394344,-39.642334,-10.162353,0.9356332563590287
0 days 00:01:03.010000,0.621826,0.658936,-0.182617,-50.514217,-37.902832,-8.758545,0.9242365471355263
0 days 00:01:03.020000,0.607422,0.648438,-0.190918,-53.565975,-34.767151,-7.972717,0.9087810564993088
0 days 00:01:03.030000,0.601563,0.63623,-0.226074,-56.930538,-31.280516,-6.67572,0.9043097419275101
0 days 00:01:03.040000,0.582764,0.619141,-0.246826,-60.218807,-29.548643,-5.714416,0.88536576162228
0 days 00:01:03.050000,0.56665,0.60376,-0.277588,-64.254761,-30.685423,-4.714966,0.8733117758532745
0 days 00:01:03.060000,0.578613,0.5896,-0.314941,-69.068909,-33.432007,-3.288269,0.8840865326708693
0 days 00:01:03.070000,0.61792,0.58374,-0.342041,-74.249268,-37.101746,-1.38092,0.9162802844550352
0 days 00:01:03.080000,0.650391,0.580811,-0.355713,-78.552246,-40.771481,0.991821,0.941743918998684
0 days 00:01:03.090000,0.672363,0.583496,-0.38623,-81.886284,-44.975277,3.135681,0.9704190840482272
0 days 00:01:03.100000,0.688965,0.684326,0.411621,145.973206,112.861626,-53.146358,1.054706922866253
0 days 00:01:03.110000,0.615479,0.658691,-0.145996,-40.878292,-37.29248,-12.184142,0.9132376826095165
0 days 00:01:03.120000,0.713135,0.638916,0.403564,184.112534,127.105705,-58.959957,1.0390568249027576
0 days 00:01:03.130000,0.427002,0.629639,-0.088135,12.748717,6.683349,-38.841248,0.7658614473584631
0 days 00:01:03.140000,0.617188,0.497314,0.452393,249.992355,102.233879,-66.665649,0.9126344659221457
0 days 00:01:03.150000,0.651855,0.565186,-0.446045,-82.649223,-54.046627,2.76947,0.9712395675866999
0 days 00:01:03.160000,0.752441,0.295654,-0.910889,-79.650879,-49.400326,-30.441282,1.2179070229364801
0 days 00:01:03.170000,0.978271,0.326416,-0.656982,-65.971375,-6.29425,-22.033689,1.222778353922329
0 days 00:01:03.180000,0.906738,0.430176,-0.475342,-54.702755,30.769346,-10.963439,1.1104842225731981
0 days 00:01:03.190000,0.716309,0.449219,-0.541504,-42.373653,35.964966,0.610352,1.004053223418958
0 days 00:01:03.200000,0.489502,0.463867,-0.679932,-23.567198,7.064819,6.988525,0.9576493754589933
0 days 00:01:03.210000,0.419678,0.50293,-0.851318,-10.81848,-37.879944,8.041382,1.0741557362449823
0 days 00:01:03.220000,0.446777,0.505371,-0.931641,-2.235413,-70.983887,6.149292,1.1502019336842553
0 days 00:01:03.230000,0.453613,0.520752,-0.918213,6.04248,-77.781677,0.244141,1.148939734120985
0 days 00:01:03.240000,0.392822,0.541504,-0.894043,13.244628,-68.16864,-8.132935,1.1166237466349174
0 days 00:01:03.250000,0.736084,0.61084,0.45752,229.927048,123.023979,-62.843319,1.060315854383023
0 days 00:01:03.260000,0.291504,0.475586,-0.868652,21.629332,-56.991573,-15.251159,1.0323337263288457
0 days 00:01:03.270000,0.286133,0.383545,-0.525146,26.390074,-31.784056,-30.105589,0.7104626535082615
0 days 00:01:03.280000,0.673828,1.268555,0.293945,-9.498596,72.906494,-38.505554,1.4661785786983796
0 days 00:01:03.290000,0.706299,2.14209,0.462646,-21.766661,76.423645,3.669739,2.302487604052843
0 days 00:01:03.300000,0.772705,2.045898,0.105713,-85.144035,-15.777587,12.33673,2.1895083653181144
0 days 00:01:03.310000,0.544434,1.093506,-0.105225,-165.313705,-120.735161,8.056641,1.22606527273918
0 days 00:01:03.320000,1.540039,-1.78125,-1.330322,-60.981747,-154.342651,26.06201,2.704501489684374
0 days 00:01:03.330000,1.128906,-4.360107,-6.385254,56.892391,-25.611876,-62.400814,7.813861430355736
0 days 00:01:03.340000,1.160156,-1.724365,-6.322754,147.30835,67.367554,-42.549129,6.6555702041280425
0 days 00:01:03.350000,-0.207275,0.348389,0.94043,249.511703,67.756653,-60.05859,1.024083202599281
0 days 00:01:03.360000,0.404785,0.363525,0.291748,249.992355,72.19696,-64.788818,0.6173477280706555
0 days 00:01:03.370000,0.241943,0.376953,-0.781982,28.625486,-47.256466,-21.057127,0.9011802415621416
0 days 00:01:03.380000,0.638184,0.544189,-0.49585,-80.825798,-56.709286,-0.434875,0.9743139679164001
0 days 00:01:03.390000,0.662354,0.515869,-0.567627,-79.360962,-57.228085,-3.173828,1.0134268881404322
0 days 00:01:03.400000,0.679199,0.486816,-0.639648,-78.315735,-56.442257,-3.707886,1.0523548181868128
0 days 00:01:03.410000,0.441895,0.327881,0.090332,249.992355,67.047119,-70.411682,0.5576172624748986
0 days 00:01:03.420000,0.658203,0.435059,0.34082,249.748215,71.731567,-73.974609,0.859456685988305
0 days 00:01:03.430000,0.874268,0.517578,0.413086,224.327072,80.26886,-70.411682,1.096755016083355
0 days 00:01:03.440000,0.970947,0.54834,0.328369,193.35936,88.294975,-63.812252,1.162428936567737
0 days 00:01:03.450000,0.926025,0.564941,0.191406,162.826523,89.004509,-56.671139,1.1015066458909815
0 days 00:01:03.460000,0.838379,0.577637,0.1521,138.442993,78.613281,-49.995419,1.0294067521684516
0 days 00:01:03.470000,0.795898,0.61499,0.231201,117.935173,64.483643,-43.350216,1.0320466214784096
0 days 00:01:03.480000,0.765381,0.671387,0.322266,99.113457,53.108212,-38.101196,1.0679063412518908
0 days 00:01:03.490000,0.733643,0.675781,0.244629,80.894463,44.525143,-34.90448,1.0270128329534156
0 days 00:01:03.500000,0.720459,0.64502,0.076416,54.481503,29.754637,-31.181334,0.9700264821833474
0 days 00:01:03.510000,0.449219,0.330322,0.452148,249.618515,62.408443,-61.828609,0.7178775296309252
0 days 00:01:03.520000,0.703613,0.622803,0.001953,44.364925,19.554138,-31.22711,0.9396587916829172
0 days 00:01:03.530000,0.726318,0.596191,-0.11084,26.107786,4.081726,-30.830381,0.9461855268418558
0 days 00:01:03.540000,0.717773,0.576172,-0.148926,19.607544,0.114441,-29.953001,0.9323900506703189
0 days 00:01:03.550000,0.700684,0.573486,-0.201172,15.640258,-5.073547,-28.884886,0.9275313653111683
0 days 00:01:03.560000,0.692871,0.576904,-0.23291,12.168883,-9.674072,-28.70178,0.931201114666966
0 days 00:01:03.570000,0.688477,0.576904,-0.250977,9.124756,-11.558532,-29.548643,0.932635115827192
0 days 00:01:03.580000,0.691406,0.582275,-0.263672,6.950378,-11.276244,-30.563353,0.9415993606863802
0 days 00:01:03.590000,0.693848,0.581787,-0.272705,5.485534,-9.460449,-31.127928,0.9456580658451553
0 days 00:01:03.600000,0.69043,0.57251,-0.269531,5.058288,-6.828308,-31.898497,0.9365405730458237
0 days 00:01:03.610000,0.692383,0.560547,-0.2854,4.295349,-4.631042,-33.065796,0.9354465874105266
0 days 00:01:03.620000,0.711182,0.550293,-0.306152,2.487183,-3.417969,-33.52356,0.9499111906262606
0 days 00:01:03.630000,0.71167,0.612305,-0.073242,34.980774,9.979248,-31.09741,0.9416772230913308
0 days 00:01:03.640000,1.171875,-1.220947,-2.868164,183.593735,34.65271,-60.470577,3.330220311530455
0 days 00:01:03.650000,0.724854,0.662842,0.148926,66.490173,37.719727,-32.699585,0.9934544739221823
0 days 00:01:03.660000,-0.210938,-1.5271,-2.042236,158.401489,-205.093369,-50.788876,2.558760858216336
0 days 00:01:03.670000,1.126465,-1.321045,-6.931396,6.965637,-187.263474,-71.69342,7.145511444051154
0 days 00:01:03.680000,0.651611,0.419922,-0.727295,-75.775146,-49.888607,-4.219055,1.0629625573979546
0 days 00:01:03.690000,0.682373,0.379639,-0.739502,-74.203491,-38.162231,-5.226135,1.0754635695615171
0 days 00:01:03.700000,0.739014,0.31665,-0.697998,-69.793701,-19.035339,-7.5531,1.0647112860771224
0 days 00:01:03.710000,0.796875,0.25293,-0.590088,-60.302731,0.87738,-8.995056,1.023321649467556
0 days 00:01:03.720000,0.826904,0.219971,-0.469238,-46.684261,13.542174,-11.138915,0.9758799960553551
0 days 00:01:03.730000,0.866455,0.24707,-0.428467,-33.699036,15.518188,-12.672423,0.997683227289103
0 days 00:01:03.740000,0.864746,0.318848,-0.506592,-27.343748,8.514404,-7.621765,1.051705826780474
0 days 00:01:03.750000,0.76001,0.335449,-0.600586,-20.324705,-3.074646,-2.6474,1.0251072017584306
0 days 00:01:03.760000,0.663574,0.367188,-0.663574,-11.444091,-14.717101,-0.526428,1.0077142126099046
0 days 00:01:03.770000,0.637939,0.376465,-0.739502,-5.355834,-22.567747,-0.953674,1.0466877623962172
0 days 00:01:03.780000,0.669189,0.448486,-0.699707,-77.438354,-54.496761,-3.341675,1.0670255366044432
0 days 00:01:03.790000,0.627686,0.392578,-0.874268,14.991759,-25.497435,-2.708435,1.1456228596287699
0 days 00:01:03.800000,0.634277,0.376221,-0.808594,2.624511,-26.985167,-3.341675,1.094382844532022
0 days 00:01:03.810000,0.502441,1.15332,-0.211914,-124.290459,107.963554,45.776363,1.2757356796284252
0 days 00:01:03.820000,0.916748,1.394287,0.069336,-44.891354,103.98101,-4.592896,1.670110958819503
0 days 00:01:03.830000,0.760986,0.981689,0.15625,16.136169,42.404171,-3.326416,1.251889391047388
0 days 00:01:03.840000,0.603027,0.54541,-0.029297,35.919189,12.565612,6.645202,0.8136165835564071
0 days 00:01:03.850000,-0.226318,-0.491943,-0.351563,-21.14868,-31.127928,57.418819,0.645619311469228
0 days 00:01:03.860000,0.8396,0.301025,-0.6521,27.900694,18.051147,-8.872986,1.104888510495516
0 days 00:01:03.870000,0.743164,0.327637,-0.787109,29.098509,0.953674,-10.864257,1.131008095703121
0 days 00:01:03.880000,0.669434,0.37915,-0.870117,25.962828,-16.571045,-4.432678,1.1614646772696102
0 days 00:01:03.890000,0.746338,0.344727,-0.382813,32.867432,18.173218,1.739502,0.9068643270864721
0 days 00:01:03.900000,0.376221,0.455566,-0.606201,21.01898,21.194456,79.872131,0.8465000139385706
0 days 00:01:03.910000,0.441406,0.555908,-0.580322,45.951839,22.476194,115.127556,0.9168678121648725
0 days 00:01:03.920000,0.445313,0.536621,-0.573486,39.512634,20.187376,111.129753,0.9028576619855424
0 days 00:01:03.930000,0.469971,0.490723,-0.581787,32.302856,20.301817,106.903069,0.8945154648964991
0 days 00:01:03.940000,0.492188,0.429443,-0.572266,26.30615,21.224974,103.378288,0.8684231067567237
0 days 00:01:03.950000,0.470947,0.381348,-0.577393,23.513792,21.77429,99.258415,0.8370185483978237
0 days 00:01:03.960000,0.467285,0.371094,-0.605957,21.255491,21.301268,94.337456,0.850441011422897
0 days 00:01:03.970000,0.470947,0.564941,-0.636963,49.743649,25.276182,117.149345,0.9729703354465644
0 days 00:01:03.980000,0.454102,0.388916,-0.636963,19.798279,20.782469,89.706413,0.8736052568689132
0 days 00:01:03.990000,0.413086,0.42334,-0.642334,20.095823,20.400999,85.20507,0.8731836957662459
0 days 00:01:04,0.348877,0.476318,-0.572021,20.919798,22.186277,73.402405,0.822071786825214
0 days 00:01:04.010000,0.144775,0.575684,-0.335938,8.911133,17.494202,30.586241,0.6820749286735293
0 days 00:01:04.020000,0.275635,0.523193,-0.473145,20.118711,21.171568,58.074947,0.7573452049752477
0 days 00:01:04.030000,0.238037,0.546387,-0.416016,16.937256,20.51544,48.667904,0.7268216283201814
0 days 00:01:04.040000,0.195313,0.564941,-0.371094,12.535094,20.095823,39.222717,0.7035739181393807
0 days 00:01:04.050000,0.074219,0.582031,-0.32959,7.026672,9.32312,22.766111,0.6729770523740018
0 days 00:01:04.060000,0.031494,0.575195,-0.342529,6.202697,-3.837585,15.411376,0.6701994299475343
0 days 00:01:04.070000,0.038086,0.549561,-0.404785,5.798339,-16.105652,8.285522,0.6836071476674304
0 days 00:01:04.080000,0.0354,0.509033,-0.516846,6.111145,-24.261473,0.137329,0.7262902607119277
0 days 00:01:04.090000,-0.020264,0.449951,-0.613281,8.338928,-32.142639,-8.636475,0.7609074300189216
0 days 00:01:04.100000,-0.145508,0.396484,-0.631836,16.410828,-49.659725,-20.904539,0.7599926783963119
0 days 00:01:04.110000,0.553467,0.564697,-0.712402,50.4837,24.398802,116.218559,1.0642955564607042
0 days 00:01:04.120000,0.313477,0.498047,-0.530518,20.782469,21.957396,66.085815,0.7923181129205618
0 days 00:01:04.130000,0.641357,0.552002,-0.806152,50.369259,16.860962,112.632744,1.1687283929797376
0 days 00:01:04.140000,0.536133,0.289551,-0.679688,29.563902,41.175838,22.392271,0.9128275590898863
0 days 00:01:04.150000,0.662598,0.557617,-0.904541,51.849361,4.081726,99.990837,1.2522648477754217
0 days 00:01:04.160000,-0.277588,0.385498,-0.581055,26.779173,-80.085754,-37.506104,0.7505256283252425
0 days 00:01:04.170000,0.560303,0.305176,-0.685303,30.96771,40.328976,19.065857,0.9363290258205178
0 days 00:01:04.180000,0.570557,0.323486,-0.674316,32.821655,39.527893,16.242981,0.940680897170236
0 days 00:01:04.190000,0.575195,0.343018,-0.662109,35.507202,36.186218,13.999938,0.9417531333794436
0 days 00:01:04.200000,0.58374,0.365479,-0.658447,37.452698,28.724669,12.542724,0.9528272345236569
0 days 00:01:04.210000,0.608643,0.397461,-0.652588,38.017273,20.492552,12.847899,0.9768790333065809
0 days 00:01:04.220000,0.645996,0.420654,-0.642334,36.407471,14.114379,15.289306,1.0034209422211597
0 days 00:01:04.230000,0.667969,0.437988,-0.625732,33.782959,10.32257,18.318176,1.014670689893524
0 days 00:01:04.240000,0.688721,0.451416,-0.623291,30.84564,8.964539,22.003172,1.032765554992032
0 days 00:01:04.250000,0.690186,0.46582,-0.631592,28.533934,9.895325,26.145933,1.045109296418322
0 days 00:01:04.260000,0.670166,0.476074,-0.62085,29.365538,10.086059,28.839109,1.0301570965304274
0 days 00:01:04.270000,0.67627,0.489502,-0.614502,31.837461,10.284423,31.646727,1.0366127670967593
0 days 00:01:04.280000,0.698242,0.507324,-0.607422,32.676697,12.08496,36.048889,1.0554056175821693
0 days 00:01:04.290000,0.735107,0.517578,-0.580566,32.363892,18.173218,42.312618,1.070199125344905
0 days 00:01:04.300000,0.752686,0.521973,-0.559326,31.501768,27.687071,49.697872,1.0732369736460816
0 days 00:01:04.310000,0.754639,0.528809,-0.55835,30.395506,36.773682,59.371944,1.0774384907278929
0 days 00:01:04.320000,0.718262,0.545898,-0.574463,31.471251,42.823788,70.869446,1.0695385291877053
0 days 00:01:04.330000,0.648926,0.609863,-0.599854,33.584595,43.876644,80.92498,1.073714418996504
0 days 00:01:04.340000,0.57666,0.658691,-0.642822,37.414551,39.779663,85.58654,1.0861080575914166
0 days 00:01:04.350000,0.54834,0.678223,-0.687012,42.312618,32.333374,87.188713,1.1102471263070217
0 days 00:01:04.360000,0.575195,0.664307,-0.743164,46.524044,22.926329,88.378899,1.1508456930318678
0 days 00:01:04.370000,0.610107,0.62793,-0.822266,49.568172,13.21411,90.576164,1.201102831195148
0 days 00:01:04.380000,0.647705,0.583984,-0.889404,50.933834,6.088256,94.276421,1.2456317892928872
0 days 00:01:04.390000,0.67627,0.549316,-0.880127,50.86517,8.110046,106.643669,1.2384315551878513
0 days 00:01:04.400000,-0.354248,0.452881,-0.479004,36.483765,-111.190788,-53.100582,0.7483566513908994
0 days 00:01:04.410000,0.572021,0.327148,-1.043945,-92.582695,-78.445435,-30.555723,1.2345262254687017
0 days 00:01:04.420000,-0.251709,0.937988,-0.216797,32.714844,-89.698784,-73.783875,0.9950778100399988
0 days 00:01:04.430000,0.487061,0.883057,0.163574,-42.831417,-4.119873,-11.146544,1.0216528453667615
0 days 00:01:04.440000,0.498779,0.860596,0.119629,-50.514217,-17.791748,-7.278442,1.0018568079810608
0 days 00:01:04.450000,0.51123,0.842529,0.065186,-57.723995,-30.654905,-3.082275,0.9876540099331343
0 days 00:01:04.460000,0.500488,0.824219,0.017822,-63.278194,-43.037411,-0.061035,0.9644391229046031
0 days 00:01:04.470000,0.493896,0.819092,-0.016113,-67.741394,-54.51965,1.403808,0.956610993063011
0 days 00:01:04.480000,0.513672,0.818604,-0.049805,-72.296143,-63.056942,3.334045,0.9677044850702099
0 days 00:01:04.490000,0.50293,0.805664,-0.072021,-75.645447,-68.328857,5.439758,0.9524810183079766
0 days 00:01:04.500000,0.480469,0.770752,-0.092285,-80.085754,-71.121216,6.217956,0.9129214789290478
0 days 00:01:04.510000,0.478027,0.719238,-0.142334,-86.624138,-71.556091,6.446838,0.8752554375318099
0 days 00:01:04.520000,0.441406,0.649902,-0.263428,-100.280754,-67.016602,7.766723,0.8286170271144565
0 days 00:01:04.530000,0.476074,0.903564,0.217041,-35.545349,9.460449,-15.258788,1.044117403002651
0 days 00:01:04.540000,0.435791,0.634277,-0.320557,-106.780998,-64.460754,7.904052,0.8336533444178101
0 days 00:01:04.550000,0.440918,0.612549,-0.435547,-116.683952,-64.331055,5.889892,0.8713932231398176
0 days 00:01:04.560000,0.446289,0.612549,-0.491943,-120.651237,-68.458557,3.463745,0.9035474886086509
0 days 00:01:04.570000,0.450684,0.603516,-0.544434,-123.748772,-75.668335,0.740051,0.929384748351295
0 days 00:01:04.580000,0.457031,0.588379,-0.586914,-126.434319,-85.33477,-2.166748,0.9484383090101327
0 days 00:01:04.590000,0.468018,0.560547,-0.632568,-127.159111,-94.482414,-5.752563,0.9661242477844142
0 days 00:01:04.600000,0.489014,0.530518,-0.709717,-126.632683,-100.486748,-10.643004,1.0120683082722233
0 days 00:01:04.610000,0.519043,0.497803,-0.823242,-123.611443,-102.012627,-15.327453,1.0931335020124486
0 days 00:01:04.620000,0.525146,0.469482,-0.954834,-117.759697,-99.411003,-20.690916,1.1865494668137524
0 days 00:01:04.630000,0.519287,0.407715,-1.046143,-107.040398,-92.224113,-25.985716,1.2370552477731138
0 days 00:01:04.640000,-0.334229,0.639648,-0.338379,39.955139,-120.574944,-64.712524,0.7970940571764414
0 days 00:01:04.650000,0.445068,0.618652,-0.383789,-112.80822,-63.110348,7.698059,0.8532935123678136
0 days 00:01:04.660000,0.464844,0.91626,0.263184,-27.465818,22.621153,-19.14978,1.0606027294854563
0 days 00:01:04.670000,0.468506,0.675537,-0.203857,-93.65081,-69.633484,7.438659,0.8469981032174747
0 days 00:01:04.680000,0.479248,0.936523,0.374756,-4.005432,47.111507,-24.261473,1.1167793132794859
0 days 00:01:04.690000,0.459229,0.922852,0.3125,-17.333984,35.102844,-21.972654,1.077127354747339
0 days 00:01:04.700000,-0.075439,1.196045,0.012695,-21.301268,38.215637,-100.570671,1.1984889852522633
0 days 00:01:04.710000,0.099121,1.093506,0.17334,-43.853756,67.008972,-98.602287,1.1115876484906622
0 days 00:01:04.720000,0.303955,1.424561,0.210693,-55.709835,48.301693,-82.328789,1.4717860663136473
0 days 00:01:04.730000,0.337646,2.271484,0.028809,-52.864071,-55.656429,-30.158995,2.2966223768945997
0 days 00:01:04.740000,0.71582,2.361816,-0.450439,-79.071045,-204.1931,1.350403,2.508678612930919
0 days 00:01:04.750000,1.281738,1.788818,-1.012207,-157.989502,-249.992355,-42.28973,2.4222479535788652
0 days 00:01:04.760000,2.576172,-0.69165,-2.450195,-111.579887,-99.655144,-7.80487,3.6219466360106685
0 days 00:01:04.770000,1.561768,-4.225342,-5.997314,13.244628,208.503708,-31.822203,7.500693935722481
0 days 00:01:04.780000,0.893555,-2.62793,-5.931396,159.248352,239.234909,-38.581848,6.548733857146815
0 days 00:01:04.790000,-0.431152,0.535889,1.368896,249.992355,132.980347,-90.789787,1.5319743229705254
0 days 00:01:04.800000,-0.151123,1.146729,-0.108398,11.772155,-25.787352,-86.250298,1.1617123942585792
0 days 00:01:04.810000,0.496582,0.285889,-0.164307,249.992355,92.781059,-78.384399,0.5960897527168203
0 days 00:01:04.820000,0.512695,0.206299,-0.500244,249.67955,88.005058,-85.762016,0.745425717266315
0 days 00:01:04.830000,0.60498,0.917236,0.544922,33.64563,72.883606,-33.576965,1.22648386299209
0 days 00:01:04.840000,0.664795,0.878418,0.615234,59.242245,87.516777,-41.725155,1.2617778923031582
0 days 00:01:04.850000,0.708252,0.818848,0.634766,91.400139,101.745598,-49.743649,1.2550142697850093
0 days 00:01:04.860000,0.646729,0.718506,0.573975,131.011963,115.211479,-56.755062,1.124258231947625
0 days 00:01:04.870000,0.538086,0.936768,0.473389,13.320922,59.585567,-27.458189,1.1794778397837749
0 days 00:01:04.880000,0.532471,0.525635,0.362305,204.81871,136.199951,-66.215515,0.8313136785179226
0 days 00:01:04.890000,0.562744,0.462646,0.268311,236.869797,128.196716,-71.418762,0.7763458788278585
0 days 00:01:04.900000,0.513672,0.385254,0.11792,249.992355,107.704155,-75.3479,0.6528282274074858
0 days 00:01:04.910000,0.55249,0.608643,0.461426,169.876083,128.913879,-61.477657,0.9426587160924149
0 days 00:01:04.920000,0.605713,-0.537354,-0.453857,41.755672,-51.910397,101.806633,0.9282368965592781
0 days 00:01:04.930000,0.562012,-0.708496,-0.471191,46.844479,29.144285,132.56073,1.0197279189278874
0 days 00:01:04.940000,0.560547,-0.684814,-0.479248,44.654842,25.405882,133.659363,1.0064103533395312
0 days 00:01:04.950000,0.476563,-0.659424,-0.468018,46.058651,18.310547,132.591248,0.9386123550587857
0 days 00:01:04.960000,0.391602,-0.624023,-0.428955,50.041195,6.523132,127.624504,0.852501743668598
0 days 00:01:04.970000,0.371582,-0.588379,-0.397949,52.12402,-8.171082,121.368401,0.8016398424267596
0 days 00:01:04.980000,0.395752,-0.565918,-0.394043,51.170345,-22.819517,115.631096,0.7950803192615197
0 days 00:01:04.990000,0.54541,-0.713623,-0.442871,49.377438,34.561157,132.865906,1.0014312641764287
0 days 00:01:05,0.447021,-0.556396,-0.40625,48.492428,-36.621094,110.748283,0.8212449974015062
0 days 00:01:05.010000,0.52832,-0.546631,-0.425537,45.211788,-46.424862,106.048576,0.871211346878586
0 days 00:01:05.020000,0.68042,-0.540527,-0.483643,38.665771,-52.825924,98.487846,0.9945106161213162
0 days 00:01:05.030000,0.648193,-0.442871,-0.541504,35.15625,7.461547,105.148308,0.9536852048270436
0 days 00:01:05.040000,0.82666,-0.526367,-0.578369,24.841307,-12.435912,110.397331,1.1379541618404496
0 days 00:01:05.050000,0.725342,-0.500488,-0.577881,28.106688,-0.457764,113.281242,1.053829068335563
0 days 00:01:05.060000,0.619385,-0.464355,-0.546387,33.493042,4.989624,110.054008,0.947524193896388
0 days 00:01:05.070000,0.697754,-0.424072,-0.565186,35.835266,10.917663,102.111809,0.9930422550405394
0 days 00:01:05.080000,0.721924,-0.398926,-0.577148,36.231995,12.374877,100.440971,1.0066856655163021
0 days 00:01:05.090000,0.742432,-0.375488,-0.577637,36.956787,15.495299,99.365227,1.0128479730625914
0 days 00:01:05.100000,0.680176,-0.35498,-0.55835,38.444519,17.585754,96.870415,0.9488966824033057
0 days 00:01:05.110000,0.653076,-0.313232,-0.529297,37.712097,16.448975,94.017021,0.8970941209310203
0 days 00:01:05.120000,0.624023,-0.269043,-0.517822,35.583496,11.878966,90.942375,0.8543585102648654
0 days 00:01:05.130000,0.528076,-0.718262,-0.402832,51.23138,42.457577,136.131287,0.9782832834327693
0 days 00:01:05.140000,0.810059,-0.541748,-0.559082,27.626036,-28.114317,103.721611,1.1235030759677518
0 days 00:01:05.150000,0.508789,-0.729248,-0.361328,53.115841,51.246639,139.602661,0.959805613449411
0 days 00:01:05.160000,0.546875,-0.231934,-0.493408,35.858154,3.311157,86.166374,0.7722157084940711
0 days 00:01:05.170000,0.468018,-0.749756,-0.295166,57.548519,67.871094,145.698547,0.9318250240340189
0 days 00:01:05.180000,0.433105,-1.050781,-0.124023,27.748106,21.77429,52.429195,1.1432857715877514
0 days 00:01:05.190000,0.496582,-1.054932,-0.124512,23.16284,39.871216,75.622559,1.1725947490467454
0 days 00:01:05.200000,0.557861,-1.078369,-0.122803,18.669128,61.592098,97.015373,1.2203151938294465
0 days 00:01:05.210000,0.572754,-1.111816,-0.106445,18.005371,79.681396,116.767876,1.2551942082391074
0 days 00:01:05.220000,0.600586,-1.124023,-0.084717,18.569946,94.192497,135.826111,1.2772267684377743
0 days 00:01:05.230000,0.631836,-1.124023,-0.072998,17.318726,109.100334,153.060913,1.2915003458880683
0 days 00:01:05.240000,0.640625,-1.143066,-0.05957,16.120911,121.063225,167.800888,1.3116969375130063
0 days 00:01:05.250000,0.667236,-1.160645,-0.067139,16.418457,133.31604,179.641708,1.3404507976953126
0 days 00:01:05.260000,0.705322,-1.156494,-0.073242,16.426086,152.084351,188.652023,1.356584640294884
0 days 00:01:05.270000,0.726074,-1.146973,-0.084473,14.503478,176.170334,193.870529,1.36009786557218
0 days 00:01:05.280000,0.496094,-0.741455,-0.328125,55.13763,59.646603,142.532349,0.9505423659606129
0 days 00:01:05.290000,0.663086,-1.1604,-0.080566,18.669128,192.810043,197.853073,1.338918251332769
0 days 00:01:05.300000,0.535889,-1.061279,-0.110596,34.408569,193.008408,195.922836,1.1940358501226
0 days 00:01:05.310000,0.498047,-0.997559,-0.125732,39.94751,182.159409,192.016586,1.1220442542582714
0 days 00:01:05.320000,0.498535,-0.93457,-0.150635,43.243404,174.83519,188.598618,1.0698827666384763
0 days 00:01:05.330000,0.488281,-0.881836,-0.183594,42.92297,171.165451,184.852585,1.0245778753677048
0 days 00:01:05.340000,0.45459,-0.852783,-0.196777,43.968197,164.634689,180.992111,0.9862109819496029
0 days 00:01:05.350000,0.420166,-0.836914,-0.202881,48.126217,152.107239,175.018295,0.9581885049994078
0 days 00:01:05.360000,0.397705,-0.814697,-0.217773,52.474972,134.239197,167.510971,0.9323762911845196
0 days 00:01:05.370000,0.392578,-0.797119,-0.230225,56.289669,113.464348,159.507751,0.9178887388294946
0 days 00:01:05.380000,0.406006,-0.782715,-0.244873,58.197018,94.543449,153.343201,0.9151209916672222
0 days 00:01:05.390000,0.431885,-0.769043,-0.262695,58.998104,78.872681,148.834229,0.9203045431263501
0 days 00:01:05.400000,0.597412,-1.128906,-0.086914,27.359007,197.425827,198.989853,1.280189008692076
0 days 00:01:05.410000,0.518066,-0.192383,-0.462158,34.53064,-7.67517,79.788208,0.7204121153957643
0 days 00:01:05.420000,0.770508,-0.540771,-0.522217,33.950806,-44.456478,98.503105,1.0764880155366339
0 days 00:01:05.430000,0.609619,-0.155273,-0.50415,24.139402,-14.35852,71.022034,0.806171354111519
0 days 00:01:05.440000,0.8479,0.085449,-0.641602,26.298521,4.325867,43.487545,1.0667188326850707
0 days 00:01:05.450000,0.890381,0.075439,-0.63623,24.513243,3.623962,45.303341,1.0969311650153806
0 days 00:01:05.460000,0.919678,0.057617,-0.631592,23.826597,5.081176,46.874996,1.1171552250412653
0 days 00:01:05.470000,0.913574,0.046387,-0.616699,24.559019,5.142211,49.102779,1.1032165987901015
0 days 00:01:05.480000,0.904053,0.0354,-0.612549,24.54376,3.227234,53.169247,1.0926029764786476
0 days 00:01:05.490000,0.874268,0.016846,-0.586914,27.259825,-1.945495,55.488583,1.0531364426967667
0 days 00:01:05.500000,0.814209,0.02124,-0.562744,32.012939,-8.636475,56.198116,0.9899839608887611
0 days 00:01:05.510000,0.774414,0.05957,-0.572998,32.63092,-15.289306,57.594296,0.9651903109231879
0 days 00:01:05.520000,0.782715,0.098145,-0.60498,29.037474,-18.829346,60.028072,0.9941207233782022
0 days 00:01:05.530000,0.778564,0.102539,-0.609619,23.849485,-11.039733,61.19537,0.9941385586416011
0 days 00:01:05.540000,0.834473,0.089111,-0.648193,26.19171,8.827209,41.65649,1.0603962105265183
0 days 00:01:05.550000,0.787842,0.104736,-0.613037,22.056578,-2.120972,62.263485,1.0037325390904692
0 days 00:01:05.560000,0.712402,0.123047,-0.604248,22.40753,15.60974,62.240597,0.942216970403845
0 days 00:01:05.570000,0.674072,0.144287,-0.603516,23.03314,22.590635,62.240597,0.9162005030608749
0 days 00:01:05.580000,0.60376,0.164551,-0.608398,22.743223,27.19116,62.591549,0.8727836476498628
0 days 00:01:05.590000,0.526855,0.171387,-0.595703,23.66638,29.953001,59.04388,0.813518136861742
0 days 00:01:05.600000,0.483398,0.198975,-0.594971,22.033689,33.042908,56.816097,0.7919944241407259
0 days 00:01:05.610000,0.447266,0.219727,-0.599609,24.101255,33.493042,50.544735,0.7796523469893488
0 days 00:01:05.620000,0.44751,0.252197,-0.614258,25.215147,36.056519,42.892452,0.8007380454761719
0 days 00:01:05.630000,0.491211,0.259766,-0.647949,24.528502,39.848328,36.499023,0.853583345595496
0 days 00:01:05.640000,0.506104,0.271973,-0.666748,25.756834,42.205807,31.654356,0.8801496844565702
0 days 00:01:05.650000,0.514893,0.282715,-0.675293,27.336119,42.007442,26.840208,0.8950213452890384
0 days 00:01:05.660000,0.768066,0.109131,-0.626221,21.255491,7.057189,63.110348,0.9969893160701373
0 days 00:01:05.670000,0.796875,0.099121,-0.625732,26.298521,14.518737,38.856506,1.0180251834262255
0 days 00:01:05.680000,0.795654,0.101807,-0.623535,25.588987,-17.593384,61.058041,1.0159851618946016
0 days 00:01:05.690000,0.783936,0.078857,-0.588135,24.932859,22.483824,36.949158,0.9831972623893945
0 days 00:01:05.700000,0.770508,0.082764,-0.598145,26.763914,19.302368,36.964417,0.978933041011999
0 days 00:01:05.710000,0.677246,-0.121338,-0.558105,16.998291,1.907349,67.977905,0.8859267722475712
0 days 00:01:05.720000,0.671875,-0.110107,-0.575684,18.112183,10.482787,66.15448,0.891600602809352
0 days 00:01:05.730000,0.675537,-0.087646,-0.592285,19.203186,15.754699,64.254761,0.902681328548453
0 days 00:01:05.740000,0.693115,-0.057861,-0.608398,19.78302,19.958496,64.208984,0.9240694914074374
0 days 00:01:05.750000,0.679199,-0.025879,-0.60083,21.247862,24.330137,64.01062,0.9071811798874577
0 days 00:01:05.760000,0.612305,0.020996,-0.5625,24.093626,25.787352,61.241146,0.8317238093507965
0 days 00:01:05.770000,0.57251,0.066162,-0.524414,25.726316,23.872374,56.144711,0.7792016130245111
0 days 00:01:05.780000,0.566895,0.091064,-0.506592,25.627134,20.942686,50.094601,0.7657010170980577
0 days 00:01:05.790000,0.595215,0.101807,-0.509521,23.849485,18.920898,44.929501,0.7900994943138491
0 days 00:01:05.800000,0.62207,0.104736,-0.520752,22.232054,17.921448,41.069027,0.8179996088629872
0 days 00:01:05.810000,0.654053,-0.136719,-0.532715,18.959045,-7.484436,69.05365,0.8545540843006955
0 days 00:01:05.820000,0.638428,0.100586,-0.526611,21.446226,16.944885,38.078308,0.8336827933338915
0 days 00:01:05.830000,0.561279,-0.174072,-0.4729,29.769896,-14.686584,74.378967,0.7543007271804794
0 days 00:01:05.840000,0.814453,0.094727,-0.583008,21.40045,21.217344,34.255981,1.0060841027478766
0 days 00:01:05.850000,0.799805,0.094971,-0.565186,21.156309,17.852783,31.875608,0.9839424492631669
0 days 00:01:05.860000,0.779541,0.096924,-0.547119,20.545958,14.915465,31.036375,0.9572970451317606
0 days 00:01:05.870000,0.757324,0.099854,-0.529541,20.156858,12.96234,31.082151,0.9294751922310783
0 days 00:01:05.880000,0.809814,0.085938,-0.590088,22.712706,22.979734,36.430359,1.0056778322027389
0 days 00:01:05.890000,0.709961,0.101563,-0.50708,21.171568,13.084411,32.478333,0.8783449156737915
0 days 00:01:05.900000,0.682861,0.094971,-0.516846,21.064756,14.328002,33.828735,0.8616544689595709
0 days 00:01:05.910000,0.659912,0.097412,-0.525146,20.965574,15.556334,35.766602,0.8489707102156117
0 days 00:01:05.920000,0.734619,0.104004,-0.516846,20.660398,12.306212,31.715391,0.9042188313085501
0 days 00:01:05.930000,0.292236,-0.928711,-0.162598,1.693725,-0.816345,3.494262,0.9870887046365183
0 days 00:01:05.940000,0.28125,-0.908203,-0.174316,4.379272,-1.274109,0.846863,0.966602462010624
0 days 00:01:05.950000,0.28418,-0.909668,-0.17041,4.402161,-1.068115,0.846863,0.968139303367031
0 days 00:01:05.960000,0.291016,-0.904297,-0.167969,4.150391,-0.343323,1.083374,0.964705634598451
0 days 00:01:05.970000,0.294678,-0.910889,-0.162842,4.257202,0.701904,1.167297,0.9711186389772364
0 days 00:01:05.980000,0.298096,-0.9104,-0.158936,3.829956,1.266479,1.625061,0.9710561452933605
0 days 00:01:05.990000,0.298828,-0.912842,-0.156738,3.410339,1.586914,2.220154,0.9732140007172112
0 days 00:01:06,0.281494,-0.905762,-0.172852,4.165649,-1.228333,0.984192,0.9641169465287911
0 days 00:01:06.010000,0.29248,-0.917236,-0.156982,3.028869,1.144409,2.677917,0.9754536269961788
0 days 00:01:06.020000,0.29126,-0.925781,-0.160645,2.548218,0.282288,3.112793,0.9837223508622746
0 days 00:01:06.030000,0.293213,-0.932129,-0.169434,0.984192,-1.823425,3.807068,0.9917389860069029
0 days 00:01:06.040000,0.315186,-0.935059,-0.197266,-3.768921,4.333496,3.227234,1.0062760172204244
0 days 00:01:06.050000,0.303711,-0.935059,-0.184082,-0.938415,-1.968384,3.913879,1.0002309172016228
0 days 00:01:06.060000,0.306396,-0.938721,-0.19043,-1.747131,-0.457764,3.852844,1.0056536230516946
0 days 00:01:06.070000,0.310547,-0.939209,-0.193115,-2.807617,1.731872,3.585815,1.0078920518165624
0 days 00:01:06.080000,0.321045,-0.927979,-0.195557,-4.753113,7.385253,2.868652,1.0012279743969403
0 days 00:01:06.090000,0.323486,-0.920654,-0.189697,-5.470275,11.260985,2.6474,0.994098552318129
0 days 00:01:06.100000,0.331787,-0.906494,-0.187012,-6.408691,16.174316,2.593994,0.983253514384261
0 days 00:01:06.110000,0.342285,-0.897217,-0.182861,-7.324218,21.575926,2.609253,0.977545657059045
0 days 00:01:06.120000,0.344727,-0.891602,-0.172607,-8.18634,27.19116,2.952575,0.9713825237165841
0 days 00:01:06.130000,0.348389,-0.881592,-0.165039,-8.956909,32.592773,3.784179,0.9621939624140239
0 days 00:01:06.140000,0.278076,-0.908447,-0.168945,4.043579,-0.892639,0.846863,0.9649583548578664
0 days 00:01:06.150000,0.296631,-0.932617,-0.176025,-0.038147,-2.39563,3.959656,0.9943586975910655
0 days 00:01:06.160000,0.272705,-0.912842,-0.169434,4.096985,-0.137329,0.518799,0.967655111258655
0 days 00:01:06.170000,0.301025,-0.936768,-0.153564,0.404358,24.29199,-3.684997,0.9958575392821003
0 days 00:01:06.180000,0.269531,-0.920654,-0.165039,3.692627,2.624511,0.205994,0.9733902707537199
0 days 00:01:06.190000,0.349609,-0.877686,-0.15625,-9.506226,38.009644,4.318237,0.9575871918405132
0 days 00:01:06.200000,0.291016,-0.934814,-0.151367,0.495911,23.086546,-3.684997,0.9906964699346618
0 days 00:01:06.210000,0.289307,-0.933594,-0.150879,0.701904,21.77429,-3.784179,0.9889695494432577
0 days 00:01:06.220000,0.290771,-0.932129,-0.151611,1.045227,20.805357,-4.112244,0.9881286062061962
0 days 00:01:06.230000,0.288574,-0.930908,-0.157715,0.984192,20.13397,-3.952026,0.9872885490903862
0 days 00:01:06.240000,0.289551,-0.930908,-0.158691,0.75531,19.882202,-3.829956,0.9877308942956072
0 days 00:01:06.250000,0.290039,-0.928467,-0.155518,0.366211,19.638062,-3.852844,0.9850682412574269
0 days 00:01:06.260000,0.288086,-0.928467,-0.154785,0.1297,19.546509,-3.768921,0.9843794541283356
0 days 00:01:06.270000,0.288818,-0.930664,-0.155762,0.12207,19.485474,-3.845215,0.9868196991669755
0 days 00:01:06.280000,0.288818,-0.932861,-0.154297,0.175476,19.493103,-3.883362,0.9886622510513892
0 days 00:01:06.290000,0.286621,-0.932373,-0.160889,0.312805,19.523621,-3.761291,0.9886133112046388
0 days 00:01:06.300000,0.286621,-0.931885,-0.158203,0.610352,19.78302,-3.761291,0.9877193123934552
0 days 00:01:06.310000,0.283691,-0.934814,-0.158203,0.900268,19.989014,-3.509521,0.989639321816792
0 days 00:01:06.320000,0.28418,-0.9375,-0.160645,1.13678,19.752502,-3.364563,0.9927090905320652
0 days 00:01:06.330000,0.279053,-0.9375,-0.161377,1.312256,19.119263,-3.074646,0.9913724642827235
0 days 00:01:06.340000,0.2771,-0.935791,-0.160645,1.808166,18.196106,-2.906799,0.989088480221057
0 days 00:01:06.350000,0.273438,-0.93457,-0.159912,2.204895,16.548157,-2.632141,0.9867934294917048
0 days 00:01:06.360000,0.270508,-0.938721,-0.160156,2.426147,14.450072,-2.159119,0.9899604225629427
0 days 00:01:06.370000,0.270996,-0.938232,-0.162354,2.738952,12.405395,-1.716614,0.98998835304058
0 days 00:01:06.380000,0.268799,-0.938965,-0.163574,3.196716,10.45227,-1.25885,0.9902851241445567
0 days 00:01:06.390000,0.270508,-0.936768,-0.161377,3.509521,8.552551,-0.846863,0.9883073408697317
0 days 00:01:06.400000,0.268311,-0.930908,-0.163086,3.616333,6.683349,-0.419617,0.9824344968398657
0 days 00:01:06.410000,0.268311,-0.925049,-0.165283,3.707886,4.66156,-0.038147,0.9772537619323858
0 days 00:01:06.420000,0.271729,-0.91626,-0.16626,3.730774,1.052856,0.465393,0.9700574336816351
0 days 00:01:06.430000,0.343018,-0.886719,-0.141846,-9.284973,42.503353,5.096435,0.9612763499644627
0 days 00:01:06.440000,0.339844,-0.890625,-0.134277,-10.353087,46.722408,6.065368,0.9626718795571002
0 days 00:01:06.450000,0.334229,-0.892578,-0.125977,-11.444091,51.147457,6.607055,0.9613920714536812
0 days 00:01:06.460000,0.312988,-0.900391,-0.019531,-4.776001,-6.462097,-38.703918,0.9534395109213799
0 days 00:01:06.470000,0.332031,-0.900879,-0.008057,-6.973266,-4.119873,-38.314819,0.960152317526235
0 days 00:01:06.480000,0.346924,-0.904297,-0.00708,-8.033752,-2.746582,-36.66687,0.9685863164349371
0 days 00:01:06.490000,0.351074,-0.904541,-0.013672,-8.995056,-2.059937,-33.401489,0.9703784301709308
0 days 00:01:06.500000,0.337646,-0.894531,-0.031738,-9.552002,-4.356384,-29.907225,0.9566597262982277
0 days 00:01:06.510000,0.30127,-0.881104,-0.052246,-9.681702,-11.444091,-27.57263,0.9326508007995276
0 days 00:01:06.520000,0.264893,-0.881348,-0.062988,-6.233215,-22.766111,-25.466917,0.9224478774960676
0 days 00:01:06.530000,0.252441,-0.895508,-0.072021,-0.083923,-33.798218,-24.505613,0.9331924029834362
0 days 00:01:06.540000,0.243164,-0.924805,-0.083984,6.690979,-40.443417,-26.252745,0.9599199608180883
0 days 00:01:06.550000,0.23877,-0.966553,-0.100098,13.72528,-42.961117,-30.22003,1.0006275152687938
0 days 00:01:06.560000,0.283203,-0.903564,-0.055176,-1.960754,-11.161803,-36.888123,0.9485126421302986
0 days 00:01:06.570000,0.251465,-0.969238,-0.151855,4.104614,-41.587826,-28.816221,1.0127768203775205
0 days 00:01:06.580000,0.257324,-0.980957,-0.279053,-10.185241,-22.598265,-30.273436,1.0518378456939073
0 days 00:01:06.590000,0.299316,-0.993164,-0.320557,-15.678405,-9.521484,-31.47888,1.0856894532973047
0 days 00:01:06.600000,0.337891,-1.010254,-0.373291,-18.920898,6.683349,-33.119202,1.1287735127464678
0 days 00:01:06.610000,0.349365,-1.019531,-0.431885,-18.600464,28.083799,-35.148621,1.1610443645317778
0 days 00:01:06.620000,0.427734,-1.020508,-0.494629,-15.876769,59.730526,-31.631468,1.2120440587953063
0 days 00:01:06.630000,0.501465,-1.004883,-0.530273,-15.258788,100.120537,-22.956846,1.241952673994867
0 days 00:01:06.640000,0.416504,-0.98584,-0.489258,-18.814087,128.27301,-17.349243,1.176745290273133
0 days 00:01:06.650000,0.286133,-1.003662,-0.36792,-8.110046,107.559196,-10.887145,1.1066050019464941
0 days 00:01:06.660000,0.111572,-1.016602,-0.305176,11.543273,55.244442,1.548767,1.0672676930198908
0 days 00:01:06.670000,0.254639,-1.040283,-0.251465,28.114317,11.291503,14.183043,1.1001201691792584
0 days 00:01:06.680000,0.262695,-0.979004,-0.212158,-4.074097,-33.859253,-28.549192,1.0356005562015693
0 days 00:01:06.690000,0.274414,-0.916992,-0.07959,2.845764,-20.126341,-33.576965,0.9604748510814847
0 days 00:01:06.700000,0.386719,-1.055176,-0.128418,30.502317,9.353638,30.72357,1.131122963545962
0 days 00:01:06.710000,0.240967,-0.922607,-0.122559,8.621216,-42.335506,-30.654905,0.9613997503739015
0 days 00:01:06.720000,0.333008,-0.898193,-0.126221,-12.786864,56.02264,7.095336,0.9662177467600148
0 days 00:01:06.730000,0.322754,-0.904785,-0.126709,-14.411925,60.44006,7.827758,0.9689485081375584
0 days 00:01:06.740000,0.304688,-0.916992,-0.124268,-15.838622,62.156673,8.575439,0.9742441384129545
0 days 00:01:06.750000,0.281006,-0.929932,-0.130371,-16.50238,60.134884,9.033203,0.9801706455005679
0 days 00:01:06.760000,0.269287,-0.935791,-0.141113,-16.998291,55.961605,9.567261,0.9839375807534745
0 days 00:01:06.770000,0.24707,-0.940186,-0.150879,-17.044067,50.399776,9.925842,0.9837468028598619
0 days 00:01:06.780000,0.268311,-0.925537,-0.095459,7.606506,-32.38678,-32.264709,0.9683604451705988
0 days 00:01:06.790000,0.198242,-0.956055,-0.163574,-13.763427,32.562256,9.613037,0.9899987409411185
0 days 00:01:06.800000,0.160645,-0.963135,-0.167236,-10.986327,19.485474,8.209229,0.9906582276173755
0 days 00:01:06.810000,0.137207,-0.96875,-0.177734,-7.736206,5.714416,6.408691,0.9944303384878199
0 days 00:01:06.820000,0.125,-0.969238,-0.192383,-5.218505,-7.453918,4.371643,0.9960213448179713
0 days 00:01:06.830000,0.226318,-0.947021,-0.159668,-16.143799,42.823788,10.246276,0.9866926987613722
0 days 00:01:06.840000,0.095215,-0.977539,-0.217773,0.061035,-36.170959,0.656128,1.0060186242187568
0 days 00:01:06.850000,0.128906,-0.971191,-0.236084,2.151489,-45.486446,-1.716614,1.0077521373696015
0 days 00:01:06.860000,0.125244,-0.976074,-0.239258,3.288269,-52.688595,-3.883362,1.0127442439115613
0 days 00:01:06.870000,0.102051,-0.986328,-0.225098,7.217407,-68.077087,-6.523132,1.0168217345183963
0 days 00:01:06.880000,0.130859,-0.975342,-0.222656,10.581969,-81.30645,-10.108947,1.0089557914898948
0 days 00:01:06.890000,0.166748,-0.966064,-0.217773,13.145446,-85.403435,-13.008117,1.0042458001550219
0 days 00:01:06.900000,0.2146,-0.951904,-0.215088,11.337279,-81.573479,-15.007018,0.9992183109611232
0 days 00:01:06.910000,0.236816,-0.970215,-0.196533,12.771605,-71.662903,-21.789549,1.0178527320639268
0 days 00:01:06.920000,0.261719,-0.957764,-0.160889,17.372131,-62.431332,-26.985167,1.0058299980503664
0 days 00:01:06.930000,0.262939,-0.917236,-0.150391,11.856078,-52.024837,-28.312681,0.9659587208043624
0 days 00:01:06.940000,0.104492,-0.976074,-0.206299,-3.15094,-21.469114,2.578735,1.003094366917191
0 days 00:01:06.950000,0.343018,-0.911865,-0.12085,0.274658,-2.838135,1.174927,0.9817147493284392
0 days 00:01:06.960000,0.342285,-0.914307,-0.118652,0.640869,-3.120422,0.762939,0.9834605272088962
0 days 00:01:06.970000,0.341064,-0.910645,-0.124512,0.183105,-3.120422,0.366211,0.9803582030385628
0 days 00:01:06.980000,0.339111,-0.916016,-0.122559,0.114441,-2.723694,0.152588,0.9844299320205578
0 days 00:01:06.990000,0.346436,-0.923096,-0.133301,-0.282288,-1.327515,-0.869751,0.9949338088099128
0 days 00:01:07,0.343018,-0.924072,-0.121338,0.030518,-1.983642,-0.396728,0.9931230134036769
0 days 00:01:07.010000,0.344238,-0.922119,-0.125732,0.106812,-2.059937,-0.541687,0.992276063718661
0 days 00:01:07.020000,0.34375,-0.914551,-0.130615,-0.526428,-1.548767,-0.778198,0.9857118607006816
0 days 00:01:07.030000,0.342041,-0.922607,-0.122559,0.312805,-2.197266,-0.144958,0.9915727056605582
0 days 00:01:07.040000,0.341064,-0.913574,-0.12207,0.335693,-2.670288,1.464844,0.9827732141608256
0 days 00:01:07.050000,0.35791,-0.918945,-0.132568,-2.807617,-2.838135,1.731872,0.9950546496293557
0 days 00:01:07.060000,0.336914,-0.915039,-0.120117,0.549316,-3.860473,1.647949,0.9824639986309931
0 days 00:01:07.070000,0.3396,-0.92334,-0.118164,0.602722,-4.760742,1.76239,0.9908822566258819
0 days 00:01:07.080000,0.3396,-0.919434,-0.118652,-0.175476,-5.363464,1.708984,0.9873020497598493
0 days 00:01:07.090000,0.336914,-0.914795,-0.120605,-0.663757,-6.16455,1.518249,0.9822965445556653
0 days 00:01:07.100000,0.340332,-0.911865,-0.123291,-0.907898,-6.843566,1.495361,0.9810832376154431
0 days 00:01:07.110000,0.341064,-0.912842,-0.124512,-1.419067,-6.858825,1.365662,0.9823993114838793
0 days 00:01:07.120000,0.34375,-0.917725,-0.126221,-1.678467,-6.347656,1.525879,0.9880865240281339
0 days 00:01:07.130000,0.349609,-0.910156,-0.127197,-2.616882,-5.523681,1.396179,0.9832545316580036
0 days 00:01:07.140000,0.353271,-0.912109,-0.131104,-2.586365,-4.837036,1.441955,0.9868796715598107
0 days 00:01:07.150000,0.355957,-0.919189,-0.131104,-2.433777,-3.852844,1.63269,0.9943852685885889
0 days 00:01:07.160000,0.342773,-0.918701,-0.137451,-0.37384,-1.358032,-1.091003,0.9901503089586954
0 days 00:01:07.170000,0.338379,-0.914063,-0.119385,0.549316,-3.242492,1.602173,0.9819695992417484
0 days 00:01:07.180000,0.3396,-0.9104,-0.137451,-0.854492,-1.12915,-1.411438,0.9813506495646701
0 days 00:01:07.190000,0.336914,-0.913574,-0.120117,0.534058,-3.845215,-2.365112,0.9810996843139845
0 days 00:01:07.200000,0.341064,-0.91626,-0.128906,-1.029968,-0.62561,-1.976013,0.9861408603906441
0 days 00:01:07.210000,0.36084,-0.919922,-0.136475,-2.632141,-2.204895,1.663208,0.9975406845382297
0 days 00:01:07.220000,0.341064,-0.915283,-0.128418,0.640869,-1.182556,-1.754761,0.9851694295444818
0 days 00:01:07.230000,0.340332,-0.912842,-0.132813,0.534058,-1.251221,-1.838684,0.9832322615521727
0 days 00:01:07.240000,0.340088,-0.914307,-0.13208,0.640869,-1.449585,-1.853943,0.9844096019406758
0 days 00:01:07.250000,0.336426,-0.913574,-0.132324,0.640869,-1.800537,-1.88446,0.9825016783334266
0 days 00:01:07.260000,0.333496,-0.915283,-0.133057,0.770569,-2.26593,-1.945495,0.9831921060270978
0 days 00:01:07.270000,0.333984,-0.913574,-0.133789,0.839233,-2.593994,-1.998901,0.9818667232639061
0 days 00:01:07.280000,0.336182,-0.912109,-0.132324,0.984192,-2.761841,-1.976013,0.9810559647548146
0 days 00:01:07.290000,0.335449,-0.911133,-0.132568,0.938415,-2.845764,-1.998901,0.9799304311602941
0 days 00:01:07.300000,0.335693,-0.917236,-0.129639,1.106262,-2.89917,-2.105713,0.9853009389349023
0 days 00:01:07.310000,0.342285,-0.9104,-0.134033,-0.923157,-0.709534,-1.716614,0.9818105857618362
0 days 00:01:07.320000,0.337646,-0.919922,-0.122803,1.235962,-2.990722,-2.182007,0.9875939875318197
0 days 00:01:07.330000,0.333984,-0.915771,-0.118652,0.907898,-3.753662,-2.212524,0.9819674810303038
0 days 00:01:07.340000,0.338135,-0.913574,-0.124512,0.244141,-3.677368,-2.288818,0.9820671921233293
0 days 00:01:07.350000,0.338867,-0.90918,-0.12793,-0.282288,-3.318786,-2.433777,0.9786752275341396
0 days 00:01:07.360000,0.34375,-0.907715,-0.125732,-0.328064,-2.708435,-2.26593,0.9787334261937722
0 days 00:01:07.370000,0.348145,-0.915039,-0.128174,-0.465393,-1.541138,-2.189636,0.987385379080529
0 days 00:01:07.380000,0.346191,-0.911621,-0.133057,-0.892639,-0.534058,-2.052307,0.9841774338862886
0 days 00:01:07.390000,0.341309,-0.913086,-0.133545,-0.694275,-0.320435,-1.861572,0.9838964091315711
0 days 00:01:07.400000,0.338379,-0.913574,-0.131104,-0.846863,-0.320435,-1.777649,0.9830086774454232
0 days 00:01:07.410000,0.335938,-0.910645,-0.129395,-1.434326,-0.740051,-1.914978,0.9792199558291284
0 days 00:01:07.420000,0.338379,-0.913086,-0.12793,-1.441955,-0.686645,-2.044678,0.982136689029078
0 days 00:01:07.430000,0.334229,-0.911377,-0.122559,0.938415,-3.349304,-2.197266,0.978436389884902
0 days 00:01:07.440000,0.36377,-0.920166,-0.140625,-2.540588,-1.617432,1.655578,0.9994045582650701
0 days 00:01:07.450000,0.365234,-0.916992,-0.137207,-2.563476,-1.00708,1.602173,0.9965420029627452
0 days 00:01:07.460000,0.367676,-0.915527,-0.134521,-2.471924,-0.442505,1.51062,0.9957264825975053
0 days 00:01:07.470000,0.329102,-0.927246,-0.12915,-9.429932,26.863096,-3.692627,0.9923572912111848
0 days 00:01:07.480000,0.326172,-0.929688,-0.130615,-9.315491,26.741026,-4.348755,0.9938652972878165
0 days 00:01:07.490000,0.322998,-0.929199,-0.134033,-9.185791,26.290892,-4.806519,0.9928259337336027
0 days 00:01:07.500000,0.317383,-0.925781,-0.129639,-9.246826,25.55847,-5.317688,0.9872227200439625
0 days 00:01:07.510000,0.313721,-0.92334,-0.130859,-9.155273,24.391172,-5.592346,0.9839215920600585
0 days 00:01:07.520000,0.311035,-0.920654,-0.134277,-8.827209,23.16284,-5.638122,0.9810080895028338
0 days 00:01:07.530000,0.309814,-0.920898,-0.137207,-8.300781,21.743773,-5.516052,0.9812561346809506
0 days 00:01:07.540000,0.311768,-0.924316,-0.138184,-7.736206,20.599363,-5.28717,0.9852178294854392
0 days 00:01:07.550000,0.313232,-0.926514,-0.134277,-7.041931,19.859314,-5.0354,0.987204533391637
0 days 00:01:07.560000,0.314697,-0.930664,-0.136963,-6.317138,19.592285,-5.012512,0.9919317245022462
0 days 00:01:07.570000,0.330078,-0.927002,-0.127441,-9.620667,27.32086,-3.051758,0.9922325345245437
0 days 00:01:07.580000,0.314209,-0.936768,-0.13501,-5.683898,19.668579,-4.905701,0.9972408343048333
0 days 00:01:07.590000,0.318604,-0.947754,-0.130127,-4.386902,21.217344,-5.279541,1.0083051073266465
0 days 00:01:07.600000,0.31543,-0.948975,-0.131104,-3.77655,21.667479,-5.302429,1.0085821207720271
0 days 00:01:07.610000,0.313232,-0.946777,-0.128662,-3.356933,21.873472,-5.432128,1.0055122494514923
0 days 00:01:07.620000,0.309326,-0.937744,-0.13208,-3.135681,21.980284,-5.41687,0.9962386813469952
0 days 00:01:07.630000,0.311279,-0.933105,-0.137207,-2.89154,22.018431,-4.943848,0.9931793985554674
0 days 00:01:07.640000,0.308838,-0.930176,-0.140869,-2.670288,22.117613,-4.470825,0.9901779518758231
0 days 00:01:07.650000,0.310059,-0.927734,-0.141602,-2.39563,22.415159,-4.005432,0.9883714305062645
0 days 00:01:07.660000,0.3125,-0.933105,-0.145264,-2.159119,22.926329,-3.77655,0.9947074045773461
0 days 00:01:07.670000,0.311523,-0.935547,-0.143799,-1.487732,23.735044,-3.692627,0.9964802663068647
0 days 00:01:07.680000,0.311768,-0.9375,-0.149414,-0.862122,24.406431,-3.677368,0.9992147312865238
0 days 00:01:07.690000,0.316406,-0.942627,-0.132568,-4.951477,20.370481,-5.142211,1.0031115055610718
0 days 00:01:07.700000,0.335449,-0.922119,-0.128418,-9.811401,28.144835,-2.349854,0.9896063179295087
0 days 00:01:07.710000,0.307861,-0.939209,-0.152344,-0.221252,24.597166,-3.639221,1.0000503164031298
0 days 00:01:07.720000,0.342529,-0.915771,-0.127686,-10.238647,29.777525,-1.13678,0.9860356762703872
0 days 00:01:07.730000,0.369385,-0.91626,-0.134766,-2.204895,-0.007629,1.472473,0.9970654645413208
0 days 00:01:07.740000,0.37085,-0.915527,-0.133789,-2.059937,0.25177,1.594543,0.9968043472768364
0 days 00:01:07.750000,0.373535,-0.910156,-0.131592,-2.227783,0.816345,1.579285,0.9925869206396989
0 days 00:01:07.760000,0.375244,-0.905762,-0.130127,-2.151489,1.708984,1.686096,0.9890125865270876
0 days 00:01:07.770000,0.37915,-0.90332,-0.128418,-2.319336,3.14331,1.838684,0.9880450028333729
0 days 00:01:07.780000,0.380859,-0.897705,-0.127441,-2.624511,4.768372,1.976013,0.983447534638732
0 days 00:01:07.790000,0.3396,-0.916504,-0.129639,-10.086059,28.923033,-1.785278,0.9859584232293976
0 days 00:01:07.800000,0.38623,-0.897705,-0.119629,-3.166198,8.590698,2.388,0.9845602965618713
0 days 00:01:07.810000,0.384766,-0.898438,-0.12085,-3.845215,11.116027,2.5177,0.9848047710587109
0 days 00:01:07.820000,0.381592,-0.892822,-0.120117,-4.615784,12.878417,2.632141,0.978351507300418
0 days 00:01:07.830000,0.379883,-0.892822,-0.114502,-5.279541,14.48059,2.464294,0.9770122442308489
0 days 00:01:07.840000,0.383789,-0.896973,-0.124268,-2.89917,6.29425,2.204895,0.9835126308665284
0 days 00:01:07.850000,0.374756,-0.897705,-0.112061,-6.690979,18.157959,1.953125,0.979221116133634
0 days 00:01:07.860000,0.376709,-0.894531,-0.11499,-7.690429,20.614622,1.670837,0.9774037450010103
0 days 00:01:07.870000,0.374756,-0.893311,-0.119141,-8.613586,23.895262,1.167297,0.976033390892955
0 days 00:01:07.880000,0.372803,-0.893555,-0.122314,-9.490967,26.992796,0.907898,0.9759012908230011
0 days 00:01:07.890000,0.366699,-0.896729,-0.125,-10.009766,29.426573,0.846863,0.9768398313142231
0 days 00:01:07.900000,0.366455,-0.898926,-0.130127,-10.467528,31.066893,0.526428,0.9794336407485705
0 days 00:01:07.910000,0.358154,-0.904297,-0.130371,-10.353087,31.745909,0.305176,0.9813378366118367
0 days 00:01:07.920000,0.355225,-0.908203,-0.13208,-10.56671,32.058716,0.076294,0.9841049823235324
0 days 00:01:07.930000,0.349854,-0.908936,-0.131592,-10.581969,31.883238,-0.259399,0.9827913959106479
0 days 00:01:07.940000,0.347656,-0.91333,-0.130615,-10.482787,30.815123,-0.63324,0.9859496242004456
0 days 00:01:07.950000,0.377197,-0.897217,-0.111084,-6.187438,16.426086,2.243042,0.9795997024060389
0 days 00:01:07.960000,0.323975,-0.918701,-0.131104,0.213623,-1.678467,0.87738,0.9829341721814334
0 days 00:01:07.970000,0.322021,-0.917725,-0.131348,-0.099182,-0.88501,0.854492,0.981411736820994
0 days 00:01:07.980000,0.324707,-0.917969,-0.132813,-0.221252,0.091553,0.991821,0.9827212289245614
0 days 00:01:07.990000,0.328857,-0.920166,-0.13501,-0.541687,1.029968,1.052856,0.9864482217050219
0 days 00:01:08,0.328369,-0.918457,-0.140381,-1.922607,4.867554,0.991821,0.9854421779947314
0 days 00:01:08.010000,0.328857,-0.918945,-0.139404,-1.068115,2.433777,1.205444,0.985921048913147
0 days 00:01:08.020000,0.327148,-0.918945,-0.140381,-1.411438,3.181457,1.159668,0.9854910208063795
0 days 00:01:08.030000,0.324951,-0.917725,-0.140869,-1.686096,3.982544,1.045227,0.9836952796404992
0 days 00:01:08.040000,0.327881,-0.919678,-0.138428,-0.900268,1.792908,1.098633,0.986141919314355
0 days 00:01:08.050000,0.323242,-0.915527,-0.129883,0.320435,-2.372742,0.938415,0.9795635109486265
0 days 00:01:08.060000,0.33252,-0.916504,-0.131348,2.822876,-9.178162,0.823975,0.9837689919488213
0 days 00:01:08.070000,0.328857,-0.917236,-0.134277,0.762939,-3.303528,0.869751,0.9836153307436806
0 days 00:01:08.080000,0.329102,-0.913086,-0.133789,0.75531,-3.715515,0.892639,0.9797620457646846
0 days 00:01:08.090000,0.326172,-0.918213,-0.135254,1.052856,-4.264832,1.113892,0.9837667058144426
0 days 00:01:08.100000,0.327393,-0.916992,-0.134277,1.052856,-4.928589,1.037598,0.9828991897656647
0 days 00:01:08.110000,0.328613,-0.916992,-0.13501,1.243591,-5.813598,0.938415,0.9834065954288694
0 days 00:01:08.120000,0.327148,-0.921631,-0.132324,1.602173,-6.652832,0.938415,0.9868835569817749
0 days 00:01:08.130000,0.332031,-0.922607,-0.131592,1.968384,-7.255554,0.823975,0.9893253842260391
0 days 00:01:08.140000,0.330078,-0.91626,-0.131348,1.983642,-7.6828,0.717163,0.9827187648498424
0 days 00:01:08.150000,0.330566,-0.919189,-0.133057,2.326965,-8.323669,0.88501,0.9858430216449271
0 days 00:01:08.160000,0.331543,-0.916748,-0.131592,2.601623,-8.781433,0.785828,0.9836991973245683
0 days 00:01:08.170000,0.333008,-0.917969,-0.140869,-2.13623,5.722045,0.923157,0.986613140083792
0 days 00:01:08.180000,0.324463,-0.913086,-0.131836,0.465393,-2.983093,0.900268,0.9779483691182269
0 days 00:01:08.190000,0.338379,-0.918945,-0.138672,-2.426147,6.309509,1.052856,0.989034976252104
0 days 00:01:08.200000,0.362061,-0.903564,-0.143799,-0.724792,4.264832,0.587463,0.9839686083498802
0 days 00:01:08.210000,0.337891,-0.914307,-0.140381,-2.616882,6.736755,0.930786,0.984801727908212
0 days 00:01:08.220000,0.33374,-0.915771,-0.133789,2.89917,-9.590149,0.740051,0.9838284446802704
0 days 00:01:08.230000,0.335938,-0.914551,-0.134277,0.427246,-3.356933,-0.183105,0.9835081007160033
0 days 00:01:08.240000,0.338623,-0.914551,-0.136475,0.518799,-3.921509,-0.038147,0.9847306704652801
0 days 00:01:08.250000,0.34082,-0.91626,-0.135742,0.717163,-4.440308,0.015259,0.9869734295126693
0 days 00:01:08.260000,0.3396,-0.915283,-0.13916,0.900268,-4.966736,0.076294,0.9861220186614839
0 days 00:01:08.270000,0.340332,-0.912842,-0.141357,1.060486,-5.332946,0.175476,0.9844227692597323
0 days 00:01:08.280000,0.348389,-0.910889,-0.138672,0.953674,-5.180358,0.198364,0.9850500440211146
0 days 00:01:08.290000,0.35083,-0.911133,-0.140381,0.808716,-4.821777,0.328064,0.9863832205334799
0 days 00:01:08.300000,0.351318,-0.909912,-0.141846,0.686645,-4.104614,0.37384,0.9856391188381274
0 days 00:01:08.310000,0.353516,-0.910645,-0.141357,0.511169,-3.059387,0.404358,0.9870307389995511
0 days 00:01:08.320000,0.337158,-0.917725,-0.140137,-2.586365,6.652832,1.029968,0.9876907771959805
0 days 00:01:08.330000,0.355713,-0.908447,-0.142578,0.190735,-1.800537,0.297546,0.985969662952162
0 days 00:01:08.340000,0.363525,-0.905273,-0.141357,-0.335693,2.449036,0.404358,0.98572381101554
0 days 00:01:08.350000,0.35498,-0.914795,-0.139648,-0.526428,5.371093,0.732422,0.9911418951537666
0 days 00:01:08.360000,0.345947,-0.914795,-0.136963,-1.289368,6.309509,0.450134,0.9875667482266705
0 days 00:01:08.370000,0.346191,-0.910889,-0.138428,-1.747131,6.828308,0.25177,0.984240463497615
0 days 00:01:08.380000,0.347656,-0.907471,-0.138672,-1.907349,7.17926,0.343323,0.9816303956994201
0 days 00:01:08.390000,0.34668,-0.909912,-0.134766,-2.128601,7.583618,0.511169,0.982999870244142
0 days 00:01:08.400000,0.340332,-0.909668,-0.13501,-2.426147,7.453918,0.63324,0.9805862738933275
0 days 00:01:08.410000,0.337402,-0.90918,-0.138916,-2.449036,6.91986,0.63324,0.9796662886207731
0 days 00:01:08.420000,0.339355,-0.913574,-0.140381,-2.357483,6.721496,0.793457,0.9846248497077453
0 days 00:01:08.430000,0.339844,-0.914551,-0.140869,-2.548218,6.660461,0.930786,0.9857695223012324
0 days 00:01:08.440000,0.361084,-0.907227,-0.141357,0.091553,0.190735,0.335693,0.9866226664910958
0 days 00:01:08.450000,0.336182,-0.918945,-0.133301,2.838135,-9.910583,0.50354,0.9875461542378665
0 days 00:01:08.460000,0.338379,-0.922119,-0.129883,2.998352,-10.177611,0.221252,0.9907943235056407
0 days 00:01:08.470000,0.337891,-0.924072,-0.127197,2.998352,-10.246276,0.053406,0.9920980122316545
0 days 00:01:08.480000,0.341064,-0.912842,-0.131592,0.854492,-1.686096,-1.51062,0.9833217294070136
0 days 00:01:08.490000,0.339355,-0.910645,-0.133789,0.907898,-1.747131,-1.731872,0.9809870685034539
0 days 00:01:08.500000,0.341553,-0.910645,-0.13501,0.854492,-1.88446,-1.838684,0.9819167316702573
0 days 00:01:08.510000,0.340332,-0.91333,-0.136963,0.87738,-2.006531,-1.838684,0.9842542468757755
0 days 00:01:08.520000,0.342773,-0.912109,-0.134277,0.869751,-2.090454,-1.853943,0.983598734311406
0 days 00:01:08.530000,0.344727,-0.916016,-0.133057,1.029968,-2.212524,-1.785278,0.9877379116111723
0 days 00:01:08.540000,0.34668,-0.917725,-0.134033,1.182556,-2.288818,-1.747131,0.9901368809987839
0 days 00:01:08.550000,0.346436,-0.917969,-0.134766,1.12915,-2.037048,-1.594543,0.9903771311036014
0 days 00:01:08.560000,0.346436,-0.920166,-0.133057,1.091003,-1.663208,-1.625061,0.9921832163975564
0 days 00:01:08.570000,0.351807,-0.922363,-0.127441,1.052856,-0.640869,-1.564026,0.9953707236497364
0 days 00:01:08.580000,0.343994,-0.912842,-0.126953,0.808716,-1.602173,-1.434326,0.9837324093517505
0 days 00:01:08.590000,0.347656,-0.92041,-0.127197,1.045227,-0.358582,-1.739502,0.9920677090022636
0 days 00:01:08.600000,0.343262,-0.914551,-0.128174,0.991821,-0.335693,-1.823425,0.9852212474977384
0 days 00:01:08.610000,0.343994,-0.910645,-0.127197,0.923157,-0.328064,-1.869202,0.9817256566220525
0 days 00:01:08.620000,0.340576,-0.909424,-0.129639,0.839233,-0.549316,-1.998901,0.9797194975466192
0 days 00:01:08.630000,0.339355,-0.909668,-0.128418,0.831604,-0.778198,-2.059937,0.9793614598160375
0 days 00:01:08.640000,0.338867,-0.9104,-0.128418,0.747681,-0.991821,-2.075195,0.979872535798917
0 days 00:01:08.650000,0.3396,-0.90918,-0.126465,0.778198,-1.235962,-2.006531,0.978738897063461
0 days 00:01:08.660000,0.341553,-0.912598,-0.130859,0.709534,-1.235962,-1.89209,0.9831671471799697
0 days 00:01:08.670000,0.341553,-0.914795,-0.130371,0.724792,-1.243591,-1.747131,0.9851420920227701
0 days 00:01:08.680000,0.342285,-0.913086,-0.128906,0.671387,-1.319885,-1.89209,0.9836167045434923
0 days 00:01:08.690000,0.341553,-0.916748,-0.127686,0.762939,-1.411438,-1.815796,0.9866048154702064
0 days 00:01:08.700000,0.34375,-0.91748,-0.129883,1.014709,-0.343323,-1.88446,0.9883335502698468
0 days 00:01:08.710000,0.343994,-0.911133,-0.126709,0.75531,-1.708984,-1.411438,0.9821152612631574
0 days 00:01:08.720000,0.350342,-0.919678,-0.130371,1.060486,-1.190186,-1.525879,0.992745555663182
0 days 00:01:08.730000,0.342773,-0.911377,-0.124268,1.060486,-2.113342,-1.235962,0.981602720800019
0 days 00:01:08.740000,0.343018,-0.91333,-0.125244,0.923157,-1.930237,-1.197815,0.9836254860260586
0 days 00:01:08.750000,0.338379,-0.918213,-0.132324,2.998352,-10.848998,-0.297546,0.9874842287277301
0 days 00:01:08.760000,0.345459,-0.918457,-0.134033,3.257751,-10.520934,-0.152588,0.9903888259764444
0 days 00:01:08.770000,0.3479,-0.915527,-0.134277,3.112793,-9.757996,-0.137329,0.9885617888923282
0 days 00:01:08.780000,0.349121,-0.915283,-0.133301,3.158569,-8.956909,0.076294,0.988634209063696
0 days 00:01:08.790000,0.352539,-0.912842,-0.135254,3.059387,-8.079529,0.213623,0.9878552059897241
0 days 00:01:08.800000,0.352783,-0.912354,-0.136719,2.960205,-7.240295,0.427246,0.9876931463597386
0 days 00:01:08.810000,0.354004,-0.916992,-0.132813,3.044128,-6.431579,0.511169,0.9918832860014328
0 days 00:01:08.820000,0.353027,-0.913086,-0.131348,2.777099,-5.737304,0.465393,0.9877278993877817
0 days 00:01:08.830000,0.351318,-0.913086,-0.129883,2.632141,-5.592346,0.396728,0.986924502790867
0 days 00:01:08.840000,0.351318,-0.918457,-0.13208,2.807617,-5.187988,0.343323,0.9921858315723925
0 days 00:01:08.850000,0.337158,-0.923096,-0.129395,3.005981,-10.665893,-0.1297,0.9912238940849842
0 days 00:01:08.860000,0.349609,-0.913086,-0.135742,2.052307,-3.410339,-0.404358,0.987106066662038
0 days 00:01:08.870000,0.351563,-0.91748,-0.135498,2.250671,-4.173279,-0.114441,0.9918295223338535
0 days 00:01:08.880000,0.344482,-0.91748,-0.122314,1.342773,-2.227783,-1.12915,0.9876224548480051
0 days 00:01:08.890000,0.344482,-0.920654,-0.126709,1.312256,-2.334595,-1.182556,0.9911240117770329
0 days 00:01:08.900000,0.34375,-0.918945,-0.126709,1.243591,-2.342224,-1.266479,0.9892821368072913
0 days 00:01:08.910000,0.342041,-0.919434,-0.124268,1.350403,-2.204895,-1.213074,0.988834395569349
0 days 00:01:08.920000,0.345215,-0.910645,-0.121826,1.174927,-2.098083,-1.197815,0.9814730187458033
0 days 00:01:08.930000,0.343506,-0.915283,-0.130127,1.441955,-2.044678,-1.045227,0.9862415415373659
0 days 00:01:08.940000,0.345459,-0.916016,-0.129395,1.586914,-2.166748,-0.854492,0.9875071133728608
0 days 00:01:08.950000,0.3479,-0.914551,-0.130859,1.792908,-2.761841,-0.602722,0.9871990779381837
0 days 00:01:08.960000,0.342773,-0.916504,-0.127197,1.411438,-2.166748,-1.091003,0.9867380545788229
0 days 00:01:08.970000,0.337158,-0.908936,-0.108398,4.585266,5.867004,0.320435,0.9754948977129506
0 days 00:01:08.980000,0.355713,-0.904541,-0.108643,7.690429,-0.579834,3.013611,0.9780232412877519
0 days 00:01:08.990000,0.352783,-0.906494,-0.10498,7.858276,0.419617,2.89917,0.9783700820880614
0 days 00:01:09,0.351074,-0.904785,-0.104004,7.545471,0.915527,2.815246,0.9760664330449029
0 days 00:01:09.010000,0.345703,-0.902344,-0.101074,7.125854,1.350403,2.5177,0.9715715166785203
0 days 00:01:09.020000,0.342773,-0.9021,-0.100098,6.782531,1.876831,2.250671,0.9702047975211212
0 days 00:01:09.030000,0.341797,-0.905029,-0.101318,6.195068,2.655029,1.968384,0.9727116824496351
0 days 00:01:09.040000,0.357666,-0.907959,-0.111572,8.44574,-1.823425,2.815246,0.9822234086097724
0 days 00:01:09.050000,0.342041,-0.90918,-0.107422,5.767822,3.65448,1.472473,0.9773125417004531
0 days 00:01:09.060000,0.342041,-0.912109,-0.109375,5.310058,4.798889,0.968933,0.9802539284221206
0 days 00:01:09.070000,0.334473,-0.908691,-0.10791,3.982544,6.713867,-0.106812,0.9742874777548975
0 days 00:01:09.080000,0.318359,-0.918701,-0.121094,1.731872,5.111694,-0.75531,0.9798100515497888
0 days 00:01:09.090000,0.321045,-0.905762,-0.109863,2.487183,7.324218,-0.495911,0.9672355304877918
0 days 00:01:09.100000,0.317139,-0.903564,-0.116455,1.907349,6.790161,-0.663757,0.9646589109327711
0 days 00:01:09.110000,0.315918,-0.911621,-0.120361,1.716614,6.019592,-0.717163,0.9722879206726781
0 days 00:01:09.120000,0.317139,-0.923828,-0.123291,2.128601,4.371643,-0.938415,0.984497836252574
0 days 00:01:09.130000,0.314697,-0.922119,-0.125488,2.281189,3.433227,-1.213074,0.9823873421996031
0 days 00:01:09.140000,0.311768,-0.922119,-0.122803,2.586365,2.418518,-1.419067,0.9811133027301179
0 days 00:01:09.150000,0.308838,-0.921387,-0.123535,2.784729,1.281738,-1.663208,0.9795896131738024
0 days 00:01:09.160000,0.308105,-0.924072,-0.124756,3.097534,-0.114441,-1.838684,0.982039618215579
0 days 00:01:09.170000,0.307617,-0.92334,-0.124512,3.364563,-1.312256,-1.960754,0.9811667607664867
0 days 00:01:09.180000,0.354736,-0.908691,-0.109863,8.720398,-2.708435,2.616882,0.9816449673614183
0 days 00:01:09.190000,0.328369,-0.907471,-0.107422,3.311157,7.362365,-0.320435,0.9710145735703456
0 days 00:01:09.200000,0.353027,-0.905762,-0.108398,8.476257,-2.830505,2.441406,0.9781528458155196
0 days 00:01:09.210000,0.341309,-0.939209,-0.08374,14.167785,-22.186277,0.671387,1.0028049495101228
0 days 00:01:09.220000,0.355225,-0.903809,-0.102051,8.880615,-2.288818,1.754761,0.9764578412338139
0 days 00:01:09.230000,0.307373,-0.925049,-0.123047,3.326416,-2.540588,-2.044678,0.9825143142667184
0 days 00:01:09.240000,0.346436,-0.923584,-0.088623,13.565063,-21.934507,0.915527,0.9903935295027931
0 days 00:01:09.250000,0.348877,-0.927979,-0.092773,14.22119,-20.988462,0.808716,0.9957243670308566
0 days 00:01:09.260000,0.347412,-0.944092,-0.096191,15.388488,-19.699097,0.679016,1.0105728626323784
0 days 00:01:09.270000,0.349365,-0.936279,-0.096924,14.930724,-18.692017,0.511169,1.0040261604370675
0 days 00:01:09.280000,0.349365,-0.926514,-0.096436,14.205932,-17.799377,0.442505,0.994878885853449
0 days 00:01:09.290000,0.341797,-0.922119,-0.096924,14.038085,-17.372131,0.244141,0.9881917329880877
0 days 00:01:09.300000,0.342285,-0.925049,-0.099609,14.457702,-17.837524,0.37384,0.9913609970676676
0 days 00:01:09.310000,0.345703,-0.914795,-0.101318,14.129638,-18.379211,0.549316,0.9831712940062887
0 days 00:01:09.320000,0.347412,-0.91748,-0.10791,14.717101,-17.608643,0.228882,0.9869697139446579
0 days 00:01:09.330000,0.349609,-0.92041,-0.108643,14.671325,-16.540527,0.015259,0.9905474862064917
0 days 00:01:09.340000,0.35376,-0.917969,-0.107178,14.236449,-14.526366,-0.411987,0.9895960520560902
0 days 00:01:09.350000,0.355957,-0.922363,-0.10498,13.923644,-12.786864,-0.740051,0.9942231590633966
0 days 00:01:09.360000,0.353271,-0.919678,-0.104492,12.985229,-11.878966,-1.022339,0.9907202436555942
0 days 00:01:09.370000,0.358154,-0.913574,-0.101807,12.031554,-10.879516,-1.045227,0.9865375849104787
0 days 00:01:09.380000,0.357178,-0.910156,-0.100342,11.192321,-9.712219,-0.923157,0.9828675317579679
0 days 00:01:09.390000,0.358887,-0.907715,-0.103271,9.803772,-8.705139,-0.801086,0.9815351748332813
0 days 00:01:09.400000,0.361084,-0.912842,-0.102051,9.635925,-7.690429,-0.267029,0.9869531795485539
0 days 00:01:09.410000,0.36084,-0.912109,-0.107178,9.269714,-6.706237,0.114441,0.9867296778576187
0 days 00:01:09.420000,0.364502,-0.914551,-0.106689,9.45282,-5.203247,0.457764,0.9902766190948871
0 days 00:01:09.430000,0.36499,-0.91626,-0.106445,9.086609,-3.90625,0.717163,0.9920083798663194
0 days 00:01:09.440000,0.362549,-0.912598,-0.104736,8.903503,-2.815246,0.87738,0.9875457036011043
0 days 00:01:09.450000,0.358887,-0.905762,-0.102783,8.682251,-2.357483,1.152039,0.9796780208323548
0 days 00:01:09.460000,0.354004,-0.900146,-0.104248,8.399963,-2.616882,2.075195,0.9728562580546009
0 days 00:01:09.470000,0.307129,-0.92041,-0.123535,3.372192,-3.753662,-2.044678,0.9781327552873382
0 days 00:01:09.480000,0.33374,-0.912354,-0.136475,0.411987,-2.555847,-0.267029,0.9810186718615502
0 days 00:01:09.490000,0.311035,-0.922607,-0.121826,3.356933,-5.950927,-1.579285,0.9812176221155019
0 days 00:01:09.500000,0.33374,-0.915283,-0.133301,2.128601,-4.981995,-1.113892,0.9833079447914574
0 days 00:01:09.510000,0.336182,-0.912598,-0.131104,2.082825,-5.279541,-1.091003,0.9813468833924118
0 days 00:01:09.520000,0.336426,-0.912842,-0.131104,2.098083,-5.500793,-1.091003,0.9816573889377087
0 days 00:01:09.530000,0.33667,-0.914063,-0.132813,2.044678,-5.805969,-1.060486,0.9831058690893875
0 days 00:01:09.540000,0.3396,-0.912354,-0.13208,2.01416,-6.019592,-0.953674,0.9824271513532187
0 days 00:01:09.550000,0.3396,-0.912842,-0.133545,2.02179,-6.134033,-0.854492,0.9830783000295552
0 days 00:01:09.560000,0.340332,-0.915039,-0.133545,1.88446,-6.156921,-0.75531,0.9853712542843942
0 days 00:01:09.570000,0.344482,-0.915771,-0.132813,1.88446,-5.683898,-0.717163,0.9873923565300675
0 days 00:01:09.580000,0.348877,-0.915283,-0.135742,1.739502,-5.065917,-0.62561,0.9888801857565961
0 days 00:01:09.590000,0.348633,-0.915527,-0.135254,1.464844,-4.234314,-0.564575,0.9889531338410329
0 days 00:01:09.600000,0.333984,-0.919678,-0.130127,2.090454,-4.501343,-1.205444,0.9870592545885986
0 days 00:01:09.610000,0.352295,-0.914307,-0.133789,1.327515,-3.318786,-0.556946,0.9889229261145683
0 days 00:01:09.620000,0.351074,-0.911865,-0.132568,0.671387,-1.571655,-0.389099,0.9860654168588411
0 days 00:01:09.630000,0.351807,-0.91333,-0.134277,0.427246,-0.587463,-0.450134,0.9879120238553634
0 days 00:01:09.640000,0.352051,-0.911621,-0.135254,0.488281,0.396728,-0.434875,0.9865527855913235
0 days 00:01:09.650000,0.350098,-0.912354,-0.136719,0.335693,0.991821,-0.541687,0.9867373084468836
0 days 00:01:09.660000,0.345215,-0.911865,-0.135986,0.061035,1.190186,-0.541687,0.9844609523216246
0 days 00:01:09.670000,0.343262,-0.910645,-0.134521,0.053406,1.037598,-0.541687,0.9824454265301458
0 days 00:01:09.680000,0.337158,-0.911133,-0.13501,0.106812,0.640869,-0.541687,0.9808499175475318
0 days 00:01:09.690000,0.335449,-0.911133,-0.134521,0.190735,0.144958,-0.480652,0.9801965490303461
0 days 00:01:09.700000,0.334961,-0.912598,-0.134521,0.350952,-0.686645,-0.556946,0.981391807875937
0 days 00:01:09.710000,0.332764,-0.913818,-0.137695,0.465393,-1.670837,-0.404358,0.9822194916845216
0 days 00:01:09.720000,0.353271,-0.911133,-0.134521,1.029968,-2.441406,-0.511169,0.9864378554024577
0 days 00:01:09.730000,0.334717,-0.915527,-0.127441,2.006531,-3.997802,-1.220703,0.9830902126961696
0 days 00:01:09.740000,0.309814,-0.919678,-0.120605,3.364563,-4.928589,-1.861572,0.9779253060970454
0 days 00:01:09.750000,0.333496,-0.915527,-0.134277,2.182007,-3.547668,-1.327515,0.9835850662113572
0 days 00:01:09.760000,0.314209,-0.92334,-0.121338,3.295898,-6.835937,-1.457214,0.9828565315065063
0 days 00:01:09.770000,0.317383,-0.923828,-0.121826,3.479004,-7.354736,-1.358032,0.9843940859985904
0 days 00:01:09.780000,0.321533,-0.925293,-0.12085,3.639221,-7.781982,-1.159668,0.9869930741590845
0 days 00:01:09.790000,0.321045,-0.926025,-0.121094,3.768921,-8.094788,-1.159668,0.9875504794621893
0 days 00:01:09.800000,0.321533,-0.923584,-0.122803,3.700256,-8.712769,-1.144409,0.9856325136449182
0 days 00:01:09.810000,0.322021,-0.922119,-0.12207,3.959656,-9.628296,-1.091003,0.9843282275247419
0 days 00:01:09.820000,0.333984,-0.914307,-0.133057,2.029419,-3.662109,-1.251221,0.9824493715983537
0 days 00:01:09.830000,0.328369,-0.915527,-0.125732,4.219055,-10.887145,-0.938415,0.9807264775226576
0 days 00:01:09.840000,0.328613,-0.915771,-0.127197,4.356384,-11.291503,-0.724792,0.9812247984121681
0 days 00:01:09.850000,0.32959,-0.913574,-0.129639,4.440308,-11.482238,-0.679016,0.9798230921431685
0 days 00:01:09.860000,0.335449,-0.912598,-0.129639,4.371643,-11.016845,-0.602722,0.9809013260904483
0 days 00:01:09.870000,0.324951,-0.919189,-0.122803,4.180908,-10.383605,-1.014709,0.9826403955318548
0 days 00:01:09.880000,0.341553,-0.912598,-0.132813,3.974914,-9.513855,-0.25177,0.9834291303301932
0 days 00:01:09.890000,0.342285,-0.916504,-0.13623,3.90625,-8.590698,-0.25177,0.9877738689300299
0 days 00:01:09.900000,0.345215,-0.918945,-0.13501,3.700256,-7.499694,-0.389099,0.990888999510036
0 days 00:01:09.910000,0.344238,-0.923828,-0.13208,3.593445,-6.507873,-0.686645,0.9946874386600044
0 days 00:01:09.920000,0.341797,-0.924561,-0.128906,3.372192,-5.844116,-1.022339,0.9941101492118466
0 days 00:01:09.930000,0.342529,-0.921875,-0.128662,3.250122,-5.203247,-1.220703,0.9918334243762911
0 days 00:01:09.940000,0.34082,-0.91748,-0.129395,3.128052,-4.615784,-1.419067,0.9872542169193301
0 days 00:01:09.950000,0.337646,-0.91748,-0.129883,2.944946,-4.104614,-1.525879,0.9862271368224461
0 days 00:01:09.960000,0.336426,-0.914551,-0.131836,2.655029,-3.700256,-1.525879,0.9833446577741702
0 days 00:01:09.970000,0.336914,-0.914795,-0.131836,2.334595,-3.532409,-1.396179,0.9837386168678142
0 days 00:01:09.980000,0.338867,-0.911133,-0.130371,4.264832,-10.330199,-0.37384,0.980811289198386
0 days 00:01:09.990000,0.267578,-0.939697,-0.088867,-2.738952,-0.450134,0.404358,0.9810839829402985
0 days 00:01:10,0.268799,-0.935791,-0.090576,-2.708435,0.137329,0.38147,0.9778352161064768
0 days 00:01:10.010000,0.262451,-0.932617,-0.090088,-2.738952,0.572205,0.205994,0.9730215022464818
0 days 00:01:10.020000,0.258545,-0.930908,-0.091309,-2.632141,1.419067,0.427246,0.9704496663763659
0 days 00:01:10.030000,0.280029,-0.933105,-0.095215,-2.479553,8.750916,0.816345,0.9788600911728907
0 days 00:01:10.040000,0.260498,-0.93335,-0.091064,-2.449036,4.646301,0.694275,0.9732903382855499
0 days 00:01:10.050000,0.269043,-0.93335,-0.094971,-2.418518,6.324768,0.946045,0.9759845537660932
0 days 00:01:10.060000,0.274658,-0.935547,-0.096924,-2.532959,7.568359,0.740051,0.9798364495919715
0 days 00:01:10.070000,0.258789,-0.933105,-0.091553,-2.5177,2.624511,0.602722,0.972645176492949
0 days 00:01:10.080000,0.265137,-0.938477,-0.086914,-2.731323,-1.64032,0.350952,0.9790764789810855
0 days 00:01:10.090000,0.265381,-0.940674,-0.092285,0.396728,-16.807556,0.419617,0.9817388505412221
0 days 00:01:10.100000,0.267578,-0.941406,-0.084961,-2.388,-2.967834,-0.1297,0.9823754956435956
0 days 00:01:10.110000,0.26416,-0.941406,-0.084473,-2.243042,-4.455566,-0.228882,0.9814078918395756
0 days 00:01:10.120000,0.269287,-0.9375,-0.082031,-2.204895,-5.66101,-0.1297,0.9788517882345621
0 days 00:01:10.130000,0.27002,-0.943604,-0.084473,-1.678467,-6.16455,-0.343323,0.9851065916666074
0 days 00:01:10.140000,0.272217,-0.943604,-0.083984,-1.609802,-6.538391,-0.320435,0.9856692732154128
0 days 00:01:10.150000,0.271973,-0.944092,-0.081299,-1.487732,-7.308959,-0.297546,0.9858440772221538
0 days 00:01:10.160000,0.267578,-0.948242,-0.081299,-0.823975,-9.147644,-0.007629,0.9886204550023229
0 days 00:01:10.170000,0.264404,-0.945068,-0.081055,-0.62561,-11.573791,0.137329,0.9846994022873173
0 days 00:01:10.180000,0.262207,-0.944092,-0.084229,-0.434875,-14.282226,0.37384,0.983441274176552
0 days 00:01:10.190000,0.269775,-0.939209,-0.088135,-0.167847,-16.014099,0.831604,0.9811523197399066
0 days 00:01:10.200000,0.282227,-0.931885,-0.092529,-2.388,9.361267,0.816345,0.9780712390184061
0 days 00:01:10.210000,0.268799,-0.935059,-0.084961,-2.616882,-2.525329,0.37384,0.9766302306415668
0 days 00:01:10.220000,0.281982,-0.931396,-0.093262,-2.105713,9.590149,0.556946,0.9776042950928561
0 days 00:01:10.230000,0.30127,-0.941406,-0.108887,-2.227783,10.101317,-0.297546,0.9944170395286879
0 days 00:01:10.240000,0.290283,-0.936768,-0.097412,-1.625061,9.971619,0.358582,0.9855392451125424
0 days 00:01:10.250000,0.266357,-0.940674,-0.090088,0.892639,-19.073486,0.679016,0.9817991003606593
0 days 00:01:10.260000,0.32251,-0.927979,-0.118652,-0.808716,3.746032,1.113892,0.98956355108957
0 days 00:01:10.270000,0.321045,-0.925293,-0.113037,-1.13678,5.401611,1.014709,0.9859079020086005
0 days 00:01:10.280000,0.315674,-0.924072,-0.109375,-1.342773,7.041931,0.991821,0.9826098035766792
0 days 00:01:10.290000,0.311279,-0.922852,-0.105713,-1.525879,7.919311,0.75531,0.9796558927062095
0 days 00:01:10.300000,0.309082,-0.921875,-0.101074,-1.647949,8.460999,0.511169,0.9775485419277142
0 days 00:01:10.310000,0.302002,-0.924561,-0.098389,-1.739502,9.094238,0.114441,0.9775984073462886
0 days 00:01:10.320000,0.297852,-0.920898,-0.100098,-2.075195,9.58252,-0.335693,0.9730306007068842
0 days 00:01:10.330000,0.298584,-0.921143,-0.098633,-2.189636,10.459899,-0.564575,0.9733371975805712
0 days 00:01:10.340000,0.300049,-0.927002,-0.0979,-2.304077,11.001586,-0.663757,0.9792581479900997
0 days 00:01:10.350000,0.286133,-0.93457,-0.093262,-1.731872,9.757996,0.427246,0.9818304228495877
0 days 00:01:10.360000,0.294678,-0.931885,-0.097168,-2.243042,10.787963,-0.88501,0.9821845025925627
0 days 00:01:10.370000,0.299805,-0.934814,-0.102783,-2.464294,10.307311,-0.549316,0.9870788204140539
0 days 00:01:10.380000,0.305908,-0.946777,-0.11084,-2.075195,10.124206,-0.305176,1.0011253157287552
0 days 00:01:10.390000,0.312012,-0.947754,-0.112549,-1.968384,10.963439,-0.061035,1.004119718988229
0 days 00:01:10.400000,0.309082,-0.952393,-0.108398,-1.846313,11.627196,-0.022888,1.007141616445771
0 days 00:01:10.410000,0.309814,-0.950684,-0.103516,-1.88446,11.95526,0.099182,1.0052364620864087
0 days 00:01:10.420000,0.301758,-0.946289,-0.103027,-1.785278,12.008666,0.12207,0.9985666351395885
0 days 00:01:10.430000,0.29834,-0.945801,-0.104248,-1.716614,11.497497,0.1297,0.9972030549015581
0 days 00:01:10.440000,0.295898,-0.942139,-0.106445,-1.678467,10.932921,0.1297,0.9932331346416107
0 days 00:01:10.450000,0.292969,-0.939453,-0.105225,-1.586914,10.368346,0.083923,0.9896843308828326
0 days 00:01:10.460000,0.294434,-0.939941,-0.101563,-1.487732,10.131835,0.25177,0.9901997307644554
0 days 00:01:10.470000,0.293457,-0.929199,-0.096191,-2.63977,10.2005,-0.862122,0.9791733763389403
0 days 00:01:10.480000,0.273682,-0.938965,-0.091309,0.991821,-19.714355,0.740051,0.9822904060561723
0 days 00:01:10.490000,0.277588,-0.942383,-0.092041,1.358032,-19.065857,0.37384,0.986717974962451
0 days 00:01:10.500000,0.2771,-0.952637,-0.088379,1.831055,-18.516541,-0.091553,0.9960484483246786
0 days 00:01:10.510000,0.300293,-0.945068,-0.08667,8.621216,-30.609129,0.0,0.9954100157086023
0 days 00:01:10.520000,0.303467,-0.942871,-0.084961,8.987427,-30.693052,0.0,0.9941409931448355
0 days 00:01:10.530000,0.304443,-0.941162,-0.083252,9.368896,-30.807493,0.213623,0.9926743403538746
0 days 00:01:10.540000,0.308594,-0.945068,-0.082031,9.620667,-30.548094,0.38147,0.9975534403835215
0 days 00:01:10.550000,0.312012,-0.952637,-0.085449,9.841919,-29.724119,0.221252,1.0060667341255252
0 days 00:01:10.560000,0.31665,-0.957275,-0.08252,10.238647,-28.877256,-0.083923,1.011658143112089
0 days 00:01:10.570000,0.320801,-0.959717,-0.081055,10.643004,-27.885435,-0.488281,1.015155118548392
0 days 00:01:10.580000,0.324463,-0.956787,-0.080078,11.062621,-27.000425,-0.564575,1.0134742659890283
0 days 00:01:10.590000,0.322266,-0.956543,-0.079346,11.543273,-26.237486,-0.541687,1.0124849002928389
0 days 00:01:10.600000,0.323486,-0.945801,-0.080566,11.894225,-24.986265,-0.579834,1.0028327897276794
0 days 00:01:10.610000,0.299316,-0.941406,-0.086426,8.224487,-30.441282,0.007629,0.9916172538676402
0 days 00:01:10.620000,0.325439,-0.944092,-0.080566,12.023925,-24.528502,-0.549316,1.0018538453991181
0 days 00:01:10.630000,0.327881,-0.945068,-0.080322,12.252807,-24.208067,-0.556946,1.0035492506444315
0 days 00:01:10.640000,0.328857,-0.943115,-0.07959,12.649535,-24.093626,-0.389099,1.001971754978153
0 days 00:01:10.650000,0.326904,-0.940674,-0.079834,12.756347,-24.124144,-0.358582,0.9990531852949571
0 days 00:01:10.660000,0.327881,-0.941895,-0.083252,13.168334,-24.444578,-0.541687,1.000801197386374
0 days 00:01:10.670000,0.333252,-0.937988,-0.081055,13.557433,-24.635313,-0.518799,0.9987233333976933
0 days 00:01:10.680000,0.33667,-0.940186,-0.082031,13.893126,-24.085997,-0.114441,1.0020107227255604
0 days 00:01:10.690000,0.334961,-0.934814,-0.084229,13.938903,-23.78845,0.038147,0.9965794552156894
0 days 00:01:10.700000,0.335449,-0.926514,-0.085693,14.22119,-23.483274,0.152588,0.9890892346224379
0 days 00:01:10.710000,0.3396,-0.932373,-0.081787,14.884948,-23.094175,0.579834,0.9956589197601757
0 days 00:01:10.720000,0.339844,-0.940918,-0.081055,14.694213,-22.445677,0.62561,1.0036884676457134
0 days 00:01:10.730000,0.32373,-0.946045,-0.079834,12.229918,-24.29199,-0.495911,1.003083108461607
0 days 00:01:10.740000,0.296387,-0.939697,-0.081299,7.6828,-29.907225,-0.1297,0.9886785286325378
0 days 00:01:10.750000,0.322266,-0.950195,-0.077881,11.718749,-25.497435,-0.63324,1.0063753588706352
0 days 00:01:10.760000,0.297607,-0.942871,-0.078125,6.29425,-27.214048,-0.610352,0.9918060116348357
0 days 00:01:10.770000,0.296875,-0.942627,-0.077881,7.17163,-28.907774,-0.205994,0.9913354008180078
0 days 00:01:10.780000,0.279297,-0.958008,-0.080566,2.578735,-18.661499,-0.923157,1.0011378639473187
0 days 00:01:10.790000,0.282471,-0.955078,-0.077393,2.555847,-18.310547,-1.480102,0.9989762401448795
0 days 00:01:10.800000,0.273926,-0.955078,-0.074951,2.571106,-18.829346,-2.059937,0.9964070914847004
0 days 00:01:10.810000,0.278076,-0.953857,-0.075684,2.830505,-20.019531,-1.853943,0.9964424248700975
0 days 00:01:10.820000,0.286377,-0.953613,-0.078613,2.548218,-18.684387,-1.998901,0.9987840325450743
0 days 00:01:10.830000,0.280518,-0.958252,-0.077637,2.296448,-17.341614,-2.487183,1.001481276708157
0 days 00:01:10.840000,0.278564,-0.959961,-0.076172,2.456665,-18.241882,-2.868652,1.0024595738487412
0 days 00:01:10.850000,0.27417,-0.959717,-0.075928,2.746582,-20.1416,-3.211975,1.0009949900838666
0 days 00:01:10.860000,0.268799,-0.95459,-0.074951,3.27301,-22.544859,-2.89154,0.994541413366985
0 days 00:01:10.870000,0.277832,-0.952148,-0.074707,3.700256,-23.483274,-2.555847,0.9946645514830615
0 days 00:01:10.880000,0.275635,-0.955566,-0.085449,2.044678,-18.600464,-0.778198,0.9981896438963891
0 days 00:01:10.890000,0.277588,-0.95459,-0.073242,3.990173,-25.489805,-2.708435,0.9968257402414927
0 days 00:01:10.900000,0.281006,-0.951416,-0.073975,3.700256,-23.880003,-2.632141,0.994801024183731
0 days 00:01:10.910000,0.30249,-0.945068,-0.075439,6.019592,-27.885435,-0.762939,0.9951606741853297
0 days 00:01:10.920000,0.298584,-0.945801,-0.074707,6.179809,-29.33502,-0.938415,0.9946220752155062
0 days 00:01:10.930000,0.288818,-0.945801,-0.072754,5.706787,-29.350279,-1.441955,0.9915888831773984
0 days 00:01:10.940000,0.294189,-0.946289,-0.073242,5.096435,-28.022764,-1.907349,0.9936671624875203
0 days 00:01:10.950000,0.304199,-0.943115,-0.075684,6.111145,-27.076719,-0.732422,0.993846568984368
0 days 00:01:10.960000,0.283691,-0.949707,-0.071289,4.989624,-28.274534,-2.418518,0.9937334103525954
0 days 00:01:10.970000,0.283447,-0.953125,-0.071777,4.928589,-27.931211,-2.235413,0.996966100307829
0 days 00:01:10.980000,0.278809,-0.954834,-0.073242,4.608154,-27.366636,-2.27356,0.9974000283742727
0 days 00:01:10.990000,0.291992,-0.946533,-0.071045,5.226135,-28.411863,-1.861572,0.9930918588821479
0 days 00:01:11,0.267334,-0.925781,-0.11792,-2.89917,-1.464844,-0.663757,0.9707950627794725
0 days 00:01:11.010000,0.277832,-0.948975,-0.12085,-4.058838,4.875183,3.280639,0.9961671011175786
0 days 00:01:11.020000,0.27832,-0.948242,-0.122803,-4.074097,3.868103,3.417969,0.9958441091722138
0 days 00:01:11.030000,0.27832,-0.944336,-0.124756,-4.081726,3.250122,3.387451,0.992369166606863
0 days 00:01:11.040000,0.277832,-0.938965,-0.123779,-4.043579,2.609253,3.120422,0.9869990538445313
0 days 00:01:11.050000,0.278809,-0.935059,-0.124023,-3.852844,1.678467,2.746582,0.9835911226170151
0 days 00:01:11.060000,0.275635,-0.93335,-0.123047,-3.509521,0.869751,2.120972,0.9809472156716691
0 days 00:01:11.070000,0.277832,-0.948975,-0.122559,-4.40979,5.844116,3.234863,0.9963758725149862
0 days 00:01:11.080000,0.27417,-0.930664,-0.122559,-3.265381,-0.045776,1.281738,0.9779189016871492
0 days 00:01:11.090000,0.268555,-0.927002,-0.116943,-3.013611,-0.839233,0.297546,0.9721780501934818
0 days 00:01:11.100000,0.265625,-0.920898,-0.120117,-2.761841,-1.899719,-1.571655,0.9659388493678055
0 days 00:01:11.110000,0.262939,-0.916504,-0.121582,-2.487183,-1.197815,-3.967285,0.9611964848359569
0 days 00:01:11.120000,0.258789,-0.911377,-0.123535,-2.723694,-2.151489,-3.173828,0.9554269615595952
0 days 00:01:11.130000,0.259521,-0.909668,-0.121826,-2.487183,-1.739502,-3.730774,0.9537759663259502
0 days 00:01:11.140000,0.262939,-0.911377,-0.120361,-2.5177,-1.174927,-3.89862,0.9561546549439583
0 days 00:01:11.150000,0.259033,-0.924072,-0.117188,-2.540588,-2.197266,-4.257202,0.9668196231029861
0 days 00:01:11.160000,0.264648,-0.933838,-0.116211,-2.609253,-3.028869,-4.402161,0.9775464033328545
0 days 00:01:11.170000,0.269775,-0.94165,-0.118408,-2.494812,-3.570556,-4.196167,0.9866629250098536
0 days 00:01:11.180000,0.265381,-0.952637,-0.119629,-1.953125,-4.714966,-4.058838,0.9961201868103066
0 days 00:01:11.190000,0.276855,-0.955322,-0.123047,-1.777649,-6.118774,-3.715515,1.0022122424506699
0 days 00:01:11.200000,0.286133,-0.966064,-0.125,-1.342773,-6.980896,-3.326416,1.0152717595722833
0 days 00:01:11.210000,0.274902,-0.948486,-0.126221,-4.478455,6.759643,3.112793,0.9955543895945616
0 days 00:01:11.220000,0.260254,-0.913818,-0.121094,-2.761841,-2.220154,-2.510071,0.9578409254547438
0 days 00:01:11.230000,0.278809,-0.952881,-0.12915,-4.379272,7.881164,2.998352,1.0011974735994893
0 days 00:01:11.240000,0.312744,-0.93042,-0.122559,-7.102966,27.473448,-0.62561,0.9891970958393479
0 days 00:01:11.250000,0.28125,-0.956299,-0.131836,-4.91333,9.925842,3.181457,1.0054800200884153
0 days 00:01:11.260000,0.289551,-0.977051,-0.121094,-0.640869,-8.659363,-2.738952,1.0262222931889562
0 days 00:01:11.270000,0.310059,-0.926758,-0.121582,-6.790161,26.962278,-0.106812,0.9847838121989008
0 days 00:01:11.280000,0.30835,-0.924316,-0.119385,-6.690979,26.504515,0.328064,0.9816784445942571
0 days 00:01:11.290000,0.306885,-0.921631,-0.123779,-6.317138,26.214598,0.648498,0.9792361023915529
0 days 00:01:11.300000,0.307129,-0.924561,-0.120361,-6.034851,26.069639,0.923157,0.9816455753901201
0 days 00:01:11.310000,0.304688,-0.925049,-0.12207,-5.966186,26.008604,1.083374,0.9815556604925673
0 days 00:01:11.320000,0.299561,-0.919922,-0.117676,-5.889892,25.68054,1.098633,0.9745978246338333
0 days 00:01:11.330000,0.294678,-0.914307,-0.118408,-5.40924,25.192259,1.182556,0.9678909382761056
0 days 00:01:11.340000,0.290527,-0.908447,-0.118896,-5.149841,24.337767,1.319885,0.9611545912879987
0 days 00:01:11.350000,0.291016,-0.90918,-0.117188,-4.951477,23.41461,1.281738,0.9617856372394006
0 days 00:01:11.360000,0.290039,-0.910645,-0.121094,-4.646301,22.476194,1.434326,0.9633590682512934
0 days 00:01:11.370000,0.288818,-0.9104,-0.122559,-4.455566,21.52252,1.63269,0.962945847701209
0 days 00:01:11.380000,0.285645,-0.904297,-0.125732,-4.585266,20.744322,1.800537,0.9566371653129518
0 days 00:01:11.390000,0.287598,-0.901367,-0.128906,-4.402161,20.675657,1.899719,0.9548779163479487
0 days 00:01:11.400000,0.288086,-0.903076,-0.12793,-4.341125,20.88928,2.128601,0.9565071301731106
0 days 00:01:11.410000,0.283691,-0.912842,-0.131104,-4.28009,20.828245,2.166748,0.9648571703941471
0 days 00:01:11.420000,0.281494,-0.92041,-0.131348,-4.554749,20.507811,2.26593,0.9714142974241217
0 days 00:01:11.430000,0.277588,-0.925781,-0.127197,-4.653931,20.271299,2.189636,0.9748356961632046
0 days 00:01:11.440000,0.277344,-0.933594,-0.124756,-4.974365,19.523621,2.5177,0.9818765251843025
0 days 00:01:11.450000,0.274658,-0.936523,-0.124756,-5.15747,18.1427,2.662658,0.983908738668887
0 days 00:01:11.460000,0.274658,-0.941406,-0.125,-5.317688,16.357422,2.853393,0.9885885260309265
0 days 00:01:11.470000,0.272461,-0.951904,-0.129639,-5.256652,13.97705,3.013611,0.998580238167169
0 days 00:01:11.480000,0.276855,-0.956543,-0.129639,-4.981995,11.436461,3.14331,1.0042058913365326
0 days 00:01:11.490000,0.281006,-0.955566,-0.131104,-4.600525,8.926392,3.044128,1.0046188387682167
0 days 00:01:11.500000,0.295166,-0.985596,-0.119873,-0.114441,-10.330199,-2.151489,1.0358049907685325
0 days 00:01:11.510000,0.322754,-0.932129,-0.120117,-0.640869,2.128601,1.235962,0.9937115833308978
0 days 00:01:11.520000,0.291992,-0.989746,-0.112305,1.00708,-12.580871,-2.250671,1.038011987216429
0 days 00:01:11.530000,0.297119,-0.928955,-0.108643,1.663208,-7.797241,-0.663757,0.9813462149695183
0 days 00:01:11.540000,0.296143,-0.929443,-0.105225,1.25885,-7.736206,-1.014709,0.9811407989289814
0 days 00:01:11.550000,0.297607,-0.926025,-0.103271,1.083374,-7.987976,-1.205444,0.9781396252657388
0 days 00:01:11.560000,0.30249,-0.923096,-0.104736,0.869751,-7.736206,-1.251221,0.9770240810809119
0 days 00:01:11.570000,0.306641,-0.91748,-0.105957,0.427246,-6.881713,-1.197815,0.973152166482714
0 days 00:01:11.580000,0.310303,-0.919922,-0.10376,0.198364,-5.844116,-1.052856,0.9763762468910231
0 days 00:01:11.590000,0.311279,-0.921143,-0.10083,0.045776,-5.241394,-0.701904,0.9775304246876412
0 days 00:01:11.600000,0.315918,-0.924316,-0.104004,0.106812,-4.478455,-0.511169,0.98233450646712
0 days 00:01:11.610000,0.316406,-0.926025,-0.10791,-0.160217,-3.974914,-0.274658,0.9845199975424572
0 days 00:01:11.620000,0.314209,-0.932861,-0.111328,-0.061035,-3.280639,-0.297546,0.9906315483498394
0 days 00:01:11.630000,0.299805,-0.928955,-0.106201,1.754761,-7.591247,-0.511169,0.9818956576189753
0 days 00:01:11.640000,0.314209,-0.935303,-0.110352,-0.267029,-2.838135,-0.434875,0.9928225226061302
0 days 00:01:11.650000,0.30835,-0.942139,-0.104492,-0.801086,-3.219604,-0.686645,0.9968070003190186
0 days 00:01:11.660000,0.311035,-0.937988,-0.102539,-0.915527,-3.417969,-0.701904,0.9935182463800049
0 days 00:01:11.670000,0.312988,-0.93457,-0.102539,-0.946045,-3.52478,-0.450134,0.9909070690861984
0 days 00:01:11.680000,0.311279,-0.932861,-0.106201,-0.953674,-3.479004,-0.114441,0.9891425142834576
0 days 00:01:11.690000,0.316162,-0.932617,-0.109375,-0.88501,-3.425598,0.236511,0.9908056164344246
0 days 00:01:11.700000,0.321777,-0.937012,-0.114258,-0.732422,-2.845764,0.488281,0.9972897354515387
0 days 00:01:11.710000,0.323486,-0.936279,-0.117432,-0.595093,-1.89209,0.770569,0.997522848189955
0 days 00:01:11.720000,0.324219,-0.936523,-0.119873,-0.617981,-0.846863,0.907898,0.9982799334951095
0 days 00:01:11.730000,0.323975,-0.934326,-0.119141,-0.595093,0.495911,1.121521,0.9960519327735878
0 days 00:01:11.740000,0.289063,-0.991943,-0.118652,0.473022,-11.489867,-2.128601,1.0399935722503288
0 days 00:01:11.750000,0.312256,-0.940918,-0.108643,-0.358582,-2.731323,-0.541687,0.997313287642855
0 days 00:01:11.760000,0.303711,-0.929199,-0.106934,1.785278,-7.293701,-0.358582,0.9834053251218442
0 days 00:01:11.770000,0.317139,-0.929688,-0.110107,-0.167847,-3.593445,-0.076294,0.9884434602515209
0 days 00:01:11.780000,0.311035,-0.93042,-0.112305,2.204895,-8.705139,-0.267029,0.9874393959377963
0 days 00:01:11.790000,0.308594,-0.928955,-0.111572,1.953125,-7.514953,-0.358582,0.9852085870743311
0 days 00:01:11.800000,0.293213,-0.955811,-0.11084,1.953125,-13.328551,-2.151489,1.0058996156128106
0 days 00:01:11.810000,0.290039,-0.939941,-0.113037,2.075195,-13.107299,-2.624511,0.9901459833635645
0 days 00:01:11.820000,0.291748,-0.93335,-0.108887,1.976013,-12.573241,-2.89917,0.9839286034936682
0 days 00:01:11.830000,0.285889,-0.930664,-0.105225,2.281189,-12.771605,-2.76947,0.9792549728451728
0 days 00:01:11.840000,0.291748,-0.930664,-0.105469,2.586365,-13.015746,-2.784729,0.9810076892466236
0 days 00:01:11.850000,0.29541,-0.928223,-0.106445,2.586365,-11.871337,-3.074646,0.9798956800874264
0 days 00:01:11.860000,0.294434,-0.928955,-0.108398,2.830505,-12.367248,-2.723694,0.9805095097881509
0 days 00:01:11.870000,0.299072,-0.930176,-0.111084,2.952575,-12.168883,-2.540588,0.9833672290736558
0 days 00:01:11.880000,0.300293,-0.931396,-0.110352,3.059387,-12.100219,-2.609253,0.9848106206621656
0 days 00:01:11.890000,0.305664,-0.932617,-0.108154,3.135681,-12.130736,-2.372742,0.9873713775986218
0 days 00:01:11.900000,0.294922,-0.977295,-0.11084,1.602173,-13.023376,-2.349854,1.026825208450299
0 days 00:01:11.910000,0.310791,-0.928467,-0.114014,3.616333,-14.244079,-1.678467,0.9857186251491853
0 days 00:01:11.920000,0.300049,-0.933838,-0.109619,3.425598,-13.305663,-2.174377,0.9869646081830897
0 days 00:01:11.930000,0.311523,-0.936768,-0.11084,2.830505,-10.482787,-0.335693,0.9934114811864215
0 days 00:01:11.940000,0.31543,-0.936035,-0.115479,3.181457,-11.314391,-0.267029,0.9944812746180794
0 days 00:01:11.950000,0.317871,-0.937012,-0.120361,3.471374,-12.275695,-0.305176,0.9967548500539137
0 days 00:01:11.960000,0.31543,-0.937744,-0.124023,3.753662,-12.992858,-0.289917,0.9971166426075737
0 days 00:01:11.970000,0.309814,-0.932617,-0.109375,2.494812,-9.83429,-0.198364,0.9887982978899186
0 days 00:01:11.980000,0.313477,-0.934814,-0.121582,3.631592,-14.320373,-0.556946,0.9934421104669361
0 days 00:01:11.990000,0.311035,-0.933105,-0.122314,3.65448,-13.793944,-0.595093,0.9911550972708559
0 days 00:01:12,0.319336,-0.929443,-0.119629,3.562927,-13.542174,-1.022339,0.9900256909727141
0 days 00:01:12.010000,0.31543,-0.936768,-0.123535,3.692627,-13.72528,-0.411987,0.9961381766346474
0 days 00:01:12.020000,0.318115,-0.92334,-0.116211,2.449036,-8.865356,-0.465393,0.9834932157091884
0 days 00:01:12.030000,0.338379,-0.913086,-0.106201,2.586365,-6.088256,2.563476,0.9795432830855408
0 days 00:01:12.040000,0.336182,-0.915283,-0.11377,2.510071,-5.683898,2.525329,0.9816847356015066
0 days 00:01:12.050000,0.33374,-0.916016,-0.117188,2.532959,-5.462646,2.319336,0.9819372318025221
0 days 00:01:12.060000,0.328857,-0.920654,-0.116455,2.532959,-5.371093,2.006531,0.9845366835166681
0 days 00:01:12.070000,0.328125,-0.921387,-0.117432,2.26593,-5.477905,1.556396,0.9850940533867819
0 days 00:01:12.080000,0.328613,-0.917969,-0.118896,2.14386,-5.676269,1.083374,0.9822371646124983
0 days 00:01:12.090000,0.343994,-0.908203,-0.104492,2.807617,-6.736755,2.738952,0.9767717948983785
0 days 00:01:12.100000,0.323486,-0.917236,-0.120361,2.113342,-6.301879,0.724792,0.9800264497517402
0 days 00:01:12.110000,0.319824,-0.918213,-0.117676,2.250671,-7.629394,0.183105,0.979413163747047
0 days 00:01:12.120000,0.321533,-0.924072,-0.118408,2.372742,-9.544373,-0.976562,0.9855521222832409
0 days 00:01:12.130000,0.343018,-0.922363,-0.121826,2.471924,-8.247375,-0.999451,0.9915928732947812
0 days 00:01:12.140000,0.332764,-0.912109,-0.123535,2.082825,-8.544922,-1.152039,0.9787418473744749
0 days 00:01:12.150000,0.332764,-0.916016,-0.123779,2.349854,-8.476257,-1.068115,0.9824145931290923
0 days 00:01:12.160000,0.337402,-0.922119,-0.124756,2.426147,-8.514404,-1.091003,0.9898018080913977
0 days 00:01:12.170000,0.346924,-0.922607,-0.120117,2.311707,-7.873535,-0.930786,0.9929693005899024
0 days 00:01:12.180000,0.346924,-0.917969,-0.117188,1.983642,-7.415771,-0.869751,0.9883098573225909
0 days 00:01:12.190000,0.346924,-0.917236,-0.117188,1.815796,-6.729125,-0.839233,0.9876290643839923
0 days 00:01:12.200000,0.351318,-0.914795,-0.118164,1.579285,-6.118774,-0.831604,0.9870344269806398
0 days 00:01:12.210000,0.353027,-0.914063,-0.120117,1.304626,-5.363464,-0.549316,0.9872017647811413
0 days 00:01:12.220000,0.355469,-0.912598,-0.120605,1.060486,-4.600525,-0.358582,0.9867820861720181
0 days 00:01:12.230000,0.342529,-0.904297,-0.099854,3.120422,-7.759094,2.807617,0.9721368223485828
0 days 00:01:12.240000,0.327881,-0.916016,-0.120361,2.235413,-9.246826,-1.235962,0.9803458740352815
0 days 00:01:12.250000,0.341309,-0.899414,-0.096924,3.715515,-8.872986,2.906799,0.9668669187913093
0 days 00:01:12.260000,0.354736,-0.911133,-0.118408,0.793457,-3.944397,-0.312805,0.9848966584616885
0 days 00:01:12.270000,0.343994,-0.89917,-0.108398,5.058288,-11.71112,3.471374,0.9688078691567281
0 days 00:01:12.280000,0.383789,-0.901855,-0.179199,-10.513305,23.41461,-8.583069,0.9963677630006904
0 days 00:01:12.290000,0.386719,-0.901367,-0.173584,-9.44519,22.5296,-7.43103,0.996064987190093
0 days 00:01:12.300000,0.384521,-0.896729,-0.161133,-8.720398,22.003172,-6.278991,0.9889100781016442
0 days 00:01:12.310000,0.379395,-0.895996,-0.144287,-8.148193,20.858763,-4.959106,0.9836504137192237
0 days 00:01:12.320000,0.367676,-0.900879,-0.138428,-7.369995,18.386841,-3.845215,0.9828178492482724
0 days 00:01:12.330000,0.358398,-0.909668,-0.144287,-6.637573,14.968871,-2.76947,0.9883135813075726
0 days 00:01:12.340000,0.358643,-0.918457,-0.145508,-5.859375,11.58142,-1.586914,0.9966747916758003
0 days 00:01:12.350000,0.363525,-0.921875,-0.141602,-5.104064,8.827209,-0.282288,1.00102700645587
0 days 00:01:12.360000,0.364014,-0.923584,-0.137939,-4.470825,6.721496,0.854492,1.0022678110031271
0 days 00:01:12.370000,0.359131,-0.919922,-0.135986,-4.15802,4.104614,2.02179,0.9968569372989285
0 days 00:01:12.380000,0.342041,-0.897461,-0.101807,4.302979,-10.116576,3.181457,0.9658120714978664
0 days 00:01:12.390000,0.354492,-0.914063,-0.137695,-3.532409,0.869751,2.906799,0.990018009461444
0 days 00:01:12.400000,0.361816,-0.897461,-0.136719,-2.281189,-2.929687,4.753113,0.9772610446231856
0 days 00:01:12.410000,0.358398,-0.900391,-0.138672,-1.358032,-4.051208,5.249023,0.9789703789538272
0 days 00:01:12.420000,0.351074,-0.904785,-0.142334,-0.045776,-5.844116,5.180358,0.9808913381496442
0 days 00:01:12.430000,0.349609,-0.907471,-0.138672,1.144409,-7.820129,5.142211,0.9823237716282753
0 days 00:01:12.440000,0.347656,-0.906738,-0.136475,2.258301,-9.32312,5.088806,0.9806446454271802
0 days 00:01:12.450000,0.343506,-0.9021,-0.128906,3.318786,-10.787963,4.905701,0.9738570423178137
0 days 00:01:12.460000,0.34082,-0.900635,-0.128418,4.295349,-11.947631,4.447937,0.9714900196857402
0 days 00:01:12.470000,0.342773,-0.897217,-0.121582,5.058288,-12.863158,4.226685,0.9681290499422068
0 days 00:01:12.480000,0.341309,-0.898682,-0.120361,5.462646,-13.46588,3.860473,0.9688178058468991
0 days 00:01:12.490000,0.344482,-0.900146,-0.114502,5.554199,-13.183593,3.52478,0.9705881606757832
0 days 00:01:12.500000,0.357422,-0.90332,-0.135986,-2.937317,-1.76239,4.127502,0.9809330765551746
0 days 00:01:12.510000,0.351074,-0.908936,-0.118652,0.640869,-3.463745,-0.282288,0.9815782712937364
0 days 00:01:12.520000,0.391357,-0.900879,-0.177979,-11.718749,24.29199,-9.57489,0.9982082941605925
0 days 00:01:12.530000,0.348633,-0.908936,-0.121582,0.007629,-2.685547,-0.282288,0.981066666189918
0 days 00:01:12.540000,0.351318,-0.924316,-0.122803,-6.706237,16.395569,-0.1297,0.9964261045300851
0 days 00:01:12.550000,0.347656,-0.921875,-0.121338,-7.04956,17.860413,-0.823975,0.9926938703371749
0 days 00:01:12.560000,0.341797,-0.920654,-0.12207,-7.270813,18.852234,-1.754761,0.9896110659370174
0 days 00:01:12.570000,0.338379,-0.919678,-0.121338,-7.530212,19.439697,-2.212524,0.9874365202730756
0 days 00:01:12.580000,0.334961,-0.918457,-0.121826,-7.873535,20.347593,-2.784729,0.9851922181209106
0 days 00:01:12.590000,0.33252,-0.919189,-0.118408,-8.18634,21.324156,-3.631592,0.9846311099010635
0 days 00:01:12.600000,0.327637,-0.918213,-0.117676,-8.476257,21.27075,-4.096985,0.9819922393349145
0 days 00:01:12.610000,0.324707,-0.92041,-0.121094,-8.613586,21.377562,-4.53186,0.9834901935377901
0 days 00:01:12.620000,0.328369,-0.922607,-0.124512,-8.834839,22.163389,-4.676819,0.987184438063121
0 days 00:01:12.630000,0.328125,-0.92334,-0.123291,-9.284973,24.192808,-5.088806,0.9876352777751511
0 days 00:01:12.640000,0.357178,-0.924805,-0.124023,-6.431579,14.572143,0.312805,0.9991106626585465
0 days 00:01:12.650000,0.328125,-0.924805,-0.123047,-9.529114,25.215147,-5.065917,0.9889746548112343
0 days 00:01:12.660000,0.32959,-0.931885,-0.127441,-9.44519,26.672361,-4.837036,0.9966345517821464
0 days 00:01:12.670000,0.330078,-0.934326,-0.129395,-9.307861,27.641294,-4.508972,0.999329588466688
0 days 00:01:12.680000,0.330078,-0.9375,-0.129883,-9.300232,28.099058,-4.112244,1.0023608780140014
0 days 00:01:12.690000,0.326904,-0.939941,-0.129883,-9.048462,28.564451,-3.837585,1.003605949756178
0 days 00:01:12.700000,0.327393,-0.940918,-0.125977,-8.605957,28.755186,-3.448486,1.0041827840099629
0 days 00:01:12.710000,0.325195,-0.942139,-0.124268,-8.369446,29.029844,-2.929687,1.0044004277030152
0 days 00:01:12.720000,0.31958,-0.941895,-0.122559,-8.033752,28.938292,-2.380371,1.0021568120339253
0 days 00:01:12.730000,0.316895,-0.939941,-0.123047,-7.736206,28.549192,-1.846313,0.9995259319872597
0 days 00:01:12.740000,0.314453,-0.937012,-0.123047,-7.362365,28.038023,-1.174927,0.9959983642366085
0 days 00:01:12.750000,0.349854,-0.909424,-0.119141,0.312805,-3.051758,-0.312805,0.9816539160890665
0 days 00:01:12.760000,0.325439,-0.927246,-0.123535,-9.529114,25.955198,-4.936218,0.9904325234270127
0 days 00:01:12.770000,0.356201,-0.921387,-0.124512,-5.966186,12.870788,0.793457,0.9956587740355628
0 days 00:01:12.780000,0.328857,-0.924316,-0.122803,-9.140015,23.384092,-5.149841,0.9887302822883499
0 days 00:01:12.790000,0.356934,-0.921143,-0.128906,-5.760192,11.688231,0.900268,0.9962545175009245
0 days 00:01:12.800000,0.356445,-0.921387,-0.12793,-5.859375,12.115478,0.892639,0.9961792643364947
0 days 00:01:12.810000,0.347412,-0.908691,-0.125244,-0.50354,-2.26593,-0.473022,0.9808672136232305
0 days 00:01:12.820000,0.348877,-0.907227,-0.122803,-0.671387,-1.838684,-0.389099,0.9797226992710744
0 days 00:01:12.830000,0.348145,-0.909668,-0.125244,-0.87738,-1.480102,-0.236511,0.9820320110795778
0 days 00:01:12.840000,0.349121,-0.913086,-0.127197,-1.113892,-1.00708,-0.160217,0.9857943968424653
0 days 00:01:12.850000,0.35083,-0.911865,-0.129395,-1.243591,-0.595093,0.045776,0.985556965958843
0 days 00:01:12.860000,0.352783,-0.914551,-0.126953,-1.403808,-0.114441,0.183105,0.9884211859824737
0 days 00:01:12.870000,0.353516,-0.918701,-0.123047,-1.609802,0.312805,0.213623,0.9920310750505752
0 days 00:01:12.880000,0.352295,-0.918945,-0.121582,-1.731872,0.740051,0.190735,0.991642003332856
0 days 00:01:12.890000,0.351563,-0.918213,-0.121094,-1.998901,1.228333,0.114441,0.9906439386449604
0 days 00:01:12.900000,0.351318,-0.918457,-0.117676,-2.067566,1.319885,0.030518,0.9903712631882046
0 days 00:01:12.910000,0.346924,-0.905273,-0.124023,-0.343323,-2.494812,-0.350952,0.9773725854729096
0 days 00:01:12.920000,0.351563,-0.910156,-0.121338,-2.624511,1.89209,-0.236511,0.9832107594758104
0 days 00:01:12.930000,0.351563,-0.915039,-0.120117,-2.281189,1.602173,-0.152588,0.9875834183394333
0 days 00:01:12.940000,0.361328,-0.915527,-0.126465,-5.393981,10.131835,0.328064,0.9923411749685689
0 days 00:01:12.950000,0.359375,-0.914307,-0.127197,-5.149841,8.94928,0.175476,0.9905991912388178
0 days 00:01:12.960000,0.357666,-0.911133,-0.128174,-4.928589,7.820129,-0.106812,0.9871762180689929
0 days 00:01:12.970000,0.358887,-0.907227,-0.126221,-4.478455,6.66809,-0.389099,0.9837644276649772
0 days 00:01:12.980000,0.360352,-0.919922,-0.126221,-5.683898,11.177062,0.534058,0.9960129471191627
0 days 00:01:12.990000,0.355713,-0.904541,-0.125,-3.746032,3.814697,-0.488281,0.9799750808311404
0 days 00:01:13,0.351563,-0.905762,-0.122314,-3.295898,3.204345,-0.411987,0.9792660814145459
0 days 00:01:13.010000,0.350586,-0.908447,-0.121582,-2.822876,2.471924,-0.305176,0.9813096748371536
0 days 00:01:13.020000,0.357422,-0.904053,-0.12915,-3.982544,5.096435,-0.404358,0.9806844729029822
0 days 00:01:13.030000,0.663086,-0.287354,-0.26709,16.113281,-33.203125,-102.561943,0.7704495004943542
0 days 00:01:13.040000,0.395508,-0.019775,-0.252197,50.651546,3.547668,-60.707088,0.4694901015974671
0 days 00:01:13.050000,0.424316,-0.050293,-0.26001,44.540401,-4.40979,-67.321777,0.5001786218992171
0 days 00:01:13.060000,0.459717,-0.088623,-0.268555,39.749146,-13.244628,-73.46344,0.5397365507754686
0 days 00:01:13.070000,0.500244,-0.142578,-0.272217,36.476135,-21.385191,-79.650879,0.5870899766722304
0 days 00:01:13.080000,0.560303,-0.184326,-0.285156,32.142639,-26.93939,-85.494987,0.65515606569809
0 days 00:01:13.090000,0.603516,-0.213379,-0.281982,27.389524,-29.869078,-90.614311,0.699482671851848
0 days 00:01:13.100000,0.37793,0.020508,-0.247803,56.488033,8.94165,-53.489681,0.452391412134448
0 days 00:01:13.110000,0.629883,-0.230225,-0.280273,23.29254,-30.426023,-95.024101,0.7268487455055556
0 days 00:01:13.120000,0.644775,-0.258545,-0.27417,20.462034,-31.410215,-99.403374,0.7468262894073828
0 days 00:01:13.130000,0.695313,-0.326172,-0.278564,12.222289,-36.66687,-104.980461,0.8169738329034779
0 days 00:01:13.140000,0.818848,-0.470215,-0.269287,2.944946,-29.373167,-115.852348,0.9819010549429102
0 days 00:01:13.150000,0.752197,-0.390869,-0.307373,8.880615,-43.746944,-107.63549,0.90169676893011
0 days 00:01:13.160000,0.7771,-0.418213,-0.307861,8.224487,-39.44397,-110.176079,0.934646948687043
0 days 00:01:13.170000,0.788818,-0.460205,-0.29126,6.996154,-34.240723,-114.06707,0.9585691768198058
0 days 00:01:13.180000,0.839111,-0.49707,-0.249268,0.045776,-24.16992,-118.873589,1.0066381629190302
0 days 00:01:13.190000,0.833008,-0.541016,-0.228027,0.305176,-19.844055,-123.634331,1.0191157701895306
0 days 00:01:13.200000,0.862549,-0.549072,-0.224609,-0.282288,-19.927979,-125.686638,1.0468619973358475
0 days 00:01:13.210000,0.870605,-0.576172,-0.221924,-1.724243,-23.612974,-125.40435,1.0673225854375048
0 days 00:01:13.220000,0.855469,-0.626221,-0.232422,-7.888793,-27.313231,-127.441399,1.0853570550219869
0 days 00:01:13.230000,0.853027,-0.705811,-0.260742,-10.032654,-30.3421,-127.55584,1.1374579645041831
0 days 00:01:13.240000,0.392578,0.030518,-0.243896,63.888546,10.32257,-46.485897,0.46317825210603314
0 days 00:01:13.250000,0.708984,-0.370117,-0.294922,10.414123,-41.702267,-106.910698,0.8524223671566813
0 days 00:01:13.260000,0.403076,0.008789,-0.23877,72.067261,12.252807,-40.145874,0.4685708283674945
0 days 00:01:13.270000,1.416016,-0.354736,-0.049805,72.669983,-48.004147,-226.852402,1.4606229766702288
0 days 00:01:13.280000,0.505371,-0.003174,-0.228271,86.128227,15.380858,-30.288694,0.5545426686540902
0 days 00:01:13.290000,0.83252,-0.730713,-0.260742,-2.944946,-39.634705,-123.466484,1.1379883256576053
0 days 00:01:13.300000,1.540039,-0.309326,-0.044189,78.483582,-58.471676,-234.329208,1.5714182649816693
0 days 00:01:13.310000,1.656738,-0.251709,-0.049561,84.625237,-64.987183,-237.922653,1.6764827807186091
0 days 00:01:13.320000,1.756104,-0.182129,-0.04834,91.064445,-67.634583,-237.792953,1.7661848677465788
0 days 00:01:13.330000,1.827637,-0.124512,-0.043701,97.160332,-66.726685,-234.664902,1.8323946134263764
0 days 00:01:13.340000,1.873047,-0.091553,-0.039795,103.462212,-62.042233,-228.591904,1.875705376130004
0 days 00:01:13.350000,1.917725,-0.073975,-0.036865,109.420769,-53.306576,-219.535812,1.919505275969566
0 days 00:01:13.360000,1.951416,-0.073975,-0.031738,115.768425,-40.489193,-208.85466,1.9530755249925693
0 days 00:01:13.370000,1.998535,-0.07251,-0.022705,122.283928,-25.81024,-195.838913,1.9999788407255712
0 days 00:01:13.380000,2.039551,-0.053711,-0.013428,126.91497,-9.376526,-179.481491,2.04030229728489
0 days 00:01:13.390000,2.012207,-0.016357,-0.00415,130.203247,4.463196,-162.239059,2.0122777603496993
0 days 00:01:13.400000,1.918213,-0.000977,-0.006592,131.568909,6.462097,-148.040771,1.9182245755807634
0 days 00:01:13.410000,1.768311,-0.017578,0.0,130.126953,-4.768372,-139.961243,1.7683983654157227
0 days 00:01:13.420000,1.613525,-0.083252,-0.015869,126.647942,-21.759031,-134.613037,1.615749252294427
0 days 00:01:13.430000,1.510742,-0.133545,-0.046387,120.811455,-37.216187,-122.924797,1.5173422195925348
0 days 00:01:13.440000,1.39917,-0.135498,-0.076416,111.602776,-49.102779,-102.577202,1.407791107359327
0 days 00:01:13.450000,1.279297,-0.167236,-0.106934,103.561394,-54.916378,-85.083,1.2946055670593264
0 days 00:01:13.460000,1.236816,-0.192139,-0.116943,97.190849,-45.242306,-69.755554,1.2571025727545067
0 days 00:01:13.470000,1.210693,-0.189697,-0.151367,92.613213,-23.368834,-53.413387,1.2347770894971286
0 days 00:01:13.480000,1.083984,-0.157715,-0.182129,91.361992,0.030518,-39.886475,1.1104351877178607
0 days 00:01:13.490000,0.922363,-0.079102,-0.199951,91.850273,16.151428,-30.3421,0.9470961052469807
0 days 00:01:13.500000,0.737793,0.007324,-0.209961,90.957634,22.514341,-26.05438,0.7671217461042283
0 days 00:01:13.510000,0.594727,0.022461,-0.213867,89.195244,21.102903,-26.786802,0.6324110963123591
0 days 00:01:13.520000,0.436768,-0.00708,-0.231689,80.177307,13.557433,-35.270691,0.4944655750858698
0 days 00:01:13.530000,0.808838,-0.710205,-0.243164,-2.403259,-53.230282,-119.728081,1.1035120222113577
0 days 00:01:13.540000,0.419922,-0.914551,-0.153809,-20.355223,52.917477,-21.537779,1.0180349827810438
0 days 00:01:13.550000,0.807617,-0.748535,-0.251221,-3.723144,-67.855835,-111.213676,1.129452015693894
0 days 00:01:13.560000,0.436279,-0.816895,-0.1521,-6.576538,1.487732,-1.983642,0.9385047772206597
0 days 00:01:13.570000,0.397461,-0.813965,-0.155518,-7.5531,9.750366,-3.845215,0.9190756857136414
0 days 00:01:13.580000,0.384766,-0.818359,-0.157959,-8.590698,17.921448,-6.256103,0.9179909440283166
0 days 00:01:13.590000,0.38208,-0.836914,-0.154297,-9.475708,24.665831,-9.19342,0.9328546156851023
0 days 00:01:13.600000,0.377686,-0.861816,-0.147949,-10.19287,29.151915,-12.290954,0.9525032488411784
0 days 00:01:13.610000,0.395508,-0.876953,-0.150146,-11.32965,34.355164,-15.434264,0.9736616268442544
0 days 00:01:13.620000,0.428711,-0.880615,-0.146973,-13.97705,43.655392,-17.64679,0.9903923275525716
0 days 00:01:13.630000,0.425049,-0.891357,-0.140869,-16.609192,51.933285,-19.142151,0.9975109167377567
0 days 00:01:13.640000,0.420654,-0.906738,-0.14624,-18.89801,54.183956,-20.538328,1.010202814270481
0 days 00:01:13.650000,0.421143,-0.91626,-0.172363,-21.171568,50.315853,-22.018431,1.0230360784537365
0 days 00:01:13.660000,0.470947,-0.82373,-0.144043,-4.66156,-7.339477,-1.823425,0.9597242184909162
0 days 00:01:13.670000,0.424072,-0.915771,-0.192383,-20.828245,47.07336,-21.385191,1.0273679011503134
0 days 00:01:13.680000,0.414795,-0.92749,-0.209229,-18.135071,39.619446,-18.135071,1.037337633832881
0 days 00:01:13.690000,0.408691,-0.934814,-0.202881,-16.822815,35.820007,-16.63208,1.040224133654858
0 days 00:01:13.700000,0.407959,-0.939453,-0.185791,-16.296387,33.172607,-15.419005,1.0409230425785567
0 days 00:01:13.710000,0.402588,-0.945801,-0.174805,-16.273499,30.517576,-14.511107,1.042676084587155
0 days 00:01:13.720000,0.393555,-0.943848,-0.175537,-15.899657,27.297972,-14.045714,1.0375682259485397
0 days 00:01:13.730000,0.396729,-0.935791,-0.182861,-15.586852,25.3067,-13.572692,1.0327327052258004
0 days 00:01:13.740000,0.397461,-0.929443,-0.186523,-14.694213,24.368284,-12.619018,1.0279252727212227
0 days 00:01:13.750000,0.39624,-0.919189,-0.184326,-13.862609,23.841856,-11.95526,1.0177871239100051
0 days 00:01:13.760000,0.397949,-0.913574,-0.181152,-13.160705,24.093626,-11.497497,1.012816324503609
0 days 00:01:13.770000,0.395752,-0.908203,-0.178223,-12.451171,24.436949,-10.597228,1.0065861972240628
0 days 00:01:13.780000,0.426514,-0.922852,-0.206543,-19.615173,43.754574,-19.874573,1.0374150649325466
0 days 00:01:13.790000,0.477051,-0.840576,-0.133789,-2.120972,-14.656066,-3.326416,0.9757280178912564
0 days 00:01:13.800000,0.838135,-0.736084,-0.259277,-6.736755,-62.301632,-113.861076,1.1452137337676316
0 days 00:01:13.810000,0.43042,-0.849854,-0.108154,2.815246,-17.776489,-8.720398,0.9587546534082638
0 days 00:01:13.820000,0.868652,-0.765625,-0.207031,-3.372192,-58.341976,-109.451286,1.1762651795789927
0 days 00:01:13.830000,0.859619,-0.802002,-0.211182,-0.450134,-51.910397,-104.080193,1.1944663537701679
0 days 00:01:13.840000,0.83252,-0.834229,-0.203369,3.768921,-49.964901,-98.503105,1.1959876776129426
0 days 00:01:13.850000,0.820313,-0.84082,-0.190918,7.637023,-47.8363,-93.055717,1.190101412944712
0 days 00:01:13.860000,0.822998,-0.844482,-0.192139,9.95636,-43.136593,-87.295525,1.1947355153543397
0 days 00:01:13.870000,0.805664,-0.846436,-0.172607,11.558532,-37.185669,-81.43615,1.181245765893364
0 days 00:01:13.880000,0.781006,-0.852051,-0.145752,13.130187,-33.332825,-74.539185,1.1649913837196393
0 days 00:01:13.890000,0.725586,-0.854004,-0.11499,15.258788,-34.194946,-68.115234,1.126508133797533
0 days 00:01:13.900000,0.681396,-0.849365,-0.100586,16.075134,-37.307739,-63.430782,1.0935442174128123
0 days 00:01:13.910000,0.678223,-0.852051,-0.101807,15.846251,-40.092468,-59.974667,1.0937742041111593
0 days 00:01:13.920000,0.677246,-0.870117,-0.118164,16.471863,-40.710445,-56.28204,1.1089312283009258
0 days 00:01:13.930000,0.823242,-0.727783,-0.206299,-3.639221,-66.947937,-111.961357,1.1180137579895875
0 days 00:01:13.940000,0.459229,-0.8479,-0.123291,0.495911,-18.302917,-5.958557,0.9721246602787114
0 days 00:01:13.950000,0.66626,-0.893311,-0.131104,17.776489,-37.109375,-45.646664,1.122094108859413
0 days 00:01:13.960000,0.634766,-0.897705,-0.124756,17.631531,-33.180237,-40.817257,1.1065108229552028
0 days 00:01:13.970000,0.614258,-0.900146,-0.115479,16.723633,-27.778624,-36.026001,1.0958608996223016
0 days 00:01:13.980000,0.597656,-0.893066,-0.107666,15.945434,-22.796629,-30.387877,1.0799775656225457
0 days 00:01:13.990000,0.556396,-0.880371,-0.099121,14.755248,-19.577026,-24.726866,1.0461618321741624
0 days 00:01:14,0.518799,-0.865723,-0.093994,12.687682,-16.441345,-20.072937,1.0136387853500872
0 days 00:01:14.010000,0.489502,-0.849854,-0.085693,9.841919,-13.610839,-16.014099,0.9844832754135542
0 days 00:01:14.020000,0.45874,-0.842041,-0.085205,7.087707,-13.183593,-12.794494,0.9626709330326745
