t,ax,ay,az,gx,gy,gz,acc_mag
0 days 00:00:01.820000,0.165283,0.683594,0.928955,233.80278,-237.289413,-92.071526,1.1651508996477666
0 days 00:00:01.830000,0.160156,0.695557,0.972656,215.255722,-209.449753,-82.221977,1.2064448511726509
0 days 00:00:01.840000,0.227783,0.979248,0.740967,-106.552116,117.462151,41.755672,1.2489370823552322
0 days 00:00:01.850000,0.233643,0.818115,1.016602,160.293579,-153.564453,-59.410091,1.325662412184188
0 days 00:00:01.860000,0.27002,0.896484,1.086426,131.126404,-127.189629,-47.71423,1.4341951806264026
0 days 00:00:01.870000,0.270264,0.945801,1.134521,103.958122,-101.318352,-39.131165,1.501572529296537
0 days 00:00:01.880000,0.26001,0.947754,1.096924,82.916252,-79.521179,-33.599854,1.4727814184026087
0 days 00:00:01.890000,0.168701,0.744873,0.969238,190.002426,-180.145248,-71.517944,1.23398464908361
0 days 00:00:01.900000,0.237061,0.932129,0.983643,46.035763,-45.768734,-23.41461,1.37572378834234
0 days 00:00:01.910000,0.246582,0.937256,0.976074,28.106688,-30.189512,-18.77594,1.3754897112432358
0 days 00:00:01.920000,0.262695,0.958496,0.950195,11.375426,-15.228271,-11.764525,1.374988648340778
0 days 00:00:01.930000,0.279053,0.995361,0.93335,-7.125854,-0.274658,-2.403259,1.3927513488164354
0 days 00:00:01.940000,0.301025,1.011719,0.938721,-24.932859,12.153625,5.477905,1.4125822105021004
0 days 00:00:01.950000,0.302979,0.988281,0.918701,-39.077759,21.713255,10.330199,1.382934248908096
0 days 00:00:01.960000,0.288574,0.949951,0.897217,-49.522396,31.242369,13.137816,1.3381629949172857
0 days 00:00:01.970000,0.266357,0.922607,0.870117,-57.205196,44.441219,15.99121,1.2958600702186174
0 days 00:00:01.980000,0.26123,0.921387,0.844238,-64.285278,62.042233,21.01898,1.2766882616022597
0 days 00:00:01.990000,0.270752,0.951904,0.815186,-75.187683,82.328789,27.938841,1.282168508939445
0 days 00:00:02,0.245605,0.934814,1.011719,65.483093,-62.004086,-28.732298,1.3992049047877155
0 days 00:00:02.010000,0.367432,0.739746,-0.407471,-3.814697,-7.30133,-8.377075,0.9210119624527143
0 days 00:00:02.020000,0.409668,0.72168,-0.388672,-4.043579,7.659912,-12.939452,0.916360090907499
0 days 00:00:02.030000,0.43335,0.702148,-0.365479,-6.805419,20.195005,-17.669678,0.9024294630856198
0 days 00:00:02.040000,0.423096,0.684814,-0.371826,-9.376526,28.762815,-20.103453,0.8866989421940233
0 days 00:00:02.050000,0.501709,0.509766,-0.388428,-29.266356,43.319698,-32.157898,0.813910072809644
0 days 00:00:02.060000,0.392822,0.594971,-0.418945,-10.742187,36.315918,-22.666929,0.8269307876418679
0 days 00:00:02.070000,0.414307,0.553711,-0.412598,-14.770507,38.604736,-24.261473,0.8052845902996032
0 days 00:00:02.080000,0.445801,0.529785,-0.406738,-21.499632,41.709896,-27.19116,0.8030233361926663
0 days 00:00:02.090000,0.397949,0.648193,-0.400391,-9.933472,33.866882,-21.461485,0.8595525142369138
0 days 00:00:02.100000,0.347656,0.753418,-0.395996,-7.102966,-24.108885,-8.010864,0.9194107945178804
0 days 00:00:02.110000,0.387207,0.713867,-0.540039,-8.796692,-16.464233,-7.995605,0.9752832799033315
0 days 00:00:02.120000,0.389404,0.727783,-0.419434,-20.03479,-63.110348,-21.804808,0.9258663244016384
0 days 00:00:02.130000,0.441162,0.67627,-0.442139,-23.773191,-77.453613,-22.819517,0.92057151730053
0 days 00:00:02.140000,0.499023,0.626953,-0.440186,-20.629881,-75.59967,-15.541076,0.9142525544585588
0 days 00:00:02.150000,0.550537,0.622803,-0.423828,-9.368896,-51.605221,-6.813049,0.9330620229984714
0 days 00:00:02.160000,0.60498,0.670898,-0.443359,5.180358,-13.160705,-3.471374,1.006316118168143
0 days 00:00:02.170000,0.602051,0.745117,-0.484375,12.809752,20.050049,-4.302979,1.0734448709249116
0 days 00:00:02.180000,0.519287,0.808594,-0.504883,9.361267,32.447815,-3.280639,1.0855367745470441
0 days 00:00:02.190000,0.405762,0.826904,-0.486816,-0.587463,25.779722,0.083923,1.0418266860260395
0 days 00:00:02.200000,0.335205,0.794678,-0.445801,-8.117676,12.290954,0.976562,0.9708831275235964
0 days 00:00:02.210000,0.34082,0.744141,-0.450439,-8.911133,-2.319336,-2.426147,0.9342373322673421
0 days 00:00:02.220000,0.568115,0.489502,-0.339844,-36.949158,41.28265,-40.061951,0.8233230262570094
0 days 00:00:02.230000,0.351563,0.75415,-0.395996,-13.435363,-42.816158,-13.931273,0.9214942199954377
0 days 00:00:02.240000,0.631836,0.467773,-0.283447,-44.731136,34.14917,-51.002499,0.8356856539596692
0 days 00:00:02.250000,0.351807,0.696533,-0.388672,23.818968,83.801262,-201.148972,0.8717753775612156
0 days 00:00:02.260000,0.608887,0.442383,-0.390625,-52.787777,5.935668,-76.683044,0.8479587183837429
0 days 00:00:02.270000,0.084229,0.865234,-0.520752,134.605408,-69.900513,-236.091599,1.0133642211470661
0 days 00:00:02.280000,0.166992,0.837402,-0.519043,142.593384,-36.613464,-243.957504,0.9992667679438759
0 days 00:00:02.290000,0.212646,0.83374,-0.467773,144.683838,-9.979248,-249.992355,0.9793632055805446
0 days 00:00:02.300000,0.219971,0.86084,-0.43457,138.343811,11.268615,-247.909531,0.9890823177779492
0 days 00:00:02.310000,0.225586,0.91333,-0.421875,125.480644,29.174803,-233.482346,1.0310379468870192
0 days 00:00:02.320000,0.238525,0.967773,-0.423584,109.046928,44.631954,-218.284592,1.0830060757955147
0 days 00:00:02.330000,0.253906,0.957275,-0.461182,91.499321,59.30328,-212.287888,1.0924891393441858
0 days 00:00:02.340000,0.257813,0.889648,-0.468262,76.171875,76.156616,-215.339645,1.0378874734367884
0 days 00:00:02.350000,0.259033,0.775879,-0.402344,70.297241,93.200676,-225.677475,0.9115739202423465
0 days 00:00:02.360000,0.279541,0.664551,-0.328369,70.152283,101.852409,-236.045822,0.7922104533790247
0 days 00:00:02.370000,0.651367,0.453857,-0.289551,-50.888058,21.751402,-64.01062,0.8450472926049761
0 days 00:00:02.380000,0.287842,0.613525,-0.32959,62.667843,99.334709,-234.329208,0.7535884226081236
0 days 00:00:02.390000,0.432129,0.736328,-0.370361,6.866455,77.827454,-184.020981,0.9306350877470717
0 days 00:00:02.400000,0.475342,0.724121,-0.337402,-5.859375,76.950073,-171.516403,0.9295920337486763
0 days 00:00:02.410000,0.472168,0.671875,-0.273926,-16.357422,81.153862,-163.726791,0.8656755104108005
0 days 00:00:02.420000,0.455566,0.5979,-0.238037,-26.992796,83.801262,-155.654907,0.7884709276346211
0 days 00:00:02.430000,0.433594,0.524902,-0.258545,-38.108826,76.087952,-145.629883,0.7282660114717697
0 days 00:00:02.440000,0.404785,0.463623,-0.332275,-45.425411,56.541439,-135.993958,0.6994310959479855
0 days 00:00:02.450000,0.370361,0.417725,-0.437256,-46.173092,30.380247,-126.983635,0.7091221724653657
0 days 00:00:02.460000,0.359131,0.393799,-0.510254,-46.104427,6.04248,-117.637627,0.737842714999613
0 days 00:00:02.470000,0.385986,0.39502,-0.554199,-47.821041,-5.844116,-104.553215,0.7824081570363387
0 days 00:00:02.480000,0.489258,0.414307,-0.520752,-50.750729,-5.393981,-89.363091,0.825957823570308
0 days 00:00:02.490000,0.296143,0.641357,-0.376221,44.56329,91.644279,-220.092758,0.8003634916330205
0 days 00:00:02.500000,0.456299,0.70752,-0.592773,-11.924743,-31.967161,-10.360717,1.0296471032980183
0 days 00:00:02.510000,0.487793,0.532959,-0.262695,43.235775,-51.948544,-17.227173,0.7687626223711711
0 days 00:00:02.520000,0.456055,0.764893,-0.458252,-11.413573,-45.043941,-10.765075,1.0015200247513776
0 days 00:00:02.530000,0.517578,0.571289,-0.197021,54.145809,-51.99432,-5.935668,0.7956603433915757
0 days 00:00:02.540000,0.52124,0.595703,-0.17041,57.083126,-48.126217,-3.257751,0.8096868344668819
0 days 00:00:02.550000,0.537842,0.615234,-0.181152,59.417721,-47.065731,-1.754761,0.8370202738428741
0 days 00:00:02.560000,0.575928,0.619141,-0.163086,61.340328,-48.59161,0.076294,0.8611769170507301
0 days 00:00:02.570000,0.605469,0.611328,-0.096924,63.423153,-49.736019,3.044128,0.865857318107897
0 days 00:00:02.580000,0.614746,0.617188,-0.065918,66.253662,-45.486446,6.385803,0.8736010843537226
0 days 00:00:02.590000,0.626953,0.637695,-0.068848,67.810059,-36.529541,11.398314,0.896919742417347
0 days 00:00:02.600000,0.643311,0.651855,-0.047363,67.733765,-25.3067,16.853333,0.9170644674803402
0 days 00:00:02.610000,0.662842,0.662109,-0.030029,66.940308,-14.656066,20.317076,0.9373631023706875
0 days 00:00:02.620000,0.674072,0.688721,-0.035889,66.268921,-6.889343,22.682188,0.9643638822280727
0 days 00:00:02.630000,0.496338,0.548828,-0.248047,50.376888,-54.527279,-10.231017,0.78044275769399
0 days 00:00:02.640000,0.648926,0.70459,-0.077148,66.360474,-0.411987,23.28491,0.9609910694069951
0 days 00:00:02.650000,0.661133,0.7771,-0.085693,63.552853,14.633178,35.125732,1.0238772113578853
0 days 00:00:02.660000,0.703857,0.811523,0.010742,60.287472,23.04077,49.652096,1.074290299007675
0 days 00:00:02.670000,0.698975,0.83252,0.074463,57.899471,34.393311,67.329407,1.0895872334944092
0 days 00:00:02.680000,0.67334,0.840088,0.054932,58.097836,50.315853,83.839409,1.0780315987799245
0 days 00:00:02.690000,0.676758,0.844971,-0.001221,63.758846,68.626404,93.185417,1.082579730202815
0 days 00:00:02.700000,0.696045,0.838379,-0.031494,74.615479,84.33532,96.412651,1.0901146094342558
0 days 00:00:02.710000,0.689453,0.848145,-0.040039,83.587639,96.145622,100.395195,1.0937543150794882
0 days 00:00:02.720000,0.665039,0.887451,-0.061035,85.258476,107.238762,107.841484,1.110662604100363
0 days 00:00:02.730000,0.68457,0.943604,-0.05835,81.504814,112.655632,116.744987,1.1672314749937134
0 days 00:00:02.740000,0.674561,0.990234,-0.027344,78.674316,113.075249,123.275749,1.1984755365934676
0 days 00:00:02.750000,0.632568,0.738281,-0.11792,65.841675,6.790161,25.665281,0.979339693867761
0 days 00:00:02.760000,0.486816,0.533936,-0.272949,46.646114,-54.76379,-15.441894,0.7723850248114602
0 days 00:00:02.770000,0.592529,1.01123,-0.013428,76.99585,111.625664,129.417419,1.1721164788215377
0 days 00:00:02.780000,0.486084,0.536377,-0.253418,40.145874,-49.461361,-13.908385,0.7669410824235458
0 days 00:00:02.790000,0.476318,0.822021,-0.46875,-11.108397,-42.4118,-7.43103,1.0593979063907009
0 days 00:00:02.800000,0.527588,0.844971,-0.430908,-13.732909,-39.855957,-0.350952,1.0853602135001081
0 days 00:00:02.810000,0.544189,0.834717,-0.404297,-14.938354,-36.613464,5.79071,1.0753372503633454
0 days 00:00:02.820000,0.520752,0.814697,-0.454346,-14.976501,-28.518675,7.8125,1.0683370886705188
0 days 00:00:02.830000,0.513184,0.798096,-0.525146,-17.028809,-16.38031,7.56073,1.0844783835503593
0 days 00:00:02.840000,0.540283,0.772461,-0.539795,-20.88928,-3.585815,6.851196,1.0862690084113602
0 days 00:00:02.850000,0.56958,0.744629,-0.504639,-23.445127,8.110046,5.805969,1.064685044678472
0 days 00:00:02.860000,0.558594,0.724121,-0.48584,-22.758482,15.129088,5.393981,1.0355766437483032
0 days 00:00:02.870000,0.529297,0.706543,-0.518311,-19.02771,14.22882,6.736755,1.0237209667575438
0 days 00:00:02.880000,0.485352,0.690918,-0.550781,-15.3656,4.142761,11.184691,1.0081140593152145
0 days 00:00:02.890000,0.424316,0.683105,-0.552979,-12.748717,-11.718749,15.640258,0.9759417417663823
0 days 00:00:02.900000,0.47876,0.716797,-0.508057,-13.618468,-43.197628,-10.871886,1.0005653362264755
0 days 00:00:02.910000,0.285889,0.674805,-0.513428,-9.513855,-40.100098,11.20758,0.8948198810542823
0 days 00:00:02.920000,0.267334,0.636475,-0.440674,-6.660461,-53.75671,6.462097,0.8190002853827342
0 days 00:00:02.930000,0.282471,0.593262,-0.360352,-3.623962,-67.337036,2.960205,0.7494019151223194
0 days 00:00:02.940000,0.312012,0.560791,-0.294678,-0.305176,-78.933716,1.113892,0.7061679386017182
0 days 00:00:02.950000,0.317139,0.553955,-0.272949,3.288269,-83.862297,0.190735,0.6942221862970096
0 days 00:00:02.960000,0.308594,0.568115,-0.297119,6.904602,-80.741875,-0.450134,0.7115227404812864
0 days 00:00:02.970000,0.324951,0.577881,-0.313965,11.260985,-72.898865,-0.709534,0.733562283509042
0 days 00:00:02.980000,0.376465,0.573975,-0.287842,18.089294,-64.842224,-1.319885,0.7443293718603344
0 days 00:00:02.990000,0.429688,0.560791,-0.260254,26.657103,-57.891842,-3.707886,0.7528947254038907
0 days 00:00:03,0.469238,0.549316,-0.25293,34.568787,-51.704403,-8.308411,0.7654449381895474
0 days 00:00:03.010000,0.349854,0.686279,-0.544189,-11.192321,-26.885984,15.434264,0.9431428072556138
0 days 00:00:03.020000,-0.992432,0.540039,-0.280762,-4.241943,11.657714,-4.394531,1.164212479227482
0 days 00:00:03.030000,-0.951904,0.576172,-0.291016,-5.508422,16.471863,-4.28009,1.150124215489788
0 days 00:00:03.040000,-0.911865,0.60498,-0.314453,-3.334045,20.927427,-4.79126,1.1385865218919464
0 days 00:00:03.050000,-0.884521,0.597412,-0.328369,0.457764,23.490904,-5.249023,1.1167384193919363
0 days 00:00:03.060000,-0.818359,0.470459,-0.285645,-3.555298,21.736143,-5.1651,0.9862231946101248
0 days 00:00:03.070000,-0.82251,0.536621,-0.323975,2.693176,26.153563,-4.692078,1.0341395449193498
0 days 00:00:03.080000,-0.796875,0.500732,-0.307617,1.00708,25.009153,-5.737304,0.9901366169059702
0 days 00:00:03.090000,-0.986084,0.518555,-0.270752,-1.419067,7.781982,-4.508972,1.1465459382794045
0 days 00:00:03.100000,-0.856689,0.568115,-0.326172,2.540588,25.177,-4.562378,1.0784520710397845
0 days 00:00:03.110000,-0.918213,0.529053,-0.278076,0.640869,7.369995,-3.715515,1.0955995855941165
0 days 00:00:03.120000,-0.780762,0.513916,-0.283447,14.129638,48.950191,0.930786,0.9767503045860799
0 days 00:00:03.130000,-0.763672,0.544678,-0.29834,1.296997,19.874573,0.511169,0.984314890097676
0 days 00:00:03.140000,-0.743408,0.53418,-0.301025,3.288269,29.266356,2.235413,0.9636491983543596
0 days 00:00:03.150000,-0.746826,0.523438,-0.294434,7.942199,39.627075,2.700805,0.958346385434828
0 days 00:00:03.160000,-0.832275,0.475098,-0.266357,-11.497497,18.676758,-3.379822,0.9946586533469661
0 days 00:00:03.170000,-0.846191,0.524414,-0.286133,19.096375,52.902218,-2.708435,1.0358191664407452
0 days 00:00:03.180000,-0.930908,0.589111,-0.290039,18.165588,49.636837,-7.316589,1.139194494503024
0 days 00:00:03.190000,-1.031738,0.683594,-0.270508,9.735107,38.230896,-8.056641,1.2668696205782188
0 days 00:00:03.200000,-1.107422,0.762451,-0.236084,-3.105163,19.226074,-4.707336,1.3650826599664212
0 days 00:00:03.210000,-1.130371,0.799805,-0.236816,-18.104553,-2.243042,-2.944946,1.4048161636036227
0 days 00:00:03.220000,-1.112793,0.797363,-0.249023,-31.074522,-22.247313,-2.159119,1.3914411482872713
0 days 00:00:03.230000,-1.069824,0.787598,-0.251709,-41.557308,-37.742615,-2.624511,1.3521062906668988
0 days 00:00:03.240000,-0.828125,0.542725,-0.292725,1.037598,11.932372,-1.472473,1.0324869814554565
0 days 00:00:03.250000,-0.810059,0.525146,-0.259033,-19.546509,17.486572,-2.548218,0.9995358922449958
0 days 00:00:03.260000,-0.810303,0.630127,-0.222412,-21.453856,-7.659912,-2.670288,1.0502942852753223
0 days 00:00:03.270000,-0.758301,0.60083,-0.268311,-23.399351,11.169433,-2.166748,1.003995960261793
0 days 00:00:03.280000,-0.993652,0.79834,-0.281494,-56.823727,-44.708248,-5.91278,1.3053466684141803
0 days 00:00:03.290000,-0.857178,0.539307,-0.362061,29.640196,11.543273,-3.730774,1.07549724855715
0 days 00:00:03.300000,-0.852051,0.560303,-0.318359,29.701231,11.222838,-3.265381,1.0683083877284685
0 days 00:00:03.310000,-0.856201,0.587402,-0.289551,28.755186,10.726928,-3.173828,1.0779429686240363
0 days 00:00:03.320000,-0.870361,0.616455,-0.273926,26.580809,9.559631,-3.257751,1.1011723256702377
0 days 00:00:03.330000,-0.880127,0.634766,-0.252197,23.628233,6.874084,-1.678467,1.1140712444426524
0 days 00:00:03.340000,-0.873047,0.636475,-0.228027,21.614073,3.944397,0.221252,1.1042227142035252
0 days 00:00:03.350000,-0.875,0.625977,-0.216309,22.994993,2.754211,1.319885,1.0973886221434956
0 days 00:00:03.360000,-0.891113,0.628418,-0.208496,25.55847,2.952575,1.464844,1.1101631157217393
0 days 00:00:03.370000,-0.887207,0.666504,-0.199219,25.161741,3.326416,-0.137329,1.1274094432928972
0 days 00:00:03.380000,-0.780518,0.579102,-0.26709,-23.551939,15.441894,-2.288818,1.0079209010770638
0 days 00:00:03.390000,-0.874268,0.712891,-0.196533,21.980284,4.440308,-2.006531,1.1450691393073171
0 days 00:00:03.400000,-0.880127,0.740479,-0.184814,14.10675,5.332946,-1.296997,1.1649415865896453
0 days 00:00:03.410000,-0.889648,0.519287,-0.417969,29.563902,12.313842,-3.77655,1.1116791970861017
0 days 00:00:03.420000,-0.906494,0.765869,-0.178467,2.288818,3.822326,1.655578,1.2000571516748693
0 days 00:00:03.430000,-0.915527,0.783447,-0.159424,-8.201599,1.823425,0.961304,1.2154813455228344
0 days 00:00:03.440000,-0.9375,0.765137,-0.141602,-17.76123,-2.670288,1.029968,1.2183562718568817
0 days 00:00:03.450000,-0.969238,0.718506,-0.137207,-23.094175,-9.231567,1.060486,1.2142894768254398
0 days 00:00:03.460000,-0.978271,0.656982,-0.155029,-23.506163,-14.968871,0.663757,1.1885594173645675
0 days 00:00:03.470000,-0.9104,0.630371,-0.185547,-22.041319,-14.595031,-1.068115,1.122774886987592
0 days 00:00:03.480000,-0.755615,0.624023,-0.248779,-22.239683,0.053406,-2.227783,1.011063659516551
0 days 00:00:03.490000,-0.747559,0.612793,-0.260498,-22.918699,5.91278,-1.800537,1.001108848894065
0 days 00:00:03.500000,-0.87085,0.740479,-0.189453,17.63916,5.554199,-2.243042,1.158698110445512
0 days 00:00:03.510000,-0.89917,0.740967,-0.18457,9.918213,4.554749,0.88501,1.1796630319243713
0 days 00:00:03.520000,-0.883301,0.795654,-0.312988,-77.75116,-41.419979,-8.262634,1.229328041029326
0 days 00:00:03.530000,-0.795898,0.646973,-0.284424,-113.998405,-30.227659,-0.411987,1.064389355879229
0 days 00:00:03.540000,-1.482178,0.775391,-0.52124,-56.137081,-79.89502,13.000487,1.752077042873686
0 days 00:00:03.550000,-1.557373,0.659424,-0.517334,-75.454712,-107.566826,30.311583,1.7685828056557034
0 days 00:00:03.560000,-1.739502,0.407959,-0.615723,-65.788269,-150.810242,45.448299,1.8898181305125636
0 days 00:00:03.570000,-2.151123,0.202637,-0.750488,-14.381408,-159.164429,6.454467,2.2872743939112334
0 days 00:00:03.580000,-2.110107,0.158936,-0.683838,43.739315,-121.131889,-68.603516,2.2238360132413093
0 days 00:00:03.590000,-1.517334,0.30127,-0.227783,49.743649,-118.339531,-129.53186,1.563633964694103
0 days 00:00:03.600000,-1.523438,0.4646,-0.177002,20.675657,-142.166138,-163.955673,1.6025124672987727
0 days 00:00:03.610000,-1.412354,0.523193,-0.307129,4.547119,-128.715515,-185.554489,1.5371411643717048
0 days 00:00:03.620000,-1.347656,0.501709,-0.529053,7.232666,-89.210503,-188.842758,1.532248573771893
0 days 00:00:03.630000,-1.119141,0.429443,-0.513672,59.898373,-69.17572,-186.943039,1.3041306651229394
0 days 00:00:03.640000,-1.355713,0.733398,-0.429199,-22.735594,-63.858028,15.670775,1.6000131706876666
0 days 00:00:03.650000,-1.146973,0.430664,-0.756104,98.472588,-92.26989,-187.820419,1.4396915650378035
0 days 00:00:03.660000,-1.0,0.544678,-0.766113,103.851311,-115.875237,-247.16185,1.3724442620569333
0 days 00:00:03.670000,-1.131836,0.513672,-0.478271,88.676445,-95.352165,-249.992355,1.3317863206689728
0 days 00:00:03.680000,-1.238525,0.497803,-0.331055,76.377869,-77.072144,-249.992355,1.375263398574615
0 days 00:00:03.690000,-0.985352,0.5271,-0.299561,74.485779,-72.273254,-249.992355,1.1569311849133466
0 days 00:00:03.700000,-0.593262,0.574219,-0.323486,80.589287,-93.818657,-249.93132,0.8867527574250897
0 days 00:00:03.710000,-0.24707,0.68042,-0.321533,87.516777,-120.391838,-249.900803,0.7920848637545096
0 days 00:00:03.720000,-0.035645,0.756348,-0.297607,98.159782,-131.484985,-249.992355,0.8135740836445075
0 days 00:00:03.730000,0.062012,0.824463,-0.313721,112.037651,-125.823967,-247.901901,0.8843108007674677
0 days 00:00:03.740000,0.05127,0.86377,-0.419678,124.26757,-103.60717,-236.640915,0.9616947797945042
0 days 00:00:03.750000,-0.795654,0.751709,-0.309814,-99.502556,-33.409119,-4.310608,1.1375923799819512
0 days 00:00:03.760000,-1.114746,0.493164,-0.90918,110.79406,-119.201653,-212.12767,1.520683283202653
0 days 00:00:03.770000,-1.256592,0.669434,-0.351318,-5.53894,-37.872314,35.446167,1.4664888925402741
0 days 00:00:03.780000,-1.225342,0.456787,-0.586182,24.04022,-67.008972,-186.759933,1.4330829415832846
0 days 00:00:03.790000,-1.020508,0.586182,-0.350342,-2.067566,11.489867,61.912533,1.227919147237309
0 days 00:00:03.800000,-1.143066,0.626221,-0.35083,-1.220703,-9.933472,54.405209,1.349753425665962
0 days 00:00:03.810000,-0.986328,0.415527,-0.309082,-121.528618,-40.260311,6.16455,1.1140185339737396
0 days 00:00:03.820000,-0.995361,0.350342,-0.253174,-116.630547,-48.805233,10.169982,1.0851636335415042
0 days 00:00:03.830000,-0.982178,0.290771,-0.232178,-105.094902,-52.955624,12.702941,1.0502990154279876
0 days 00:00:03.840000,-0.975342,0.253662,-0.26123,-88.928215,-52.566525,15.464782,1.0410943953878535
0 days 00:00:03.850000,-0.962158,0.237793,-0.333008,-71.95282,-53.169247,20.400999,1.0455562423308464
0 days 00:00:03.860000,-0.903076,0.240723,-0.336182,-50.064083,-53.321835,21.972654,0.9932331859281586
0 days 00:00:03.870000,-0.821045,0.280518,-0.32959,-33.729553,-47.019955,13.542174,0.9281351240250528
0 days 00:00:03.880000,-0.757813,0.305908,-0.273438,-27.412413,-30.34973,0.030518,0.8617590076564329
0 days 00:00:03.890000,-0.698242,0.304443,-0.182373,-21.492002,-13.46588,-8.285522,0.7832543277518484
0 days 00:00:03.900000,-0.695313,0.291992,-0.13501,-10.44464,5.722045,-10.490417,0.7661247914883057
0 days 00:00:03.910000,-0.896729,0.519043,-0.302246,-120.544426,-33.432007,1.876831,1.0792966134506305
0 days 00:00:03.920000,-0.810059,0.302979,-0.23584,3.204345,35.102844,-11.83319,0.8964442891345786
0 days 00:00:03.930000,-0.74585,0.285645,-0.17627,-3.822326,25.405882,-11.421203,0.8178975494675357
0 days 00:00:03.940000,-0.875244,0.54126,-0.351074,3.52478,24.253843,49.331661,1.0873212039742444
0 days 00:00:03.950000,-0.848389,0.532715,-0.330322,16.517639,16.044617,41.755672,1.0548278486227032
0 days 00:00:03.960000,-0.830322,0.505127,-0.305664,33.508301,4.211426,39.337158,1.0188318755854666
0 days 00:00:03.970000,-0.834961,0.444824,-0.314941,42.28973,-4.699707,36.178589,0.9971038541586327
0 days 00:00:03.980000,-0.928223,0.555176,-0.317383,-1.838684,23.933409,58.845516,1.1271868955031372
0 days 00:00:03.990000,-0.848389,0.368896,-0.333984,33.943176,-0.679016,19.172668,0.9835616230785948
0 days 00:00:04,-0.835205,0.363525,-0.328613,24.276731,14.915465,6.057739,0.9683513419307065
0 days 00:00:04.010000,-0.827881,0.341064,-0.317383,14.526366,30.151365,-6.706237,0.9499703000336378
0 days 00:00:04.020000,-0.859131,0.394043,-0.36499,38.642883,-7.064819,29.685972,1.0132095840002697
0 days 00:00:04.030000,-0.895752,0.666016,-0.174561,17.13562,11.383056,6.645202,1.1297878121492548
0 days 00:00:04.040000,-0.843994,0.533691,-0.277344,14.320373,6.301879,-2.220154,1.0363742807755314
0 days 00:00:04.050000,-0.818115,0.532959,-0.249756,16.593933,9.231567,-1.693725,1.0078370445870701
0 days 00:00:04.060000,-0.814697,0.535156,-0.225098,18.959045,12.329101,-0.778198,1.0003960494469177
0 days 00:00:04.070000,-0.822754,0.541016,-0.200684,21.011351,14.434813,0.419617,1.00493607987175
0 days 00:00:04.080000,-0.840332,0.557617,-0.181885,22.499083,15.441894,1.792908,1.0247813142997875
0 days 00:00:04.090000,-0.854248,0.58374,-0.175537,22.750853,15.380858,2.868652,1.0494309274425833
0 days 00:00:04.100000,-0.865234,0.530762,-0.312256,12.756347,4.768372,-2.349854,1.0619990512877118
0 days 00:00:04.110000,-0.871826,0.60791,-0.174805,22.132872,14.595031,3.837585,1.0771220591933859
0 days 00:00:04.120000,-0.891113,0.637695,-0.177246,20.591734,13.107299,4.959106,1.1100240701489317
0 days 00:00:04.130000,-0.888672,0.691162,-0.176025,11.505126,11.466979,6.706237,1.1394856885687508
0 days 00:00:04.140000,-0.975098,0.771973,-0.235596,-19.737244,-22.02606,1.533508,1.2658056318206994
0 days 00:00:04.150000,-0.946289,0.69165,-0.179443,4.959106,11.260985,1.861572,1.1857665808539217
0 days 00:00:04.160000,-1.003906,0.696289,-0.161133,1.091003,0.88501,2.220154,1.2323187380081502
0 days 00:00:04.170000,-1.022949,0.736572,-0.191406,-7.408142,-12.695312,2.113342,1.2749898919681677
0 days 00:00:04.180000,-0.905762,0.746826,-0.255859,-29.609678,-25.230406,-0.25177,1.2015064306115883
0 days 00:00:04.190000,-0.882568,0.658447,-0.281006,-31.951902,-25.718687,-2.029419,1.1364167802654974
0 days 00:00:04.200000,-0.894287,0.568848,-0.312744,-28.839109,-26.481627,-2.01416,1.1050547927632368
0 days 00:00:04.210000,-0.886719,0.519531,-0.339355,-24.963377,-26.657103,-1.770019,1.0822868662914653
0 days 00:00:04.220000,-0.843506,0.498779,-0.376709,-22.735594,-23.811338,-2.304077,1.0498535771992208
0 days 00:00:04.230000,-0.791016,0.478271,-0.407959,-20.698545,-18.074036,-3.27301,1.0103860684797668
0 days 00:00:04.240000,-0.874512,0.522217,-0.3479,11.894225,4.814148,-2.166748,1.0763439242328634
0 days 00:00:04.250000,-0.898193,0.701904,-0.189453,7.316589,13.504027,3.890991,1.1555571511933107
0 days 00:00:04.260000,-0.877441,0.50415,-0.442871,8.827209,6.057739,-2.578735,1.1046287401756303
0 days 00:00:04.270000,-0.75708,0.446533,-0.432861,-16.983032,-10.864257,-3.105163,0.9797604257215128
0 days 00:00:04.280000,-0.855469,0.487549,-0.529053,6.072998,9.19342,-3.570556,1.117778293836036
0 days 00:00:04.290000,-0.845703,0.642334,-0.212402,2.586365,-0.900268,3.234863,1.0830148389422003
0 days 00:00:04.300000,-0.842041,0.623291,-0.214355,2.456665,0.968933,3.883362,1.0693328679073697
0 days 00:00:04.310000,-0.864502,0.608398,-0.227295,4.043579,2.662658,3.616333,1.0812838903049466
0 days 00:00:04.320000,-0.903809,0.626221,-0.254395,3.952026,1.968384,3.547668,1.1286010213299473
0 days 00:00:04.330000,-0.951416,0.670166,-0.276855,-0.701904,-2.128601,2.799988,1.1962288926610158
0 days 00:00:04.340000,-0.986084,0.716064,-0.279297,-10.002136,-8.773804,-0.511169,1.2502464242544347
0 days 00:00:04.350000,-0.998535,0.725098,-0.258545,-20.38574,-17.448425,-2.235413,1.260827019401948
0 days 00:00:04.360000,-0.990723,0.691162,-0.22583,-27.420042,-27.603148,-1.045227,1.2289166618908705
0 days 00:00:04.370000,-0.949219,0.647217,-0.253174,-31.09741,-34.599304,-1.38855,1.1764368360970343
0 days 00:00:04.380000,-0.890137,0.595947,-0.292969,-32.325745,-35.499573,-1.739502,1.1105528085323093
0 days 00:00:04.390000,-0.873779,0.49585,-0.488037,7.286071,7.728576,-3.128052,1.116931992876021
0 days 00:00:04.400000,-0.850586,0.547607,-0.320801,-30.807493,-33.454895,-1.533508,1.0612649299048753
0 days 00:00:04.410000,-0.817871,0.497803,-0.378418,-27.084349,-26.000975,-1.937866,1.0295246389348824
0 days 00:00:04.420000,-0.803223,0.475098,-0.399414,-24.902342,-21.553038,-1.274109,1.0150944984231765
0 days 00:00:04.430000,-0.786133,0.449463,-0.426514,-21.057127,-16.052246,-1.564026,1.0009676689354157
0 days 00:00:04.440000,-0.75708,0.420166,-0.451904,-15.830993,-9.788513,-1.861572,0.9766917728597901
0 days 00:00:04.450000,-0.741455,0.401855,-0.461182,-9.788513,-3.318786,-1.419067,0.9612137094184622
0 days 00:00:04.460000,-0.75415,0.394287,-0.475342,-3.883362,2.059937,-0.88501,0.9747586767159346
0 days 00:00:04.470000,-0.780273,0.402832,-0.502197,0.450134,5.081176,-0.701904,1.011583610761859
0 days 00:00:04.480000,-0.807373,0.416992,-0.517334,3.387451,6.385803,-0.915527,1.0456423656054683
0 days 00:00:04.490000,-0.821533,0.441895,-0.532715,5.355834,7.835388,-1.716614,1.0742313216151351
0 days 00:00:04.500000,-0.832764,0.470459,-0.539063,5.821228,9.208679,-3.15094,1.0979145997508184
0 days 00:00:04.510000,-0.834229,0.517822,-0.353271,-28.465269,-30.059813,-1.831055,1.0434931947866264
0 days 00:00:04.520000,-0.745117,0.400879,-0.437012,-10.925292,-3.341675,-1.731872,0.9523039454260389
0 days 00:00:04.530000,-0.878906,0.510498,-0.392334,10.57434,5.264282,-2.227783,1.089499854243221
0 days 00:00:04.540000,-0.791504,0.361084,-0.497559,5.096435,7.583618,-0.267029,1.0022101553830913
0 days 00:00:04.550000,-0.937988,0.711426,-0.169922,1.953125,9.757996,4.600525,1.189462873613128
0 days 00:00:04.560000,-0.955811,0.726074,-0.179932,-1.365662,4.516602,2.632141,1.2137271710812938
0 days 00:00:04.570000,-0.982178,0.772461,-0.205566,-10.131835,-2.441406,0.808716,1.2663439503393223
0 days 00:00:04.580000,-1.047119,0.797852,-0.250488,-20.996092,-12.695312,-0.602722,1.3400635254378799
0 days 00:00:04.590000,-1.101807,0.776123,-0.282227,-29.441832,-25.947569,-1.358032,1.3769523070560576
0 days 00:00:04.600000,-1.056885,0.744629,-0.2854,-36.399841,-38.597107,-3.746032,1.323983161096092
0 days 00:00:04.610000,-0.949707,0.706299,-0.272949,-43.434139,-47.904964,-5.119323,1.2146204427108083
0 days 00:00:04.620000,-0.888916,0.660645,-0.268799,-48.233028,-52.055355,-4.936218,1.1396825757560742
0 days 00:00:04.630000,-0.848877,0.617432,-0.295654,-51.940914,-51.162716,-5.645751,1.090516264651289
0 days 00:00:04.640000,-0.785645,0.558838,-0.334961,-52.612301,-44.586178,-7.156372,1.0206551071689203
0 days 00:00:04.650000,-0.900391,0.719238,-0.179688,4.150391,13.084411,5.775451,1.1663168655511247
0 days 00:00:04.660000,-0.739014,0.47168,-0.371094,-47.355648,-34.454346,-8.308411,0.9520160037688442
0 days 00:00:04.670000,-0.702148,0.3125,-0.42334,-26.161192,-12.954711,-5.928039,0.8774308061060997
0 days 00:00:04.680000,-0.673584,0.26416,-0.429443,-14.434813,-2.830505,-3.120422,0.8413781557094289
0 days 00:00:04.690000,-0.652588,0.236084,-0.447021,-2.571106,7.606506,1.037598,0.8254904767718402
0 days 00:00:04.700000,-0.638184,0.234863,-0.480957,7.583618,18.264771,4.646301,0.8329220146412267
0 days 00:00:04.710000,-0.657471,0.241455,-0.524658,17.463684,27.618406,5.447387,0.8751197917028274
0 days 00:00:04.720000,-0.727051,0.26123,-0.568359,26.199339,33.348083,4.600525,0.9591017789484075
0 days 00:00:04.730000,-0.807861,0.305908,-0.600342,31.372068,35.354614,3.128052,1.051964646149765
0 days 00:00:04.740000,-0.862305,0.367676,-0.614258,33.004761,34.919739,0.228882,1.1207445938147549
0 days 00:00:04.750000,-0.905518,0.420654,-0.602051,32.501221,31.967161,-2.929687,1.165923686456794
0 days 00:00:04.760000,-0.956299,0.451172,-0.556885,31.661985,24.772642,-3.425598,1.1950668827350208
0 days 00:00:04.770000,-0.721436,0.381104,-0.404785,-37.30011,-23.681639,-7.8125,0.9108024248633729
0 days 00:00:04.780000,-0.849121,0.711914,-0.1875,9.185791,13.641356,6.156921,1.1238257276094903
0 days 00:00:04.790000,-0.951416,0.48291,-0.482178,30.647276,16.319275,-3.204345,1.1708501598582117
0 days 00:00:04.800000,-0.811035,0.676758,-0.178467,15.243529,10.978698,5.783081,1.0712747695516776
0 days 00:00:04.810000,-0.809814,0.388428,-0.525391,9.712219,10.513305,-0.183105,1.0405338671379227
0 days 00:00:04.820000,-0.821533,0.435547,-0.537842,10.719298,12.435912,-0.274658,1.0741935003815652
0 days 00:00:04.830000,-0.820557,0.481445,-0.534668,8.44574,14.709472,-1.754761,1.0913170705610722
0 days 00:00:04.840000,-0.822754,0.492676,-0.518311,6.896972,16.960144,-2.998352,1.0900917751331767
0 days 00:00:04.850000,-0.843994,0.480713,-0.487061,8.995056,17.669678,-2.693176,1.0865722608855797
0 days 00:00:04.860000,-0.852051,0.487549,-0.438721,11.611938,17.616272,-2.586365,1.075253946676319
0 days 00:00:04.870000,-0.76123,0.366455,-0.458984,-2.624511,3.112793,-0.50354,0.9614711083443953
0 days 00:00:04.880000,-0.868408,0.536133,-0.344727,12.008666,16.036987,-3.814697,1.0772222392254998
0 days 00:00:04.890000,-0.892578,0.559326,-0.306396,10.437011,12.168883,-3.982544,1.0970048172984475
0 days 00:00:04.900000,-0.909912,0.56958,-0.281738,8.766174,7.987976,-3.257751,1.1098367108669636
0 days 00:00:04.910000,-0.916748,0.564209,-0.270264,7.865905,4.53186,-2.761841,1.1098654517016915
0 days 00:00:04.920000,-0.851563,0.510742,-0.38916,12.435912,17.63916,-3.227234,1.0665188414336617
0 days 00:00:04.930000,-0.924561,0.548828,-0.242188,9.613037,-0.694275,-2.876281,1.1021253302819058
0 days 00:00:04.940000,-0.916504,0.555908,-0.220459,10.055541,-2.502441,-2.89154,1.0943561838638278
0 days 00:00:04.950000,-0.922119,0.561279,-0.202881,11.589049,-3.562927,-3.227234,1.0984071495410979
0 days 00:00:04.960000,-0.927734,0.565186,-0.195313,13.504027,-5.485534,-2.685547,1.1037539387567321
0 days 00:00:04.970000,-0.904541,0.579346,-0.193115,14.389037,-6.561279,-2.006531,1.0913888452893405
0 days 00:00:04.980000,-0.863037,0.599609,-0.185303,14.236449,-5.226135,-1.792908,1.0670993477924162
0 days 00:00:04.990000,-0.833496,0.609131,-0.176758,14.35089,-2.388,-1.197815,1.047377461921441
0 days 00:00:05,-0.828857,0.601563,-0.169189,16.189575,0.587463,0.473022,1.0380302920141589
0 days 00:00:05.010000,-0.833496,0.601563,-0.166504,19.126892,3.120422,2.464294,1.0413055300923932
0 days 00:00:05.020000,-0.819336,0.629395,-0.169434,19.462585,6.607055,4.386902,1.0469753709027734
0 days 00:00:05.030000,-0.921143,0.551758,-0.260986,8.81958,1.785278,-3.005981,1.1050135787441708
0 days 00:00:05.040000,-0.865967,0.553223,-0.358887,-3.280639,-14.755248,1.63269,1.0884642445147201
0 days 00:00:05.050000,-0.868164,0.547363,-0.36377,-3.837585,-15.258788,1.708984,1.088872626878369
0 days 00:00:05.060000,-0.871338,0.549561,-0.366943,-4.829407,-15.73944,2.01416,1.0935695534413894
0 days 00:00:05.070000,-0.870361,0.562988,-0.366699,-5.607605,-16.036987,2.243042,1.0995234945493435
0 days 00:00:05.080000,-0.892334,0.564941,-0.298584,-5.180358,-19.752502,3.341675,1.097529364569805
0 days 00:00:05.090000,-0.878906,0.57251,-0.358887,-3.738403,-16.067505,2.426147,1.1086222691724172
0 days 00:00:05.100000,-0.875244,0.560059,-0.341797,-2.02179,-16.51001,2.02179,1.0938662314131469
0 days 00:00:05.110000,-0.873291,0.552246,-0.317627,-2.914428,-17.982483,2.250671,1.0809716584286566
0 days 00:00:05.120000,-0.871582,0.573242,-0.362061,-5.493164,-16.204834,2.510071,1.1042417040707166
0 days 00:00:05.130000,-0.855225,0.561523,-0.349121,-3.616333,-13.710021,1.716614,1.081019589459414
0 days 00:00:05.140000,-0.838623,0.578857,-0.231445,8.880615,14.839171,3.494262,1.0449549036216825
0 days 00:00:05.150000,-0.825195,0.559814,-0.328613,-3.959656,-8.369446,1.747131,1.0499166664026245
0 days 00:00:05.160000,-0.816406,0.547852,-0.315186,-2.777099,-5.172729,1.739502,1.0324741087969227
0 days 00:00:05.170000,-0.820313,0.534424,-0.303467,-0.724792,-2.693176,1.487732,1.0249949511261018
0 days 00:00:05.180000,-0.831299,0.529785,-0.294678,1.556396,-1.159668,1.068115,1.0288660249566024
0 days 00:00:05.190000,-0.836914,0.530273,-0.285889,3.593445,-0.335693,0.465393,1.0311871887518775
0 days 00:00:05.200000,-0.824951,0.536133,-0.279297,5.493164,1.106262,0.144958,1.022736310247661
0 days 00:00:05.210000,-0.809326,0.542969,-0.269287,7.308959,3.684997,0.457764,1.0111080049163887
0 days 00:00:05.220000,-0.801025,0.550537,-0.262451,8.987427,6.996154,1.373291,1.0067832767755929
0 days 00:00:05.230000,-0.805664,0.563232,-0.250244,9.666443,10.57434,2.563476,1.0143701623450878
0 days 00:00:05.240000,-0.818604,0.574951,-0.239258,9.292603,13.183593,3.173828,1.0285550796048795
0 days 00:00:05.250000,-0.917236,0.573975,-0.279541,-6.42395,-20.439146,4.173279,1.1175474714758207
0 days 00:00:05.260000,-0.8396,0.567627,-0.338379,-4.074097,-11.428832,1.724243,1.0684703640110942
0 days 00:00:05.270000,-0.9375,0.586182,-0.257324,-6.523132,-18.074036,3.967285,1.1352229860692569
0 days 00:00:05.280000,-0.835938,0.561523,-0.216553,-0.282288,0.907898,1.564026,1.0300464170036223
0 days 00:00:05.290000,-0.931152,0.606445,-0.242432,-3.707886,-9.399414,2.334595,1.1373622377030987
0 days 00:00:05.300000,-0.86377,0.574951,-0.213867,8.872986,15.060424,3.608703,1.0594368121742797
0 days 00:00:05.310000,-0.901855,0.611572,-0.195801,-10.360717,-14.091491,0.076294,1.1071137176505401
0 days 00:00:05.320000,-0.886963,0.601318,-0.199707,-10.169982,-13.259887,-0.404358,1.0900319198729915
0 days 00:00:05.330000,-0.884766,0.589844,-0.203857,-8.979797,-11.96289,-0.724792,1.082720876099191
0 days 00:00:05.340000,-0.882568,0.584473,-0.201416,-7.850646,-11.238097,-0.823975,1.077545065140665
0 days 00:00:05.350000,-0.87793,0.589355,-0.205078,-7.690429,-10.82611,-1.243591,1.0771060240333818
0 days 00:00:05.360000,-0.875,0.592773,-0.206299,-7.698059,-10.894774,-1.121521,1.0768305841356847
0 days 00:00:05.370000,-0.87207,0.593994,-0.212646,-7.835388,-11.566161,-0.160217,1.0763611281777135
0 days 00:00:05.380000,-0.854004,0.597656,-0.214111,-8.293152,-11.352538,0.37384,1.0641236049787637
0 days 00:00:05.390000,-0.831543,0.590088,-0.215088,-7.904052,-9.33075,0.617981,1.042079870421169
0 days 00:00:05.400000,-0.942871,0.602051,-0.252441,-5.798339,-13.778686,3.036499,1.1468206432232548
0 days 00:00:05.410000,-0.826904,0.572754,-0.213867,-6.195068,-6.698608,0.923157,1.0283756431484556
0 days 00:00:05.420000,-0.830811,0.554688,-0.218994,-1.831055,-1.167297,1.037598,1.0226847349506103
0 days 00:00:05.430000,-0.848877,0.57251,-0.2146,0.442505,1.861572,2.26593,1.046141969920431
0 days 00:00:05.440000,-0.862549,0.587891,-0.219238,0.488281,1.983642,3.14331,1.0666170380816162
0 days 00:00:05.450000,-0.867432,0.605225,-0.220947,-0.846863,1.968384,3.471374,1.080533734807942
0 days 00:00:05.460000,-0.868652,0.610352,-0.217773,-2.693176,2.067566,3.051758,1.0837485596470244
0 days 00:00:05.470000,-0.88501,0.601074,-0.214355,-3.196716,1.197815,3.288269,1.091091526683715
0 days 00:00:05.480000,-0.907471,0.585205,-0.208252,-2.479553,-1.022339,3.77655,1.0996987784707228
0 days 00:00:05.490000,-0.913086,0.577393,-0.202637,-1.091003,-2.754211,3.204345,1.0991680825124062
0 days 00:00:05.500000,-0.912598,0.580322,-0.2146,-0.442505,-4.089355,2.26593,1.1025705842656968
0 days 00:00:05.510000,-0.918213,0.592285,-0.225586,-1.426697,-6.065368,1.914978,1.1157085990481563
0 days 00:00:05.520000,-0.828125,0.558105,-0.216064,-4.005432,-4.02832,0.930786,1.0217415811965371
0 days 00:00:05.530000,-0.893311,0.571289,-0.19873,9.399414,13.71765,3.166198,1.0788277328387512
0 days 00:00:05.540000,-0.92334,0.575928,-0.188721,10.765075,10.681151,2.403259,1.1044751842504203
0 days 00:00:05.550000,-0.938721,0.59082,-0.181885,11.161803,6.568908,1.976013,1.1239873404384944
0 days 00:00:05.560000,-0.859131,0.529541,-0.312256,2.990722,-2.39563,-1.701355,1.0564201604371244
0 days 00:00:05.570000,-0.856689,0.546631,-0.307617,2.952575,-0.747681,-1.51062,1.0617672586640634
0 days 00:00:05.580000,-0.865479,0.560059,-0.309326,2.39563,-1.342773,0.0,1.0762911117341813
0 days 00:00:05.590000,-0.867188,0.577148,-0.314697,0.869751,-2.510071,0.816345,1.0881861251904474
0 days 00:00:05.600000,-0.860596,0.587158,-0.318848,-1.121521,-2.510071,0.732422,1.0895155066744118
0 days 00:00:05.610000,-0.854492,0.589111,-0.321045,-2.296448,-1.63269,-0.457764,1.086406112100811
0 days 00:00:05.620000,-0.861816,0.588135,-0.311523,-2.532959,-0.991821,-1.533508,1.0888875863054
0 days 00:00:05.630000,-0.876221,0.578369,-0.298096,-2.220154,-1.686096,-1.289368,1.0913913900237624
0 days 00:00:05.640000,-0.893311,0.578857,-0.28125,-2.357483,-4.089355,-0.488281,1.1009911587610501
0 days 00:00:05.650000,-0.901855,0.5896,-0.263672,-3.913879,-6.958007,-0.083923,1.109276126403611
0 days 00:00:05.660000,-0.87085,0.510986,-0.311523,2.342224,-4.79126,-0.968933,1.0566612485678655
0 days 00:00:05.670000,-0.905273,0.599609,-0.257568,-6.141662,-9.819031,-0.297546,1.1159710713248798
0 days 00:00:05.680000,-0.900391,0.595215,-0.248047,-8.796692,-13.053893,-1.38855,1.1074800961258853
0 days 00:00:05.690000,-0.897217,0.574463,-0.246826,-8.003235,-13.153075,-1.670837,1.0935854597305141
0 days 00:00:05.700000,-0.887695,0.558105,-0.235107,-6.225585,-11.795043,-1.823425,1.0745970898429793
0 days 00:00:05.710000,-0.864014,0.546143,-0.223877,-3.77655,-9.002686,-1.869202,1.0463810394755821
0 days 00:00:05.720000,-0.849609,0.533936,-0.221191,-0.801086,-5.729675,-1.220703,1.0275449204088354
0 days 00:00:05.730000,-0.838623,0.522461,-0.215088,2.63977,-2.326965,-0.305176,1.011195767591024
0 days 00:00:05.740000,-0.83252,0.516113,-0.206299,6.477355,0.854492,0.328064,1.0010102180147813
0 days 00:00:05.750000,-0.843994,0.523193,-0.204102,10.482787,2.578735,0.50354,1.013762503591941
0 days 00:00:05.760000,-0.868408,0.554688,-0.210693,12.657165,1.983642,0.785828,1.051761746811986
0 days 00:00:05.770000,-0.882813,0.599365,-0.22168,11.032104,-0.190735,1.220703,1.0898344913765576
0 days 00:00:05.780000,-0.903809,0.60376,-0.253662,-8.026123,-11.947631,-0.869751,1.116127795695905
0 days 00:00:05.790000,-0.884521,0.50415,-0.313232,0.556946,-6.584167,-0.656128,1.0652036930864446
0 days 00:00:05.800000,-0.87207,0.637207,-0.220215,6.332397,-1.487732,2.082825,1.1022855764156583
0 days 00:00:05.810000,-0.885498,0.514404,-0.315674,-3.753662,-7.965087,-1.014709,1.0716194555419383
0 days 00:00:05.820000,-0.930664,0.615723,-0.184326,9.407043,3.334045,1.792908,1.1310288979071226
0 days 00:00:05.830000,-0.909668,0.640869,-0.193115,6.149292,2.319336,2.204895,1.129381400860666
0 days 00:00:05.840000,-0.891846,0.651123,-0.199219,3.074646,3.189087,2.838135,1.1220689189198674
0 days 00:00:05.850000,-0.878418,0.647461,-0.206299,1.152039,5.455017,2.27356,1.1105778705908018
0 days 00:00:05.860000,-0.87793,0.635986,-0.207031,0.144958,8.056641,1.152039,1.1036761807962514
0 days 00:00:05.870000,-0.881104,0.623291,-0.200928,-0.564575,9.254456,-0.289917,1.097819653076497
0 days 00:00:05.880000,-0.890869,0.505615,-0.317139,-1.502991,-7.499694,-0.724792,1.0723204971961509
0 days 00:00:05.890000,-0.918945,0.621826,-0.210205,-5.065917,4.798889,-0.892639,1.1292978479240985
0 days 00:00:05.900000,-0.919922,0.613281,-0.220459,-7.087707,1.098633,0.205994,1.1273740469453783
0 days 00:00:05.910000,-0.886475,0.595703,-0.234863,-7.980346,0.0,0.434875,1.093554122393126
0 days 00:00:05.920000,-0.861816,0.577148,-0.245605,-7.797241,1.434326,0.350952,1.0659026446092532
0 days 00:00:05.930000,-0.898193,0.62085,-0.203857,-2.26593,8.270264,-1.449585,1.1107488753980352
0 days 00:00:05.940000,-0.908447,0.555176,-0.266113,-5.073547,-0.465393,0.518799,1.0974117146969045
0 days 00:00:05.950000,-0.92041,0.566895,-0.280762,-5.203247,-4.241943,0.747681,1.116849054155932
0 days 00:00:05.960000,-0.909424,0.584961,-0.298584,-7.17163,-7.339477,0.572205,1.121777067136336
0 days 00:00:05.970000,-0.889648,0.596191,-0.308105,-9.773254,-8.964539,0.1297,1.1143814263572416
0 days 00:00:05.980000,-0.875244,0.583252,-0.29834,-11.291503,-9.20105,0.144958,1.0932711057372733
0 days 00:00:05.990000,-0.877441,0.551025,-0.29834,-10.337829,-8.964539,-0.137329,1.0782105613960569
0 days 00:00:06,-0.889404,0.525879,-0.308838,-8.125305,-8.644104,-0.167847,1.078410454373009
0 days 00:00:06.010000,-0.89502,0.524902,-0.31665,-6.622314,-9.094238,0.335693,1.0848272362473208
0 days 00:00:06.020000,-0.893066,0.529297,-0.313721,-6.278991,-9.399414,0.076294,1.084501295714302
0 days 00:00:06.030000,-0.883789,0.525146,-0.312256,-5.630493,-8.888245,-0.785828,1.0744138529323792
0 days 00:00:06.040000,-0.875732,0.55957,-0.256348,-6.42395,1.945495,0.297546,1.0703921794501303
0 days 00:00:06.050000,-0.873779,0.630859,-0.196533,1.228333,2.876281,0.732422,1.0954898624866412
0 days 00:00:06.060000,-0.871826,0.617432,-0.193115,2.479553,2.616882,0.991821,1.0856317295128215
0 days 00:00:06.070000,-0.882568,0.604736,-0.193604,2.677917,2.326965,1.075745,1.0872508510624401
0 days 00:00:06.080000,-0.88916,0.603516,-0.195557,1.953125,2.212524,1.113892,1.0922818354733361
0 days 00:00:06.090000,-0.845703,0.58667,-0.205811,0.480652,0.465393,0.648498,1.0496444259033628
0 days 00:00:06.100000,-0.865723,0.606201,-0.199463,1.266479,3.616333,0.556946,1.0755191553380163
0 days 00:00:06.110000,-0.853271,0.598389,-0.208984,1.823425,3.227234,0.366211,1.062927611372477
0 days 00:00:06.120000,-0.844971,0.587402,-0.20874,1.64032,2.105713,0.587463,1.0500426124900837
0 days 00:00:06.130000,-0.879883,0.606445,-0.195068,1.266479,3.02124,0.923157,1.086287787070259
0 days 00:00:06.140000,-0.874023,0.638916,-0.201416,-0.900268,3.341675,0.419617,1.1012258009332145
0 days 00:00:06.150000,-0.898193,0.594971,-0.20874,-2.845764,0.709534,0.328064,1.0974122031807374
0 days 00:00:06.160000,-0.902344,0.603516,-0.200195,-1.38092,3.005981,-0.061035,1.1038724086673244
0 days 00:00:06.170000,-0.910889,0.599854,-0.194336,-0.244141,0.984192,0.411987,1.1078402739262552
0 days 00:00:06.180000,-0.898193,0.613281,-0.192139,-0.404358,-1.358032,0.648498,1.1044372528717963
0 days 00:00:06.190000,-0.881836,0.631592,-0.196289,-2.075195,-2.288818,0.328064,1.1023032962306698
0 days 00:00:06.200000,-0.864502,0.63501,-0.201416,-3.952026,-1.785278,0.083923,1.0914072627392581
0 days 00:00:06.210000,-0.850586,0.622314,-0.205078,-4.776001,-0.083923,-0.061035,1.0736983953028896
0 days 00:00:06.220000,-0.850586,0.607422,-0.206055,-4.699707,1.945495,0.038147,1.0653246887709868
0 days 00:00:06.230000,-0.859375,0.5979,-0.20166,-4.440308,3.318786,0.12207,1.0661503441002118
0 days 00:00:06.240000,-0.878662,0.589355,-0.200195,-3.845215,3.562927,0.312805,1.076784223646502
0 days 00:00:06.250000,-0.892334,0.588135,-0.202393,-3.074646,2.510071,0.656128,1.0877158049003424
0 days 00:00:06.260000,-0.846436,0.59375,-0.209961,-0.801086,-1.335144,0.366211,1.0550244481134075
0 days 00:00:06.270000,-0.880127,0.626709,-0.199951,-2.105713,3.684997,0.022888,1.098803034766013
0 days 00:00:06.280000,-0.856934,0.602783,-0.213379,-1.533508,-2.845764,-0.167847,1.069211776537277
0 days 00:00:06.290000,-0.871094,0.605713,-0.202148,1.480102,0.015259,-0.289917,1.080072594369934
0 days 00:00:06.300000,-0.895996,0.611572,-0.203125,-1.342773,-3.883362,-0.183105,1.1036706523347444
0 days 00:00:06.310000,-0.894775,0.606445,-0.208984,-3.52478,-0.778198,-0.228882,1.1009414838700555
0 days 00:00:06.320000,-0.847412,0.60376,-0.200928,-1.190186,-0.648498,-0.717163,1.0597194423657612
0 days 00:00:06.330000,-0.851074,0.603271,-0.205322,-0.991821,0.87738,-0.473022,1.0632121032987727
0 days 00:00:06.340000,-0.859375,0.605713,-0.208008,-0.892639,1.655578,-0.358582,1.0717653460800083
0 days 00:00:06.350000,-0.868652,0.607666,-0.208496,-1.205444,1.457214,0.076294,1.0804095735766135
0 days 00:00:06.360000,-0.884277,0.61084,-0.209229,-1.426697,0.556946,0.389099,1.0949192174630966
0 days 00:00:06.370000,-0.893066,0.61377,-0.209229,-1.747131,-0.549316,0.350952,1.1036563177443421
0 days 00:00:06.380000,-0.888428,0.613037,-0.2146,-2.166748,-1.228333,0.289917,1.1005325231691248
0 days 00:00:06.390000,-0.880615,0.605957,-0.212158,-2.296448,-1.12915,0.137329,1.0898062584872599
0 days 00:00:06.400000,-0.874023,0.593018,-0.209229,-1.464844,-0.343323,-0.152588,1.07673735297611
0 days 00:00:06.410000,-0.878906,0.609375,-0.207764,-1.434326,-4.051208,-0.366211,1.0894859003938508
0 days 00:00:06.420000,-0.875732,0.580811,-0.209229,0.183105,0.236511,-0.282288,1.0714591583378248
0 days 00:00:06.430000,-0.868652,0.594971,-0.203613,1.609802,0.450134,-0.62561,1.0723828801850577
0 days 00:00:06.440000,-0.874023,0.614014,-0.204102,1.022339,-0.63324,0.12207,1.0874681710877794
0 days 00:00:06.450000,-0.871338,0.617676,-0.205322,0.137329,-0.747681,0.1297,1.0876169706767176
0 days 00:00:06.460000,-0.870605,0.612305,-0.20752,-0.640869,-0.106812,0.144958,1.0844053805888276
0 days 00:00:06.470000,-0.870361,0.60083,-0.201416,-0.709534,0.427246,0.228882,1.0766119840857244
0 days 00:00:06.480000,-0.872559,0.592773,-0.198486,-0.160217,0.923157,0.1297,1.0733758569140635
0 days 00:00:06.490000,-0.881348,0.5896,-0.204102,0.617981,1.13678,0.076294,1.079842619786791
0 days 00:00:06.500000,-0.887939,0.596436,-0.208496,0.511169,0.518799,-0.045776,1.0897899576675314
0 days 00:00:06.510000,-0.894531,0.609863,-0.207275,-0.389099,-0.648498,-0.350952,1.1023073592945845
0 days 00:00:06.520000,-0.896973,0.612793,-0.205322,-1.167297,-2.342224,-0.358582,1.1055464473562384
0 days 00:00:06.530000,-0.87207,0.584717,-0.207764,1.281738,0.419617,-0.480652,1.0703111391950473
0 days 00:00:06.540000,-0.88501,0.613281,-0.208252,-4.585266,-1.502991,-0.289917,1.096688278666732
0 days 00:00:06.550000,-0.860596,0.609863,-0.194336,-1.754761,-2.555847,-0.854492,1.072531973826888
0 days 00:00:06.560000,-0.873291,0.583496,-0.214111,-4.78363,-0.328064,-0.434875,1.071890047074792
0 days 00:00:06.570000,-0.857422,0.614502,-0.206299,-3.051758,4.119873,0.587463,1.0748695137034077
0 days 00:00:06.580000,-0.856689,0.60498,-0.207275,-3.173828,5.630493,-0.068665,1.0690555498878438
0 days 00:00:06.590000,-0.851074,0.596924,-0.207764,-2.861023,6.355285,0.267029,1.060099568412326
0 days 00:00:06.600000,-0.852783,0.592529,-0.199951,-2.212524,6.896972,0.244141,1.0575017084293528
0 days 00:00:06.610000,-0.864258,0.590332,-0.196289,-1.159668,7.598876,-0.061035,1.0648770503250597
0 days 00:00:06.620000,-0.879639,0.587891,-0.188965,-0.045776,7.652282,0.1297,1.074750375402121
0 days 00:00:06.630000,-0.884033,0.595459,-0.19043,0.434875,7.751464,-0.1297,1.0827508257535525
0 days 00:00:06.640000,-0.882324,0.601807,-0.197266,-0.099182,8.69751,-0.816345,1.0860852549321347
0 days 00:00:06.650000,-0.880859,0.601318,-0.193604,-0.358582,9.475708,-1.289368,1.0839642170390127
0 days 00:00:06.660000,-0.894531,0.599121,-0.195068,-0.25177,9.307861,-1.785278,1.0941586755247157
0 days 00:00:06.670000,-0.861328,0.616455,-0.200684,-2.235413,2.700805,0.823975,1.0780430225482656
0 days 00:00:06.680000,-0.9104,0.605957,-0.199463,-0.839233,7.232666,-2.494812,1.1116643082414763
0 days 00:00:06.690000,-0.931885,0.630859,-0.207275,-5.020141,-1.029968,-1.51062,1.1442707969405668
0 days 00:00:06.700000,-0.904541,0.632568,-0.209961,-7.484436,-3.562927,-1.556396,1.1235747936056595
0 days 00:00:06.710000,-0.876709,0.618652,-0.209717,-8.44574,-2.922058,-1.602173,1.0933115694412092
0 days 00:00:06.720000,-0.874268,0.595215,-0.203857,-7.400512,-1.846313,-0.816345,1.0771179640587192
0 days 00:00:06.730000,-0.887695,0.584717,-0.209717,-6.187438,-1.327515,-0.350952,1.0834563227020275
0 days 00:00:06.740000,-0.894775,0.585205,-0.206787,-5.53894,-1.716614,-0.175476,1.0889665082173097
0 days 00:00:06.750000,-0.900635,0.595215,-0.204102,-6.04248,-3.425598,-0.114441,1.0986728019997583
0 days 00:00:06.760000,-0.916992,0.607178,-0.204102,-7.362365,-6.561279,0.068665,1.118569210264613
0 days 00:00:06.770000,-0.927002,0.614746,-0.203613,-8.81958,-10.284423,0.343323,1.1307977742677955
0 days 00:00:06.780000,-0.920166,0.61499,-0.199707,-10.002136,-13.099669,0.389099,1.1246337419377919
0 days 00:00:06.790000,-0.927002,0.619629,-0.207031,-2.5177,3.433227,-2.418518,1.1340787629640192
0 days 00:00:06.800000,-0.86084,0.603516,-0.190674,-1.441955,1.144409,0.595093,1.0684725743471377
0 days 00:00:06.810000,-0.877441,0.602783,-0.213379,-5.325317,-1.373291,-0.312805,1.08571665328068
0 days 00:00:06.820000,-0.858398,0.605225,-0.188721,-2.731323,-1.861572,0.236511,1.0671270040955763
0 days 00:00:06.830000,-0.875244,0.567139,-0.210449,-2.967834,0.846863,-0.358582,1.0639490055721657
0 days 00:00:06.840000,-0.879395,0.558838,-0.202881,-0.75531,1.403808,-0.305176,1.061506559767767
0 days 00:00:06.850000,-0.878906,0.562012,-0.196777,0.839233,1.441955,-0.564575,1.0616281989043996
0 days 00:00:06.860000,-0.887939,0.577637,-0.200684,1.823425,0.63324,-0.526428,1.078134610958205
0 days 00:00:06.870000,-0.895508,0.598145,-0.205322,1.541138,-1.174927,-0.617981,1.0962979261008388
0 days 00:00:06.880000,-0.884033,0.618652,-0.205078,-0.152588,-2.311707,-0.999451,1.0983176354211017
0 days 00:00:06.890000,-0.857422,0.597168,-0.187744,-1.739502,-0.38147,0.404358,1.0616166520189856
0 days 00:00:06.900000,-0.866943,0.607178,-0.205811,-1.777649,-1.014709,-1.235962,1.0782455456221463
0 days 00:00:06.910000,-0.878906,0.592285,-0.210449,-1.243591,-0.427246,-1.037598,1.0805397075822802
0 days 00:00:06.920000,-0.888184,0.583252,-0.214111,-0.167847,-0.488281,-0.724792,1.0839267658292233
0 days 00:00:06.930000,-0.879883,0.586914,-0.20166,0.770569,-0.495911,-0.556946,1.076721362602693
0 days 00:00:06.940000,-0.868408,0.618896,-0.201904,-1.625061,-2.090454,-1.243591,1.085324807832199
0 days 00:00:06.950000,-0.877197,0.611328,-0.203613,0.25177,-0.732422,-0.297546,1.0884184646366488
0 days 00:00:06.960000,-0.884521,0.617188,-0.20459,-0.488281,-1.38855,-0.099182,1.097795743699619
0 days 00:00:06.970000,-0.881592,0.621094,-0.20752,-1.274109,-1.426697,-0.404358,1.0981924975613337
0 days 00:00:06.980000,-0.870361,0.617432,-0.198975,-1.701355,-0.328064,-0.915527,1.0855144382135136
0 days 00:00:06.990000,-0.872314,0.612549,-0.198486,-1.564026,0.694275,-1.00708,1.0842253844072274
0 days 00:00:07,-0.892822,0.609131,-0.202148,-1.617432,0.289917,-0.87738,1.099561509306778
0 days 00:00:07.010000,-0.906494,0.606201,-0.203369,-1.792908,-1.655578,-0.709534,1.109310585272673
0 days 00:00:07.020000,-0.894531,0.610596,-0.198975,-2.433777,-3.40271,-0.297546,1.101183107299599
0 days 00:00:07.030000,-0.871582,0.615234,-0.196533,-2.960205,-3.852844,0.061035,1.0848010313274041
0 days 00:00:07.040000,-0.862061,0.613281,-0.19458,-3.14331,-3.219604,0.183105,1.0756970433546797
0 days 00:00:07.050000,-0.872803,0.599365,-0.19873,0.87738,-0.442505,-0.656128,1.077272989048737
0 days 00:00:07.060000,-0.872314,0.620361,-0.223633,-1.159668,-1.724243,-0.869751,1.0935223836785417
0 days 00:00:07.070000,-0.878174,0.615723,-0.223389,-0.167847,-1.564026,-0.778198,1.0955396078307713
0 days 00:00:07.080000,-0.879395,0.60791,-0.218262,0.595093,-0.846863,-0.541687,1.091113392259943
0 days 00:00:07.090000,-0.873047,0.602539,-0.219238,0.793457,0.007629,-0.762939,1.0832034025860517
0 days 00:00:07.100000,-0.872314,0.611084,-0.218018,-1.38855,-2.685547,-0.411987,1.0871463645599886
0 days 00:00:07.110000,-0.863037,0.59375,-0.222412,0.465393,-0.38147,-0.640869,1.0709057024841169
0 days 00:00:07.120000,-0.861328,0.595703,-0.223145,-0.267029,-1.243591,-0.328064,1.070766864830062
0 days 00:00:07.130000,-0.86377,0.602783,-0.223389,-1.213074,-1.998901,-0.297546,1.0767305156398235
0 days 00:00:07.140000,-0.864258,0.598877,-0.224609,0.686645,0.244141,-1.022339,1.0751952169601573
0 days 00:00:07.150000,-0.863525,0.612549,-0.220215,-1.480102,-1.098633,-0.770569,1.081381685276295
0 days 00:00:07.160000,-0.882813,0.602783,-0.222656,0.671387,1.51062,-0.62561,1.0919165867381995
0 days 00:00:07.170000,-0.863037,0.599121,-0.227783,-0.205994,0.236511,-0.366211,1.0750181073354068
0 days 00:00:07.180000,-0.863037,0.603271,-0.225098,-0.328064,0.701904,-0.488281,1.0767719686238122
0 days 00:00:07.190000,-0.863281,0.604248,-0.2229,-0.350952,0.854492,-0.663757,1.0770580952135311
0 days 00:00:07.200000,-0.866211,0.604492,-0.226807,-0.152588,0.694275,-1.029968,1.0803580377976552
0 days 00:00:07.210000,-0.870117,0.602783,-0.224609,-0.167847,0.282288,-1.144409,1.082081393269009
0 days 00:00:07.220000,-0.870361,0.605957,-0.223145,-0.63324,0.083923,-1.075745,1.083746209771919
0 days 00:00:07.230000,-0.867676,0.599365,-0.220703,-0.87738,0.442505,-0.671387,1.0774088631573437
0 days 00:00:07.240000,-0.868652,0.588379,-0.219482,-0.083923,1.075745,-0.175476,1.0718761556583858
0 days 00:00:07.250000,-0.866943,0.583008,-0.222168,0.846863,1.770019,-0.213623,1.0681044487956222
0 days 00:00:07.260000,-0.872803,0.591064,-0.223145,1.159668,1.968384,-0.480652,1.077467131716787
0 days 00:00:07.270000,-0.883057,0.618652,-0.221436,-0.831604,-2.593994,-0.411987,1.1007060754120512
0 days 00:00:07.280000,-0.862549,0.600098,-0.224609,-0.823975,-0.358582,-0.495911,1.0745034154836364
0 days 00:00:07.290000,-0.890381,0.618408,-0.223633,0.144958,-1.419067,-0.785828,1.1068958841345466
0 days 00:00:07.300000,-0.87207,0.574707,-0.230225,0.419617,-0.411987,-0.869751,1.0694848158688368
0 days 00:00:07.310000,-0.868896,0.603027,-0.224609,1.655578,1.159668,-0.907898,1.0812358782550642
0 days 00:00:07.320000,-0.891602,0.606934,-0.224854,-0.267029,0.221252,-0.823975,1.101763281324986
0 days 00:00:07.330000,-0.881104,0.594482,-0.223145,0.442505,1.419067,-0.320435,1.0860694260336214
0 days 00:00:07.340000,-0.880371,0.594971,-0.226318,1.12915,0.816345,-0.312805,1.0863992938169649
0 days 00:00:07.350000,-0.877441,0.597656,-0.224121,1.457214,0.556946,-0.328064,1.085046370187929
0 days 00:00:07.360000,-0.87085,0.595947,-0.221436,1.861572,0.831604,-0.465393,1.078223748303199
0 days 00:00:07.370000,-0.870605,0.59668,-0.227539,2.494812,1.594543,-0.63324,1.0797009238423387
0 days 00:00:07.380000,-0.881348,0.596924,-0.229736,3.303528,1.441955,-0.694275,1.0889771295008908
0 days 00:00:07.390000,-0.89209,0.612549,-0.229736,2.861023,0.160217,-0.63324,1.1062637457663522
0 days 00:00:07.400000,-0.883789,0.630615,-0.228271,0.495911,-1.022339,-1.083374,1.1094439707290316
0 days 00:00:07.410000,-0.871582,0.627686,-0.220703,-1.716614,-1.373291,-1.358032,1.096519362131376
0 days 00:00:07.420000,-0.884277,0.61084,-0.224609,1.052856,0.144958,-0.976562,1.0979619853209854
0 days 00:00:07.430000,-0.865723,0.606689,-0.215576,-2.39563,-1.472473,-0.87738,1.0788979874047409
0 days 00:00:07.440000,-0.871338,0.581299,-0.229248,-0.808716,-0.953674,-0.808716,1.0722374192076118
0 days 00:00:07.450000,-0.873291,0.580078,-0.227539,1.342773,-0.137329,-0.808716,1.072800845118049
0 days 00:00:07.460000,-0.871826,0.592773,-0.22583,1.571655,-0.144958,-0.984192,1.0781741940451923
0 days 00:00:07.470000,-0.86499,0.602295,-0.226563,1.083374,-0.068665,-1.12915,1.0780991420523438
0 days 00:00:07.480000,-0.866943,0.606934,-0.229736,0.602722,-0.167847,-0.938415,1.082930134081142
0 days 00:00:07.490000,-0.869873,0.603516,-0.229004,0.236511,-0.175476,-0.801086,1.083214397245993
0 days 00:00:07.500000,-0.868408,0.598877,-0.230469,0.488281,0.030518,-0.785828,1.0797694548161658
0 days 00:00:07.510000,-0.868164,0.592529,-0.22998,0.930786,-0.007629,-0.846863,1.0759601048073297
0 days 00:00:07.520000,-0.86792,0.592041,-0.226318,1.472473,0.282288,-0.839233,1.0747174089987563
0 days 00:00:07.530000,-0.864014,0.594971,-0.225342,1.861572,0.946045,-0.801086,1.072981686703459
0 days 00:00:07.540000,-0.86499,0.588623,-0.22583,-1.800537,-1.419067,-0.816345,1.0703662574693766
0 days 00:00:07.550000,-0.893555,0.603271,-0.227783,-0.587463,-0.88501,-1.091003,1.1019353577025288
0 days 00:00:07.560000,-0.873535,0.598145,-0.224609,0.007629,2.120972,-0.305176,1.0822615396155404
0 days 00:00:07.570000,-0.862305,0.585449,-0.21875,1.213074,-0.091553,-1.113892,1.0649751204258249
0 days 00:00:07.580000,-0.86792,0.604004,-0.203613,1.609802,4.074097,0.099182,1.076830633008274
0 days 00:00:07.590000,-0.881592,0.606934,-0.206055,1.289368,3.440857,0.076294,1.0899688059045542
0 days 00:00:07.600000,-0.89624,0.608643,-0.202148,1.190186,1.770019,0.144958,1.1020690781221476
0 days 00:00:07.610000,-0.894775,0.614502,-0.201172,0.976562,0.076294,-0.022888,1.1039498096439893
0 days 00:00:07.620000,-0.883301,0.623779,-0.20459,0.0,-0.75531,-0.274658,1.1005353086303047
0 days 00:00:07.630000,-0.878418,0.624023,-0.202881,-1.00708,-0.907898,-0.541687,1.0964413287604584
0 days 00:00:07.640000,-0.875488,0.611328,-0.201172,-0.961304,-0.427246,-0.785828,1.0865870123059636
0 days 00:00:07.650000,-0.864014,0.598633,-0.198486,0.152588,0.961304,-0.740051,1.069709471343037
0 days 00:00:07.660000,-0.861816,0.595947,-0.201172,0.953674,2.212524,-0.587463,1.0669347769423396
0 days 00:00:07.670000,-0.868164,0.605469,-0.204102,0.75531,2.616882,-0.518799,1.0779420519030698
0 days 00:00:07.680000,-0.860107,0.605957,-0.199707,1.296997,3.593445,-0.305176,1.0709112116076662
0 days 00:00:07.690000,-0.875244,0.612061,-0.203369,0.114441,1.861572,-0.442505,1.0872118824856543
0 days 00:00:07.700000,-0.880615,0.604248,-0.203125,0.053406,-0.160217,-0.816345,1.0871330136436848
0 days 00:00:07.710000,-0.878418,0.605713,-0.206055,0.213623,-0.541687,-0.839233,1.0867221743012332
0 days 00:00:07.720000,-0.87207,0.605469,-0.203125,0.213623,-0.320435,-0.816345,1.0809063606464715
0 days 00:00:07.730000,-0.865234,0.604492,-0.201904,0.656128,0.968933,-0.762939,1.0746188524476945
0 days 00:00:07.740000,-0.869873,0.603516,-0.203613,1.304626,1.983642,-0.579834,1.078132112569698
0 days 00:00:07.750000,-0.879883,0.611084,-0.201172,1.014709,2.326965,-0.396728,1.089994459769865
0 days 00:00:07.760000,-0.887939,0.62207,-0.20166,0.0,1.647949,-0.328064,1.102757229956349
0 days 00:00:07.770000,-0.898438,0.62915,-0.200928,-1.12915,0.091553,-0.473022,1.115075164967815
0 days 00:00:07.780000,-0.904297,0.624268,-0.198975,-1.754761,-2.029419,-0.915527,1.1167160116421722
0 days 00:00:07.790000,-0.891357,0.616699,-0.197754,-1.960754,-3.326416,-0.900268,1.10179018082664
0 days 00:00:07.800000,-0.880615,0.608643,-0.19873,-0.190735,0.701904,-0.587463,1.0887711846728862
0 days 00:00:07.810000,-0.862793,0.621582,-0.199707,1.12915,2.510071,-0.679016,1.081969883786975
0 days 00:00:07.820000,-0.87915,0.593994,-0.220947,0.1297,-0.923157,-1.235962,1.0837671204391652
0 days 00:00:07.830000,-0.880615,0.632813,-0.20874,3.471374,1.708984,0.0,1.1043131162826962
0 days 00:00:07.840000,-0.855469,0.582031,-0.221924,2.502441,1.167297,-0.75531,1.058223774396512
0 days 00:00:07.850000,-0.850098,0.589111,-0.22876,3.372192,2.334595,-0.793457,1.059268387862585
0 days 00:00:07.860000,-0.856445,0.599121,-0.234375,3.623962,2.807617,-0.785828,1.0711562217020447
0 days 00:00:07.870000,-0.865723,0.607422,-0.234863,2.975464,2.540588,-0.907898,1.0833274793810042
0 days 00:00:07.880000,-0.87207,0.610352,-0.229736,2.349854,2.235413,-0.900268,1.0889509991271418
0 days 00:00:07.890000,-0.882324,0.606689,-0.227295,2.128601,1.38855,-0.602722,1.0946370177926563
0 days 00:00:07.900000,-0.871338,0.634521,-0.206543,1.953125,1.647949,-0.396728,1.0975002599243429
0 days 00:00:07.910000,-0.878662,0.606201,-0.223877,1.678467,0.312805,-0.549316,1.0907096193643842
0 days 00:00:07.920000,-0.874023,0.602295,-0.223389,1.708984,0.389099,-0.305176,1.0847018562144162
0 days 00:00:07.930000,-0.874023,0.599609,-0.230957,2.01416,0.076294,-0.312805,1.084798733986632
0 days 00:00:07.940000,-0.87207,0.598389,-0.235596,2.441406,-0.015259,-0.62561,1.0835501628614155
0 days 00:00:07.950000,-0.88501,0.606689,-0.229492,1.960754,0.75531,-0.488281,1.0972605984382198
0 days 00:00:07.960000,-0.862305,0.597168,-0.21875,3.326416,0.442505,-0.419617,1.071462129871607
0 days 00:00:07.970000,-0.870117,0.599365,-0.218018,3.662109,0.465393,-0.244141,1.0788298499939646
0 days 00:00:07.980000,-0.874268,0.605469,-0.217285,3.608703,0.450134,-0.053406,1.085426191415151
0 days 00:00:07.990000,-0.87085,0.609619,-0.217041,3.158569,1.060486,-0.106812,1.0849524613281452
0 days 00:00:08,-0.861328,0.603516,-0.209961,3.067016,2.532959,-0.198364,1.0724742921678823
0 days 00:00:08.010000,-0.856201,0.592773,-0.21167,3.791809,4.104614,0.068665,1.0626684199833925
0 days 00:00:08.020000,-0.858398,0.588867,-0.21167,4.692078,5.058288,0.137329,1.0622691085563016
0 days 00:00:08.030000,-0.869629,0.594238,-0.211914,5.226135,5.096435,0.343323,1.0743746747206022
0 days 00:00:08.040000,-0.878418,0.605957,-0.207764,5.599975,4.005432,0.488281,1.0871834933758882
0 days 00:00:08.050000,-0.883545,0.620361,-0.208984,5.004883,2.6474,0.358582,1.0996244129710835
0 days 00:00:08.060000,-0.863525,0.598145,-0.224365,2.815246,0.213623,-0.457764,1.074147345514106
0 days 00:00:08.070000,-0.845703,0.552246,-0.287598,-0.656128,-4.981995,-2.288818,1.0501913246304218
0 days 00:00:08.080000,-0.858643,0.563721,-0.276367,-3.540039,-6.820678,-1.991272,1.0636859903087
0 days 00:00:08.090000,-0.869873,0.584717,-0.270508,-5.355834,-7.698059,-1.403808,1.0824729023315087
0 days 00:00:08.100000,-0.864502,0.605713,-0.266357,-6.179809,-7.598876,-1.235962,1.0886679924669411
0 days 00:00:08.110000,-0.828125,0.602051,-0.248047,-5.554199,-8.598328,-4.249573,1.053462736139727
0 days 00:00:08.120000,-0.852051,0.598633,-0.257568,-3.829956,-7.331848,-1.693725,1.0727038966620752
0 days 00:00:08.130000,-0.844238,0.588623,-0.253418,-3.829956,-6.835937,-2.449036,1.0599224120175024
0 days 00:00:08.140000,-0.831787,0.593262,-0.252197,-4.714966,-6.996154,-3.501892,1.052346302707431
0 days 00:00:08.150000,-0.856445,0.610352,-0.263916,-5.180358,-7.575988,-1.441955,1.0842874420489246
0 days 00:00:08.160000,-0.851074,0.554199,-0.301025,2.052307,-3.89862,-1.998901,1.059282557064922
0 days 00:00:08.170000,-0.795166,0.603027,-0.264893,5.203247,7.408142,4.997253,1.032520620488521
0 days 00:00:08.180000,-0.841309,0.586914,-0.31958,2.128601,-3.616333,-1.739502,1.0744301993508
0 days 00:00:08.190000,-0.839844,0.596924,-0.322754,1.121521,-3.440857,-1.579285,1.0797343889253506
0 days 00:00:08.200000,-0.83667,0.587158,-0.319092,1.182556,-2.967834,-1.548767,1.070789853485734
0 days 00:00:08.210000,-0.828125,0.572998,-0.313232,2.326965,-2.082825,-1.197815,1.0546241081318974
0 days 00:00:08.220000,-0.819336,0.567871,-0.308105,3.601074,-0.801086,-0.694275,1.0434163332831243
0 days 00:00:08.230000,-0.814209,0.571777,-0.305176,4.806519,0.534058,0.083923,1.0406717178755267
0 days 00:00:08.240000,-0.811279,0.576904,-0.300781,5.783081,1.426697,1.091003,1.0399331954592084
0 days 00:00:08.250000,-0.819092,0.59082,-0.29126,6.050109,1.670837,2.563476,1.0511005491692982
0 days 00:00:08.260000,-0.816895,0.610107,-0.283691,5.607605,2.14386,3.807068,1.0583140252094367
0 days 00:00:08.270000,-0.800293,0.614502,-0.2771,4.882813,4.226685,4.470825,1.0463584490283433
0 days 00:00:08.280000,-0.839844,0.617188,-0.235596,-6.309509,-10.95581,-4.53949,1.0685337836942732
0 days 00:00:08.290000,-0.846436,0.568359,-0.310547,2.838135,-3.707886,-1.88446,1.0657979612412476
0 days 00:00:08.300000,-0.862549,0.63501,-0.231689,-6.568908,-12.344359,-4.608154,1.0958596033352082
0 days 00:00:08.310000,-0.884277,0.614746,-0.228027,3.128052,4.127502,-4.196167,1.1008427544268073
0 days 00:00:08.320000,-0.885742,0.64209,-0.214111,-3.585815,-10.108947,-4.814148,1.114747495617281
0 days 00:00:08.330000,-0.81543,0.583008,-0.253418,7.545471,9.979248,5.279541,1.0339463698316271
0 days 00:00:08.340000,-0.87793,0.586182,-0.283691,3.311157,8.010864,-1.296997,1.0930924048336443
0 days 00:00:08.350000,-0.883789,0.577148,-0.278076,4.592896,8.544922,-2.39563,1.091562674426439
0 days 00:00:08.360000,-0.893799,0.573486,-0.268066,6.332397,8.19397,-3.158569,1.0952726715083327
0 days 00:00:08.370000,-0.90625,0.578613,-0.265381,7.881164,6.965637,-3.181457,1.1074787318183588
0 days 00:00:08.380000,-0.893799,0.604736,-0.26123,7.30133,6.233215,-3.417969,1.1103258057872023
0 days 00:00:08.390000,-0.871094,0.633789,-0.260742,4.386902,6.103515,-3.921509,1.1083680092464776
0 days 00:00:08.400000,-0.874023,0.638916,-0.260254,1.159668,5.226135,-3.90625,1.1134909088542213
0 days 00:00:08.410000,-0.878662,0.618652,-0.237549,-0.617981,3.768921,-3.280639,1.1005483791042536
0 days 00:00:08.420000,-0.885498,0.589844,-0.221191,-0.068665,2.166748,-2.670288,1.0867143648728492
0 days 00:00:08.430000,-0.879639,0.644287,-0.222412,-5.592346,-12.168883,-4.524231,1.112806185476159
0 days 00:00:08.440000,-0.881104,0.573242,-0.227051,1.968384,1.678467,-2.845764,1.0754082043489348
0 days 00:00:08.450000,-0.864014,0.605713,-0.230713,3.90625,5.004883,-4.386902,1.080109679122449
0 days 00:00:08.460000,-0.895264,0.613037,-0.21875,2.311707,1.281738,-3.463745,1.1068710654656215
0 days 00:00:08.470000,-0.875488,0.612061,-0.211182,1.831055,-0.854492,-3.028869,1.0888965713000478
0 days 00:00:08.480000,-0.858643,0.618652,-0.21167,1.281738,-0.640869,-3.135681,1.0792600647911512
0 days 00:00:08.490000,-0.859619,0.625977,-0.211182,0.648498,0.968933,-3.52478,1.0841539866707128
0 days 00:00:08.500000,-0.877197,0.624756,-0.209717,0.244141,1.319885,-3.494262,1.0971671962075789
0 days 00:00:08.510000,-0.898193,0.618164,-0.210938,0.289917,-0.175476,-3.593445,1.1105729314137815
0 days 00:00:08.520000,-0.903076,0.618896,-0.212402,0.335693,-2.14386,-4.226685,1.115209904096982
0 days 00:00:08.530000,-0.897949,0.625488,-0.218018,-0.015259,-4.180908,-4.974365,1.115831301348461
0 days 00:00:08.540000,-0.893311,0.63501,-0.215332,-1.289368,-6.988525,-5.058288,1.116964687465544
0 days 00:00:08.550000,-0.866943,0.583984,-0.230225,3.692627,3.288269,-3.64685,1.070341547418393
0 days 00:00:08.560000,-0.886719,0.592285,-0.273926,2.059937,7.484436,0.38147,1.1009575648779566
0 days 00:00:08.570000,-0.834473,0.577393,-0.244873,9.925842,11.428832,5.523681,1.043882488744303
0 days 00:00:08.580000,-0.869629,0.617676,-0.229492,10.490417,10.475158,7.148742,1.0910750738061061
0 days 00:00:08.590000,-0.876221,0.604736,-0.233154,-0.740051,-1.785278,-0.480652,1.0898759829691633
0 days 00:00:08.600000,-0.871094,0.601318,-0.225586,-0.938415,-1.968384,-0.541687,1.082255578574673
0 days 00:00:08.610000,-0.861572,0.592773,-0.226807,-0.541687,-1.029968,-0.648498,1.0701063292785442
0 days 00:00:08.620000,-0.859863,0.583984,-0.228516,0.38147,0.602722,-0.694275,1.0642468009258943
0 days 00:00:08.630000,-0.863281,0.58252,-0.228271,1.190186,1.89209,-0.770569,1.0661572514418312
0 days 00:00:08.640000,-0.875977,0.584229,-0.2229,2.059937,1.899719,-0.656128,1.0762637404326136
0 days 00:00:08.650000,-0.893799,0.594727,-0.223389,2.426147,0.411987,-0.205994,1.0965762637641763
0 days 00:00:08.660000,-0.893311,0.60791,-0.222412,1.914978,-1.304626,-0.160217,1.1031891082516179
0 days 00:00:08.670000,-0.884277,0.615479,-0.228027,0.740051,-2.304077,-0.198364,1.101252253073291
0 days 00:00:08.680000,-0.861572,0.606934,-0.223145,-0.75531,-1.625061,-0.076294,1.0772506127011485
0 days 00:00:08.690000,-0.874512,0.606445,-0.231445,-0.137329,-1.159668,-0.526428,1.0890884097234714
0 days 00:00:08.700000,-0.857422,0.595947,-0.22168,-0.335693,-0.167847,-0.091553,1.067458352954812
0 days 00:00:08.710000,-0.877197,0.595459,-0.230957,0.335693,-0.007629,-0.198364,1.0850747132520413
0 days 00:00:08.720000,-0.874512,0.603271,-0.227051,0.343323,-0.900268,-0.389099,1.0863973923873345
0 days 00:00:08.730000,-0.871338,0.611084,-0.225342,-0.160217,-1.502991,-0.495911,1.0878568758177702
0 days 00:00:08.740000,-0.871338,0.61377,-0.226074,-0.778198,-2.02179,-0.63324,1.0895196081851852
0 days 00:00:08.750000,-0.871094,0.612549,-0.226563,-1.487732,-2.26593,-0.640869,1.0887386404486616
0 days 00:00:08.760000,-0.861084,0.604004,-0.228271,-1.449585,-1.701355,-0.587463,1.0762871998277226
0 days 00:00:08.770000,-0.851318,0.594971,-0.227539,-0.671387,-0.167847,-0.450134,1.0632529447342247
0 days 00:00:08.780000,-0.854248,0.589844,-0.227539,-0.205994,1.419067,-0.358582,1.0627462473991616
0 days 00:00:08.790000,-0.861328,0.595947,-0.225586,-0.053406,2.326965,-0.320435,1.0714139227156796
0 days 00:00:08.800000,-0.84668,0.591064,-0.236328,10.971068,11.787414,6.271362,1.05928022641792
0 days 00:00:08.810000,-0.866455,0.592773,-0.226807,0.068665,0.419617,-0.106812,1.0740416713531185
0 days 00:00:08.820000,-0.878662,0.599121,-0.230713,0.488281,-0.534058,-0.244141,1.0882193580588428
0 days 00:00:08.830000,-0.871826,0.616943,-0.228516,-0.534058,-2.449036,-0.007629,1.0922082227217482
0 days 00:00:08.840000,-0.875244,0.58667,-0.226074,0.061035,0.823975,-0.534058,1.0776563468527431
0 days 00:00:08.850000,-0.880127,0.591309,-0.230713,0.686645,0.183105,-0.358582,1.0851259641069326
0 days 00:00:08.860000,-0.86084,0.65625,-0.214111,6.599426,9.048462,6.958007,1.1034278809333213
0 days 00:00:08.870000,-0.843262,0.653809,-0.202393,5.378723,10.482787,6.210327,1.0860570590783891
0 days 00:00:08.880000,-0.843018,0.644287,-0.208008,4.707336,12.481688,5.355834,1.0812272724811376
0 days 00:00:08.890000,-0.844727,0.630615,-0.213623,4.53949,14.663695,4.371643,1.075580665911674
0 days 00:00:08.900000,-0.865479,0.616699,-0.215088,4.615784,15.182494,4.074097,1.0842667585912609
0 days 00:00:08.910000,-0.899902,0.619629,-0.216309,3.463745,13.320922,3.852844,1.1138012797290189
0 days 00:00:08.920000,-0.916992,0.633301,-0.211914,1.312256,10.391234,3.097534,1.1343950053050305
0 days 00:00:08.930000,-0.916504,0.634766,-0.19043,-0.808716,7.751464,2.830505,1.1310044392804124
0 days 00:00:08.940000,-0.91333,0.624512,-0.17749,-1.876831,4.928589,3.173828,1.1205755785059746
0 days 00:00:08.950000,-0.909912,0.614014,-0.181396,-1.647949,2.876281,2.838135,1.1125904676726293
0 days 00:00:08.960000,-0.877441,0.642334,-0.221436,8.735657,8.964539,7.499694,1.1097430234666943
0 days 00:00:08.970000,-0.899902,0.595703,-0.211914,0.518799,1.464844,0.762939,1.0998150831885332
0 days 00:00:08.980000,-0.906006,0.602295,-0.199951,-0.679016,1.853943,2.059937,1.1061584612802995
0 days 00:00:08.990000,-0.859863,0.601318,-0.226074,-1.213074,-0.106812,-0.534058,1.0733392610768508
0 days 00:00:09,-0.864746,0.611084,-0.222656,-1.266479,-1.045227,-0.1297,1.0820281853574796
0 days 00:00:09.010000,-0.869141,0.61377,-0.215088,-0.762939,-1.304626,-0.236511,1.085533296829259
0 days 00:00:09.020000,-0.872803,0.618164,-0.211914,-0.183105,-1.075745,-0.709534,1.0903299276370433
0 days 00:00:09.030000,-0.86792,0.590088,-0.230225,-0.595093,0.656128,-0.587463,1.0744731382258934
0 days 00:00:09.040000,-0.898926,0.601318,-0.217285,1.350403,0.556946,-0.831604,1.1031156158014443
0 days 00:00:09.050000,-0.893555,0.598877,-0.221191,1.075745,1.831055,-0.663757,1.0981892631213437
0 days 00:00:09.060000,-0.888428,0.600098,-0.219727,0.930786,1.823425,-0.38147,1.0943956667115418
0 days 00:00:09.070000,-0.890625,0.612793,-0.217773,0.87738,-0.564575,-0.87738,1.1027933763869822
0 days 00:00:09.080000,-1.031494,0.249268,-0.393799,-4.821777,45.074459,-39.672852,1.1318975484826355
0 days 00:00:09.090000,-0.875732,0.395752,-0.553711,-53.87878,79.521179,-8.216858,1.1091086749498444
0 days 00:00:09.100000,-0.921387,0.334229,-0.558594,-39.382935,121.406548,-10.185241,1.1281357564788026
0 days 00:00:09.110000,-1.023438,0.290771,-0.519043,-22.636412,150.817871,-12.565612,1.1837984415152776
0 days 00:00:09.120000,-1.165527,0.267822,-0.476318,-7.278442,156.410217,-14.85443,1.2872686776803823
0 days 00:00:09.130000,-1.245117,0.268799,-0.480957,1.411438,134.94873,-18.829346,1.3615758818145245
0 days 00:00:09.140000,-1.272705,0.281494,-0.515381,2.227783,100.875847,-24.04785,1.401654188529396
0 days 00:00:09.150000,-0.834961,0.453369,-0.509033,-65.261841,38.17749,-11.054992,1.0778765777077632
0 days 00:00:09.160000,-1.200439,0.281738,-0.492188,-1.976013,66.162109,-30.96771,1.3276592637830686
0 days 00:00:09.170000,-1.090088,0.266602,-0.41748,-4.272461,43.975826,-37.483215,1.1973545943236696
0 days 00:00:09.180000,-0.977051,0.214844,-0.437744,-3.913879,60.165401,-31.341551,1.0919736308505805
0 days 00:00:09.190000,-1.02124,0.106689,-0.386963,48.110958,132.881165,-15.403747,1.0972939641180934
0 days 00:00:09.200000,-0.92334,0.20166,-0.518799,-3.562927,84.877007,-9.078979,1.0781353874170907
0 days 00:00:09.210000,-0.927246,0.128906,-0.321777,14.839171,98.777763,-13.801574,0.9899203700707446
0 days 00:00:09.220000,-1.019775,0.093262,-0.265869,45.082088,118.171684,-15.892028,1.0579816522180336
0 days 00:00:09.230000,-1.000732,0.135498,-0.455811,32.897949,140.731812,-22.254942,1.107965663524371
0 days 00:00:09.240000,-0.988525,0.128418,-0.454346,21.278379,142.356873,-33.149719,1.0954921935207937
0 days 00:00:09.250000,-0.94873,0.087646,-0.46582,21.629332,135.887146,-37.651062,1.0605464188879241
0 days 00:00:09.260000,-0.977051,0.041016,-0.536133,45.0592,126.213066,-33.882141,1.1152352050334495
0 days 00:00:09.270000,-1.066162,0.055908,-0.594971,73.387146,118.370049,-23.612974,1.222218313374906
0 days 00:00:09.280000,-1.137695,0.150146,-0.672363,68.283081,106.956474,-19.104004,1.330024713345583
0 days 00:00:09.290000,-0.775391,0.531738,-0.474121,-77.758789,5.844116,-19.65332,1.0529801641844923
0 days 00:00:09.300000,-0.961182,0.203369,-0.536133,-3.829956,75.294495,-16.288757,1.1192266888231357
0 days 00:00:09.310000,-0.835693,0.719971,-0.349854,-90.705864,-43.472286,-39.634705,1.157211671392058
0 days 00:00:09.320000,-1.062256,0.185791,-0.617188,37.483215,88.676445,-45.783993,1.2425084034166531
0 days 00:00:09.330000,-0.852051,0.872314,-0.319336,-71.105957,-99.380486,-35.736084,1.2605150146241813
0 days 00:00:09.340000,-0.418213,0.680908,-0.591309,-62.538143,161.506638,29.96826,0.9940745200003871
0 days 00:00:09.350000,-0.541992,0.614746,-0.651123,-55.503841,174.865707,35.469055,1.0467230453701686
0 days 00:00:09.360000,-0.745361,0.605469,-0.686768,-40.641781,157.501221,44.677731,1.1805956192134546
0 days 00:00:09.370000,-0.870117,0.69873,-0.822266,-38.345337,115.623466,51.498409,1.3861632592681858
0 days 00:00:09.380000,-0.738525,0.846924,-0.95752,-50.575253,69.80896,43.67065,1.4763278727305122
0 days 00:00:09.390000,-0.544189,0.966797,-0.98877,-69.389343,37.719727,26.733397,1.486103704264948
0 days 00:00:09.400000,-0.514404,0.868896,-0.883545,-79.483032,22.28546,12.275695,1.341731530917046
0 days 00:00:09.410000,-0.489258,0.73999,-0.689697,-70.930481,10.06317,8.033752,1.1236727915514373
0 days 00:00:09.420000,-0.531006,0.622803,-0.484131,-46.722408,-2.502441,10.917663,0.9509120748029231
0 days 00:00:09.430000,-0.541992,0.500244,-0.411133,-1.213074,-12.725829,0.564575,0.8444108782393794
0 days 00:00:09.440000,-0.883545,0.80957,-0.341797,-85.700981,-74.203491,-42.182919,1.246146275978065
0 days 00:00:09.450000,-0.470947,0.470947,-0.428955,49.522396,-17.997742,-16.914368,0.7922023388270196
0 days 00:00:09.460000,-0.312012,0.772217,-0.244873,99.395744,-14.633178,-28.686522,0.8681205960936533
0 days 00:00:09.470000,-0.391846,0.926758,-0.195313,96.885674,-15.99121,-26.046751,1.024973583195684
0 days 00:00:09.480000,-0.490234,0.987549,-0.189697,85.739128,-16.456604,-12.451171,1.1187347111652521
0 days 00:00:09.490000,-0.541016,1.043213,-0.186279,67.947388,-19.485474,0.999451,1.1898283663898757
0 days 00:00:09.500000,-0.575928,1.074463,-0.178711,41.221615,-26.794432,2.89154,1.2321125845773997
0 days 00:00:09.510000,-0.628662,1.066162,-0.102783,11.528014,-38.230896,-3.372192,1.2419668536547182
0 days 00:00:09.520000,-0.675293,1.042969,0.028809,-8.300781,-52.62756,-11.337279,1.2428334278136393
0 days 00:00:09.530000,-0.675293,0.993896,0.088623,-20.89691,-73.493958,-13.244628,1.2048667688977068
0 days 00:00:09.540000,-0.679688,0.928955,0.028809,-33.851624,-96.260063,-14.251708,1.1514178771627614
0 days 00:00:09.550000,-0.762451,0.898682,-0.147217,-51.025387,-107.13195,-23.384092,1.1877010186128494
0 days 00:00:09.560000,-0.361816,0.576416,-0.386475,86.34185,-14.335631,-25.512693,0.7826424142205686
0 days 00:00:09.570000,-1.084717,0.134766,-0.442627,46.241756,71.258545,-45.0592,1.179275839646518
0 days 00:00:09.580000,-0.770752,0.631836,-0.423584,-87.638847,-17.39502,-31.135557,1.0829121762433
0 days 00:00:09.590000,-1.17627,0.264648,-0.36792,24.841307,53.337093,2.487183,1.260561304817818
0 days 00:00:09.600000,-0.86499,0.602051,-0.267822,1.411438,-2.227783,-0.25177,1.0873829731906786
0 days 00:00:09.610000,-0.865967,0.601807,-0.263184,1.869202,-3.295898,-0.740051,1.0868929699809453
0 days 00:00:09.620000,-0.871094,0.609131,-0.260498,2.502441,-5.325317,-0.50354,1.0943968841334482
0 days 00:00:09.630000,-0.861572,0.635254,-0.260742,1.152039,-6.874084,-0.328064,1.1017442290586323
0 days 00:00:09.640000,-0.832031,0.65918,-0.261963,-2.609253,-6.027221,0.038147,1.0933519427567684
0 days 00:00:09.650000,-0.811035,0.6521,-0.257813,-5.958557,-3.662109,0.961304,1.0721379221881857
0 days 00:00:09.660000,-0.814209,0.616943,-0.253906,-6.828308,-1.060486,1.991272,1.052626817901767
0 days 00:00:09.670000,-0.824219,0.581787,-0.258057,-5.279541,1.213074,2.670288,1.041348399230056
0 days 00:00:09.680000,-0.822021,0.567383,-0.262939,-2.601623,3.562927,2.609253,1.032849897541264
0 days 00:00:09.690000,-0.818115,0.572754,-0.264404,-0.976562,5.546569,2.403259,1.0330870113194726
0 days 00:00:09.700000,-0.864258,0.596924,-0.270752,1.586914,-1.144409,0.198364,1.0846966386248276
0 days 00:00:09.710000,-0.834229,0.591797,-0.263428,-0.709534,6.530761,2.578735,1.0561988566714131
0 days 00:00:09.720000,-0.845215,0.623779,-0.263184,-3.570556,7.652282,3.074646,1.0829378813773207
0 days 00:00:09.730000,-0.860352,0.613525,-0.266357,-4.554749,7.446289,3.677368,1.0897543489144699
0 days 00:00:09.740000,-0.876221,0.594971,-0.266113,-3.791809,6.462097,3.593445,1.0920484698267747
0 days 00:00:09.750000,-0.859131,0.577393,-0.268311,-1.945495,6.965637,2.754211,1.0693360296609293
0 days 00:00:09.760000,-0.825684,0.567139,-0.266846,0.030518,9.788513,2.006531,1.0366327705089202
0 days 00:00:09.770000,-0.826172,0.566406,-0.269775,1.815796,12.512206,1.571655,1.0373786584680638
0 days 00:00:09.780000,-0.853516,0.576904,-0.27832,2.593994,13.389586,1.472473,1.067131580392971
0 days 00:00:09.790000,-0.874023,0.590576,-0.274902,2.258301,12.435912,1.785278,1.0900767523018735
0 days 00:00:09.800000,-0.888184,0.595459,-0.275146,1.701355,10.276793,2.02179,1.1041501527659179
0 days 00:00:09.810000,-0.897461,0.593018,-0.27417,1.426697,8.201599,1.76239,1.1100791790430986
0 days 00:00:09.820000,-0.841309,0.614014,-0.263916,-1.731872,7.026672,2.838135,1.0744606464328974
0 days 00:00:09.830000,-0.851074,0.598145,-0.270264,1.495361,-0.236511,-0.091553,1.0747776626805192
0 days 00:00:09.840000,-1.158691,0.187256,-0.468506,38.757324,64.750671,-21.39282,1.263775104618302
0 days 00:00:09.850000,-1.157715,0.276367,-0.295166,26.420591,42.137142,11.863708,1.2262975607371973
0 days 00:00:09.860000,-0.84375,0.597168,-0.270752,1.525879,-0.457764,-0.610352,1.0685646111620954
0 days 00:00:09.870000,-1.099121,0.283447,-0.287354,34.217834,27.778624,6.881713,1.1708891902165637
0 days 00:00:09.880000,-1.075439,0.333984,-0.288086,33.39386,12.680053,0.770569,1.1623716696362658
0 days 00:00:09.890000,-1.060791,0.408447,-0.281982,26.756285,-6.980896,-3.982544,1.1711619639546018
0 days 00:00:09.900000,-1.073975,0.465332,-0.333252,15.083312,-22.315977,-9.925842,1.2169688025389147
0 days 00:00:09.910000,-1.070068,0.492676,-0.391846,2.532959,-30.296324,-12.863158,1.2414984709277737
0 days 00:00:09.920000,-0.884521,0.465088,-0.312256,3.738403,-18.554688,-16.555786,1.0469899983863264
0 days 00:00:09.930000,-0.827637,0.515869,-0.237793,1.464844,-14.328002,-16.273499,1.003817383680418
0 days 00:00:09.940000,-0.788818,0.552246,-0.254883,-7.789611,-13.137816,-12.741088,0.9960797283997903
0 days 00:00:09.950000,-0.762695,0.572021,-0.267578,-13.22174,-8.705139,-12.794494,0.9902068842166267
0 days 00:00:09.960000,-0.758301,0.56543,-0.260498,-14.144897,-3.707886,-13.229369,0.9811170671764914
0 days 00:00:09.970000,-0.994629,0.470215,-0.393311,-1.701355,-28.816221,-13.084411,1.168367466419277
0 days 00:00:09.980000,-0.785156,0.534912,-0.258057,-9.880066,3.990173,-9.147644,0.984476615938134
0 days 00:00:09.990000,-0.811035,0.530518,-0.251465,-7.4234,4.180908,-6.782531,1.0012301262816656
0 days 00:00:10,-0.834229,0.537109,-0.255371,-4.959106,2.693176,-4.959106,1.0245186430529216
0 days 00:00:10.010000,-0.837646,0.554688,-0.26001,-3.181457,1.976013,-4.219055,1.0377546910325195
0 days 00:00:10.020000,-0.830566,0.56665,-0.261963,-2.319336,1.89209,-3.959656,1.039017187646576
0 days 00:00:10.030000,-0.83667,0.567627,-0.266113,-1.708984,1.350403,-3.089905,1.0454822948276072
0 days 00:00:10.040000,-0.862793,0.567383,-0.271973,-0.289917,-0.114441,-2.235413,1.0678504306629275
0 days 00:00:10.050000,-0.861816,0.567871,-0.264404,1.068115,-1.76239,-1.663208,1.0654171791899172
0 days 00:00:10.060000,-0.847168,0.576416,-0.268799,1.747131,-2.288818,-1.296997,1.0593403266566415
0 days 00:00:10.070000,-0.77002,0.550293,-0.267334,-12.107848,0.984192,-11.726378,0.9834737687427154
0 days 00:00:10.080000,-0.843506,0.587646,-0.275146,1.792908,-1.403808,-0.930786,1.064206518805443
0 days 00:00:10.090000,-0.140381,0.830811,-0.472412,47.348019,-61.920162,54.76379,0.9659849070384071
0 days 00:00:10.100000,-0.11499,0.783691,-0.406494,30.403135,-77.659607,46.379086,0.8902986328288953
0 days 00:00:10.110000,-0.137451,0.797607,-0.494141,9.70459,-86.227409,36.880493,0.9482853113546575
0 days 00:00:10.120000,-0.193359,0.833984,-0.522705,-2.01416,-87.585442,31.494139,1.0030640718129624
0 days 00:00:10.130000,0.002686,1.030762,-0.587646,1.037598,-45.799252,71.517944,1.1865097288079858
0 days 00:00:10.140000,-0.189453,0.947754,-0.52124,-3.921509,-64.620972,46.32568,1.0980989123594467
0 days 00:00:10.150000,-0.098389,0.994873,-0.498291,-3.14331,-50.178524,58.586117,1.1170257840045592
0 days 00:00:10.160000,0.00708,1.014648,-0.47168,-1.907349,-43.30444,66.757202,1.1189471447320467
0 days 00:00:10.170000,-0.137451,0.909912,-0.567627,52.757259,-48.606869,58.837887,1.0812183111074285
0 days 00:00:10.180000,-0.197754,0.899414,-0.5271,-5.172729,-79.795837,34.896851,1.0610780357315857
0 days 00:00:10.190000,-0.186768,0.923828,-0.619873,52.803036,-48.179623,63.850399,1.1280882037930369
0 days 00:00:10.200000,-0.273193,0.870605,-0.645264,56.083675,-65.467834,73.730469,1.1175657076744971
0 days 00:00:10.210000,-0.33667,0.861816,-0.66333,52.513119,-115.44799,94.436638,1.138455179467334
0 days 00:00:10.220000,-0.279053,0.840576,-0.577148,46.669003,-131.416321,106.231682,1.0571368891912722
0 days 00:00:10.230000,-0.173096,0.834961,-0.415283,43.533321,-140.335083,113.990776,0.9484630023495908
0 days 00:00:10.240000,-0.050537,0.861084,-0.371582,39.733887,-137.443542,113.349907,0.9391979696256801
0 days 00:00:10.250000,0.039063,0.871338,-0.392822,34.194946,-127.754204,110.397331,0.9565902737833999
0 days 00:00:10.260000,0.047607,0.872559,-0.403564,28.778074,-116.409294,111.602776,0.9625432650151368
0 days 00:00:10.270000,0.010254,0.878174,-0.422607,23.200987,-104.61425,118.125908,0.9746237198226811
0 days 00:00:10.280000,-0.030273,0.902344,-0.436279,16.525269,-88.943474,125.732414,1.002736513101024
0 days 00:00:10.290000,-0.010986,0.93457,-0.417725,9.849548,-69.122314,128.379822,1.0237362710781521
0 days 00:00:10.300000,-0.241455,1.063477,-0.716064,7.987976,-55.068966,77.186584,1.304619292609917
0 days 00:00:10.310000,-0.32959,0.846436,-0.650391,58.158871,-92.086784,83.961479,1.11718034492064
0 days 00:00:10.320000,-0.520996,1.027832,-0.634766,17.044067,-59.310909,86.311333,1.315599987456674
0 days 00:00:10.330000,0.546143,0.658203,-0.279053,40.794369,-123.939507,128.433228,0.8996521230270066
0 days 00:00:10.340000,-0.813965,1.017578,-0.660645,7.43103,-14.816283,133.926392,1.4609776943314363
0 days 00:00:10.350000,0.93335,0.547607,-0.518066,100.097649,-49.171444,30.632017,1.1997533201891963
0 days 00:00:10.360000,1.005127,0.457031,-0.478027,102.455132,-25.169371,21.804808,1.203190522660065
0 days 00:00:10.370000,0.966553,0.39917,-0.438721,102.790825,-43.41888,27.915953,1.1340359370628428
0 days 00:00:10.380000,0.659668,0.339355,-0.409668,98.793022,-79.284668,47.866817,0.8474382316564436
0 days 00:00:10.390000,0.35376,0.320313,-0.415039,93.185417,-104.858391,67.733765,0.6324586366632999
0 days 00:00:10.400000,0.237305,0.34082,-0.416748,90.744011,-121.635429,84.320061,0.5883458429605839
0 days 00:00:10.410000,0.251709,0.385498,-0.431396,87.875359,-131.660461,98.777763,0.6309268083549786
0 days 00:00:10.420000,0.2854,0.439209,-0.426758,84.693901,-139.801025,112.42675,0.6756331077182349
0 days 00:00:10.430000,0.327881,0.504395,-0.395508,78.720093,-145.568848,123.458855,0.7199630853384082
0 days 00:00:10.440000,0.404297,0.560547,-0.358643,69.93103,-147.438049,128.997803,0.7786487044020558
0 days 00:00:10.450000,-0.732666,0.989014,-0.56665,15.907287,-45.738216,105.842583,1.3550056760958604
0 days 00:00:10.460000,0.489746,0.608154,-0.319092,57.418819,-139.595032,127.761833,0.8435177156977794
0 days 00:00:10.470000,0.516602,0.702393,-0.26001,24.971006,-94.001762,137.428284,0.9098564463435976
0 days 00:00:10.480000,0.544189,0.769043,-0.271973,11.940001,-49.575802,155.220032,0.9805804996526293
0 days 00:00:10.490000,0.658203,0.841553,-0.312256,5.569458,2.609253,174.430832,1.11307971437539
0 days 00:00:10.500000,0.700195,0.920898,-0.370605,-0.404358,53.298946,181.686386,1.2147733247211185
0 days 00:00:10.510000,0.502197,0.947754,-0.407959,-4.882813,93.971245,175.201401,1.1475495706094792
0 days 00:00:10.520000,0.157227,0.923096,-0.503418,-8.102417,117.629997,171.028122,1.0631350984089465
0 days 00:00:10.530000,-0.150146,0.905762,-0.587158,-9.635925,121.383659,174.217209,1.0898179384300846
0 days 00:00:10.540000,-0.351318,0.904053,-0.600586,-8.056641,103.500359,177.535995,1.1408066038242415
0 days 00:00:10.550000,-0.494873,0.94043,-0.607422,-1.228333,67.939758,172.637924,1.2240381354814889
0 days 00:00:10.560000,-0.678467,1.011963,-0.650146,2.960205,25.161741,157.394409,1.380969371410532
0 days 00:00:10.570000,0.006104,0.963135,-0.412109,0.25177,-48.194881,125.236504,1.0476163968371248
0 days 00:00:10.580000,-0.051758,0.977295,-0.416016,-11.901855,-31.379698,124.641411,1.0634160614947472
0 days 00:00:10.590000,-0.148438,0.953857,-0.404053,-20.179747,-22.460936,126.365654,1.0464873831547135
0 days 00:00:10.600000,-0.199951,0.891113,-0.404053,-21.415709,-18.234253,124.961845,0.9986599060636209
0 days 00:00:10.610000,-0.655518,0.747314,-0.643311,-49.766537,45.883175,45.1889,1.184073944329914
0 days 00:00:10.620000,-0.757324,0.772949,-0.69043,-51.795956,38.619995,49.018856,1.2836211989823945
0 days 00:00:10.630000,-0.807617,0.777832,-0.714844,-56.846615,22.338865,43.785091,1.3297630553030868
0 days 00:00:10.640000,-0.790283,0.740234,-0.669434,-57.54089,1.922607,37.864685,1.2730418198947746
0 days 00:00:10.650000,-0.738281,0.712158,-0.654785,-54.359432,-11.634826,37.017822,1.2169516211213984
0 days 00:00:10.660000,-0.660889,0.703613,-0.698975,-52.055355,-14.160155,37.437439,1.191810209183912
0 days 00:00:10.670000,-0.591553,0.696777,-0.762451,-50.071712,-12.229918,35.636902,1.190279239060734
0 days 00:00:10.680000,-0.618652,0.676514,-0.744629,-44.883724,-9.70459,33.409119,1.1810477708124256
0 days 00:00:10.690000,-0.731445,0.63623,-0.650635,-32.279968,-8.827209,35.491943,1.1675300013918273
0 days 00:00:10.700000,-0.809814,0.614258,-0.637451,-26.908873,-14.045714,38.787842,1.1997730546069951
0 days 00:00:10.710000,-0.622314,0.731689,-0.631104,-49.819942,47.515865,34.805298,1.149319697096069
0 days 00:00:10.720000,-0.890381,0.618164,-0.652832,-21.057127,-21.423338,39.581299,1.2653436988743414
0 days 00:00:10.730000,-0.686768,0.697021,-0.751953,-28.984068,-13.412475,39.962769,1.2340672082484
0 days 00:00:10.740000,-0.432861,0.710693,-0.760254,-31.532286,10.711669,37.971497,1.1271376713099426
0 days 00:00:10.750000,-0.272461,0.697754,-0.731445,-28.900145,39.390564,34.576416,1.0469514931753048
0 days 00:00:10.760000,-0.246094,0.685547,-0.678711,-27.275084,63.476559,31.425474,0.9955830289664443
0 days 00:00:10.770000,-0.280518,0.683838,-0.633301,-28.343199,79.658508,29.502867,0.9733421367479166
0 days 00:00:10.780000,-0.320068,0.681396,-0.574463,-28.419493,84.716789,28.221128,0.9469697839999964
0 days 00:00:10.790000,-0.354004,0.706055,-0.548828,-30.982969,84.999077,26.710508,0.9617924249155844
0 days 00:00:10.800000,-0.367188,0.735107,-0.489258,-38.131714,87.165825,28.038023,0.9563381825259305
0 days 00:00:10.810000,-0.356689,0.744141,-0.433594,-48.080441,100.379936,29.045103,0.9321891586142805
0 days 00:00:10.820000,-0.351563,0.730225,-0.480469,-57.197567,128.219604,28.945921,0.9421653536163384
0 days 00:00:10.830000,-0.877441,0.654053,-0.695313,-21.835325,-23.307798,38.459778,1.296590993050237
0 days 00:00:10.840000,-0.637451,0.696777,-0.621338,-47.592159,42.16003,27.580259,1.1304436630695047
0 days 00:00:10.850000,-0.68335,0.65918,-0.687744,-37.895203,-7.102966,32.897949,1.172381040633121
0 days 00:00:10.860000,-0.560059,0.693604,-0.561768,-52.61993,13.778686,33.554077,1.0537247639307905
0 days 00:00:10.870000,-0.223877,0.835449,-0.403809,-19.302368,-15.289306,119.758598,0.9545457826689089
0 days 00:00:10.880000,-0.623291,0.661621,-0.584717,-46.623226,29.304502,28.45001,1.0807996985616715
0 days 00:00:10.890000,-0.317627,0.818604,-0.381592,-11.901855,-5.424499,110.961906,0.9573984930053943
0 days 00:00:10.900000,-0.321045,0.865723,-0.37207,-11.680602,6.217956,108.299248,0.995480933847555
0 days 00:00:10.910000,-0.304932,0.895508,-0.381592,-15.930175,20.111082,105.636589,1.0200639965962919
0 days 00:00:10.920000,-0.334473,0.87793,-0.407959,-19.599915,35.903931,99.891655,1.0242381648376515
0 days 00:00:10.930000,-0.430176,0.818115,-0.459473,-20.072937,53.764339,90.736382,1.0322204134437567
0 days 00:00:10.940000,-0.536621,0.749512,-0.469727,-18.486023,69.007874,81.748955,1.0345887058701153
0 days 00:00:10.950000,-0.623779,0.698242,-0.408691,-18.531799,76.11084,77.125549,1.0216019111601153
0 days 00:00:10.960000,-0.735107,0.700439,-0.375,-20.355223,75.416565,76.774597,1.082414936228247
0 days 00:00:10.970000,-0.848389,0.775879,-0.379639,-22.78137,72.929382,78.292847,1.2107344416852936
0 days 00:00:10.980000,-0.274414,0.805664,-0.401123,-16.281128,-11.512755,114.44091,0.940902325122539
0 days 00:00:10.990000,-0.466797,0.900146,-0.557861,-60.760494,-14.72473,39.352417,1.1573120391000864
0 days 00:00:11,-0.878662,0.919189,-0.41333,-37.68158,60.470577,75.592041,1.3370852691077708
0 days 00:00:11.010000,-0.920654,0.831055,-0.420654,-41.763302,37.528992,71.357727,1.309658729767797
0 days 00:00:11.020000,-0.975098,0.729248,-0.420654,-45.913692,1.335144,62.57629,1.2882424239342531
0 days 00:00:11.030000,-0.875977,0.663818,-0.325195,-43.571468,-40.061951,46.142574,1.146185774505163
0 days 00:00:11.040000,-0.677734,0.681152,-0.289307,-38.711548,-69.290161,30.128477,1.003488894860825
0 days 00:00:11.050000,-0.539063,0.760986,-0.353516,-36.888123,-72.257996,24.848936,0.9973275151227906
0 days 00:00:11.060000,-0.500488,0.848145,-0.445557,-40.336605,-53.619381,30.075071,1.08090666545174
0 days 00:00:11.070000,-0.483154,0.911865,-0.525146,-50.819393,-31.898497,36.842346,1.1578920015515264
0 days 00:00:11.080000,-0.485596,0.800781,-0.565186,-60.722347,-0.900268,37.54425,1.093841350367136
0 days 00:00:11.090000,-0.887451,0.895752,-0.399658,-29.502867,70.304871,77.980042,1.3227499536454348
0 days 00:00:11.100000,-0.622559,0.506592,-0.919922,53.955074,34.65271,58.876034,1.2208487412570814
0 days 00:00:11.110000,-0.575928,0.474121,-0.893311,52.742001,40.283199,66.932678,1.1638248693622248
0 days 00:00:11.120000,-0.53418,0.480469,-0.873291,44.219967,48.377987,77.285767,1.130856269842459
0 days 00:00:11.130000,-0.503418,0.502686,-0.870361,34.27124,54.267879,88.401787,1.1241223988698918
0 days 00:00:11.140000,-1.200928,0.438477,-0.713867,-9.44519,-107.955925,-116.577141,1.464273278593173
0 days 00:00:11.150000,-0.40332,0.523193,-0.826172,20.904539,56.579586,102.72216,1.057808163720152
0 days 00:00:11.160000,-0.349854,0.519531,-0.761963,17.234802,56.106564,106.811516,0.9863558661284475
0 days 00:00:11.170000,-0.652588,0.558594,-0.91748,46.95129,34.14917,53.680416,1.2568484017493915
0 days 00:00:11.180000,-0.321533,0.487549,-0.685303,16.174316,56.991573,110.130302,0.9004041866289828
0 days 00:00:11.190000,-0.460938,0.517334,-0.86499,26.535032,56.671139,96.984856,1.1082896767091175
0 days 00:00:11.200000,-0.654297,0.619873,-0.878662,36.560059,39.657593,47.439571,1.258727139050398
0 days 00:00:11.210000,-1.039795,0.347656,-0.615479,52.398678,70.991516,-23.895262,1.257319663332281
0 days 00:00:11.220000,-0.691895,0.576416,-0.764648,19.78302,57.739254,21.858213,1.1813808276694693
0 days 00:00:11.230000,-0.76123,0.458984,-0.780762,28.32794,66.719055,6.286621,1.1831004715576778
0 days 00:00:11.240000,-0.891113,0.36377,-0.817139,44.708248,73.348999,-3.15094,1.2625874769654577
0 days 00:00:11.250000,-0.972656,0.33667,-0.757324,56.602474,75.683594,-13.511657,1.2778677647597187
0 days 00:00:11.260000,-1.086426,0.389404,-0.504883,33.096313,60.966488,-33.615112,1.259707812304504
0 days 00:00:11.270000,-1.17334,0.4646,-0.466797,9.727478,42.427059,-46.005245,1.3455405437254575
0 days 00:00:11.280000,-1.267822,0.542969,-0.513916,-9.231567,15.11383,-64.987183,1.4718347779900434
0 days 00:00:11.290000,-1.309082,0.570801,-0.580078,-18.852234,-20.713804,-86.013786,1.5414278933537566
0 days 00:00:11.300000,-1.288818,0.532227,-0.658936,-16.349792,-63.789364,-103.080742,1.5422431937761956
0 days 00:00:11.310000,-0.321533,0.428711,-0.639893,14.846801,61.561581,113.517754,0.8346494132622392
0 days 00:00:11.320000,-0.656006,0.643799,-0.812744,24.971006,48.599239,36.689758,1.2269367685308807
0 days 00:00:11.330000,-0.320068,0.360107,-0.638184,12.84027,70.724487,117.820732,0.7996245330960025
0 days 00:00:11.340000,-0.275635,0.343262,-0.823975,44.387814,-42.579647,59.288021,0.9342046106148267
0 days 00:00:11.350000,-0.165283,0.270996,-0.719238,4.768372,89.599602,125.762932,0.7861683043401076
0 days 00:00:11.360000,-1.15625,0.339111,-0.655273,-12.626647,-141.197205,-125.396721,1.3716023612366668
0 days 00:00:11.370000,-0.135742,0.447266,-0.574707,25.703428,-54.443356,67.91687,0.7407839773975946
0 days 00:00:11.380000,0.08252,0.560059,-1.144043,18.356323,-93.200676,50.60577,1.2764442877501547
0 days 00:00:11.390000,0.013916,0.500488,-0.851318,25.978086,-108.154289,50.743099,0.9876356769193791
0 days 00:00:11.400000,0.099121,0.415283,-0.617432,26.763914,-102.149956,54.283138,0.7506711779161366
0 days 00:00:11.410000,0.132568,0.348145,-0.587891,24.665831,-92.77343,53.337093,0.6959849449018276
0 days 00:00:11.420000,0.149902,0.319336,-0.61084,21.850584,-83.900444,52.062984,0.7053875502870746
0 days 00:00:11.430000,0.154297,0.342041,-0.631104,18.531799,-77.850342,56.060787,0.7342287577492453
0 days 00:00:11.440000,0.099365,0.380859,-0.637939,16.166687,-76.530457,68.977356,0.7495953233758866
0 days 00:00:11.450000,0.038086,0.427979,-0.640625,13.542174,-81.321709,85.975639,0.7713734234869646
0 days 00:00:11.460000,-0.268555,0.297607,-0.659668,9.666443,81.153862,122.283928,0.7719155295095442
0 days 00:00:11.470000,0.034912,0.47998,-0.663574,7.30133,-86.769096,100.166313,0.8197134265217326
0 days 00:00:11.480000,0.124512,0.471436,-0.662354,-9.727478,-82.008354,109.748833,0.8224767240208077
0 days 00:00:11.490000,0.177734,0.380859,-0.625732,-16.983032,-69.816589,102.272026,0.753779469381463
0 days 00:00:11.500000,0.207764,0.286865,-0.633545,-19.744873,-50.025936,97.702019,0.7258351568682796
0 days 00:00:11.510000,0.219482,0.256836,-0.692383,-14.389037,-24.55139,105.033867,0.7704098246446497
0 days 00:00:11.520000,0.236084,0.299072,-0.780273,-8.857727,7.438659,124.099724,0.8683349991616138
0 days 00:00:11.530000,0.269287,0.353516,-0.840332,-7.492065,40.374752,142.76123,0.9506034508926421
0 days 00:00:11.540000,0.300537,0.37207,-0.863037,-8.415222,65.109253,147.689819,0.9867073713305278
0 days 00:00:11.550000,0.257568,0.361572,-0.841309,-10.383605,80.574028,140.205383,0.9512499247248327
0 days 00:00:11.560000,0.125732,0.320313,-0.808838,-7.575988,88.760368,131.30188,0.8789925278618698
0 days 00:00:11.570000,-0.02832,0.28125,-0.775146,-1.167297,91.918938,127.655022,0.8250787272836454
0 days 00:00:11.580000,0.077881,0.506836,-0.689697,-1.060486,-87.120049,109.352104,0.8594359387796161
0 days 00:00:11.590000,-1.057617,0.263428,-0.490967,-19.836426,-154.006958,-139.076233,1.195406468512698
0 days 00:00:11.600000,-0.652832,0.467041,-0.897217,-34.088135,-166.969284,30.120848,1.2038751019080012
0 days 00:00:11.610000,-0.6875,0.283203,-0.505859,-42.869564,-140.151978,-160.591125,0.8993072428764265
0 days 00:00:11.620000,0.010986,0.482666,-0.825195,57.556149,203.81163,52.711483,0.956051226544373
0 days 00:00:11.630000,-0.174805,0.574951,-0.841553,46.600338,173.484787,62.110897,1.0340874683676424
0 days 00:00:11.640000,-0.361816,0.644043,-0.743408,39.306641,125.90789,67.054749,1.0480255999587986
0 days 00:00:11.650000,-0.553223,0.715576,-0.632568,37.376404,58.204647,70.770264,1.1037422589214387
0 days 00:00:11.660000,-0.698486,0.853271,-0.650879,30.952452,-26.05438,72.059631,1.2804677130947113
0 days 00:00:11.670000,-0.810791,0.987549,-0.689941,15.136718,-111.022942,63.690182,1.4521204001607442
0 days 00:00:11.680000,-0.85498,1.012939,-0.686035,-4.989624,-181.411728,47.935482,1.4925415368913524
0 days 00:00:11.690000,-0.814209,0.922363,-0.705078,-25.108335,-227.645859,36.5448,1.418035537472175
0 days 00:00:11.700000,-0.731445,0.771729,-0.781006,-30.250547,-242.919907,32.13501,1.3192982261422168
0 days 00:00:11.710000,-0.404785,0.393799,-0.885254,-20.904539,-95.092766,3.067016,1.0500491384416255
0 days 00:00:11.720000,0.159668,0.384521,-0.811523,61.035152,227.607712,36.865234,0.9120964034541524
0 days 00:00:11.730000,-0.011475,0.47168,-0.867432,0.198364,-33.950806,-42.648312,0.9874471999296974
0 days 00:00:11.740000,0.358398,0.703613,-0.948486,26.06201,-17.753601,-91.873161,1.2341580418929337
0 days 00:00:11.750000,0.172607,0.571777,-1.126465,27.870176,-53.649899,-86.265556,1.2750080432699238
0 days 00:00:11.760000,0.028809,0.439941,-1.205811,38.963318,-93.284599,-79.38385,1.283884032801639
0 days 00:00:11.770000,0.008057,0.365723,-1.230469,58.242794,-128.364563,-79.429626,1.2836947409485637
0 days 00:00:11.780000,0.147949,0.377686,-1.223145,73.928833,-148.170471,-77.453613,1.288650190013566
0 days 00:00:11.790000,0.400146,0.404541,-1.073975,79.528809,-150.085449,-57.075497,1.2153981004683196
0 days 00:00:11.800000,0.638428,0.418213,-0.836182,86.585991,-142.570496,-19.515991,1.1321187047642134
0 days 00:00:11.810000,0.747803,0.46167,-0.724365,92.956535,-120.826714,18.341064,1.1388824210312494
0 days 00:00:11.820000,-0.868652,0.230225,-0.418457,-34.40094,-149.894714,-152.96936,0.9912951672322428
0 days 00:00:11.830000,0.830078,0.546875,-0.598145,97.373955,-84.541313,29.46472,1.1601203354540424
0 days 00:00:11.840000,0.288818,0.601074,-0.85376,20.51544,-9.69696,-80.841057,1.0833337104512164
0 days 00:00:11.850000,0.278564,0.330322,-0.823242,54.939266,245.841965,21.575926,0.9297515347360282
0 days 00:00:11.860000,-0.68335,0.612061,-0.867676,-29.907225,-222.183212,33.859253,1.2627143505943852
0 days 00:00:11.870000,0.668457,0.361816,-0.753906,37.712097,249.961838,17.822266,1.0705698648574973
0 days 00:00:11.880000,-0.585693,0.424316,-0.6521,-44.265743,-142.280579,-154.823303,0.9738145450264132
0 days 00:00:11.890000,0.451172,0.336426,-0.798096,41.770931,249.992355,14.678954,0.9765735263030634
0 days 00:00:11.900000,-0.43457,0.611572,-0.744385,-44.242855,-175.910934,-134.613037,1.056872946152469
0 days 00:00:11.910000,-0.293945,0.625488,-0.772705,-43.327328,-190.254196,-130.584717,1.0366831329745845
0 days 00:00:11.920000,-0.093994,0.651367,-0.783936,-48.439022,-198.234543,-133.499146,1.023557273835226
0 days 00:00:11.930000,0.118896,0.645264,-0.713135,-52.055355,-206.047043,-133.323669,0.9690528451725425
0 days 00:00:11.940000,0.3479,0.606934,-0.636719,-45.669552,-218.154892,-122.451775,0.9459462856404691
0 days 00:00:11.950000,0.517334,0.585205,-0.711426,-33.027649,-226.890549,-104.583733,1.0565161205854836
0 days 00:00:11.960000,0.628174,0.598389,-0.873779,-20.675657,-224.990829,-85.380547,1.2313251846843707
0 days 00:00:11.970000,0.723877,0.603271,-0.948975,-9.513855,-217.201218,-76.48468,1.337343396886155
0 days 00:00:11.980000,0.818848,0.594971,-0.927246,-4.547119,-199.043259,-76.74408,1.3726935865155778
0 days 00:00:11.990000,0.909424,0.537842,-0.827148,-4.501343,-173.652634,-73.028564,1.3418270539246107
0 days 00:00:12,-0.520752,0.56958,-0.740723,-46.119686,-156.761169,-144.798279,1.069707709906309
0 days 00:00:12.010000,1.096436,0.3479,-0.682373,2.784729,-118.110649,-69.274902,1.3374749430269712
0 days 00:00:12.020000,1.213135,0.283203,-0.631836,8.857727,-95.91674,-73.600769,1.3968239682687293
0 days 00:00:12.030000,1.279053,0.254639,-0.687744,14.595031,-75.500488,-71.929932,1.474384416177138
0 days 00:00:12.040000,1.292969,0.252441,-0.707031,21.499632,-41.320797,-63.537594,1.4951214426938704
0 days 00:00:12.050000,1.360596,0.300049,-0.698242,26.275633,15.670775,-50.765987,1.5584584589205448
0 days 00:00:12.060000,1.467529,0.380615,-0.699707,26.542662,94.444267,-35.018921,1.6697601713764165
0 days 00:00:12.070000,1.454834,0.432373,-0.721436,27.503965,182.77739,-17.547607,1.6804637100458313
0 days 00:00:12.080000,1.273193,0.432373,-0.711426,31.997679,242.401108,-0.068665,1.5212145739027088
0 days 00:00:12.090000,0.960205,0.399902,-0.707764,37.963867,249.877914,14.900207,1.2581117324486726
0 days 00:00:12.100000,0.944336,0.429443,-0.768311,-2.311707,-144.989014,-66.78772,1.290927404568514
0 days 00:00:12.110000,-0.821045,0.864014,-0.322998,13.916015,5.722045,17.364502,1.234893838443208
0 days 00:00:12.120000,-0.585693,0.739746,-0.537109,58.502193,51.841732,40.473934,1.0857009314935675
0 days 00:00:12.130000,-0.598633,0.822998,-0.546631,47.95837,44.929501,36.567688,1.15520241813026
0 days 00:00:12.140000,-0.63501,0.912354,-0.569336,43.846127,41.702267,34.660339,1.2489079238726928
0 days 00:00:12.150000,-0.50293,0.70166,-0.633789,78.010559,99.304192,35.469055,1.0709593068931238
0 days 00:00:12.160000,-0.685059,0.912354,-0.608643,61.500546,60.607906,35.095215,1.2931132805156709
0 days 00:00:12.170000,-0.6521,0.828613,-0.618408,73.699951,78.048706,36.262512,1.2224002487863785
0 days 00:00:12.180000,-0.587646,0.73999,-0.631836,79.856873,92.712395,36.643982,1.1367188536801878
0 days 00:00:12.190000,-0.435547,0.728516,-0.638428,71.380615,96.611015,34.912109,1.0620861841908122
0 days 00:00:12.200000,-0.672363,0.94873,-0.599365,49.484249,46.775814,34.461975,1.308204502321407
0 days 00:00:12.210000,-0.581543,0.729492,-0.530518,67.878723,57.273861,47.157284,1.073219542888127
0 days 00:00:12.220000,-0.625732,0.849854,-0.387207,42.396542,56.678768,49.400326,1.1241537341436
0 days 00:00:12.230000,-0.643066,0.881104,-0.51709,65.109253,49.148556,58.990475,1.2071703306791466
0 days 00:00:12.240000,-0.650635,0.935303,-0.484375,54.76379,45.494076,58.41827,1.2380374572923873
0 days 00:00:12.250000,-0.643311,0.918701,-0.427734,45.326229,48.599239,54.00848,1.2003403454345771
0 days 00:00:12.260000,-0.637939,0.778564,-0.397217,45.845028,63.537594,46.417233,1.082085678172482
0 days 00:00:12.270000,-0.693604,0.727051,-0.434082,50.239559,63.766476,44.418331,1.094585240235314
0 days 00:00:12.280000,-0.778564,0.72168,-0.454834,51.025387,55.13763,42.381283,1.154927656631358
0 days 00:00:12.290000,-0.869629,0.763916,-0.44458,45.837399,40.138245,38.856506,1.239949042943701
0 days 00:00:12.300000,-0.907959,0.816162,-0.408203,36.422729,24.589537,32.958984,1.287299361117685
0 days 00:00:12.310000,-0.876465,0.857178,-0.355957,24.765013,12.687682,25.413511,1.2765776144668997
0 days 00:00:12.320000,-0.422363,0.778809,-0.660889,67.855835,89.462273,37.605286,1.1053091117741678
0 days 00:00:12.330000,-0.613281,0.795654,-0.540771,70.503235,55.358883,54.77142,1.1408821793322919
0 days 00:00:12.340000,-0.449951,0.786133,-0.680176,72.601318,85.998528,43.16711,1.1327402116398975
0 days 00:00:12.350000,0.29541,0.248535,-0.761475,64.651489,80.413811,33.226013,0.8537452137201121
0 days 00:00:12.360000,-0.463379,0.646484,-0.71167,92.422478,108.795158,50.498959,1.0673030726073076
0 days 00:00:12.370000,-0.776367,0.836182,-0.311768,7.4234,2.388,10.154723,1.1828547424079594
0 days 00:00:12.380000,0.301758,0.223145,-0.761963,63.621517,81.871025,34.645081,0.8493757678189318
0 days 00:00:12.390000,0.306396,0.190674,-0.752686,64.147949,83.236687,35.522461,0.8347282777574987
0 days 00:00:12.400000,0.310547,0.158203,-0.73584,66.40625,85.281364,35.858154,0.8142039879649325
0 days 00:00:12.410000,0.308838,0.133789,-0.719727,70.701599,87.524406,36.087036,0.7945359408447172
0 days 00:00:12.420000,0.288574,0.130371,-0.70874,76.332092,90.171806,37.513733,0.7762628026106881
0 days 00:00:12.430000,0.256836,0.162354,-0.698242,81.138603,94.200127,40.267941,0.7614889643166209
0 days 00:00:12.440000,0.230957,0.216797,-0.68042,84.526054,99.731438,43.334957,0.7505421050534075
0 days 00:00:12.450000,0.206543,0.270996,-0.664063,86.128227,106.170647,45.082088,0.7463769227635592
0 days 00:00:12.460000,0.19165,0.298828,-0.6521,87.905876,112.67852,43.914791,0.7424704075476679
0 days 00:00:12.470000,-0.475342,0.736084,-0.702637,82.214348,92.407219,48.301693,1.1231511144049138
0 days 00:00:12.480000,0.179443,0.299316,-0.638184,90.75164,117.019646,39.604187,0.7273710717103066
0 days 00:00:12.490000,0.104736,0.282959,-0.581055,102.447502,113.533012,33.01239,0.6547215731912307
0 days 00:00:12.500000,0.060303,0.310547,-0.551025,108.90197,112.579338,30.677794,0.6353774009539527
0 days 00:00:12.510000,0.037354,0.370117,-0.524902,112.823479,119.522087,29.121397,0.6433537321015554
0 days 00:00:12.520000,0.020264,0.446533,-0.539795,110.771172,136.734009,29.502867,0.7008430579024095
0 days 00:00:12.530000,-0.009033,0.478027,-0.56665,103.614799,157.112122,32.432556,0.7414065216316889
0 days 00:00:12.540000,-0.051514,0.458984,-0.614014,97.015373,170.761093,36.521912,0.7683314367172541
0 days 00:00:12.550000,-0.135254,0.425049,-0.656006,97.602837,172.889694,40.260311,0.7932869398603509
0 days 00:00:12.560000,-0.243896,0.420654,-0.68042,101.150505,164.833054,43.884274,0.8363052211555301
0 days 00:00:12.570000,-0.344482,0.466553,-0.697754,102.119438,150.07782,47.142025,0.9073038050449254
0 days 00:00:12.580000,-0.419922,0.548584,-0.713867,99.296562,130.302429,49.46899,0.9934208498058615
0 days 00:00:12.590000,0.148438,0.283691,-0.612061,95.726006,116.577141,35.926819,0.6907482110335139
0 days 00:00:12.600000,-0.759766,0.801514,-0.312012,5.439758,0.88501,4.53186,1.147615159840615
0 days 00:00:12.610000,-0.358154,0.65332,-0.664307,-125.457756,-92.414848,-43.67828,0.9982009318594128
0 days 00:00:12.620000,-0.772217,0.768799,-0.313965,4.066467,-4.150391,-3.471374,1.1339951581532435
0 days 00:00:12.630000,-0.781982,0.850342,-0.563477,-78.964233,-50.193783,-47.180172,1.2853340790693288
0 days 00:00:12.640000,-0.770508,0.880859,-0.560547,-91.690056,-67.253113,-52.108761,1.297616312765064
0 days 00:00:12.650000,-0.683838,0.902344,-0.55542,-108.177177,-82.06176,-57.655331,1.2610909883826782
0 days 00:00:12.660000,-0.592041,0.879395,-0.526855,-120.674126,-91.918938,-62.339779,1.183817681372854
0 days 00:00:12.670000,-0.541504,0.8125,-0.474121,-123.39782,-97.31292,-65.437317,1.0854370339439317
0 days 00:00:12.680000,-0.495117,0.754883,-0.449219,-120.048515,-97.419731,-64.125061,1.0083585162723623
0 days 00:00:12.690000,-0.452148,0.729248,-0.4729,-116.294853,-93.231194,-58.776852,0.9797320395945005
0 days 00:00:12.700000,-0.414307,0.733887,-0.535889,-114.997856,-89.981071,-52.642818,0.9987078848887696
0 days 00:00:12.710000,-0.388916,0.741943,-0.590576,-118.469231,-88.081352,-49.690243,1.0249463801004421
0 days 00:00:12.720000,-0.381104,0.719727,-0.63501,-124.542229,-88.439934,-48.934933,1.0327075643399732
0 days 00:00:12.730000,-0.753418,0.825195,-0.546387,-70.739746,-33.172607,-46.546932,1.2438344843740263
0 days 00:00:12.740000,-0.304443,0.564697,-0.723389,-120.216362,-97.953789,-35.820007,0.9668815270647174
0 days 00:00:12.750000,-0.121338,0.385498,-0.842285,-97.549431,-91.148369,-38.208008,0.9342246193892558
0 days 00:00:12.760000,-0.064941,0.325195,-0.848389,-79.925537,-74.539185,-36.941528,0.9108968200773345
0 days 00:00:12.770000,-0.074951,0.310059,-0.895996,-66.375732,-59.066769,-30.731199,0.9510852053827775
0 days 00:00:12.780000,-0.089355,0.322754,-0.949463,-54.367062,-55.52673,-25.794981,1.0067941442569082
0 days 00:00:12.790000,-0.057861,0.337158,-0.994629,-47.20306,-58.944698,-19.218445,1.0518128445336652
0 days 00:00:12.800000,-0.037598,0.32959,-1.031982,-43.785091,-59.082027,-5.805969,1.0839880193194018
0 days 00:00:12.810000,-0.052002,0.269287,-1.028076,-33.004761,-54.115292,8.056641,1.0640300550966595
0 days 00:00:12.820000,-0.062256,0.166748,-0.935791,-6.370544,-46.943661,19.592285,0.952567845731211
0 days 00:00:12.830000,-0.12085,0.105957,-0.838135,28.366087,-34.40094,30.128477,0.8534060502328302
0 days 00:00:12.840000,-0.249756,0.189453,-0.9104,49.011227,-31.669615,45.166012,0.9628596256698065
0 days 00:00:12.850000,-0.225098,0.470215,-0.802002,-110.671989,-99.235527,-34.255981,0.9565450662843857
0 days 00:00:12.860000,-0.753418,0.820801,-0.482178,-68.313599,-22.28546,-50.300594,1.2140216587890844
0 days 00:00:12.870000,-0.764648,0.774414,-0.317139,5.40924,-0.961304,0.305176,1.1335699151887368
0 days 00:00:12.880000,-0.862549,0.9104,-0.399658,-76.522827,-16.548157,-59.150692,1.3162619246810263
0 days 00:00:12.890000,-0.745361,0.77124,-0.286621,1.106262,-6.370544,-6.462097,1.1101917652198652
0 days 00:00:12.900000,-0.710449,0.771729,-0.264648,-2.090454,-7.034301,-8.18634,1.08182345830824
0 days 00:00:12.910000,-0.699707,0.770508,-0.27002,-6.202697,-7.972717,-8.918762,1.075259626468417
0 days 00:00:12.920000,-0.687256,0.765381,-0.280273,-10.0708,-9.017944,-10.131835,1.066152821703343
0 days 00:00:12.930000,-0.671387,0.744873,-0.30249,-12.138366,-8.605957,-12.702941,1.0474237394665065
0 days 00:00:12.940000,-0.655518,0.714355,-0.30542,-10.658263,-5.973815,-14.343261,1.016507890155802
0 days 00:00:12.950000,-0.81665,0.849365,-0.427002,-72.113037,-18.974304,-55.892941,1.253263273908958
0 days 00:00:12.960000,-0.629639,0.689941,-0.313965,1.701355,5.653381,-14.717101,0.9854125405265554
0 days 00:00:12.970000,-0.633545,0.720215,-0.310791,7.400512,12.405395,-17.547607,1.0083054888926273
0 days 00:00:12.980000,-0.678467,0.775146,-0.290039,9.483337,16.609192,-20.065308,1.0701828876065997
0 days 00:00:12.990000,-0.703125,0.850098,-0.272949,4.165649,15.823363,-22.720335,1.1364649276726493
0 days 00:00:13,-0.643311,0.689941,-0.302979,-5.149841,-0.915527,-13.809203,0.9907895339793411
0 days 00:00:13.010000,-0.593262,0.912354,-0.27832,-12.130736,19.760132,-26.44348,1.1233038967082773
0 days 00:00:13.020000,-0.540039,0.860107,-0.263916,-10.742187,34.866333,-28.610228,1.0493225567126632
0 days 00:00:13.030000,-0.546143,0.808838,-0.261475,-4.03595,52.955624,-30.609129,1.0103762973852861
0 days 00:00:13.040000,-0.617432,0.81665,-0.289307,-2.510071,63.522335,-32.623291,1.0638787700546524
0 days 00:00:13.050000,-0.701904,0.873047,-0.33667,-9.735107,61.370846,-36.819458,1.1697123485391612
0 days 00:00:13.060000,-0.781494,0.924072,-0.338135,-17.211914,52.665707,-40.550228,1.2565735996928313
0 days 00:00:13.070000,-0.835693,0.97998,-0.336914,-28.778074,41.648861,-46.012875,1.331260543261536
0 days 00:00:13.080000,-0.867432,1.012451,-0.338867,-43.54858,27.359007,-50.270077,1.3756184593534648
0 days 00:00:13.090000,-0.886475,1.019287,-0.345215,-60.111996,9.536743,-53.924557,1.3942586955866547
0 days 00:00:13.100000,-0.879639,0.981201,-0.361328,-73.127747,-7.164001,-57.723995,1.3664106616628837
0 days 00:00:13.110000,-0.65625,0.908691,-0.281738,-5.53894,14.152526,-25.207518,1.1557507069541424
0 days 00:00:13.120000,1.093506,-0.58667,-0.660889,-58.944698,-24.230955,6.713867,1.405955664755116
0 days 00:00:13.130000,1.151611,-0.58667,-0.639404,-63.186642,-45.463558,5.981445,1.441952516360022
0 days 00:00:13.140000,1.207764,-0.558105,-0.631104,-76.812744,-72.731018,0.320435,1.4725716721222775
0 days 00:00:13.150000,1.183594,-0.466797,-0.650635,-96.05407,-103.73687,-2.960205,1.4290276761735583
0 days 00:00:13.160000,0.465088,-0.134521,-0.739746,-108.032219,-249.992355,-19.096375,0.8840966529181071
0 days 00:00:13.170000,0.96582,-0.155029,-0.723633,-116.577141,-173.461899,-1.930237,1.2167526379383773
0 days 00:00:13.180000,0.777832,-0.080078,-0.75708,-111.129753,-208.831772,-4.486084,1.088395715127545
0 days 00:00:13.190000,0.61084,-0.089844,-0.745361,-105.827324,-240.394577,-11.032104,0.967863869692944
0 days 00:00:13.200000,1.093262,-0.303467,-0.685303,-111.968987,-137.176514,-2.27356,1.3255014985061313
0 days 00:00:13.210000,1.030762,-0.584717,-0.69458,-63.179012,-12.802123,3.013611,1.3736104422772126
0 days 00:00:13.220000,0.661133,-0.608643,-0.520996,-11.001586,-46.546932,-18.2724,1.0387396098897932
0 days 00:00:13.230000,0.794922,-0.649902,-0.633545,-57.403561,-34.950256,-2.494812,1.2065043981324726
0 days 00:00:13.240000,0.705078,-0.620605,-0.6604,-45.669552,-54.000851,-5.393981,1.1482219785864578
0 days 00:00:13.250000,0.666992,-0.560303,-0.646729,-37.513733,-60.997005,-13.565063,1.084931416871131
0 days 00:00:13.260000,0.654053,-0.507813,-0.617188,-33.27179,-62.683102,-21.728514,1.0327537930804225
0 days 00:00:13.270000,0.584961,-0.484619,-0.572266,-31.898497,-65.765381,-26.260374,0.9510643098329365
0 days 00:00:13.280000,0.512207,-0.497314,-0.537598,-31.524656,-72.036743,-28.930662,0.8936939269397549
0 days 00:00:13.290000,0.507813,-0.512939,-0.525391,-31.410215,-74.798584,-30.960081,0.8927576174813632
0 days 00:00:13.300000,0.538574,-0.530273,-0.53418,-31.265257,-69.541931,-32.752991,0.925526704317601
0 days 00:00:13.310000,0.579102,-0.568359,-0.531982,-26.771544,-59.852596,-33.607483,0.9702555991124194
0 days 00:00:13.320000,0.61499,-0.605225,-0.532715,-17.730713,-51.956173,-28.182981,1.0140489494841953
0 days 00:00:13.330000,0.360107,-0.150146,-0.732178,-113.754265,-249.992355,-26.512144,0.8296417880320398
0 days 00:00:13.340000,0.923584,-0.611084,-0.664063,-65.460205,-16.578674,-0.480652,1.2912825903267648
0 days 00:00:13.350000,0.229736,-0.210205,-0.678955,-119.903557,-249.755844,-31.616209,0.7469569356703236
0 days 00:00:13.360000,-0.503906,0.150879,-0.973145,-16.029358,-41.709896,-31.791685,1.1062083531152709
0 days 00:00:13.370000,0.067627,-0.164307,-0.725098,-140.174866,-249.992355,-48.301693,0.7465502735797503
0 days 00:00:13.380000,0.734375,-0.59375,-0.466553,-9.681702,-37.574768,-11.528014,1.0533363209032527
0 days 00:00:13.390000,0.226318,0.208496,-0.914307,-44.502254,73.554993,28.121946,0.9647008393222222
0 days 00:00:13.400000,0.223877,0.146484,-0.929199,-55.999752,84.747307,27.183531,0.9669484241602548
0 days 00:00:13.410000,0.224609,-0.022217,-0.955078,-45.379635,87.738029,18.341064,0.981385135435625
0 days 00:00:13.420000,0.131348,-0.13623,-1.006836,-16.807556,86.372368,10.82611,1.0244655391471205
0 days 00:00:13.430000,-0.016846,-0.11792,-1.060791,8.872986,82.717888,6.904602,1.0674579428703503
0 days 00:00:13.440000,-0.172607,-0.05249,-1.058105,22.758482,73.661804,4.638672,1.0733753153366254
0 days 00:00:13.450000,-0.280273,0.046875,-1.043945,23.696898,61.94305,4.425049,1.0819294723682316
0 days 00:00:13.460000,-0.330322,0.126221,-1.033203,16.357422,49.461361,2.487183,1.0920406602933794
0 days 00:00:13.470000,-0.351318,0.163818,-1.050293,8.041382,37.246704,-0.724792,1.1195427906502724
0 days 00:00:13.480000,0.14502,-0.210205,-0.70459,-133.43811,-249.992355,-39.69574,0.7494424664542303
0 days 00:00:13.490000,-0.354736,0.168945,-1.067627,1.708984,23.780821,-4.142761,1.1376323895925258
0 days 00:00:13.500000,-0.469727,0.12207,-1.020508,-3.494262,-15.815734,-22.499083,1.1300358921259979
0 days 00:00:13.510000,-0.520508,0.169434,-0.913574,-34.538269,-71.746826,-37.559509,1.0650135735735953
0 days 00:00:13.520000,-0.47998,0.193604,-0.838623,-59.799191,-105.911247,-38.772583,0.9854703675631247
0 days 00:00:13.530000,-0.442871,0.193115,-0.774658,-85.3424,-138.519287,-35.926819,0.9129748861989578
0 days 00:00:13.540000,-0.444824,0.147461,-0.742432,-104.133598,-169.876083,-34.454346,0.8779626484771433
0 days 00:00:13.550000,-0.445557,0.065918,-0.727051,-116.546623,-208.541855,-36.857605,0.8552598316149309
0 days 00:00:13.560000,-0.378418,-0.005859,-0.742432,-127.738945,-243.537888,-44.776913,0.8333305377993776
0 days 00:00:13.570000,-0.256348,-0.07251,-0.744385,-132.263184,-249.992355,-52.261349,0.7906206583621503
0 days 00:00:13.580000,-0.182129,-0.11377,-0.732422,-134.635925,-249.992355,-53.306576,0.7632539365276803
0 days 00:00:13.590000,-0.057373,-0.130859,-0.721191,-138.931274,-249.992355,-52.444454,0.7352089481848001
0 days 00:00:13.600000,-0.406494,0.13623,-1.058105,0.534058,6.240844,-11.253356,1.1416576439375337
0 days 00:00:13.610000,0.281006,0.125488,-0.901611,-24.67346,56.449886,25.398252,0.9526877796534392
0 days 00:00:13.620000,0.820801,-0.584717,-0.410645,-9.628296,-22.102354,-8.987427,1.0882267997595905
0 days 00:00:13.630000,0.915527,-0.69043,-0.32251,1.907349,25.154112,3.059387,1.1911741991535074
0 days 00:00:13.640000,1.055908,-0.388916,-0.988281,95.382683,-1.609802,-3.135681,1.4976303597620477
0 days 00:00:13.650000,0.977295,-0.233643,-0.887207,107.955925,4.173279,12.916564,1.340459185996724
0 days 00:00:13.660000,0.911621,-0.068359,-0.837158,114.158623,20.431517,29.243467,1.2395802989262132
0 days 00:00:13.670000,0.940918,0.016846,-0.809814,113.891594,48.599239,40.153503,1.2415350116029753
0 days 00:00:13.680000,0.975342,0.025391,-0.789307,112.80822,82.633965,50.2243,1.2549670354610913
0 days 00:00:13.690000,0.914795,0.01709,-0.780762,109.642021,110.473625,60.592648,1.2028014220015704
0 days 00:00:13.700000,0.750732,0.008789,-0.767822,103.889458,124.290459,65.132141,1.073883795402929
0 days 00:00:13.710000,0.611328,0.012207,-0.74292,99.166862,125.40435,67.604065,0.9621855646563193
0 days 00:00:13.720000,0.521484,0.041748,-0.729004,94.360344,120.36895,71.44928,0.8972933131234178
0 days 00:00:13.730000,0.468506,0.079102,-0.721924,79.627991,114.578239,65.90271,0.8642506929219091
0 days 00:00:13.740000,1.094727,-0.524658,-1.068359,87.959282,4.379272,-2.494812,1.6171221890673568
0 days 00:00:13.750000,0.484131,0.05249,-0.737549,78.804016,117.393486,54.977413,0.8838079840451771
0 days 00:00:13.760000,0.375,0.073242,-0.778076,81.420891,114.166252,39.497375,0.8668285022655865
0 days 00:00:13.770000,0.263672,0.119629,-0.787842,79.330444,105.453484,38.978577,0.8393622806565709
0 days 00:00:13.780000,0.198975,0.156006,-0.7771,76.339722,94.551079,38.978577,0.8171984658949135
