t,ax,ay,az,gx,gy,gz,acc_mag
0 days 00:00:00.010000,1.264893,0.459961,-0.272949,13.793944,-44.822689,177.192673,1.3733242805583101
0 days 00:00:00.020000,1.292236,0.547363,-0.277344,3.082275,-30.784605,175.621017,1.430524319192442
0 days 00:00:00.030000,1.23584,0.649414,-0.232666,-5.119323,10.94818,179.664597,1.4153347719009806
0 days 00:00:00.040000,1.144775,0.668213,-0.217773,-13.061522,61.218258,191.703781,1.3432957580231542
0 days 00:00:00.050000,1.055908,0.592285,-0.216309,-14.22119,93.849174,208.755478,1.229850726376986
0 days 00:00:00.060000,0.969727,0.497559,-0.257813,-8.049011,94.90966,228.25621,1.1200013196327048
0 days 00:00:00.070000,0.862061,0.44458,-0.266846,1.060486,72.425842,244.941696,1.0059857513091326
0 days 00:00:00.080000,0.784668,0.455811,-0.304688,9.872437,44.982906,249.992355,0.9572368125437927
0 days 00:00:00.090000,0.737061,0.532715,-0.341309,14.61029,30.34973,249.954208,0.9713578240931608
0 days 00:00:00.100000,0.713379,0.64209,-0.393555,10.406493,34.736633,249.992355,1.0373402063768666
0 days 00:00:00.110000,0.653076,0.735596,-0.459961,-2.01416,51.055904,249.992355,1.0858977200975237
0 days 00:00:00.120000,0.537109,0.771484,-0.468262,-12.557982,64.567566,248.077377,1.05021090300044
0 days 00:00:00.130000,0.362061,0.741943,-0.411377,-11.589049,66.368103,247.528061,0.9223874560611718
0 days 00:00:00.140000,0.1875,0.666504,-0.367676,0.694275,55.053707,249.877914,0.7839448150169755
0 days 00:00:00.150000,0.060547,0.60376,-0.352783,12.794494,36.03363,249.786362,0.7018888244572641
0 days 00:00:00.160000,0.018311,0.608643,-0.343262,13.793944,16.281128,249.992355,0.6990067201493846
0 days 00:00:00.170000,0.042236,0.652344,-0.359131,3.669739,3.211975,249.992355,0.7458630230766237
0 days 00:00:00.180000,0.089355,0.693604,-0.444336,-11.619567,1.12915,238.655075,0.8285561572621376
0 days 00:00:00.190000,0.104248,0.705322,-0.549316,-26.847837,7.04956,223.304733,0.9000526857045648
0 days 00:00:00.200000,0.090088,0.669922,-0.624268,-36.613464,16.876221,210.983261,0.9201205734315476
0 days 00:00:00.210000,0.056641,0.600342,-0.680908,-40.100098,26.771544,200.927719,0.9095352793097143
0 days 00:00:00.220000,1.230225,0.413574,-0.219238,31.021116,-35.682678,172.43956,1.3162683255115575
0 days 00:00:00.230000,1.250244,0.388184,-0.175537,40.641781,-22.422789,155.99823,1.3208368997574984
0 days 00:00:00.240000,0.910156,0.339111,-0.12793,39.009094,-6.820678,128.204346,0.9796664225934254
0 days 00:00:00.250000,0.784424,0.305908,-0.374756,30.403135,44.296261,109.672539,0.9215979469247965
0 days 00:00:00.260000,0.788574,0.433105,0.050293,-21.659849,-3.852844,-21.133421,0.9010872767662409
0 days 00:00:00.270000,0.893066,0.380127,0.088379,-16.471863,16.548157,-25.375364,0.9746149312041141
0 days 00:00:00.280000,1.033691,0.336426,-0.044189,-9.841919,34.797668,-33.874512,1.0879578138319517
0 days 00:00:00.290000,1.009766,0.310059,-0.273193,-9.078979,38.551331,-38.093567,1.0910537903724087
0 days 00:00:00.300000,0.915771,0.218506,-0.463623,-10.993957,34.385681,-32.302856,1.049441605143421
0 days 00:00:00.310000,0.910156,0.129395,-0.60791,-9.536743,28.083799,-23.834227,1.1021259358444477
0 days 00:00:00.320000,0.951904,0.144287,-0.635254,-5.088806,15.747069,-19.432068,1.1534676450169723
0 days 00:00:00.330000,0.94751,0.226807,-0.543945,-1.106262,0.694275,-14.564513,1.1158372544300534
0 days 00:00:00.340000,0.881348,0.312256,-0.416504,2.220154,-12.519835,-6.736755,1.023598402038612
0 days 00:00:00.350000,0.826904,0.390869,-0.356201,0.015259,-24.185179,-1.655578,0.9815436581110388
0 days 00:00:00.360000,-0.000244,0.516846,-0.678955,-39.077759,33.836365,192.787155,0.8532934660929966
0 days 00:00:00.370000,0.831543,0.453125,-0.342529,-5.737304,-28.968809,-8.773804,1.0070313512075977
0 days 00:00:00.380000,0.969482,0.475586,-0.346191,-15.083312,-23.361204,-21.278379,1.133986596129337
0 days 00:00:00.390000,0.960938,0.432861,-0.343506,-16.654968,-26.618956,-6.645202,1.1084975675214628
0 days 00:00:00.400000,1.024658,0.329102,-0.291504,-8.743286,-30.769346,2.441406,1.1149918050748175
0 days 00:00:00.410000,1.27002,0.214844,-0.228271,6.965637,-16.784668,-4.821777,1.3081347003183579
0 days 00:00:00.420000,1.638184,0.210449,-0.228516,16.738892,24.276731,-4.547119,1.6673797293097334
0 days 00:00:00.430000,1.80127,0.301025,-0.270996,16.960144,85.456841,17.623901,1.8462471382621015
0 days 00:00:00.440000,1.622803,0.362305,-0.293457,15.914916,159.637451,23.612974,1.6884523981098787
0 days 00:00:00.450000,1.439209,0.391846,-0.306396,14.060973,219.970688,-5.508422,1.522742375522859
0 days 00:00:00.460000,1.298584,0.407227,-0.273193,11.596679,223.121628,-7.469177,1.3880881275459422
0 days 00:00:00.470000,1.012695,0.3479,-0.307129,17.288208,144.584656,50.552364,1.1139631033683297
0 days 00:00:00.480000,0.903076,0.483887,-0.341553,-10.879516,-25.894163,-20.965574,1.0799774730771008
0 days 00:00:00.490000,-0.061523,0.447266,-0.656738,-35.766602,35.827637,186.035141,0.7969546755801111
0 days 00:00:00.500000,1.181152,0.376221,-0.141602,38.970947,-18.363953,137.496948,1.2476832187494549
0 days 00:00:00.510000,-0.165039,0.408203,-0.595215,-33.660889,30.189512,170.204147,0.7403704862803487
0 days 00:00:00.520000,-0.159668,0.699707,-0.689209,7.659912,2.868652,10.2005,0.9950340706498445
0 days 00:00:00.530000,-0.169922,0.70874,-0.659668,7.064819,7.530212,12.825011,0.9830298794584019
0 days 00:00:00.540000,-0.185547,0.706787,-0.643555,5.1651,10.147094,14.678954,0.9737240834050476
0 days 00:00:00.550000,-0.183105,0.701904,-0.637207,3.364563,8.834839,11.253356,0.9655202882850261
0 days 00:00:00.560000,-0.198975,0.706543,-0.63501,2.853393,5.699157,4.249573,0.9705832069297304
0 days 00:00:00.570000,-0.225098,0.72876,-0.637695,1.853943,2.838135,0.244141,0.9941907061670814
0 days 00:00:00.580000,-0.251953,0.758789,-0.635986,-2.304077,2.830505,2.456665,1.0216257890861997
0 days 00:00:00.590000,-0.256592,0.765137,-0.648438,-8.239746,6.233215,7.377624,1.0352516230738302
0 days 00:00:00.600000,-0.236328,0.739502,-0.677979,-12.138366,10.185241,9.803772,1.0307131783522514
0 days 00:00:00.610000,-0.218262,0.71167,-0.696777,-5.767822,6.92749,5.928039,1.0196130036798277
0 days 00:00:00.620000,-0.180176,0.682861,-0.708008,7.347106,-2.26593,11.611938,1.0000189320012896
0 days 00:00:00.630000,-0.218994,0.75293,-0.726807,-6.523132,0.968933,3.799438,1.069163398262866
0 days 00:00:00.640000,-0.208984,0.818604,-0.737549,-16.860962,5.149841,-1.358032,1.1215013813959394
0 days 00:00:00.650000,-0.202881,0.800781,-0.724121,-17.959595,20.271299,-4.997253,1.0985272562676813
0 days 00:00:00.660000,-0.191406,0.771973,-0.730225,-15.830993,34.553528,-5.622863,1.079725483717968
0 days 00:00:00.670000,-0.202637,0.758545,-0.721924,-14.328002,39.642334,-4.440308,1.0665957681193003
0 days 00:00:00.680000,-0.234619,0.75293,-0.714111,-15.922545,33.096313,-7.705688,1.0639098553834343
0 days 00:00:00.690000,-0.268555,0.746094,-0.718018,-20.072937,18.745422,-14.930724,1.0697326269610552
0 days 00:00:00.700000,-0.282471,0.729248,-0.712891,-24.79553,2.13623,-18.280029,1.058208906230712
0 days 00:00:00.710000,-0.252441,0.688721,-0.712402,-26.420591,-11.360168,-11.871337,1.0225359083797498
0 days 00:00:00.720000,-0.197754,0.637207,-0.716797,-22.872923,-13.771056,0.541687,0.9792534628858863
0 days 00:00:00.730000,-0.11499,0.410645,-0.628906,-33.058167,33.325195,179.214462,0.7598518098688717
0 days 00:00:00.740000,-0.214355,0.798096,-0.745361,-12.161254,-1.670837,1.907349,1.1128649116411211
0 days 00:00:00.750000,-0.231445,0.67334,-0.69043,4.768372,-6.599426,16.189575,0.9917898610718906
0 days 00:00:00.760000,-0.217773,0.709717,-0.685059,-10.154723,10.673522,8.384705,1.0101629240370091
0 days 00:00:00.770000,-0.286865,0.68042,-0.676758,-0.350952,-8.079529,19.058228,1.0016308178111335
0 days 00:00:00.780000,-0.221436,0.459961,-0.574707,-45.3186,33.004761,140.312195,0.7686911990298835
0 days 00:00:00.790000,-0.252441,0.4646,-0.563477,-50.834652,37.261963,124.557487,0.7727133673038147
0 days 00:00:00.800000,-0.294189,0.447998,-0.550537,-52.902218,40.290829,112.983696,0.7683361009961721
0 days 00:00:00.810000,-0.33667,0.421143,-0.546631,-51.765438,39.382935,106.094353,0.7677978676123032
0 days 00:00:00.820000,-0.36792,0.403076,-0.563232,-50.140377,35.339355,99.395744,0.7842612281631676
0 days 00:00:00.830000,-0.392822,0.404053,-0.582031,-49.232479,29.998777,89.37072,0.8101407503971146
0 days 00:00:00.840000,-0.412598,0.416504,-0.600586,-48.576351,22.483824,77.659607,0.8392950822064906
0 days 00:00:00.850000,-0.436035,0.440186,-0.630859,-50.048824,11.741637,67.428589,0.8842360056579918
0 days 00:00:00.860000,-0.455811,0.458496,-0.67041,-52.307125,-2.89154,60.913082,0.9313601976877689
0 days 00:00:00.870000,-0.447266,0.464844,-0.700684,-50.582882,-20.233152,56.457516,0.9524100413939366
0 days 00:00:00.880000,-0.421631,0.46582,-0.708984,-44.105526,-33.256531,48.286434,0.9473221652727227
0 days 00:00:00.890000,-0.198975,0.432373,-0.576172,-38.368225,30.059813,156.88324,0.7473363602408222
0 days 00:00:00.900000,-0.29248,0.497314,-0.69458,-29.785154,-33.843994,26.084898,0.9029435981255972
0 days 00:00:00.910000,-0.239502,0.541016,-0.663574,-22.384642,-25.436399,26.237486,0.889038792031034
0 days 00:00:00.920000,-0.227539,0.587158,-0.639404,-16.609192,-8.171082,29.022215,0.8974218565986678
0 days 00:00:00.930000,-0.216309,0.634277,-0.626709,-15.884398,15.266418,26.092527,0.9175298724788201
0 days 00:00:00.940000,-0.196289,0.665039,-0.594727,-15.129088,32.699585,18.920898,0.9135132443325603
0 days 00:00:00.950000,-0.203613,0.672119,-0.581055,-10.864257,35.682678,12.916564,0.9114971842825407
0 days 00:00:00.960000,-0.242676,0.674316,-0.623535,-7.507324,25.566099,10.536193,0.9499418956215164
0 days 00:00:00.970000,-0.287109,0.686768,-0.686035,-6.385803,9.521484,12.748717,1.0122874517299916
0 days 00:00:00.980000,-0.306396,0.689697,-0.693604,-4.676819,-3.433227,17.417908,1.025010716744464
0 days 00:00:00.990000,-0.369141,0.472168,-0.703613,-36.613464,-37.055969,35.438538,0.9242721200350036
0 days 00:00:01,0.673584,0.163574,-0.365723,-32.50885,22.209166,-0.404358,0.7837251886095024
0 days 00:00:01.010000,0.849609,0.172363,-0.546387,17.036438,-17.211914,6.469726,1.0247356783185604
0 days 00:00:01.020000,0.821289,0.140869,-0.550781,15.007018,-17.356873,6.660461,0.9988590524408336
0 days 00:00:01.030000,0.774414,0.105713,-0.517578,12.229918,-18.39447,6.134033,0.9374322737398153
0 days 00:00:01.040000,0.643066,0.092529,-0.39209,-22.872923,11.230468,1.945495,0.7588346752073207
0 days 00:00:01.050000,0.678223,0.067139,-0.442871,1.480102,-15.686034,4.455566,0.8127907514797398
0 days 00:00:01.060000,0.641113,0.057617,-0.413086,-5.233764,-9.757996,4.570007,0.7648435401139243
0 days 00:00:01.070000,0.624512,0.063477,-0.401611,-13.198852,-0.183105,3.692627,0.7452086707721536
0 days 00:00:01.080000,0.844727,0.20459,-0.505859,19.790649,-17.959595,6.095886,1.005641139030221
0 days 00:00:01.090000,0.726807,0.08252,-0.474854,7.385253,-18.318176,4.981995,0.8720919028204539
0 days 00:00:01.100000,0.83374,0.247314,-0.451172,22.102354,-19.187927,6.355285,0.9797156606791585
0 days 00:00:01.110000,0.878662,0.449951,-0.219971,21.636961,-19.569397,5.752563,1.0113802714538187
0 days 00:00:01.120000,0.812012,0.354004,-0.328857,24.42169,-21.911619,6.67572,0.9448964211007469
0 days 00:00:01.130000,0.820313,0.385986,-0.287598,24.04022,-22.705076,6.67572,0.9511105192189812
0 days 00:00:01.140000,0.838867,0.405762,-0.254883,23.643492,-22.193907,6.462097,0.9660776304324616
0 days 00:00:01.150000,0.859131,0.426514,-0.229492,23.178099,-21.110533,5.844116,0.9862488760049362
0 days 00:00:01.160000,0.897705,0.468506,-0.214355,19.264221,-16.540527,5.149841,1.0350459917733124
0 days 00:00:01.170000,0.9021,0.486816,-0.20752,16.75415,-12.443542,4.119873,1.045867476430929
0 days 00:00:01.180000,0.898193,0.51416,-0.208008,13.069152,-7.362365,3.387451,1.055641273782434
0 days 00:00:01.190000,0.879883,0.518799,-0.20166,9.681702,-2.593994,3.295898,1.0411595707143069
0 days 00:00:01.200000,0.84082,0.490234,-0.197021,8.529663,0.213623,3.181457,0.9930382276614531
0 days 00:00:01.210000,0.795166,0.464111,-0.216797,8.041382,-0.534058,3.387451,0.9458799749894276
0 days 00:00:01.220000,0.819092,0.30127,-0.385498,23.971556,-20.713804,6.782531,0.9540880595458682
0 days 00:00:01.230000,0.70874,0.233398,-0.32959,-39.810181,30.204771,-3.753662,0.8157307044018879
0 days 00:00:01.240000,0.824463,0.410889,-0.225098,4.631042,-4.981995,-1.075745,0.9482816661171932
0 days 00:00:01.250000,0.758301,0.402832,-0.236572,-48.240658,41.366573,-9.300232,0.8906516367295352
0 days 00:00:01.260000,0.778809,0.449707,-0.227295,8.201599,-3.852844,3.40271,0.9276005936581757
0 days 00:00:01.270000,0.832764,0.417236,-0.2146,5.874633,-3.639221,-0.816345,0.9558425180917618
0 days 00:00:01.280000,0.83252,0.438477,-0.209961,6.324768,-3.219604,-0.785828,0.9640722231503198
0 days 00:00:01.290000,0.821045,0.447998,-0.20459,5.744934,-3.639221,-0.907898,0.9574310252592613
0 days 00:00:01.300000,0.821777,0.435303,-0.193115,6.904602,-5.546569,-0.732422,0.9497892096475933
0 days 00:00:01.310000,0.811768,0.441162,-0.166748,8.964539,-7.881164,-0.732422,0.9388269763763715
0 days 00:00:01.320000,0.797363,0.458984,-0.155518,9.811401,-10.337829,-0.564575,0.9330808723519093
0 days 00:00:01.330000,0.798584,0.466797,-0.147217,10.108947,-12.641906,0.091553,0.9366475801249902
0 days 00:00:01.340000,0.817627,0.465088,-0.135254,10.833739,-14.091491,1.495361,0.9503233151875208
0 days 00:00:01.350000,0.835693,0.480469,-0.119141,11.734008,-14.846801,1.449585,0.9713021301793794
0 days 00:00:01.360000,0.84375,0.511719,-0.129883,10.688781,-15.190124,0.495911,0.9953089928007282
0 days 00:00:01.370000,0.849121,0.537354,-0.15918,8.422852,-15.998839,-0.015259,1.017395727510687
0 days 00:00:01.380000,0.864746,0.546143,-0.170166,6.286621,-16.63208,-0.37384,1.0368289581801813
0 days 00:00:01.390000,0.892334,0.546631,-0.169434,3.784179,-16.487122,-1.678467,1.0600817412223453
0 days 00:00:01.400000,0.910645,0.55957,-0.170898,0.267029,-14.556884,-2.960205,1.0824042809084784
0 days 00:00:01.410000,0.920898,0.599854,-0.172607,-5.676269,-9.140015,-2.937317,1.1125066849996903
0 days 00:00:01.420000,0.946777,0.643555,-0.17041,-13.839721,-0.091553,-3.219604,1.1574062786480812
0 days 00:00:01.430000,0.9646,0.653809,-0.177002,-21.629332,10.330199,-6.874084,1.1786641067263397
0 days 00:00:01.440000,0.9646,0.646729,-0.237793,-29.090879,17.913818,-11.367797,1.185435392710206
0 days 00:00:01.450000,0.976074,0.61792,-0.282715,-36.262512,23.529051,-14.404296,1.189316337691953
0 days 00:00:01.460000,0.971436,0.577881,-0.263916,-41.755672,31.379698,-14.274596,1.1607264997892484
0 days 00:00:01.470000,0.911621,0.525391,-0.212891,-44.639584,40.138245,-12.550353,1.0735041352519328
0 days 00:00:01.480000,0.82959,0.468262,-0.209473,-47.286983,43.640133,-11.436461,0.9753808520126895
0 days 00:00:01.490000,0.731445,0.314209,-0.275879,-45.44067,36.331177,-6.736755,0.8425249588866789
0 days 00:00:01.500000,0.79126,0.447998,-0.212646,8.209229,-7.286071,3.52478,0.9338163186194595
0 days 00:00:01.510000,0.764893,0.427979,-0.325928,8.964539,-19.561768,8.895874,0.9351237282167532
0 days 00:00:01.520000,0.82959,0.481445,-0.199463,5.729675,-11.016845,3.875732,0.9796909433561178
0 days 00:00:01.530000,0.786621,0.45752,-0.300537,8.224487,-38.719177,5.485534,0.9583421291010846
0 days 00:00:01.540000,0.865967,0.474854,-0.281494,8.087158,-36.659241,4.928589,1.0269488976774843
0 days 00:00:01.550000,0.941895,0.514648,-0.255615,6.17218,-29.70886,1.808166,1.1033439097371227
0 days 00:00:01.560000,0.996094,0.563965,-0.225098,1.037598,-19.14978,-2.487183,1.1665885682900377
0 days 00:00:01.570000,1.009521,0.61084,-0.191895,-7.324218,-8.140564,-5.0354,1.1954421132225515
0 days 00:00:01.580000,0.983398,0.623779,-0.171631,-16.479492,0.732422,-3.799438,1.1771274643835306
0 days 00:00:01.590000,0.96582,0.592041,-0.176514,-23.490904,8.544922,-1.304626,1.1465068731922194
0 days 00:00:01.600000,0.97998,0.555908,-0.205811,-30.540464,18.432617,-2.655029,1.1453177168737938
0 days 00:00:01.610000,0.977783,0.532471,-0.256348,-43.243404,29.411314,-9.819031,1.1424969400545457
0 days 00:00:01.620000,0.931885,0.492676,-0.303955,-59.402462,34.553528,-21.057127,1.0970542084263657
0 days 00:00:01.630000,0.753418,0.455322,-0.311768,8.071899,-35.78949,4.760742,0.9338929768619101
0 days 00:00:01.640000,0.848877,0.41626,-0.310791,-72.70813,29.403685,-35.453796,0.995216355578022
0 days 00:00:01.650000,0.719482,0.25415,-0.154785,-79.223633,10.154723,-46.32568,0.7785916561645134
0 days 00:00:01.660000,0.746826,0.183105,-0.046875,-72.891235,3.501892,-40.641781,0.7703724949178806
0 days 00:00:01.670000,0.806885,0.154053,0.015381,-66.360474,2.746582,-34.65271,0.8216034963381058
0 days 00:00:01.680000,0.871338,0.165771,0.039551,-60.676571,8.430481,-35.163879,0.8878480817606128
0 days 00:00:01.690000,0.933838,0.188477,-0.032227,-56.663509,16.792297,-42.404171,0.9532132863645995
0 days 00:00:01.700000,0.986328,0.126465,-0.132813,-44.540401,28.808592,-43.327328,1.003232581597109
0 days 00:00:01.710000,1.041992,0.054199,-0.223633,-18.859863,34.545898,-31.707762,1.0670972675225066
0 days 00:00:01.720000,0.98584,0.129395,-0.283936,-1.548767,26.603697,-20.843504,1.034042176954596
0 days 00:00:01.730000,0.867432,0.291992,-0.229248,-4.142761,9.82666,-19.004822,0.94353179500852
0 days 00:00:01.740000,0.810547,0.456543,-0.204102,7.530212,-9.910583,3.753662,0.9524051535255361
0 days 00:00:01.750000,0.762939,0.339355,-0.256104,-78.857422,19.53125,-45.82214,0.8733996751556529
0 days 00:00:01.760000,0.750244,0.447998,-0.325928,8.132935,-28.923033,6.240844,0.9326292557731609
0 days 00:00:01.770000,0.794678,0.407471,-0.087402,-16.235352,-5.53894,-20.080564,0.897320928725615
0 days 00:00:01.780000,0.848633,0.509521,-0.207275,2.189636,-10.261535,3.40271,1.0113122879481886
0 days 00:00:01.790000,0.872803,0.512451,-0.2146,-1.121521,-7.67517,2.540588,1.0346227642044226
0 days 00:00:01.800000,0.89624,0.485107,-0.209229,-1.731872,-2.082825,1.907349,1.0403613379446586
0 days 00:00:01.810000,0.884277,0.457764,-0.215088,-1.525879,3.990173,1.083374,1.018703362205603
0 days 00:00:01.820000,0.826416,0.463135,-0.234375,-2.868652,5.775451,0.335693,0.9759042339830277
0 days 00:00:01.830000,0.776123,0.474609,-0.255127,-5.386352,5.607605,0.938415,0.9448335303845857
0 days 00:00:01.840000,0.769531,0.471436,-0.266357,-7.858276,4.188538,2.067566,0.9409441606737352
0 days 00:00:01.850000,0.751221,0.444092,-0.327881,8.06427,-22.727964,8.209229,0.9322320770419777
0 days 00:00:01.860000,0.766113,0.450439,-0.262695,-12.443542,-1.594543,1.983642,0.9267324773174835
0 days 00:00:01.870000,0.775635,0.410645,-0.27417,-11.825561,-3.219604,3.562927,0.919460797505799
0 days 00:00:01.880000,0.79834,0.364502,-0.278076,-9.223938,-3.479004,6.118774,0.9206164920204287
0 days 00:00:01.890000,0.800781,0.345459,-0.293701,-6.568908,-3.501892,7.164001,0.92024584108976
0 days 00:00:01.900000,0.770752,0.466553,-0.262939,-10.559081,1.144409,2.342224,0.9385452919459987
0 days 00:00:01.910000,0.798828,0.364014,-0.299072,-3.585815,-4.547119,8.209229,0.9274030552914951
0 days 00:00:01.920000,0.81958,0.379639,-0.292725,-3.295898,-4.043579,8.712769,0.9494867415324977
0 days 00:00:01.930000,0.823975,0.402588,-0.291992,-3.791809,-4.402161,8.377075,0.9624298553312859
0 days 00:00:01.940000,0.806152,0.415771,-0.295654,-4.753113,-7.881164,7.965087,0.9540219385637838
0 days 00:00:01.950000,0.801025,0.394043,-0.289551,-3.837585,-12.496947,8.010864,0.9384832007420271
0 days 00:00:01.960000,0.816162,0.352295,-0.294189,-0.457764,-15.045165,9.407043,0.9363649635638873
0 days 00:00:01.970000,0.830078,0.333984,-0.301514,3.051758,-16.487122,10.292052,0.9441850933667615
0 days 00:00:01.980000,0.828125,0.344727,-0.290771,6.317138,-16.75415,10.002136,0.9429610249607351
0 days 00:00:01.990000,0.811279,0.368164,-0.290527,8.529663,-16.677856,10.093688,0.9370828589116332
0 days 00:00:02,0.789063,0.39502,-0.314941,9.552002,-17.570496,9.536743,0.9369359913302509
0 days 00:00:02.010000,0.793701,0.348389,-0.304443,-4.638672,-4.417419,7.499694,0.9187065434462737
0 days 00:00:02.020000,0.784912,0.491943,-0.183105,-0.762939,-5.104064,-0.663757,0.9442574881980021
0 days 00:00:02.030000,0.782959,0.499756,-0.171387,0.030518,-3.417969,-1.724243,0.9445392310465458
0 days 00:00:02.040000,0.791748,0.483154,-0.157715,1.434326,-1.350403,-1.594543,0.9408382987766815
0 days 00:00:02.050000,0.796631,0.463379,-0.148682,1.502991,0.549316,-0.511169,0.9335134626377918
0 days 00:00:02.060000,0.844482,0.471924,-0.194824,-1.525879,9.963989,-1.617432,0.9868224263138733
0 days 00:00:02.070000,0.802979,0.462158,-0.150879,0.1297,5.500793,-0.015259,0.9386851250797575
0 days 00:00:02.080000,0.822754,0.457275,-0.157227,-0.053406,8.148193,-0.236511,0.9543295550647062
0 days 00:00:02.090000,0.841064,0.456299,-0.177246,-0.862122,9.780884,-0.915527,0.9731462243738092
0 days 00:00:02.100000,0.793945,0.462402,-0.148926,0.526428,2.655029,-0.045776,0.9307756045927503
0 days 00:00:02.110000,0.796631,0.485596,-0.18457,-0.946045,-7.003784,0.335693,0.9510470599696946
0 days 00:00:02.120000,0.867676,0.435791,-0.273438,-22.102354,22.865294,-5.950927,1.0087337490641424
0 days 00:00:02.130000,0.836914,0.471436,-0.200928,-2.166748,-9.391785,0.747681,0.981350603340111
0 days 00:00:02.140000,0.868164,0.487061,-0.211182,-3.173828,-8.277893,-0.595093,1.0176123946478837
0 days 00:00:02.150000,0.875732,0.522217,-0.218994,-6.080627,-5.53894,-2.906799,1.0428688809955928
0 days 00:00:02.160000,0.869141,0.549561,-0.225342,-10.238647,-1.846313,-5.233764,1.0527119205015207
0 days 00:00:02.170000,0.874512,0.549072,-0.236816,-13.793944,2.662658,-6.362915,1.0594022452232204
0 days 00:00:02.180000,0.884277,0.529541,-0.238525,-16.471863,7.438659,-6.431579,1.0579478527011623
0 days 00:00:02.190000,0.88501,0.501709,-0.232178,-17.967224,11.352538,-5.699157,1.0434851433848975
0 days 00:00:02.200000,0.894531,0.46582,-0.244385,-18.432617,13.786315,-5.294799,1.0377369659918645
0 days 00:00:02.210000,0.898438,0.447754,-0.249268,-18.791199,15.945434,-4.905701,1.0343157255809272
0 days 00:00:02.220000,0.895508,0.443359,-0.256592,-20.027161,19.40155,-5.149841,1.0316691501683084
0 days 00:00:02.230000,0.842285,0.487061,-0.196289,-0.679016,9.506226,-2.26593,0.9925733275012985
0 days 00:00:02.240000,0.807373,0.47876,-0.189453,-1.655578,-8.81958,0.854492,0.9575775362538534
0 days 00:00:02.250000,0.858398,0.479248,-0.197021,1.167297,8.766174,-2.319336,1.0026679641581253
0 days 00:00:02.260000,0.860107,0.385742,-0.262939,4.234314,-0.88501,0.762939,0.9786306043313789
0 days 00:00:02.270000,0.865723,0.455566,-0.204102,3.684997,4.91333,-1.602173,0.9993369399201654
0 days 00:00:02.280000,0.804688,0.44873,-0.229492,-4.920959,-5.439758,0.328064,0.949498798476333
0 days 00:00:02.290000,0.825195,0.433838,-0.235352,-5.210876,-5.393981,0.274658,0.9615366670975164
0 days 00:00:02.300000,0.841553,0.409424,-0.237793,-4.386902,-3.684997,0.442505,0.9656008359741618
0 days 00:00:02.310000,0.833984,0.394775,-0.244385,-2.845764,-2.525329,0.923157,0.9545159197760925
0 days 00:00:02.320000,0.813721,0.391357,-0.247803,-1.350403,-2.914428,1.419067,0.9363271298531299
0 days 00:00:02.330000,0.806641,0.394287,-0.251221,-0.434875,-4.470825,1.693725,0.9323325222746444
0 days 00:00:02.340000,0.811279,0.4021,-0.257813,-0.106812,-5.889892,1.914978,0.9414486543673001
0 days 00:00:02.350000,0.820313,0.405762,-0.259521,0.25177,-6.446838,1.89209,0.9512661920062122
0 days 00:00:02.360000,0.837158,0.403564,-0.258057,0.434875,-5.302429,1.914978,0.9645158548769429
0 days 00:00:02.370000,0.858398,0.395264,-0.269531,0.854492,-3.540039,2.098083,0.9827144631381997
0 days 00:00:02.380000,0.872314,0.467529,-0.204102,2.349854,7.156372,-1.823425,1.010530903456693
0 days 00:00:02.390000,0.861328,0.386963,-0.271973,1.899719,-2.166748,1.548767,0.9826472407135737
0 days 00:00:02.400000,0.872803,0.388184,-0.25708,5.28717,0.732422,0.228882,0.9892229379998221
0 days 00:00:02.410000,0.852051,0.400391,-0.248535,6.355285,2.227783,-0.274658,0.9736906622264588
0 days 00:00:02.420000,0.822021,0.414307,-0.242432,6.729125,2.723694,0.0,0.9519149590767024
0 days 00:00:02.430000,0.810791,0.426025,-0.243896,6.698608,2.311707,0.572205,0.9478209773591214
0 days 00:00:02.440000,0.804443,0.433838,-0.240479,6.362915,1.716614,0.396728,0.9450788855614117
0 days 00:00:02.450000,0.80542,0.437012,-0.238037,5.722045,1.235962,-0.267029,0.9467536521783267
0 days 00:00:02.460000,0.818115,0.429932,-0.233643,5.546569,1.457214,-0.640869,0.9532799847358592
0 days 00:00:02.470000,0.825195,0.425781,-0.21582,5.851745,1.693725,-0.762939,0.9533176387678978
0 days 00:00:02.480000,0.832031,0.432129,-0.206055,5.775451,1.983642,-1.091003,0.9599321437617349
0 days 00:00:02.490000,0.850586,0.440674,-0.205322,5.081176,2.914428,-1.464844,0.9797179396928485
0 days 00:00:02.500000,0.852295,0.387695,-0.264648,3.15094,-1.556396,0.953674,0.9730122013387088
0 days 00:00:02.510000,0.81543,0.395508,-0.294678,-22.842405,23.429869,-5.027771,0.9529888701595628
0 days 00:00:02.520000,0.837891,0.505127,-0.159912,0.320435,-25.032042,-0.450134,0.9913558703886309
0 days 00:00:02.530000,0.765869,0.281006,-0.320313,-16.235352,18.035889,-2.922058,0.8764246203559095
0 days 00:00:02.540000,0.916504,0.533203,-0.237549,-10.345458,-2.807617,-5.561828,1.0866068970082972
0 days 00:00:02.550000,0.900879,0.501709,-0.230957,-11.436461,2.746582,-3.784179,1.0567100023994282
0 days 00:00:02.560000,0.916992,0.481445,-0.2229,-13.061522,8.880615,-1.88446,1.0594092816702148
0 days 00:00:02.570000,0.922607,0.483398,-0.237793,-16.029358,14.457702,-1.251221,1.0683739109983919
0 days 00:00:02.580000,0.882568,0.467285,-0.265137,-20.072937,17.433167,-2.159119,1.0332372305613071
0 days 00:00:02.590000,0.833496,0.393311,-0.299316,-21.080015,16.921997,-2.777099,0.9690197070199347
0 days 00:00:02.600000,0.814697,0.311768,-0.313965,-17.50946,13.46588,-2.479553,0.9270946601388663
0 days 00:00:02.610000,0.785156,0.266846,-0.321289,-13.114928,10.284423,-1.838684,0.8893274726291772
0 days 00:00:02.620000,0.768066,0.24707,-0.328125,-8.68988,7.507324,-0.915527,0.8709965447009534
0 days 00:00:02.630000,0.768311,0.240967,-0.351807,-5.1651,4.692078,-1.312256,0.8787121559754366
0 days 00:00:02.640000,0.929932,0.558594,-0.209473,-8.270264,-8.804321,-5.546569,1.1048437532922923
0 days 00:00:02.650000,0.77417,0.242432,-0.384521,-2.159119,2.105713,-1.716614,0.8977576861074485
0 days 00:00:02.660000,0.820801,0.262695,-0.43457,2.357483,1.670837,-0.991821,0.9651808273717418
0 days 00:00:02.670000,0.837646,0.287598,-0.436768,3.40271,2.868652,-2.311707,0.9874865653486128
0 days 00:00:02.680000,0.828125,0.303467,-0.428467,4.379272,3.799438,-2.998352,0.9805443415792067
0 days 00:00:02.690000,0.81958,0.318115,-0.409668,5.310058,4.28009,-3.356933,0.9699156663591944
0 days 00:00:02.700000,0.80957,0.347656,-0.37207,5.577087,4.096985,-3.295898,0.9564017796595738
0 days 00:00:02.710000,0.797607,0.378174,-0.332031,5.355834,3.112793,-2.685547,0.9430997220262552
0 days 00:00:02.720000,0.781982,0.401611,-0.307861,4.493713,0.717163,-2.02179,0.9314320366865206
0 days 00:00:02.730000,0.769531,0.414063,-0.291016,3.204345,-2.6474,-1.716614,0.9210409546735693
0 days 00:00:02.740000,0.785156,0.406738,-0.2771,2.777099,-5.027771,-0.961304,0.9266553593326917
0 days 00:00:02.750000,0.814209,0.401855,-0.252197,3.662109,-6.011962,-0.747681,0.9423518788196902
0 days 00:00:02.760000,0.788086,0.246826,-0.41626,0.679016,1.12915,-0.747681,0.9248107943098415
0 days 00:00:02.770000,0.915527,0.549561,-0.180176,-4.653931,-15.968322,-3.219604,1.0828990587427805
0 days 00:00:02.780000,0.783447,0.328125,-0.307861,-20.072937,21.64459,-3.868103,0.9034564808307038
0 days 00:00:02.790000,0.801025,0.300049,-0.427734,6.790161,-5.615234,-0.595093,0.956361243350022
0 days 00:00:02.800000,0.750732,0.253174,-0.329102,-12.4588,13.626098,-1.594543,0.8579066012707909
0 days 00:00:02.810000,0.735107,0.236816,-0.345215,-8.132935,9.239197,-0.183105,0.8459536131077163
0 days 00:00:02.820000,0.725586,0.236084,-0.369873,-3.837585,4.196167,0.335693,0.847948544772028
0 days 00:00:02.830000,0.723877,0.241699,-0.39209,0.022888,-0.709534,0.595093,0.8579923576757545
0 days 00:00:02.840000,0.744629,0.25293,-0.411377,3.227234,-4.478455,0.793457,0.8875116724133829
0 days 00:00:02.850000,0.769531,0.272949,-0.425781,5.462646,-5.950927,0.465393,0.9208520926419183
0 days 00:00:02.860000,0.880127,0.519531,-0.15332,-1.403808,-22.308348,-0.900268,1.0334616676442334
0 days 00:00:02.870000,0.827148,0.329346,-0.408936,7.240295,-3.77655,-1.815796,0.9797301943474029
0 days 00:00:02.880000,0.829834,0.347656,-0.387939,7.202148,-2.220154,-1.846313,0.9797886657912511
0 days 00:00:02.890000,0.81543,0.361816,-0.351074,8.018494,-2.120972,-1.068115,0.9586917420276446
0 days 00:00:02.900000,0.813965,0.417236,-0.260254,8.338928,-4.959106,0.640869,0.9509768900646325
0 days 00:00:02.910000,0.806152,0.391113,-0.298828,8.560181,-3.257751,0.083923,0.9445361821852035
0 days 00:00:02.920000,0.841309,0.433838,-0.205811,8.514404,-5.348205,1.564026,0.9686972754405785
0 days 00:00:02.930000,0.845459,0.451172,-0.186768,8.865356,-5.104064,2.174377,0.9763397872098627
0 days 00:00:02.940000,0.841309,0.46875,-0.177734,8.232117,-4.905701,2.39563,0.9793450723503948
0 days 00:00:02.950000,0.83374,0.47998,-0.17041,7.476806,-4.821777,2.449036,0.9770070399439301
0 days 00:00:02.960000,0.810547,0.487549,-0.168457,7.835388,-6.393432,1.998901,0.9607643974768216
0 days 00:00:02.970000,0.769531,0.496582,-0.172363,8.224487,-10.719298,0.88501,0.9319230904178735
0 days 00:00:02.980000,0.745605,0.511475,-0.180176,6.965637,-14.816283,-0.137329,0.9219527550943161
0 days 00:00:02.990000,0.749268,0.515869,-0.184814,4.920959,-17.021179,-0.061035,0.9282669743026518
0 days 00:00:03,0.773682,0.506592,-0.189697,3.540039,-20.095823,-0.343323,0.944036145175067
0 days 00:00:03.010000,0.803711,0.500488,-0.180664,1.914978,-23.696898,-0.62561,0.9638874885384705
0 days 00:00:03.020000,0.82666,0.425781,-0.231934,8.18634,-5.752563,0.999451,0.9583577598772809
0 days 00:00:03.030000,0.825928,0.403564,-0.284668,4.638672,-5.294799,1.548767,0.9623184678182166
0 days 00:00:03.040000,0.827637,0.408936,-0.282227,3.913879,-3.051758,1.060486,0.9653308942502565
0 days 00:00:03.050000,0.828857,0.408936,-0.280762,4.135132,-4.310608,1.152039,0.9659502467461768
0 days 00:00:03.060000,0.813721,0.392334,-0.289307,5.126953,-5.79071,1.358032,0.9485601581586696
0 days 00:00:03.070000,0.818359,0.395752,-0.310547,2.525329,0.274658,-1.716614,0.960609461536789
0 days 00:00:03.080000,0.815674,0.378174,-0.29541,4.882813,-3.868103,0.411987,0.9463650018106121
0 days 00:00:03.090000,0.819824,0.374023,-0.302979,4.333496,-2.670288,0.617981,0.9506844218488069
0 days 00:00:03.100000,0.812744,0.37793,-0.302246,3.463745,-2.311707,0.87738,0.9459051426818653
0 days 00:00:03.110000,0.80835,0.391357,-0.308594,2.14386,-1.693725,1.029968,0.9496421856599463
0 days 00:00:03.120000,0.806152,0.384521,-0.289307,5.15747,-5.226135,0.778198,0.9388482235132578
0 days 00:00:03.130000,0.832031,0.400635,-0.279785,3.997802,-2.090454,1.25885,0.9649163872642023
0 days 00:00:03.140000,0.842041,0.423584,-0.248291,2.502441,-1.792908,-0.183105,0.974733230898588
0 days 00:00:03.150000,0.835938,0.398193,-0.275146,4.631042,-0.88501,0.961304,0.9659478901105379
0 days 00:00:03.160000,0.827637,0.405029,-0.269531,4.112244,-1.121521,0.732422,0.9600408608861396
0 days 00:00:03.170000,0.820801,0.410156,-0.26416,3.662109,-2.182007,0.244141,0.9548417311455338
0 days 00:00:03.180000,0.81665,0.414795,-0.259033,3.005981,-3.784179,0.213623,0.9518772030120272
0 days 00:00:03.190000,0.816406,0.418457,-0.255859,2.075195,-4.806519,0.556946,0.9524121196026435
0 days 00:00:03.200000,0.822266,0.408447,-0.250244,1.960754,-4.852295,0.656128,0.9516156714246566
0 days 00:00:03.210000,0.834961,0.401367,-0.24585,2.708435,-4.104614,0.62561,0.9584871218279356
0 days 00:00:03.220000,0.844238,0.403076,-0.245605,3.311157,-3.242492,0.595093,0.967227935103717
0 days 00:00:03.230000,0.845215,0.410156,-0.243896,3.334045,-2.464294,0.320435,0.9706191834993785
0 days 00:00:03.240000,0.843018,0.417969,-0.244629,3.074646,-1.945495,0.076294,0.9722246555842944
0 days 00:00:03.250000,0.816895,0.406494,-0.301514,1.457214,-0.87738,1.480102,0.9609711261307491
0 days 00:00:03.260000,0.835693,0.394775,-0.274902,4.554749,-1.319885,1.13678,0.9642619978397987
0 days 00:00:03.270000,0.833252,0.407715,-0.297852,2.128601,-1.083374,2.067566,0.9742978141374432
0 days 00:00:03.280000,0.81543,0.393311,-0.302002,3.166198,-4.272461,-0.572205,0.9543714348328957
0 days 00:00:03.290000,0.849365,0.385254,-0.307373,4.28772,-2.822876,2.380371,0.981997815104494
0 days 00:00:03.300000,0.832764,0.431885,-0.251221,1.739502,-2.082825,-0.198364,0.9711501036204444
0 days 00:00:03.310000,0.836426,0.382324,-0.301758,3.005981,0.50354,-1.777649,0.9679039131112137
0 days 00:00:03.320000,0.830078,0.392822,-0.301514,3.112793,1.396179,-2.334595,0.9665657256306992
0 days 00:00:03.330000,0.829102,0.402832,-0.300537,2.670288,1.838684,-2.845764,0.9695391869321219
0 days 00:00:03.340000,0.821777,0.401123,-0.303711,2.151489,1.609802,-3.288269,0.9635649798425636
0 days 00:00:03.350000,0.816895,0.393311,-0.309326,1.907349,0.968933,-2.922058,0.9579632341702891
0 days 00:00:03.360000,0.814453,0.389893,-0.296875,2.281189,0.358582,-2.26593,0.9505182829819739
0 days 00:00:03.370000,0.816162,0.394775,-0.293457,2.304077,-0.328064,-1.792908,0.952934794053612
0 days 00:00:03.380000,0.807617,0.400146,-0.293213,1.792908,-1.319885,-1.617432,0.9478058363261962
0 days 00:00:03.390000,0.800293,0.38916,-0.292236,1.747131,-2.380371,-1.495361,0.9366516274181133
0 days 00:00:03.400000,0.841797,0.398682,-0.305908,3.242492,-1.983642,2.426147,0.9803821860871402
0 days 00:00:03.410000,0.804932,0.385742,-0.297852,2.204895,-3.288269,-1.518249,0.9409719597798862
0 days 00:00:03.420000,0.818604,0.389893,-0.294922,2.975464,-3.509521,-1.068115,0.9534715760571996
0 days 00:00:03.430000,0.80835,0.390381,-0.306641,2.807617,-5.760192,-0.083923,0.9486072688642018
0 days 00:00:03.440000,0.815186,0.38501,-0.307617,2.799988,-6.614685,0.37384,0.9525697525037208
0 days 00:00:03.450000,0.819336,0.393066,-0.30127,2.586365,-6.576538,0.671387,0.9573797439637001
0 days 00:00:03.460000,0.807129,0.401855,-0.296387,1.907349,-6.225585,0.785828,0.9490995297833625
0 days 00:00:03.470000,0.802979,0.396729,-0.294434,1.647949,-6.591796,0.801086,0.9427940147444722
0 days 00:00:03.480000,0.817383,0.386475,-0.300781,2.197266,-6.91986,1.228333,0.9528625841510412
0 days 00:00:03.490000,0.838623,0.378906,-0.299316,3.005981,-6.317138,1.731872,0.9677026200341715
0 days 00:00:03.500000,0.853516,0.375732,-0.299561,3.913879,-5.058288,2.120972,0.9794901177658711
0 days 00:00:03.510000,0.857666,0.374023,-0.304688,4.470825,-3.860473,2.288818,0.9840319859786063
0 days 00:00:03.520000,0.811035,0.38916,-0.293457,2.578735,-3.662109,-1.533508,0.9462242269536328
0 days 00:00:03.530000,0.828613,0.382813,-0.308594,2.502441,0.007629,-1.548767,0.9635224717535134
0 days 00:00:03.540000,0.824219,0.439453,-0.251709,0.679016,-2.334595,0.091553,0.9673744465567612
0 days 00:00:03.550000,0.838867,0.428467,-0.253906,-0.984192,-0.953674,-0.183105,0.9755767886814446
0 days 00:00:03.560000,0.832031,0.426758,-0.217773,11.924743,-10.490417,3.967285,0.9601161674787067
0 days 00:00:03.570000,0.825928,0.434326,-0.215576,11.83319,-10.429381,3.707886,0.9577416912905066
0 days 00:00:03.580000,0.828613,0.446045,-0.207275,11.688231,-10.528563,3.295898,0.9635966850394412
0 days 00:00:03.590000,0.82959,0.45874,-0.200439,11.123656,-10.681151,3.204345,0.9689364006068717
0 days 00:00:03.600000,0.828857,0.4729,-0.196045,9.925842,-10.780334,3.219604,0.9742032531633221
0 days 00:00:03.610000,0.827393,0.479736,-0.187256,8.453369,-11.138915,3.311157,0.9745720166724469
0 days 00:00:03.620000,0.831299,0.483398,-0.185547,7.377624,-11.215209,3.280639,0.9793668071841112
0 days 00:00:03.630000,0.832764,0.483643,-0.19165,6.355285,-10.612487,3.311157,0.9819043505581385
0 days 00:00:03.640000,0.836914,0.479736,-0.194824,5.622863,-9.132385,3.578186,0.9841382342272859
0 days 00:00:03.650000,0.83374,0.478516,-0.19873,3.791809,-8.010864,3.257751,0.9816280164889346
0 days 00:00:03.660000,0.843018,0.414307,-0.219482,12.069701,-11.299132,3.959656,0.9646253090692779
0 days 00:00:03.670000,0.831787,0.479736,-0.196533,2.311707,-9.414673,2.845764,0.9801231877442754
0 days 00:00:03.680000,0.852539,0.487793,-0.170898,-0.213623,-9.712219,1.785278,0.9969808843573683
0 days 00:00:03.690000,0.860107,0.487549,-0.172607,-1.296997,-7.659912,1.243591,1.0036340245821682
0 days 00:00:03.700000,0.864258,0.480957,-0.189697,-2.151489,-5.653381,1.12915,1.0070980479685183
0 days 00:00:03.710000,0.862305,0.462402,-0.206055,-2.288818,-4.188538,1.289368,0.9999220897919997
0 days 00:00:03.720000,0.851318,0.447266,-0.21875,-1.960754,-4.074097,1.51062,0.9862255190269618
0 days 00:00:03.730000,0.845215,0.44458,-0.220215,-1.960754,-4.356384,1.518249,0.980068578646413
0 days 00:00:03.740000,0.84668,0.452148,-0.217285,-2.349854,-3.890991,0.892639,0.9841329216772499
0 days 00:00:03.750000,0.83252,0.459717,-0.214111,-3.318786,-3.570556,0.564575,0.9748193631694028
0 days 00:00:03.760000,0.809326,0.456543,-0.221436,-4.371643,-4.226685,0.37384,0.9552350429192806
0 days 00:00:03.770000,0.835205,0.435547,-0.253174,-0.358582,-2.02179,0.190735,0.975379749384823
0 days 00:00:03.780000,0.840576,0.483887,-0.185791,0.984192,-10.299682,2.212524,0.9875388277055237
0 days 00:00:03.790000,0.840088,0.409668,-0.226318,11.901855,-12.817382,3.959656,0.9616629113634361
0 days 00:00:03.800000,0.84082,0.474365,-0.197021,4.989624,-7.80487,3.509521,0.9853008170432013
0 days 00:00:03.810000,0.794922,0.406982,-0.253174,11.817931,-13.908385,3.02124,0.9282415680651239
0 days 00:00:03.820000,0.819336,0.408447,-0.239014,11.657714,-14.160155,3.562927,0.9461860942230127
0 days 00:00:03.830000,0.819092,0.437988,-0.266602,-2.212524,0.663757,-1.159668,0.9663445653657913
0 days 00:00:03.840000,0.805908,0.440918,-0.279297,-3.196716,-0.282288,-1.770019,0.9601579044079156
0 days 00:00:03.850000,0.799316,0.430664,-0.281982,-3.837585,-2.105713,-1.190186,0.9507320322130731
0 days 00:00:03.860000,0.807129,0.406982,-0.284912,-3.730774,-4.226685,-0.053406,0.947769180079728
0 days 00:00:03.870000,0.823486,0.385498,-0.287109,-3.189087,-5.91278,0.549316,0.9535037902814022
0 days 00:00:03.880000,0.849365,0.368896,-0.292236,-2.39563,-5.447387,1.304626,0.971034006478146
0 days 00:00:03.890000,0.86792,0.355469,-0.300293,-1.487732,-2.601623,2.006531,0.9847939998852552
0 days 00:00:03.900000,0.860352,0.350586,-0.31958,-0.488281,-0.541687,2.029419,0.9824700930308261
0 days 00:00:03.910000,0.835449,0.349121,-0.334229,0.579834,0.106812,2.037048,0.9651784957628303
0 days 00:00:03.920000,0.829102,0.339844,-0.346924,1.838684,0.274658,2.044678,0.9608643673880305
0 days 00:00:03.930000,0.832031,0.430908,-0.257813,-1.396179,0.244141,-0.75531,0.9718152254384576
0 days 00:00:03.940000,0.802246,0.329834,-0.371338,4.837036,-2.105713,1.88446,0.94354704297984
0 days 00:00:03.950000,0.820557,0.33252,-0.362549,3.356933,-0.534058,2.006531,0.9567262503192855
0 days 00:00:03.960000,0.782227,0.383545,-0.289307,12.451171,-9.643555,2.113342,0.9179784239310856
0 days 00:00:03.970000,0.786377,0.367432,-0.3125,11.802672,-7.17926,1.953125,0.9225244228490647
0 days 00:00:03.980000,0.799561,0.358887,-0.335205,10.345458,-5.508422,1.556396,0.938328334600954
0 days 00:00:03.990000,0.813721,0.355225,-0.356201,8.979797,-5.119323,1.13678,0.9566639006814254
0 days 00:00:04,0.784912,0.398926,-0.269531,12.229918,-12.107848,2.456665,0.9208016948187053
0 days 00:00:04.010000,0.802246,0.346191,-0.369873,7.720947,-5.676269,1.495361,0.9488165729612863
0 days 00:00:04.020000,0.795166,0.337891,-0.37207,7.247924,-5.500793,1.76239,0.9406887797443957
0 days 00:00:04.030000,0.79541,0.329834,-0.375977,6.340026,-4.135132,1.754761,0.9395883354879412
0 days 00:00:04.040000,0.810547,0.35083,-0.371094,8.262634,-5.28717,1.190186,0.9580077687289389
0 days 00:00:04.050000,0.82373,0.378418,-0.304199,-0.480652,1.808166,-0.480652,0.9561737955126149
0 days 00:00:04.060000,0.833496,0.392578,-0.293701,0.366211,-0.160217,-0.076294,0.9670022468955282
0 days 00:00:04.070000,0.83374,0.393555,-0.291016,0.091553,0.62561,-0.267029,0.9667979302217191
0 days 00:00:04.080000,0.837402,0.386963,-0.291016,0.289917,1.12915,-0.450134,0.9673018066916861
0 days 00:00:04.090000,0.834717,0.387939,-0.293457,0.724792,1.495361,-0.511169,0.9661087664745622
0 days 00:00:04.100000,0.829102,0.39502,-0.303711,0.312805,1.235962,-0.419617,0.9673113760961359
0 days 00:00:04.110000,0.82251,0.398682,-0.308838,-0.579834,0.679016,-0.907898,0.9648061709317576
0 days 00:00:04.120000,0.841797,0.383789,-0.303711,0.679016,-1.464844,0.061035,0.9737333091000842
0 days 00:00:04.130000,0.822021,0.388916,-0.312012,-0.907898,0.564575,-0.961304,0.961418570468139
0 days 00:00:04.140000,0.830078,0.37793,-0.313477,-0.946045,1.037598,-0.572205,0.9644316463663974
0 days 00:00:04.150000,0.812988,0.384766,-0.298096,-0.511169,2.01416,-0.587463,0.9475524197193527
0 days 00:00:04.160000,0.822754,0.387451,-0.308594,-0.167847,-3.997802,-0.694275,0.9603502896094737
0 days 00:00:04.170000,0.806396,0.381348,-0.30542,-0.648498,-0.350952,-1.266479,0.9428585165972676
0 days 00:00:04.180000,0.808838,0.375977,-0.307617,-0.144958,-1.930237,-1.144409,0.9435071984155711
0 days 00:00:04.190000,0.812988,0.382813,-0.309814,-0.038147,-3.27301,-0.823975,0.9505156472720478
0 days 00:00:04.200000,0.841064,0.377686,-0.311279,-0.305176,-3.173828,-0.221252,0.9731032743409098
0 days 00:00:04.210000,0.855469,0.37085,-0.309326,0.053406,-1.411438,0.274658,0.9823642434133074
0 days 00:00:04.220000,0.852051,0.374512,-0.303955,0.518799,0.900268,-0.007629,0.9791010094826784
0 days 00:00:04.230000,0.837402,0.385254,-0.302979,0.541687,2.441406,-0.366211,0.9702881162628965
0 days 00:00:04.240000,0.824219,0.386475,-0.306152,0.37384,2.319336,-0.648498,0.9604316387385413
0 days 00:00:04.250000,0.814697,0.383057,-0.310059,0.511169,1.289368,-0.793457,0.9521556860823759
0 days 00:00:04.260000,0.842041,0.376709,-0.311523,0.419617,-2.906799,0.045776,0.9736474186742345
0 days 00:00:04.270000,0.808105,0.387207,-0.303467,-0.762939,1.182556,-0.991821,0.946073555260372
0 days 00:00:04.280000,0.826904,0.384277,-0.304199,0.366211,-3.501892,-0.473022,0.9612367395943624
0 days 00:00:04.290000,0.807373,0.381592,-0.311523,0.717163,-0.167847,-0.907898,0.9457854910718392
0 days 00:00:04.300000,0.81665,0.379639,-0.290771,1.159668,-2.082825,-0.62561,0.9463565751142642
0 days 00:00:04.310000,0.820557,0.397217,-0.297852,0.640869,-1.777649,-0.740051,0.959067750079211
0 days 00:00:04.320000,0.818359,0.402832,-0.301025,-0.144958,-2.235413,-1.029968,0.9605212770834386
0 days 00:00:04.330000,0.833008,0.390381,-0.300049,-0.061035,-1.846313,-0.785828,0.9676409745489285
0 days 00:00:04.340000,0.844727,0.38208,-0.298096,0.709534,-0.778198,-1.00708,0.9738634689446976
0 days 00:00:04.350000,0.838867,0.394043,-0.295654,0.785828,0.221252,-1.365662,0.9728201361269205
0 days 00:00:04.360000,0.827637,0.39917,-0.298096,0.350952,0.190735,-1.533508,0.9660128973699057
0 days 00:00:04.370000,0.81958,0.390381,-0.301758,0.12207,-0.183105,-1.243591,0.9566433986209282
0 days 00:00:04.380000,0.821533,0.388428,-0.305908,0.366211,-0.923157,-0.900268,0.9588391344417477
0 days 00:00:04.390000,0.81665,0.395996,-0.299316,0.144958,-1.319885,-0.846863,0.9556778339859097
0 days 00:00:04.400000,0.812744,0.400146,-0.29834,-0.610352,-1.747131,-0.968933,0.9537695667466016
0 days 00:00:04.410000,0.819092,0.389893,-0.296387,0.808716,-3.219604,-0.801086,0.9543445445341007
0 days 00:00:04.420000,0.812988,0.400391,-0.297852,-0.984192,-2.26593,-0.907898,0.9539278038347556
0 days 00:00:04.430000,0.835693,0.391602,-0.287109,-1.052856,-0.953674,-0.87738,0.9665228887791536
0 days 00:00:04.440000,0.832764,0.389404,-0.291748,-0.75531,-0.549316,-0.801086,0.964493779355782
0 days 00:00:04.450000,0.821045,0.388672,-0.296631,-0.50354,-1.304626,-1.113892,0.9555996890801085
0 days 00:00:04.460000,0.819824,0.381104,-0.307861,-0.602722,-2.250671,-0.930786,0.9550549958578302
0 days 00:00:04.470000,0.828613,0.379395,-0.30957,-0.473022,-2.624511,-0.656128,0.9624830672245617
0 days 00:00:04.480000,0.822998,0.384277,-0.297363,-0.1297,-1.846313,-0.389099,0.9557297078682864
0 days 00:00:04.490000,0.820068,0.391357,-0.294189,-0.617981,-1.342773,-0.267029,0.9551015620309706
0 days 00:00:04.500000,0.820557,0.390625,-0.291748,-1.098633,-1.365662,-0.389099,0.9544729311918699
0 days 00:00:04.510000,0.821777,0.378906,-0.291504,-0.541687,-1.235962,-0.541687,0.9507164543548197
0 days 00:00:04.520000,0.821533,0.370361,-0.288086,0.556946,-1.457214,-0.556946,0.9460852413001695
0 days 00:00:04.530000,0.824707,0.397461,-0.291992,-1.091003,-1.960754,-0.938415,0.9609246642864361
0 days 00:00:04.540000,0.807861,0.377441,-0.307129,0.961304,-1.182556,-0.587463,0.9430956083255824
0 days 00:00:04.550000,0.81665,0.399414,-0.30127,-0.045776,-4.524231,0.610352,0.9577120542188032
0 days 00:00:04.560000,0.813721,0.372314,-0.306152,1.800537,-2.296448,-0.297546,0.9457740890619705
0 days 00:00:04.570000,0.847168,0.403076,-0.301514,-0.839233,-2.822876,0.831604,0.985431161571421
0 days 00:00:04.580000,0.843018,0.394287,-0.304199,-1.068115,-1.014709,0.892639,0.979121350136948
0 days 00:00:04.590000,0.830566,0.397461,-0.298096,-0.938415,-0.534058,-0.038147,0.9678204131413018
0 days 00:00:04.600000,0.815674,0.405029,-0.29834,-1.907349,-1.243591,-1.358032,0.9583210947886935
0 days 00:00:04.610000,0.818604,0.391113,-0.30127,-2.235413,-1.907349,-1.075745,0.9559526664458864
0 days 00:00:04.620000,0.830811,0.366943,-0.303467,-1.243591,-1.525879,0.282288,0.9575940178692638
0 days 00:00:04.630000,0.839111,0.360596,-0.299316,0.030518,-0.999451,0.495911,0.9611070769654129
0 days 00:00:04.640000,0.834717,0.365723,-0.298584,0.244141,-0.915527,0.045776,0.9589881062213442
0 days 00:00:04.650000,0.830811,0.361816,-0.301514,0.396728,-0.38147,0.190735,0.9550227367832663
0 days 00:00:04.660000,0.835205,0.362061,-0.302246,1.655578,0.427246,0.289917,0.9591705814202185
0 days 00:00:04.670000,0.845947,0.398926,-0.295898,0.083923,-4.570007,1.029968,0.9809810939508466
0 days 00:00:04.680000,0.821289,0.376953,-0.298828,1.953125,0.709534,-0.305176,0.9517916575143954
0 days 00:00:04.690000,0.802979,0.376465,-0.311279,1.502991,-1.213074,-0.358582,0.9398913695246914
0 days 00:00:04.700000,0.814453,0.364746,-0.319824,2.13623,-2.13623,0.152588,0.947977175200437
0 days 00:00:04.710000,0.822998,0.365479,-0.314209,2.822876,-2.433777,0.434875,0.9537441497204583
0 days 00:00:04.720000,0.830322,0.372803,-0.30957,3.158569,-2.220154,0.862122,0.9613793660116697
0 days 00:00:04.730000,0.837891,0.377441,-0.309082,3.265381,-1.899719,0.549316,0.9695641902865432
0 days 00:00:04.740000,0.84082,0.378662,-0.312256,3.311157,-1.251221,-0.297546,0.9735846096667716
0 days 00:00:04.750000,0.842773,0.380371,-0.3125,3.372192,-0.007629,-0.747681,0.9760146910625885
0 days 00:00:04.760000,0.841797,0.382813,-0.308105,3.715515,1.373291,-1.182556,0.974729025526069
0 days 00:00:04.770000,0.828613,0.391357,-0.303223,3.929138,2.090454,-1.327515,0.9652481509679259
0 days 00:00:04.780000,0.820557,0.398682,-0.308105,3.211975,1.274109,-1.571655,0.9629069624828767
0 days 00:00:04.790000,0.804199,0.38916,-0.298584,1.464844,-0.030518,-0.801086,0.9419840456488634
0 days 00:00:04.800000,0.830811,0.389893,-0.293945,0.686645,-5.325317,1.235962,0.9636737685518891
0 days 00:00:04.810000,0.811768,0.37207,-0.307861,1.701355,-2.006531,-0.404358,0.9445537390985227
0 days 00:00:04.820000,0.824707,0.373535,-0.304932,1.716614,-1.899719,-0.1297,0.9553290305952185
0 days 00:00:04.830000,0.831299,0.37793,-0.301025,1.945495,-0.823975,-0.091553,0.9615119151243005
0 days 00:00:04.840000,0.826904,0.393799,-0.303711,1.670837,0.061035,-0.068665,0.9649291420296103
0 days 00:00:04.850000,0.814209,0.40332,-0.308105,0.915527,-0.640869,-0.427246,0.959443593498857
0 days 00:00:04.860000,0.8125,0.39209,-0.31543,0.549316,-2.250671,-0.389099,0.9557127722281418
0 days 00:00:04.870000,0.831299,0.379883,-0.320068,0.923157,-3.051758,-0.274658,0.9684072726461734
0 days 00:00:04.880000,0.837891,0.387207,-0.300293,1.38855,-0.88501,-0.114441,0.9706526024170543
0 days 00:00:04.890000,0.835205,0.390381,-0.301025,0.892639,-0.083923,-0.030518,0.9698354333653726
0 days 00:00:04.900000,0.833496,0.387939,-0.305664,0.473022,0.488281,-0.099182,0.9688357604016277
0 days 00:00:04.910000,0.827393,0.38208,-0.30835,0.526428,0.930786,0.061035,0.9621039576620606
0 days 00:00:04.920000,0.814697,0.38501,-0.304443,1.098633,0.671387,0.099182,0.951130612564857
0 days 00:00:04.930000,0.838379,0.382324,-0.308105,1.327515,-1.998901,-0.389099,0.9715861668642674
0 days 00:00:04.940000,0.798828,0.397949,-0.306396,0.694275,-1.701355,-0.823975,0.9435931798190362
0 days 00:00:04.950000,0.801758,0.394775,-0.301025,1.029968,-0.312805,-0.419617,0.9430160347597488
0 days 00:00:04.960000,0.813477,0.406982,-0.293701,0.411987,-3.684997,0.602722,0.955844890792434
0 days 00:00:04.970000,0.818604,0.403564,-0.285156,1.052856,-2.998352,1.052856,0.9561853142817035
0 days 00:00:04.980000,0.833496,0.390381,-0.282715,1.335144,-3.196716,1.457214,0.9628295167899663
0 days 00:00:04.990000,0.844482,0.385986,-0.296875,0.915527,-4.745483,1.617432,0.9748178322871407
0 days 00:00:05,0.821777,0.391113,-0.303467,0.297546,-5.1651,1.014709,0.9593638707951222
0 days 00:00:05.010000,0.811279,0.398926,-0.29834,0.823975,-5.66864,0.488281,0.952009624382548
0 days 00:00:05.020000,0.809082,0.396973,-0.302979,0.915527,-4.295349,0.1297,0.9507878416839374
0 days 00:00:05.030000,0.807373,0.393555,-0.309814,0.854492,-3.211975,-0.358582,0.9501165264061034
0 days 00:00:05.040000,0.804199,0.392578,-0.313477,0.549316,-2.723694,-0.740051,0.9482200942892953
0 days 00:00:05.050000,0.829102,0.391357,-0.298828,0.816345,-5.950927,1.113892,0.964296946711437
0 days 00:00:05.060000,0.830322,0.412109,-0.268799,0.274658,0.007629,-0.312805,0.9651535390630861
0 days 00:00:05.070000,0.831055,0.406738,-0.281738,0.656128,-0.328064,-0.427246,0.9671941450985939
0 days 00:00:05.080000,0.817871,0.411865,-0.279785,0.244141,-0.434875,-0.740051,0.9575099984287371
0 days 00:00:05.090000,0.81665,0.406982,-0.284424,-0.022888,-0.976562,-0.930786,0.955745040583523
0 days 00:00:05.100000,0.817383,0.400391,-0.282227,0.099182,-1.365662,-0.709534,0.9529323171658101
0 days 00:00:05.110000,0.824463,0.396729,-0.274658,0.419617,-1.472473,-0.099182,0.9552853787083732
0 days 00:00:05.120000,0.823242,0.397461,-0.270996,0.595093,-1.914978,0.015259,0.9534891027699268
0 days 00:00:05.130000,0.827637,0.400146,-0.27417,0.404358,-2.349854,-0.068665,0.9593065276464036
0 days 00:00:05.140000,0.839844,0.400635,-0.279297,0.022888,-1.937866,0.228882,0.9715210557522673
0 days 00:00:05.150000,0.84375,0.402344,-0.278076,0.144958,-0.785828,0.068665,0.9752543353464265
0 days 00:00:05.160000,0.84082,0.401855,-0.285156,0.869751,-0.640869,-0.038147,0.9745663947422977
0 days 00:00:05.170000,0.820557,0.417725,-0.273438,-0.465393,-0.221252,-0.465393,0.9605083579636359
0 days 00:00:05.180000,0.825928,0.391602,-0.280273,-0.335693,-0.648498,-0.12207,0.9560659716342801
0 days 00:00:05.190000,0.821533,0.390625,-0.276123,0.205994,-0.724792,0.045776,0.9506567581640599
0 days 00:00:05.200000,0.82251,0.398438,-0.277832,0.236511,-1.037598,-0.305176,0.9552309459853151
0 days 00:00:05.210000,0.829102,0.406494,-0.281982,-0.37384,-1.190186,-0.75531,0.9654850318694744
0 days 00:00:05.220000,0.838135,0.405518,-0.287598,-1.029968,-0.541687,-0.617981,0.9744884484451316
0 days 00:00:05.230000,0.844482,0.404785,-0.286621,-1.13678,0.724792,-0.724792,0.979363233019292
0 days 00:00:05.240000,0.837646,0.405762,-0.282471,-1.13678,1.777649,-0.770569,0.9726682311050361
0 days 00:00:05.250000,0.827881,0.4021,-0.2854,-1.281738,1.922607,-0.831604,0.9635997717730116
0 days 00:00:05.260000,0.821777,0.391846,-0.292969,-1.342773,1.678467,-0.724792,0.9563950859378147
0 days 00:00:05.270000,0.834717,0.400879,-0.283691,0.869751,-0.991821,-0.068665,0.9684714896221778
0 days 00:00:05.280000,0.82251,0.405029,-0.282471,-0.770569,-0.396728,-0.366211,0.9593545000582422
0 days 00:00:05.290000,0.831543,0.397949,-0.28125,1.00708,-1.373291,-0.411987,0.9638094884104431
0 days 00:00:05.300000,0.802979,0.394531,-0.282227,0.419617,-1.411438,-1.068115,0.9381268911671811
0 days 00:00:05.310000,0.823975,0.394531,-0.28833,0.701904,-2.388,-0.312805,0.9579789660978992
0 days 00:00:05.320000,0.835693,0.395752,-0.276367,-0.213623,-1.060486,0.495911,0.9650809056457391
0 days 00:00:05.330000,0.829346,0.395752,-0.275635,-0.007629,-0.579834,0.221252,0.9593795320127483
0 days 00:00:05.340000,0.82251,0.398193,-0.271729,0.205994,-1.152039,-0.518799,0.9533713939436195
0 days 00:00:05.350000,0.812012,0.398682,-0.27124,0.656128,-2.410889,-0.999451,0.9443950248005333
0 days 00:00:05.360000,0.817383,0.397461,-0.278809,0.740051,-3.684997,-0.854492,0.9506969410337871
0 days 00:00:05.370000,0.833984,0.4021,-0.283936,0.549316,-3.768921,-0.50354,0.968417975025247
0 days 00:00:05.380000,0.8396,0.401367,-0.28418,0.442505,-3.105163,-0.259399,0.9730271841469795
0 days 00:00:05.390000,0.843018,0.398438,-0.284424,0.213623,-1.88446,-0.091553,0.9748482958614638
0 days 00:00:05.400000,0.851563,0.398926,-0.285645,0.007629,0.053406,-0.228882,0.9827993500557476
0 days 00:00:05.410000,0.849854,0.400635,-0.283447,-0.25177,1.617432,-0.473022,0.9813778203882539
0 days 00:00:05.420000,0.835693,0.398438,-0.283203,-0.411987,2.044678,-0.663757,0.968162986951061
0 days 00:00:05.430000,0.820801,0.394531,-0.285645,-0.175476,1.457214,-0.892639,0.9544433234021807
0 days 00:00:05.440000,0.811035,0.393311,-0.284912,0.335693,0.160217,-1.029968,0.9453285998476931
0 days 00:00:05.450000,0.82373,0.380615,-0.293945,-0.709534,1.403808,-0.679016,0.9538357060573901
0 days 00:00:05.460000,0.810547,0.392578,-0.285889,0.396728,-2.449036,-0.923157,0.9449002305079621
0 days 00:00:05.470000,0.824463,0.391113,-0.283203,0.679016,-2.296448,-0.488281,0.9554645761863702
0 days 00:00:05.480000,0.832275,0.392578,-0.283447,0.75531,-1.724243,-0.053406,0.9628818014263225
0 days 00:00:05.490000,0.835938,0.394531,-0.281006,0.617981,-1.296997,-0.198364,0.9661321968762866
0 days 00:00:05.500000,0.841797,0.38916,-0.279785,0.656128,-0.62561,-0.244141,0.9686833027537948
0 days 00:00:05.510000,0.840576,0.389893,-0.276611,1.091003,-0.038147,-0.144958,0.9670047613874505
0 days 00:00:05.520000,0.822266,0.398926,-0.274658,1.296997,-0.289917,-0.358582,0.9543062114415897
0 days 00:00:05.530000,0.809326,0.404053,-0.280518,1.00708,-1.205444,-0.740051,0.9470785339183863
0 days 00:00:05.540000,0.812012,0.401367,-0.286377,0.671387,-2.243042,-0.62561,0.9499846014341494
0 days 00:00:05.550000,0.830322,0.394775,-0.283691,1.098633,-1.808166,-0.404358,0.962165530348079
0 days 00:00:05.560000,0.822266,0.384521,-0.287354,-0.030518,1.25885,-0.846863,0.9521292430720738
0 days 00:00:05.570000,0.818359,0.391357,-0.288818,-0.030518,0.694275,-1.075745,0.9519913820271694
0 days 00:00:05.580000,0.820557,0.394531,-0.293213,-0.259399,0.366211,-1.174927,0.9565261959711298
0 days 00:00:05.590000,0.829102,0.395996,-0.294922,-0.335693,-0.358582,-0.946045,0.9649880540732098
0 days 00:00:05.600000,0.821777,0.397217,-0.290771,-0.236511,-0.350952,-0.984192,0.9579387022450863
0 days 00:00:05.610000,0.813477,0.394043,-0.29126,-0.526428,-0.900268,-1.037598,0.9496563078177284
0 days 00:00:05.620000,0.822266,0.390869,-0.293701,-1.037598,-1.556396,-0.732422,0.9566400719800525
0 days 00:00:05.630000,0.830811,0.385986,-0.29126,-1.022339,-1.25885,-0.724792,0.9612827354722439
0 days 00:00:05.640000,0.828125,0.390137,-0.291504,-0.793457,-0.579834,-1.068115,0.9607145655240166
0 days 00:00:05.650000,0.825928,0.390869,-0.291748,-0.785828,-0.320435,-1.152039,0.9591936883909319
0 days 00:00:05.660000,0.830811,0.388428,-0.30127,-0.831604,0.068665,-1.419067,0.965342862305927
0 days 00:00:05.670000,0.830078,0.388428,-0.301025,-0.427246,0.25177,-1.777649,0.9646356036830696
0 days 00:00:05.680000,0.820068,0.388184,-0.297119,-0.152588,0.114441,-1.358032,0.9547135919431545
0 days 00:00:05.690000,0.831299,0.397705,-0.293457,-0.1297,-0.694275,-1.068115,0.9671319999229682
0 days 00:00:05.700000,0.817139,0.387695,-0.295898,-0.183105,-0.50354,-0.915527,0.9516192435790692
0 days 00:00:05.710000,0.829346,0.39502,-0.30249,-1.220703,-1.167297,-1.296997,0.9671379364992359
0 days 00:00:05.720000,0.8396,0.388428,-0.302002,-1.281738,-0.045776,-1.13678,0.9731442232207927
0 days 00:00:05.730000,0.839355,0.385254,-0.297119,-0.801086,1.487732,-1.083374,0.9701634711232947
0 days 00:00:05.740000,0.828369,0.390625,-0.291748,-0.427246,1.823425,-1.312256,0.961197163068015
0 days 00:00:05.750000,0.820557,0.39209,-0.294922,-0.236511,1.403808,-1.564026,0.9560477730913869
0 days 00:00:05.760000,0.82373,0.380859,-0.303223,0.205994,0.984192,-1.51062,0.95683273277517
0 days 00:00:05.770000,0.822754,0.375732,-0.300781,1.060486,0.465393,-1.312256,0.9531882764181482
0 days 00:00:05.780000,0.810303,0.38208,-0.300293,1.243591,-0.320435,-1.075745,0.944855525494771
0 days 00:00:05.790000,0.811279,0.386475,-0.303955,1.159668,-1.159668,-1.052856,0.9486438654684908
0 days 00:00:05.800000,0.817383,0.384521,-0.304443,1.144409,-1.480102,-0.595093,0.9532349701825883
0 days 00:00:05.810000,0.820313,0.392578,-0.297363,-0.564575,-1.205444,-1.235962,0.9567944699996964
0 days 00:00:05.820000,0.82666,0.400391,-0.28833,-0.045776,-0.854492,-1.083374,0.9627117415825985
0 days 00:00:05.830000,0.821777,0.386475,-0.300781,1.266479,-1.419067,-0.205994,0.9566345035147958
0 days 00:00:05.840000,0.828125,0.389893,-0.291016,0.068665,-1.243591,-0.930786,0.9604675316375874
0 days 00:00:05.850000,0.827148,0.398926,-0.294434,-0.358582,0.37384,-1.083374,0.9643687820206541
0 days 00:00:05.860000,0.829346,0.404053,-0.290771,-0.526428,0.801086,-1.014709,0.9672752395083831
0 days 00:00:05.870000,0.825195,0.400391,-0.288818,-0.862122,1.068115,-0.999451,0.9616005293415765
0 days 00:00:05.880000,0.81958,0.394043,-0.290527,-0.816345,0.793457,-0.869751,0.9546660148858342
0 days 00:00:05.890000,0.820313,0.38623,-0.293701,-0.526428,0.091553,-0.541687,0.9530725619122606
0 days 00:00:05.900000,0.823486,0.385498,-0.292969,-0.1297,-0.228882,-0.572205,0.9552846356772415
0 days 00:00:05.910000,0.82251,0.399414,-0.286133,-0.022888,-0.930786,-1.022339,0.9580847233856722
0 days 00:00:05.920000,0.819336,0.398682,-0.291992,-0.343323,-0.221252,-1.228333,0.9568271244503889
0 days 00:00:05.930000,0.821777,0.400391,-0.292969,-0.518799,-0.457764,-1.426697,0.9599277189304412
0 days 00:00:05.940000,0.825684,0.403076,-0.300049,-1.022339,-0.419617,-1.464844,0.966568017282281
0 days 00:00:05.950000,0.822266,0.403076,-0.296143,-1.335144,-0.083923,-1.434326,0.9624408101182119
0 days 00:00:05.960000,0.823975,0.390869,-0.291504,0.0,-0.213623,-0.915527,0.9574382266245692
0 days 00:00:05.970000,0.81665,0.387207,-0.291748,-1.113892,-1.213074,-1.052856,0.9497175258217572
0 days 00:00:05.980000,0.827393,0.381836,-0.292236,-0.50354,-1.907349,-0.88501,0.9569638378961872
0 days 00:00:05.990000,0.835205,0.382813,-0.286377,-0.190735,-1.342773,-0.801086,0.9623538700098836
0 days 00:00:06,0.839111,0.391846,-0.28418,-0.022888,-0.076294,-1.075745,0.9687150408850892
0 days 00:00:06.010000,0.829346,0.396729,-0.288086,-0.038147,0.473022,-1.51062,0.9634325251687323
0 days 00:00:06.020000,0.825195,0.395264,-0.296387,-0.175476,0.63324,-1.441955,0.9617825489631219
0 days 00:00:06.030000,0.818604,0.392822,-0.295898,0.183105,0.236511,-1.373291,0.9549750043346684
0 days 00:00:06.040000,0.814209,0.396729,-0.290039,0.297546,-0.862122,-1.205444,0.9510272428500669
0 days 00:00:06.050000,0.813965,0.393311,-0.29248,-0.038147,-1.777649,-0.839233,0.9501458384616543
0 days 00:00:06.060000,0.822998,0.389893,-0.292969,-0.076294,-1.663208,-0.595093,0.9566467971064346
0 days 00:00:06.070000,0.818115,0.395264,-0.290039,-1.342773,-0.434875,-1.38092,0.9537653822832951
0 days 00:00:06.080000,0.859863,0.379639,-0.294189,0.984192,-7.232666,1.098633,0.9849047247378805
0 days 00:00:06.090000,0.850098,0.378418,-0.287842,1.25885,-8.285522,1.106262,0.9740224891099796
0 days 00:00:06.100000,0.838135,0.373291,-0.285645,1.12915,-8.293152,0.610352,0.960941993530827
0 days 00:00:06.110000,0.820557,0.368652,-0.286133,0.267029,-8.476257,-0.106812,0.9439757311721525
0 days 00:00:06.120000,0.807129,0.417236,-0.278076,-3.517151,-1.464844,-0.007629,0.9501943822781735
0 days 00:00:06.130000,0.786377,0.372803,-0.290283,-1.739502,-7.125854,-0.862122,0.9174067162534837
0 days 00:00:06.140000,0.782959,0.381348,-0.300293,-3.051758,-5.096435,-1.12915,0.9212095194004456
0 days 00:00:06.150000,0.792969,0.40332,-0.291016,-3.829956,-2.906799,-0.724792,0.9360326755071107
0 days 00:00:06.160000,0.803955,0.367676,-0.284912,-0.671387,-8.224487,-0.617981,0.9288186748472491
0 days 00:00:06.170000,0.866211,0.38208,-0.296387,0.579834,-4.798889,1.213074,0.9920442916977043
0 days 00:00:06.180000,0.825195,0.38623,-0.278809,2.738952,-0.030518,0.289917,0.9528141788439128
0 days 00:00:06.190000,0.849854,0.380371,-0.295166,-0.022888,-0.198364,1.052856,0.9767583562545037
0 days 00:00:06.200000,0.844238,0.370361,-0.305176,0.350952,0.198364,0.617981,0.9711011594787641
0 days 00:00:06.210000,0.845703,0.366211,-0.30249,0.869751,0.457764,0.961304,0.9699609584050277
0 days 00:00:06.220000,0.851074,0.372559,-0.302002,1.037598,0.892639,0.869751,0.9768993653191714
0 days 00:00:06.230000,0.83374,0.384766,-0.301758,0.663757,0.656128,0.343323,0.9665532333606878
0 days 00:00:06.240000,0.81543,0.386719,-0.302246,0.450134,-0.030518,0.411987,0.9517511830184399
0 days 00:00:06.250000,0.819092,0.381836,-0.294922,1.144409,-0.556946,0.511169,0.9506258051641561
0 days 00:00:06.260000,0.827637,0.382324,-0.286621,1.586914,-0.572205,0.37384,0.9556705721042162
0 days 00:00:06.270000,0.834473,0.388184,-0.280029,1.63269,0.083923,0.236511,0.9620022070795887
0 days 00:00:06.280000,0.833008,0.385742,-0.281982,2.02179,0.610352,0.366211,0.9603192526196692
0 days 00:00:06.290000,0.817871,0.414063,-0.271484,-2.479553,-1.091003,0.450134,0.9560673108447961
0 days 00:00:06.300000,0.861816,0.387695,-0.289307,0.144958,-2.029419,1.419067,0.9882979161821601
0 days 00:00:06.310000,0.832275,0.402344,-0.267822,-1.63269,-1.289368,0.465393,0.9624401247064671
0 days 00:00:06.320000,0.809082,0.40332,-0.28833,1.777649,-0.511169,-0.465393,0.9489019412057286
0 days 00:00:06.330000,0.83252,0.397217,-0.272705,-1.25885,-1.922607,-0.228882,0.961893399766315
0 days 00:00:06.340000,0.817627,0.392822,-0.276367,2.883911,-1.647949,0.236511,0.9482624918776446
0 days 00:00:06.350000,0.825439,0.372559,-0.30127,-3.341675,-0.686645,-0.846863,0.954417814220795
0 days 00:00:06.360000,0.824951,0.366211,-0.289063,-2.174377,-0.030518,-1.327515,0.9477405060938359
0 days 00:00:06.370000,0.821289,0.36792,-0.298584,-0.808716,-0.282288,-1.51062,0.9481735879979994
0 days 00:00:06.380000,0.815674,0.37085,-0.293945,0.091553,-0.88501,-1.251221,0.9430044855678048
0 days 00:00:06.390000,0.826416,0.371582,-0.29541,0.480652,-1.281738,-0.968933,0.9530496607627538
0 days 00:00:06.400000,0.833008,0.383789,-0.294189,0.564575,-0.968933,-1.144409,0.9631944208237504
0 days 00:00:06.410000,0.827637,0.394287,-0.285889,0.167847,-0.495911,-1.335144,0.9603008707998758
0 days 00:00:06.420000,0.82251,0.389404,-0.276367,0.389099,0.038147,-1.228333,0.9510714452684403
0 days 00:00:06.430000,0.829102,0.384033,-0.282959,1.045227,0.457764,-0.946045,0.956533986418674
0 days 00:00:06.440000,0.836182,0.395264,-0.272705,-1.335144,-1.602173,0.236511,0.9642624040399999
0 days 00:00:06.450000,0.83374,0.389648,-0.282959,1.564026,1.014709,-0.63324,0.9628155312337874
0 days 00:00:06.460000,0.811768,0.399658,-0.290039,1.739502,0.480652,-0.411987,0.9501665245150452
0 days 00:00:06.470000,0.808594,0.40625,-0.283691,1.647949,-1.472473,-0.572205,0.9483374414294735
0 days 00:00:06.480000,0.811523,0.413574,-0.281982,1.274109,-2.204895,-0.808716,0.9534814530597855
0 days 00:00:06.490000,0.820068,0.421875,-0.280029,0.236511,-2.471924,-0.846863,0.9637978424389629
0 days 00:00:06.500000,0.828369,0.420654,-0.276367,-0.602722,-2.174377,-0.465393,0.9692903107769106
0 days 00:00:06.510000,0.832031,0.41333,-0.271729,-0.991821,-1.838684,-0.183105,0.9679638026816911
0 days 00:00:06.520000,0.825928,0.416992,-0.271973,-1.365662,-1.434326,-0.114441,0.9643695878536402
0 days 00:00:06.530000,0.824707,0.411377,-0.272949,-1.823425,-1.281738,-0.267029,0.96118355613223
0 days 00:00:06.540000,0.821289,0.403564,-0.276123,-1.846313,-1.556396,-0.427246,0.9558365104692329
0 days 00:00:06.550000,0.82666,0.397217,-0.280762,-1.518249,-1.869202,-0.518799,0.9591534816352386
0 days 00:00:06.560000,0.822998,0.39624,-0.2854,1.647949,1.083374,-0.442505,0.9569665645172772
0 days 00:00:06.570000,0.821045,0.37207,-0.307373,-3.494262,-0.50354,-0.770569,0.9523807736688095
0 days 00:00:06.580000,0.821045,0.403076,-0.278564,2.555847,-2.845764,0.297546,0.9561292046041686
0 days 00:00:06.590000,0.838623,0.420166,-0.260986,1.686096,-1.678467,-0.328064,0.9736229741953504
0 days 00:00:06.600000,0.811523,0.354248,-0.334961,3.707886,-2.410889,0.198364,0.9467101438951628
0 days 00:00:06.610000,0.811523,0.365723,-0.336914,3.578186,-3.585815,0.244141,0.9517530854449593
0 days 00:00:06.620000,0.80835,0.373291,-0.330566,3.295898,-4.53949,0.679016,0.9497630091433336
0 days 00:00:06.630000,0.814697,0.369141,-0.322266,3.837585,-4.78363,1.060486,0.9507111309151692
0 days 00:00:06.640000,0.821045,0.362793,-0.310303,4.882813,-4.966736,1.068115,0.9497481796155232
0 days 00:00:06.650000,0.820313,0.362793,-0.296143,5.470275,-5.104064,1.304626,0.9445807828169066
0 days 00:00:06.660000,0.822021,0.362549,-0.280273,6.149292,-4.936218,1.51062,0.9411234012450227
0 days 00:00:06.670000,0.820557,0.369629,-0.263428,7.385253,-5.332946,1.098633,0.9377279451280099
0 days 00:00:06.680000,0.812988,0.395996,-0.264893,7.728576,-6.774902,0.518799,0.9423007065735439
0 days 00:00:06.690000,0.801025,0.412354,-0.26709,7.286071,-8.537292,0.076294,0.9396882142716274
0 days 00:00:06.700000,0.815674,0.3479,-0.341064,2.586365,-1.411438,0.274658,0.9500963826749369
0 days 00:00:06.710000,0.804932,0.409912,-0.276367,7.446289,-10.215758,0.0,0.9446280172941093
0 days 00:00:06.720000,0.845459,0.413574,-0.277832,6.622314,-9.925842,0.701904,0.9813434640231727
0 days 00:00:06.730000,0.856689,0.421387,-0.280518,5.15747,-7.820129,0.579834,0.9950745674641676
0 days 00:00:06.740000,0.85376,0.431885,-0.283203,2.906799,-5.676269,0.778198,0.9978149778561153
0 days 00:00:06.750000,0.848877,0.431396,-0.262451,1.235962,-4.096985,0.88501,0.9877121024600235
0 days 00:00:06.760000,0.838623,0.425537,-0.243408,1.037598,-3.097534,0.366211,0.9713998810798774
0 days 00:00:06.770000,0.823975,0.427246,-0.250244,1.106262,-3.410339,-0.488281,0.9612991234142472
0 days 00:00:06.780000,0.82251,0.427979,-0.269043,0.556946,-4.180908,-0.831604,0.9654392059523996
0 days 00:00:06.790000,0.831055,0.421875,-0.284424,0.198364,-4.264832,-0.747681,0.9744372429387128
0 days 00:00:06.800000,0.838867,0.410645,-0.288574,-0.541687,-3.250122,-0.450134,0.977549033649975
0 days 00:00:06.810000,0.842529,0.40332,-0.284912,-0.732422,-1.960754,0.190735,0.976574106755345
0 days 00:00:06.820000,0.823975,0.408203,-0.280273,7.324218,-10.993957,0.297546,0.9613102747620043
0 days 00:00:06.830000,0.813477,0.344727,-0.347168,1.335144,-1.022339,0.320435,0.9492666402449841
0 days 00:00:06.840000,0.830566,0.415039,-0.273682,1.983642,-3.013611,0.160217,0.9679871326629296
0 days 00:00:06.850000,0.795654,0.349365,-0.351563,-0.579834,-0.862122,-0.236511,0.9373994526934608
0 days 00:00:06.860000,0.805908,0.34668,-0.352051,0.389099,-1.152039,0.152588,0.9453119238986674
0 days 00:00:06.870000,0.845459,0.423096,-0.259521,1.335144,0.228882,-0.640869,0.9803888490481723
0 days 00:00:06.880000,0.843506,0.425049,-0.263184,0.663757,1.655578,-0.564575,0.9805278386119386
0 days 00:00:06.890000,0.835693,0.42627,-0.270996,0.160217,1.930237,-0.236511,0.9764874475204481
0 days 00:00:06.900000,0.828857,0.422363,-0.26709,-0.038147,1.266479,-0.289917,0.9678489026278843
0 days 00:00:06.910000,0.828125,0.424561,-0.266113,-0.709534,0.282288,-0.549316,0.9679148656338532
0 days 00:00:06.920000,0.827881,0.425537,-0.267334,-1.777649,0.045776,-0.50354,0.9684710403961493
0 days 00:00:06.930000,0.82666,0.422607,-0.253418,-3.120422,0.709534,-0.778198,0.9623845981586571
0 days 00:00:06.940000,0.833984,0.421631,-0.255615,-3.791809,1.861572,-1.266479,0.9688348882250266
0 days 00:00:06.950000,0.844482,0.406982,-0.263428,-3.669739,3.540039,-1.495361,0.9737445803864584
0 days 00:00:06.960000,0.845703,0.395752,-0.270996,-2.990722,4.837036,-1.533508,0.9722510178595855
0 days 00:00:06.970000,0.825684,0.423828,-0.261475,-2.563476,0.091553,-0.411987,0.9642372203275499
0 days 00:00:06.980000,0.830322,0.412842,-0.285889,-3.967285,4.707336,-2.120972,0.9703636745926756
0 days 00:00:06.990000,0.826172,0.408203,-0.294434,-4.79126,4.371643,-1.579285,0.9674095529552104
0 days 00:00:07,0.828125,0.407471,-0.296631,-5.401611,4.226685,-1.152039,0.9694398287810337
0 days 00:00:07.010000,0.787354,0.351318,-0.347168,-1.251221,0.427246,-0.663757,0.9294494492246471
0 days 00:00:07.020000,0.827393,0.405029,-0.291748,-5.958557,4.28009,-1.312256,0.9663045911067587
0 days 00:00:07.030000,0.83252,0.384521,-0.296631,-5.760192,5.371093,-1.487732,0.9638132080450029
0 days 00:00:07.040000,0.830322,0.363037,-0.309326,-4.615784,6.530761,-1.64032,0.9575557745264763
0 days 00:00:07.050000,0.811035,0.355225,-0.320313,-3.509521,6.332397,-1.342773,0.9415747393696371
0 days 00:00:07.060000,0.795654,0.349609,-0.330566,-2.441406,4.78363,-1.13678,0.9298202089398788
0 days 00:00:07.070000,0.786865,0.350342,-0.338867,-1.617432,2.510071,-0.892639,0.9255954239720505
0 days 00:00:07.080000,0.839355,0.405762,-0.279053,-3.105163,5.004883,-1.861572,0.9731547633742538
0 days 00:00:07.090000,0.445068,0.192383,-0.991699,-21.621702,-128.860474,25.627134,1.1038857050954143
0 days 00:00:07.100000,0.375732,0.203613,-0.93335,-9.162903,-149.131775,21.40045,1.0265354412259715
0 days 00:00:07.110000,0.291992,0.127197,-0.956299,9.32312,-171.279892,27.931211,1.007941556973419
0 days 00:00:07.120000,0.379395,-0.187988,-0.900391,44.715878,-32.836914,-16.166687,0.9949794003143986
0 days 00:00:07.130000,-0.068115,-0.153564,-1.269287,29.663084,-159.698486,65.422058,1.2803558269832649
0 days 00:00:07.140000,-0.150879,-0.260742,-1.223389,36.071777,-113.18969,48.660275,1.2599331365298716
0 days 00:00:07.150000,0.140625,-0.255127,-1.039795,46.157833,-66.703796,13.22174,1.0798327735251418
0 days 00:00:07.160000,0.557129,0.052002,-0.97876,-15.708922,-107.711784,24.04022,1.1274165460223653
0 days 00:00:07.170000,0.145996,0.005127,-1.123047,23.651121,-179.306015,50.338741,1.1325085793732423
0 days 00:00:07.180000,0.683838,-0.112061,-0.988281,12.443542,-71.456909,8.918762,1.2070175694355074
0 days 00:00:07.190000,-0.000244,0.522461,-1.256592,195.526108,-52.444454,-15.968322,1.360878029259419
0 days 00:00:07.200000,0.365479,-0.091309,-0.875,89.87426,24.337767,19.355774,0.9526474861783869
0 days 00:00:07.210000,-0.024414,0.045654,-0.937012,108.917229,35.03418,48.942562,0.9384411645148565
0 days 00:00:07.220000,-0.283691,0.177734,-1.010986,112.266533,4.882813,64.933777,1.064970727500526
0 days 00:00:07.230000,-0.375732,0.283936,-1.107666,107.498161,-47.645565,65.643311,1.2036270832263622
0 days 00:00:07.240000,-0.414307,0.323975,-1.140137,106.681816,-96.000664,66.230774,1.2555964597126736
0 days 00:00:07.250000,-0.359375,0.276611,-1.113037,110.702507,-121.917717,64.048767,1.2018799438026246
0 days 00:00:07.260000,-0.203613,0.16626,-1.124756,121.00219,-117.485039,50.682064,1.155065669520569
0 days 00:00:07.270000,-0.005859,0.073975,-1.192139,147.827148,-93.803398,30.746458,1.1944463252180904
0 days 00:00:07.280000,0.139893,0.100586,-1.238525,184.272751,-70.526123,12.489318,1.2504526262397948
0 days 00:00:07.290000,0.12915,0.29541,-1.289307,204.475388,-56.686398,-3.807068,1.3290068964640478
0 days 00:00:07.300000,0.42041,-0.084961,-0.841797,28.121946,-20.843504,-21.301268,0.9447672352648561
0 days 00:00:07.310000,0.657959,-0.165039,-0.952393,53.642269,-21.011351,1.243591,1.1692734255301451
0 days 00:00:07.320000,0.503662,0.05127,-0.876465,15.808105,-27.847288,-12.756347,1.0121733642854867
0 days 00:00:07.330000,0.027832,-0.042969,-1.248779,-35.003662,21.675108,-47.164913,1.2498279665722
0 days 00:00:07.340000,0.507568,0.087402,-0.950439,7.949829,-65.803528,-24.284361,1.0810174267554618
0 days 00:00:07.350000,0.255127,0.195557,-0.977539,-17.89093,23.780821,-32.646179,1.029035870559914
0 days 00:00:07.360000,-0.063965,0.630371,-1.086914,171.653732,-66.299438,-23.66638,1.258110155058769
0 days 00:00:07.370000,0.22998,0.109619,-0.929199,-25.985716,40.931698,-43.80035,0.963492556879398
0 days 00:00:07.380000,0.239014,0.025879,-0.87207,-16.876221,58.731075,-55.084225,0.9046012932430508
0 days 00:00:07.390000,0.251953,-0.002686,-0.814941,-6.057739,67.550659,-54.977413,0.8530043155142886
0 days 00:00:07.400000,0.169922,0.027832,-0.763428,0.236511,67.077637,-42.91534,0.782604892325623
0 days 00:00:07.410000,-0.007324,0.103271,-0.733887,-3.77655,69.122314,-33.424377,0.7411536070113941
0 days 00:00:07.420000,-0.12915,0.181885,-0.760742,-15.724181,76.370239,-34.217834,0.7927737800211357
0 days 00:00:07.430000,-0.093994,0.202148,-0.831299,-26.138304,77.056885,-39.505005,0.8606722450160689
0 days 00:00:07.440000,0.007568,0.144287,-0.910645,-28.694151,69.702148,-40.626522,0.9220359694816683
0 days 00:00:07.450000,0.086182,0.020508,-1.015137,-23.124693,62.248226,-36.827087,1.0189951147856402
0 days 00:00:07.460000,0.174316,-0.104736,-1.144043,-15.747069,53.359982,-38.131714,1.1619767998548851
0 days 00:00:07.470000,0.21582,-0.133301,-1.260254,-20.072937,38.383484,-46.058651,1.285530074917347
0 days 00:00:07.480000,0.121582,-0.092285,-1.296387,-31.555174,26.43585,-49.873348,1.3053420845579138
0 days 00:00:07.490000,0.002197,0.001221,-1.182129,-32.341003,12.474059,-43.792721,1.1821316721461277
0 days 00:00:07.500000,-0.029785,0.003418,-1.082764,-31.936644,-8.087158,-43.991085,1.0831789827378484
0 days 00:00:07.510000,-0.047607,-0.023682,-1.016846,-30.441282,-35.522461,-45.532223,1.018235263231931
0 days 00:00:07.520000,0.018555,-0.069824,-0.973389,-19.691467,-69.297791,-37.475586,0.976066506095768
0 days 00:00:07.530000,0.128418,-0.058594,-0.905518,-6.973266,-102.676384,-13.97705,0.9164536474279538
0 days 00:00:07.540000,0.171875,0.024414,-0.858643,-3.936767,-116.394035,3.890991,0.8760164727161243
0 days 00:00:07.550000,0.186035,0.075439,-0.927246,-4.341125,-114.471428,1.678467,0.948728205790257
0 days 00:00:07.560000,0.265625,0.124023,-1.02124,-2.944946,-111.228935,-11.131286,1.0624826976257071
0 days 00:00:07.570000,0.345703,0.103271,-0.978271,1.533508,-94.093315,-23.811338,1.0426838509783298
0 days 00:00:07.580000,0.581787,0.110352,-0.922363,13.099669,-42.228695,-14.030456,1.096087214158618
0 days 00:00:07.590000,0.248535,0.188721,-0.990234,-26.145933,27.076719,-34.812927,1.0382430528647904
0 days 00:00:07.600000,-0.025146,0.614746,-0.790039,158.042908,-93.299858,-31.799314,1.0013523792117338
0 days 00:00:07.610000,0.201904,0.684082,-0.614502,158.546448,-104.667656,-47.004696,0.9414595668131479
0 days 00:00:07.620000,0.98584,-0.185303,-0.412354,-7.04956,-105.148308,18.997192,1.0845522249873447
0 days 00:00:07.630000,1.029053,-0.165039,-0.405762,9.94873,-106.109612,16.494751,1.1184054492776758
0 days 00:00:07.640000,0.993896,-0.08252,-0.414795,11.672973,-103.462212,18.02063,1.080135964238299
0 days 00:00:07.650000,1.047363,-0.010254,-0.361816,13.252257,-105.041496,24.162291,1.108144943651777
0 days 00:00:07.660000,1.163818,0.011963,-0.271973,22.064207,-112.43438,32.684326,1.195234187605927
0 days 00:00:07.670000,1.222656,0.013672,-0.249023,27.175901,-108.512871,36.567688,1.2478329505382522
0 days 00:00:07.680000,1.212402,-0.005859,-0.241943,41.709896,-88.020317,34.408569,1.2363208939163004
0 days 00:00:07.690000,1.265625,0.006592,-0.28418,56.28204,-66.627502,24.703978,1.2971539490318795
0 days 00:00:07.700000,1.250732,0.095459,-0.404053,56.678768,-45.669552,17.807007,1.3178398170164687
0 days 00:00:07.710000,1.025879,0.231201,-0.393066,39.825439,-10.719298,14.709472,1.122667584549407
0 days 00:00:07.720000,0.941162,-0.14502,-0.395996,-26.351927,-106.094353,18.867493,1.0313241695315785
0 days 00:00:07.730000,0.923584,0.280029,-0.328125,30.525206,-6.645202,12.748717,1.0193574748448162
0 days 00:00:07.740000,0.826172,0.294434,-0.258301,16.525269,-9.468079,9.216309,0.91431447573633
0 days 00:00:07.750000,0.812744,0.33252,-0.299072,10.299682,-10.993957,7.255554,0.9276671930816568
0 days 00:00:07.760000,0.798584,0.360352,-0.310547,3.623962,-8.636475,7.110595,0.9295318220313923
0 days 00:00:07.770000,0.799072,0.34668,-0.321533,-0.137329,-5.859375,7.164001,0.9284861623486911
0 days 00:00:07.780000,0.802246,0.315918,-0.315918,-0.679016,-4.249573,6.111145,0.9182630396373361
0 days 00:00:07.790000,0.810303,0.307373,-0.295898,-1.586914,-2.571106,3.89862,0.9157645654544622
0 days 00:00:07.800000,0.818604,0.321045,-0.295898,-2.502441,-1.045227,1.998901,0.9277596818384597
0 days 00:00:07.810000,0.8125,0.339111,-0.29126,-2.632141,0.083923,0.564575,0.9273537124102108
0 days 00:00:07.820000,0.810791,0.358887,-0.298828,-3.051758,0.1297,-0.50354,0.9356709346955264
0 days 00:00:07.830000,0.077881,0.632568,-0.665283,156.410217,-110.16082,-41.343685,0.9213084146332323
0 days 00:00:07.840000,0.852051,0.29126,-0.269775,22.392271,-7.217407,11.680602,0.9400009812899133
0 days 00:00:07.850000,0.921875,-0.079346,-0.392334,-37.086487,-99.609367,10.002136,1.0050250100853213
0 days 00:00:07.860000,1.123535,0.179688,-0.462158,48.484798,-24.238585,16.853333,1.2280914829657439
0 days 00:00:07.870000,0.883789,0.023926,-0.417236,-41.122433,-81.390373,-8.331299,0.9776202379722916
0 days 00:00:07.880000,0.867188,-0.024658,-0.414063,-39.779663,-88.10424,-1.197815,0.961286228069975
0 days 00:00:07.890000,0.381836,0.784424,-0.498291,158.531189,-59.55505,-44.952389,1.0046958063777314
0 days 00:00:07.900000,0.394775,0.793213,-0.38501,142.021179,-42.823788,-50.621029,0.9660573813671731
0 days 00:00:07.910000,0.343262,0.758301,-0.208008,124.183647,-37.559509,-61.416622,0.8579723394777946
0 days 00:00:07.920000,0.303955,0.731201,-0.13916,112.121574,-40.512081,-70.808411,0.8039956778652483
0 days 00:00:07.930000,0.343262,0.718262,-0.225586,100.852959,-44.502254,-74.638367,0.8274165484712038
0 days 00:00:07.940000,0.456055,0.697754,-0.233154,88.806145,-39.802551,-76.446533,0.865567787788455
0 days 00:00:07.950000,0.574219,0.652832,-0.154053,77.552795,-23.323057,-82.504265,0.8829775801196766
0 days 00:00:07.960000,0.676514,0.618164,-0.112793,65.162659,-6.591796,-91.201775,0.9233201957831314
0 days 00:00:07.970000,0.701172,0.594971,-0.132568,46.928402,-5.0354,-96.511833,0.9290893062827706
0 days 00:00:07.980000,0.71875,0.557861,-0.054199,24.063108,-24.253843,-94.291679,0.9114537779953518
0 days 00:00:07.990000,0.312012,0.741943,-0.554932,162.765488,-83.847038,-46.043392,0.9776402344507922
0 days 00:00:08,0.894775,0.552246,-0.020752,-13.824462,-71.487427,-70.007324,1.051678938956657
0 days 00:00:08.010000,0.792725,0.54126,-0.010986,2.380371,-52.665707,-83.534233,0.9599458346287044
0 days 00:00:08.020000,1.014648,0.010986,-0.52417,-39.176941,-82.305901,-11.566161,1.1420969507883296
0 days 00:00:08.030000,1.059814,-0.079834,-0.445557,-23.445127,-87.440483,-15.472411,1.152432307079683
0 days 00:00:08.040000,1.049072,-0.116211,-0.359863,-26.870726,-87.936394,-25.55084,1.1151495130582267
0 days 00:00:08.050000,1.01416,-0.072754,-0.260742,-38.330078,-86.761467,-43.510433,1.0496666331173912
0 days 00:00:08.060000,0.957275,0.053955,-0.459229,-45.242306,-79.76532,-10.383605,1.0630982278656098
0 days 00:00:08.070000,1.015625,0.262939,-0.177246,-53.894039,-68.885803,-69.206238,1.0639770687669918
0 days 00:00:08.080000,1.013184,0.452881,-0.064941,-47.409054,-64.865112,-66.314697,1.111692561591558
0 days 00:00:08.090000,0.983398,0.541748,-0.008057,-30.067442,-72.250366,-63.789364,1.1227766639706225
0 days 00:00:08.100000,1.019287,0.054199,-0.200195,-47.737118,-81.68029,-61.836239,1.0401738114348968
0 days 00:00:08.110000,0.055908,0.262939,-1.047363,118.080132,-17.318726,-112.632744,1.0813102588776267
0 days 00:00:08.120000,-1.58374,-2.008301,-0.749512,-195.49559,3.677368,193.305954,2.6651967155061933
0 days 00:00:08.130000,-1.208496,-2.155762,-0.608887,34.919739,-148.612976,35.705566,2.5452928635874104
0 days 00:00:08.140000,-0.397705,-0.705811,-0.866455,160.27832,-186.889633,-64.849854,1.1862051684978445
0 days 00:00:08.150000,-0.114502,-0.232666,-1.000488,157.279968,-151.435852,-70.930481,1.0335474898155383
0 days 00:00:08.160000,-0.026367,-0.275635,-0.923828,163.055405,-106.872551,-82.588188,0.9644314623123823
0 days 00:00:08.170000,-0.065674,-0.290283,-0.936523,175.743088,-72.387695,-80.574028,0.982676255892041
0 days 00:00:08.180000,-0.097412,1.170166,-1.369385,-249.992355,136.222839,115.753166,1.803882713350566
0 days 00:00:08.190000,-0.092041,-0.171143,-1.031494,169.822678,-54.283138,-64.781189,1.0496386731470977
0 days 00:00:08.200000,-0.014893,0.044434,-1.083008,145.91217,-41.336056,-73.280334,1.0840214526793277
0 days 00:00:08.210000,0.013428,0.361084,-1.006348,94.612114,6.401062,-145.530701,1.0692512629611433
0 days 00:00:08.220000,-0.31543,0.022705,-0.610596,143.058777,92.025749,-130.218506,0.6876329523379461
0 days 00:00:08.230000,-0.064453,0.032715,-0.970459,105.575554,37.475586,-145.317078,0.9731470244084396
0 days 00:00:08.240000,-0.138672,-0.087646,-0.7854,132.553101,60.874935,-131.721497,0.8023496151304618
0 days 00:00:08.250000,-0.276123,-0.060791,-0.618652,145.942688,82.748405,-125.78582,0.6801983195465864
0 days 00:00:08.260000,-0.199219,0.092285,-0.725586,128.52478,94.703667,-140.846252,0.7580763646111122
0 days 00:00:08.270000,-0.0979,0.134277,-0.798096,111.79351,109.924309,-157.653809,0.8152128237123114
0 days 00:00:08.280000,-0.124023,0.151123,-0.827148,104.011528,135.467529,-177.322372,0.8499374562648713
0 days 00:00:08.290000,-0.201172,0.196045,-0.852295,104.057304,148.803711,-186.744675,0.8973909864902813
0 days 00:00:08.300000,-0.237061,0.307373,-0.904785,98.045341,144.187927,-181.251511,0.9845364264845663
0 days 00:00:08.310000,-0.260986,0.457031,-0.909668,75.492859,140.472412,-172.8134,1.0509457157156121
0 days 00:00:08.320000,-0.415039,-0.546875,-1.118164,-236.663803,83.770744,-52.185055,1.3121053189595717
0 days 00:00:08.330000,-0.069092,0.251465,-1.025635,85.731499,22.865294,-154.685974,1.0582700524506965
0 days 00:00:08.340000,-0.163574,0.514893,-1.173584,-82.542412,-7.942199,31.509398,1.2919638771966497
0 days 00:00:08.350000,-0.31543,0.594971,-0.836182,37.078857,154.449463,-169.609055,1.0736325781499927
0 days 00:00:08.360000,-0.229248,0.094238,-0.873291,-21.621702,-101.173393,-47.401424,0.9077844550492149
0 days 00:00:08.370000,0.11377,-0.444824,-1.143066,-192.35228,-84.037773,-124.252312,1.231832733869335
0 days 00:00:08.380000,0.411621,-0.958252,-0.577393,-76.11084,115.562431,-56.320187,1.1920828073560996
0 days 00:00:08.390000,-0.193604,-0.326416,-1.120117,-52.551266,168.937668,-36.735535,1.1826630997714438
0 days 00:00:08.400000,-0.342529,-0.281494,-1.165039,-62.683102,150.283813,-32.920837,1.2465475760667941
0 days 00:00:08.410000,-0.457275,-0.341553,-1.166992,-73.539734,120.49102,-27.503965,1.299087835944129
0 days 00:00:08.420000,-0.320068,-0.493652,-1.139648,-71.44165,107.528679,-28.434752,1.2825495645907803
0 days 00:00:08.430000,-0.055908,-0.634033,-1.084473,-51.399227,145.210266,-37.651062,1.2574598352559814
0 days 00:00:08.440000,0.101074,-0.680908,-1.054688,-16.677856,211.799606,-35.263062,1.259451640708765
0 days 00:00:08.450000,-0.154541,-0.566895,-1.022461,16.601563,249.992355,-16.372681,1.1792706891240026
0 days 00:00:08.460000,-0.598877,-0.387695,-1.011963,26.420591,231.750473,1.060486,1.2381559625196656
0 days 00:00:08.470000,-0.226074,0.195313,-0.991943,-44.68536,-66.101074,-28.762815,1.0359573044744652
0 days 00:00:08.480000,-0.785645,-0.428467,-1.01416,21.209715,181.152328,10.108947,1.3525319004422778
0 days 00:00:08.490000,-0.585449,-0.97876,-0.773438,90.057365,153.526306,33.912659,1.3780159683563178
0 days 00:00:08.500000,-0.289795,-1.209473,-0.543701,182.792648,193.305954,56.076046,1.3573565696437322
0 days 00:00:08.510000,-0.197266,-1.162598,-0.250732,245.986923,222.618088,34.622192,1.205576426521355
0 days 00:00:08.520000,-0.620361,-0.523926,-0.264404,249.992355,198.356613,-15.602111,0.8539646942426835
0 days 00:00:08.530000,-1.300049,0.315918,-0.525146,249.992355,82.466118,-29.670713,1.437257773136399
0 days 00:00:08.540000,-1.414063,0.357666,-0.665527,212.730392,-83.663933,-56.90765,1.6032546033783905
0 days 00:00:08.550000,-1.072021,0.342285,-0.828369,109.184258,-202.918991,-95.687859,1.397348648629611
0 days 00:00:08.560000,-0.43042,-0.002441,-0.756836,43.80798,-218.704208,-118.621819,0.8706710433780372
0 days 00:00:08.570000,-0.229248,0.021973,-0.667725,20.339964,-182.983383,-115.478508,0.7063243828850877
0 days 00:00:08.580000,-0.164795,0.065186,-0.700928,1.815796,-136.070251,-84.068291,0.7229845557167871
0 days 00:00:08.590000,-0.746338,-0.670898,-0.950928,36.132813,143.493652,14.213561,1.3825297818969398
0 days 00:00:08.600000,-0.315186,0.648438,-0.712891,0.740051,179.130539,-168.365463,1.0139169750630472
0 days 00:00:08.610000,-0.211914,0.303223,-1.366943,-199.684128,33.462524,81.146233,1.4161161309631354
0 days 00:00:08.620000,-0.233643,0.592529,-0.696289,-31.684874,195.976242,-153.434753,0.9436620363302743
0 days 00:00:08.630000,0.004883,0.098633,-0.872559,-19.615173,-194.625839,1.426697,0.8781295581285258
0 days 00:00:08.640000,0.072754,0.134033,-0.882568,-20.51544,-188.652023,-0.823975,0.8956473994988207
0 days 00:00:08.650000,0.13623,0.167969,-0.911377,-22.682188,-174.33165,-2.777099,0.9366857712114559
0 days 00:00:08.660000,0.187012,0.168213,-0.912354,-23.185728,-153.991699,-4.180908,0.9463925838831367
0 days 00:00:08.670000,0.221191,0.146973,-0.918945,-21.278379,-132.133484,-6.141662,0.9565492325202085
0 days 00:00:08.680000,0.229736,0.126709,-0.921875,-17.753601,-118.85833,-8.453369,0.9584817765622882
0 days 00:00:08.690000,0.223877,0.127686,-0.918945,-14.678954,-118.270866,-10.108947,0.9544027130881387
0 days 00:00:08.700000,0.220459,0.158203,-0.911133,-14.167785,-124.465935,-10.353087,0.9506806527846245
0 days 00:00:08.710000,0.232422,0.187988,-0.946777,-17.532349,-127.464287,-10.0708,0.9928475018637051
0 days 00:00:08.720000,0.331299,0.129883,-1.003174,-22.140501,-103.698723,-11.810302,1.0644184775575818
0 days 00:00:08.730000,-0.043213,0.080322,-0.902832,-22.6593,-189.308151,2.39563,0.9074274666754363
0 days 00:00:08.740000,0.435059,0.077637,-1.041016,-20.332335,-81.93206,-15.754699,1.130936845940568
0 days 00:00:08.750000,0.545898,0.017578,-1.033691,-11.863708,-33.363342,-30.380247,1.169115347589364
0 days 00:00:08.760000,0.532471,0.027832,-1.002441,-8.583069,-13.740539,-36.178589,1.1354241254024857
0 days 00:00:08.770000,0.481689,0.062012,-0.969971,-8.110046,1.495361,-40.122986,1.0847642701094096
0 days 00:00:08.780000,0.421631,0.116211,-0.945068,-10.833739,14.320373,-40.962215,1.0413602744996564
0 days 00:00:08.790000,0.384766,0.154297,-0.921875,-14.198302,25.283812,-36.453247,1.0107947143658795
0 days 00:00:08.800000,0.363525,0.150146,-0.858154,-15.907287,33.905029,-29.792784,0.9439928679057908
0 days 00:00:08.810000,0.359131,0.124268,-0.815186,-15.35797,38.948059,-26.916502,0.8994141568715717
0 days 00:00:08.820000,0.339111,0.11377,-0.846191,-13.084411,39.276123,-29.449461,0.9186833468078106
0 days 00:00:08.830000,0.287842,0.128174,-0.896973,-10.093688,34.500122,-32.791138,0.9507061343911692
0 days 00:00:08.840000,0.251221,0.157471,-0.933594,-10.467528,28.19824,-33.332825,0.9795442121303153
0 days 00:00:08.850000,0.513184,0.037598,-1.054932,-16.38031,-57.441708,-22.666929,1.1737346174003729
0 days 00:00:08.860000,-0.085938,0.062744,-0.904053,-25.863646,-176.72728,1.609802,0.9102933462291153
0 days 00:00:08.870000,0.259766,0.175049,-0.980713,-21.263121,-120.422356,-10.139464,1.0295234409793688
0 days 00:00:08.880000,-0.164307,0.036133,-0.889404,-26.512144,-161.483749,-3.280639,0.9051750433777987
0 days 00:00:08.890000,-0.269531,0.643311,-0.669189,-20.919798,196.723923,-164.108261,0.9665970827614783
0 days 00:00:08.900000,-0.269043,0.513428,-0.891846,-46.409603,145.309448,-120.429985,1.0636642960770095
0 days 00:00:08.910000,-0.352295,0.533691,-0.980957,-55.450436,115.539543,-120.002739,1.1709886790037725
0 days 00:00:08.920000,-0.321533,0.547852,-1.10791,-65.315247,83.023064,-134.590149,1.2771021306430428
0 days 00:00:08.930000,-0.255859,0.536133,-1.195557,-75.004578,50.971981,-147.163391,1.3350127197218011
0 days 00:00:08.940000,-0.227783,0.461182,-1.20459,-78.971863,25.413511,-148.239136,1.3098133456004333
0 days 00:00:08.950000,-0.237061,0.349121,-1.145996,-74.790955,7.820129,-141.860962,1.2212248860787271
0 days 00:00:08.960000,-0.337891,0.302734,-1.075928,-65.101624,-3.761291,-127.243034,1.167664020093537
0 days 00:00:08.970000,-0.498779,0.325928,-1.009033,-54.901119,-17.341614,-107.704155,1.1718178813766242
0 days 00:00:08.980000,-0.672119,0.365479,-0.872803,-49.713131,-33.287048,-90.019218,1.1606480631143103
0 days 00:00:08.990000,-0.681885,0.36377,-0.79834,-50.933834,-45.845028,-79.437256,1.111144689824417
0 days 00:00:09,-0.212402,0.526367,-0.793701,-38.505554,174.888596,-136.108398,0.9757756431137231
0 days 00:00:09.010000,-0.388428,0.333496,-0.894287,-58.242794,-49.301144,-75.294495,1.0304586995940206
0 days 00:00:09.020000,-0.533203,0.342529,-0.883789,-55.335995,-52.413937,-76.133728,1.0875268049896518
0 days 00:00:09.030000,-0.250488,0.090576,-0.807129,-41.763302,-137.718201,-24.406431,0.8499443938052653
0 days 00:00:09.040000,-0.244629,0.142334,-0.794434,-48.789974,-130.592346,-33.599854,0.8433431659490696
0 days 00:00:09.050000,-0.279541,0.155273,-0.79126,-52.841183,-120.941154,-39.138794,0.8534314634521041
0 days 00:00:09.060000,-0.333984,0.169922,-0.79834,-58.776852,-105.278008,-39.627075,0.8819101733963614
0 days 00:00:09.070000,-0.232178,0.038818,-0.8479,-31.646727,-147.567749,-13.46588,0.8799703806424396
0 days 00:00:09.080000,-0.388672,0.281738,-0.887695,-68.450928,-62.309261,-52.505489,1.0091801807670422
0 days 00:00:09.090000,-0.375244,0.321777,-0.872803,-62.438961,-47.225948,-62.70599,1.0030620988124315
0 days 00:00:09.100000,-0.341064,0.328125,-0.868408,-58.975216,-44.143673,-70.800781,0.9890010728937557
0 days 00:00:09.110000,-0.369141,0.212891,-0.838867,-66.802979,-83.70208,-43.090816,0.940896115121643
0 days 00:00:09.120000,0.230469,0.405762,-0.818359,-33.782959,18.058777,9.864807,0.9420563748980205
0 days 00:00:09.130000,0.354248,0.450928,-0.787354,-62.477108,114.311211,15.541076,0.9740400546199319
0 days 00:00:09.140000,0.314697,0.463135,-0.793457,-58.174129,107.284538,11.497497,0.9711345122499767
0 days 00:00:09.150000,0.259033,0.428467,-0.82959,-53.817745,102.958672,12.306212,0.9689693665322965
0 days 00:00:09.160000,0.240234,0.348145,-0.953369,-52.978512,95.16906,15.548705,1.0429907794137012
0 days 00:00:09.170000,0.19458,0.343994,-0.92749,-44.692989,80.398552,17.38739,1.0081820016921548
0 days 00:00:09.180000,0.204346,0.383057,-0.908203,-33.325195,64.147949,18.90564,1.0066392810604998
0 days 00:00:09.190000,0.405029,0.449707,-0.761475,-65.284729,120.422356,17.929077,0.9726916532565703
0 days 00:00:09.200000,0.243652,0.424805,-0.899414,-27.305601,49.674984,17.929077,1.0240952731679802
0 days 00:00:09.210000,0.270996,0.444336,-0.868164,-29.502867,35.682678,13.145446,1.0122164016691293
0 days 00:00:09.220000,0.18457,0.361816,-0.743896,-37.284851,5.981445,5.714416,0.8475601226886503
0 days 00:00:09.230000,0.165527,0.126221,-0.791016,-17.059326,85.662834,-18.669128,0.8179469670009175
0 days 00:00:09.240000,0.231934,0.145264,-0.572754,-10.101317,10.894774,-8.842468,0.6347772479917659
0 days 00:00:09.250000,0.437744,0.300293,-0.471436,1.770019,64.994812,-6.011962,0.7099630958585101
0 days 00:00:09.260000,0.261475,0.174072,-0.712158,-21.049498,99.304192,-16.578674,0.7783567650974712
0 days 00:00:09.270000,0.07666,0.122803,-0.87207,-13.267516,57.41119,-18.432617,0.8840041953005653
0 days 00:00:09.280000,0.02124,0.138672,-0.912109,-12.290954,15.693664,-16.571045,0.922834703002114
0 days 00:00:09.290000,0.046387,0.1604,-0.884521,-8.773804,-28.038023,-17.845154,0.9001429404322405
0 days 00:00:09.300000,0.14624,0.182861,-0.859375,-2.593994,-55.694576,-27.839659,0.890701787101609
0 days 00:00:09.310000,0.21582,0.216797,-0.85498,1.159668,-51.376339,-42.488094,0.9080583747804983
0 days 00:00:09.320000,0.195801,0.212891,-0.914551,2.960205,-32.524109,-53.665157,0.9591997399306361
0 days 00:00:09.330000,0.464355,0.457764,-0.728516,-67.6651,122.039787,19.378662,0.9777059926056504
0 days 00:00:09.340000,0.114746,0.310059,-0.674805,-37.895203,5.470275,-7.606506,0.7514419578530334
0 days 00:00:09.350000,0.504395,0.468994,-0.678223,-70.297241,119.628899,19.424438,0.9666209835245665
0 days 00:00:09.360000,0.790039,0.61084,-0.116943,-12.100219,36.499023,-18.325806,1.005466455119215
0 days 00:00:09.370000,0.548828,0.513672,-0.595215,-73.875427,114.524834,14.801024,0.9588284483644611
0 days 00:00:09.380000,0.118896,0.16626,-0.978516,0.457764,-25.253294,-51.795956,0.9996360381018684
0 days 00:00:09.390000,0.82373,0.621826,-0.132813,-9.986877,48.095699,-21.331785,1.040595012550512
0 days 00:00:09.400000,0.800537,0.646484,-0.156006,-11.650084,56.236263,-23.101805,1.0407396036766354
0 days 00:00:09.410000,0.737793,0.668701,-0.174072,-15.563964,59.089657,-21.224974,1.0108415303270835
0 days 00:00:09.420000,0.709229,0.655273,-0.19043,-17.25769,57.678219,-16.25061,0.9842012313902072
0 days 00:00:09.430000,0.751953,0.647949,-0.218262,-16.571045,55.114742,-12.817382,1.0163215640012762
0 days 00:00:09.440000,0.813232,0.657227,-0.243408,-16.815186,58.494564,-14.747619,1.0735646556295526
0 days 00:00:09.450000,0.799072,0.682129,-0.241455,-17.478943,61.805721,-14.038085,1.0780150976911222
0 days 00:00:09.460000,0.786377,0.691895,-0.249756,-19.241333,64.01062,-10.665893,1.0767941013443563
0 days 00:00:09.470000,0.775391,0.69165,-0.281738,-21.873472,67.78717,-5.577087,1.0765626902438148
0 days 00:00:09.480000,0.801025,0.730225,-0.318604,-25.581358,73.165894,-2.883911,1.129769051649938
0 days 00:00:09.490000,0.817627,0.773193,-0.348877,-32.028198,79.071045,-5.172729,1.178158091050178
0 days 00:00:09.500000,0.78418,0.755127,-0.392578,-40.222164,82.359306,-6.843566,1.1572694347527717
0 days 00:00:09.510000,0.702881,0.693115,-0.458984,-49.186703,83.801262,-5.088806,1.0886305230159588
0 days 00:00:09.520000,0.655029,0.648682,-0.507813,-56.846615,86.044304,-3.65448,1.0524853305077462
0 days 00:00:09.530000,0.642334,0.634277,-0.51416,-62.812801,88.714592,-3.135681,1.0388747691059783
0 days 00:00:09.540000,0.643555,0.61377,-0.50708,-66.78009,91.102592,-1.724243,1.023722021510234
0 days 00:00:09.550000,0.639893,0.568604,-0.495361,-67.123413,92.384331,1.602173,0.989017735223186
0 days 00:00:09.560000,0.661133,0.553711,-0.481934,-64.704895,93.032829,4.79126,0.9879033837202906
0 days 00:00:09.570000,0.664795,0.558105,-0.483398,-63.888546,94.627373,7.17163,0.9935326916886027
0 days 00:00:09.580000,0.654053,0.566895,-0.498535,-66.413879,98.869316,7.5531,0.9988455406412946
0 days 00:00:09.590000,0.641113,0.552979,-0.513428,-69.061279,104.553215,7.965087,0.9901615849920659
0 days 00:00:09.600000,0.601318,0.538818,-0.551758,-71.014404,109.90905,10.520934,0.9779289671607033
0 days 00:00:09.610000,0.526123,0.48877,-0.638184,-73.204041,117.431633,18.096924,0.9607186590698653
0 days 00:00:09.620000,0.092529,0.14502,-0.979004,-11.764525,-36.743164,-44.166561,0.9940026399648041
0 days 00:00:09.630000,0.064697,0.162109,-0.895264,-28.488157,-58.952328,-30.71594,0.9121198711715472
0 days 00:00:09.640000,0.05249,0.239746,-0.773438,-39.520264,-82.099907,-12.252807,0.8114429643912134
0 days 00:00:09.650000,0.812744,0.067871,-0.522461,-52.261349,38.024902,-6.79779,0.968568417148732
0 days 00:00:09.660000,0.851807,0.078125,-0.510498,-45.906063,45.860287,-1.502991,0.996135979110282
0 days 00:00:09.670000,0.86499,0.188721,-0.493896,-46.241756,50.292965,-1.770019,1.0137832977303385
0 days 00:00:09.680000,0.929199,0.376709,-0.48999,-63.507076,49.369808,-8.453369,1.1159796827819044
0 days 00:00:09.690000,1.014893,0.51709,-0.44043,-97.236626,50.468441,-19.729614,1.2212159737118575
0 days 00:00:09.700000,1.049072,0.43042,-0.277832,-122.558586,72.19696,-34.057617,1.167477647669539
0 days 00:00:09.710000,1.033203,0.112305,-0.115967,-111.862175,121.826164,-36.422729,1.045738589382165
0 days 00:00:09.720000,0.925781,-0.210205,-0.126465,-65.307617,182.472214,1.121521,0.9577316942708954
0 days 00:00:09.730000,0.82959,-0.226563,-0.34375,-25.917051,220.985397,77.201843,0.9261287294804109
0 days 00:00:09.740000,0.859863,0.23291,-0.673096,-45.906063,199.272141,108.459465,1.1165436274884202
0 days 00:00:09.750000,0.784912,0.127686,-0.532715,-58.334347,26.93939,-12.7182,0.9571707442065915
0 days 00:00:09.760000,0.880859,0.818115,-0.964355,-141.311646,134.292603,9.552002,1.5411701064875998
0 days 00:00:09.770000,0.625244,-0.325684,-0.733643,-206.222519,178.878769,-133.110046,1.0174636007450095
0 days 00:00:09.780000,0.500977,-0.314697,-0.759766,-134.773254,230.392441,-54.283138,0.9629416031587794
0 days 00:00:09.790000,0.407959,0.027832,-0.858887,-124.938957,246.192917,-50.315853,0.9512581377701849
0 days 00:00:09.800000,0.265625,-0.016846,-0.883789,-118.438713,247.764572,-55.763241,0.9229969798769658
0 days 00:00:09.810000,0.120605,-0.079834,-0.965576,-104.385368,239.074692,-62.316891,0.9763483217361517
0 days 00:00:09.820000,-0.113037,-0.158691,-1.066895,-83.160393,226.417526,-58.990475,1.0845391361656802
0 days 00:00:09.830000,-0.311035,-0.205811,-1.19043,-57.617184,218.749985,-36.003113,1.2474872840418056
0 days 00:00:09.840000,-0.278809,-0.18457,-1.265625,-38.963318,227.081284,-11.665343,1.3090481977398694
0 days 00:00:09.850000,-0.192871,-0.144531,-1.243164,-35.324097,244.667038,1.792908,1.2663116375908419
0 days 00:00:09.860000,-0.611084,0.199219,-1.20166,-57.357784,192.237839,-14.73236,1.3627540572740922
0 days 00:00:09.870000,0.81665,0.565674,-0.957764,-230.689987,122.352592,-126.495354,1.3799333956651676
0 days 00:00:09.880000,0.820068,0.198242,-0.57666,-59.562679,15.426635,-15.647887,1.0219335451916627
0 days 00:00:09.890000,-1.194336,0.668701,-1.309326,-153.289795,-3.234863,-92.422478,1.8941842789372423
0 days 00:00:09.900000,0.803467,0.292236,-0.666016,-50.292965,-0.579834,-9.513855,1.0837612338707268
0 days 00:00:09.910000,0.106201,0.307617,-0.680664,-44.960018,-102.813713,-12.397765,0.7544603051095531
0 days 00:00:09.920000,0.202393,0.30127,-0.615234,-49.789425,-125.366203,-37.597656,0.7143104465881763
0 days 00:00:09.930000,0.246338,0.260986,-0.542725,-41.061398,-138.946533,-53.489681,0.6506508495844757
0 days 00:00:09.940000,0.23999,0.244629,-0.517334,-12.039184,-137.481689,-50.743099,0.6205425169132249
0 days 00:00:09.950000,0.188721,0.219727,-0.609375,14.091491,-133.102417,-37.132263,0.6747099087719106
0 days 00:00:09.960000,0.135986,0.177002,-0.721924,21.453856,-137.504578,-21.499632,0.7556428799214613
0 days 00:00:09.970000,0.836914,0.244873,-0.638184,-54.710384,6.408691,-13.549804,1.080586251708303
0 days 00:00:09.980000,0.332764,0.087158,-0.787842,3.52478,-166.038498,-22.979734,0.8596647100026847
0 days 00:00:09.990000,0.55835,0.085693,-0.779297,4.379272,-157.531738,-32.203674,0.9624977023131017
0 days 00:00:10,0.695313,0.190918,-0.759277,8.132935,-128.334045,-38.467407,1.047096659063527
0 days 00:00:10.010000,0.67749,0.348389,-0.769775,3.097534,-93.391411,-40.542599,1.0830148411014504
0 days 00:00:10.020000,0.175293,0.13208,-0.77832,13.107299,-153.762817,-15.899657,0.8086747087976722
0 days 00:00:10.030000,0.508545,0.456299,-0.811523,-11.817931,-59.112545,-26.351927,1.0608470077984855
0 days 00:00:10.040000,0.506592,0.415771,-0.800781,-7.080078,-62.171932,-18.737793,1.0347710804163401
0 days 00:00:10.050000,0.548828,0.372314,-0.760986,-0.579834,-74.356079,-15.571593,1.0094204180498827
0 days 00:00:10.060000,0.616211,0.370361,-0.699219,-1.068115,-88.836662,-16.120911,1.002891059289592
0 days 00:00:10.070000,0.690674,0.408691,-0.645752,-9.185791,-96.42791,-16.899109,1.030075023122588
0 days 00:00:10.080000,0.780518,0.448242,-0.588379,-19.699097,-91.674797,-16.159058,1.0753227824839386
0 days 00:00:10.090000,0.869141,0.473633,-0.587158,-31.234739,-74.401855,-14.442443,1.150864376689973
0 days 00:00:10.100000,0.871338,0.469238,-0.647461,-43.083187,-49.491879,-11.604308,1.182632638400023
0 days 00:00:10.110000,0.82666,0.419189,-0.676025,-49.797054,-26.222227,-8.392334,1.1472122619402216
0 days 00:00:10.120000,0.800049,0.351318,-0.679199,-50.178524,-10.437011,-7.446289,1.1067131611786316
0 days 00:00:10.130000,0.57666,0.448242,-0.809326,-7.469177,-68.138123,-35.346985,1.0901679780841116
0 days 00:00:10.140000,0.057373,-0.06958,-0.839844,88.645927,-88.813774,4.135132,0.8446721150038043
0 days 00:00:10.150000,0.039795,-0.06665,-0.865723,88.905327,-91.491692,4.737854,0.8691962823516907
0 days 00:00:10.160000,0.026123,-0.081543,-0.897949,90.332024,-91.155998,4.142761,0.9020222162336137
0 days 00:00:10.170000,0.005859,-0.106201,-0.926025,94.268791,-89.485161,3.463745,0.9321133412343158
0 days 00:00:10.180000,-0.119385,-0.253418,-0.899414,103.958122,-96.481316,18.966675,0.9420291950597922
0 days 00:00:10.190000,-0.060547,-0.178467,-0.919434,103.652946,-91.545097,8.125305,0.9385495669670302
0 days 00:00:10.200000,-0.087158,-0.217285,-0.914551,105.934135,-94.192497,11.802672,0.9440406875712508
0 days 00:00:10.210000,-0.104492,-0.241455,-0.900635,105.895988,-96.275322,15.624999,0.9382763443218634
0 days 00:00:10.220000,-0.025391,-0.136719,-0.930664,99.288933,-89.416496,4.821777,0.9409953606357473
0 days 00:00:10.230000,0.074219,-0.074951,-0.835449,89.042656,-83.747856,2.334595,0.8420814354698718
0 days 00:00:10.240000,0.203125,0.159912,-0.726318,114.715569,-91.934196,-17.570496,0.7709535981451803
0 days 00:00:10.250000,0.070557,-0.087646,-0.857666,93.727104,-76.179504,-3.036499,0.8650150745050632
0 days 00:00:10.260000,0.051758,-0.087891,-0.880371,94.749443,-75.958252,-4.03595,0.8862600160709045
0 days 00:00:10.270000,0.029785,-0.082275,-0.879883,94.192497,-77.468872,-3.829956,0.8842230575703168
0 days 00:00:10.280000,0.010254,-0.079834,-0.859131,93.589775,-79.475403,-2.441406,0.8628932073165253
0 days 00:00:10.290000,0.004883,-0.074219,-0.832031,93.994133,-81.237785,-0.320435,0.8353489621774842
0 days 00:00:10.300000,0.019531,-0.056885,-0.807373,95.474236,-83.747856,1.060486,0.8096101063567573
0 days 00:00:10.310000,0.057617,-0.022461,-0.778076,98.258965,-87.493889,1.800537,0.7805296131384125
0 days 00:00:10.320000,0.109863,0.014893,-0.762207,102.844231,-91.049187,0.717163,0.7702280123878902
0 days 00:00:10.330000,0.164063,0.054443,-0.751221,108.253471,-92.14782,-3.173828,0.770852579329537
0 days 00:00:10.340000,0.194092,0.10498,-0.744629,112.632744,-91.934196,-9.490967,0.7766368858771775
0 days 00:00:10.350000,-0.142578,-0.27002,-0.915527,102.966301,-95.436089,22.224424,0.9651056803340243
0 days 00:00:10.360000,0.081543,-0.080566,-0.837891,91.117851,-78.781128,-0.534058,0.8456958490414861
0 days 00:00:10.370000,-0.176025,-0.301758,-0.924561,103.683464,-94.924919,24.192808,0.9883601235936221
0 days 00:00:10.380000,-0.548584,-0.72583,-1.252441,15.838622,-23.15521,2.197266,1.5480252105301773
0 days 00:00:10.390000,-0.221924,-0.358398,-0.957275,100.46386,-98.869316,20.217894,1.0459803123410116
0 days 00:00:10.400000,0.199951,0.19458,-0.712646,114.326469,-93.1549,-27.282713,0.7653143799230483
0 days 00:00:10.410000,-0.582764,-0.567139,-0.667969,38.261414,-88.935844,11.810302,1.0523512293801913
0 days 00:00:10.420000,-0.522217,-0.539307,-0.640381,30.677794,-89.981071,14.976501,0.9867372803836896
0 days 00:00:10.430000,-0.485352,-0.515137,-0.60376,25.68054,-90.064995,17.303467,0.9303003978678069
0 days 00:00:10.440000,-0.457764,-0.510742,-0.573975,25.0473,-89.332573,19.874573,0.8943447718218069
0 days 00:00:10.450000,-0.435791,-0.51001,-0.567627,27.053831,-86.318962,21.049498,0.8787629981456888
0 days 00:00:10.460000,-0.421387,-0.504883,-0.563232,30.029295,-81.657402,18.356323,0.8658545682053077
0 days 00:00:10.470000,-0.407715,-0.508545,-0.577393,34.118652,-76.454163,12.275695,0.8707653040280143
0 days 00:00:10.480000,-0.402832,-0.521973,-0.621826,37.132263,-69.862366,5.851745,0.9063095537557794
0 days 00:00:10.490000,-0.408203,-0.539551,-0.709717,35.331726,-58.967587,3.944397,0.98053209580258
0 days 00:00:10.500000,-0.200684,-0.334229,-0.940674,103.523247,-95.855705,22.895811,1.0182586442417272
0 days 00:00:10.510000,-0.434082,-0.551025,-0.843994,30.540464,-46.737667,5.043029,1.0974432128292562
0 days 00:00:10.520000,-0.509277,-0.641357,-1.171875,15.769958,-26.458738,2.540588,1.4296827899233453
0 days 00:00:10.530000,-0.592041,-0.792725,-1.243896,24.116514,-31.295774,3.417969,1.5894032622723535
0 days 00:00:10.540000,-0.572021,-0.825684,-1.210693,35.27832,-47.988888,5.889892,1.5731305198698549
0 days 00:00:10.550000,-0.445068,-0.783936,-1.180908,47.546383,-68.901062,6.256103,1.4856597461007013
0 days 00:00:10.560000,-0.275146,-0.65332,-1.13916,59.036251,-86.372368,3.356933,1.3417219716901114
0 days 00:00:10.570000,-0.176514,-0.504883,-1.107422,66.940308,-97.885124,1.525879,1.2298160520862458
0 days 00:00:10.580000,-0.171875,-0.404541,-1.071289,72.58606,-104.774467,3.471374,1.1579527442115243
0 days 00:00:10.590000,-0.200684,-0.363525,-1.03418,79.521179,-107.77282,7.591247,1.1144293453965577
0 days 00:00:10.600000,-0.237305,-0.359619,-1.002686,87.631218,-107.284538,12.512206,1.0913380332335165
0 days 00:00:10.610000,-0.24707,-0.367188,-0.978516,95.031731,-103.507988,17.333984,1.073947938449532
0 days 00:00:10.620000,-0.471191,-0.575439,-1.016113,23.727415,-36.514282,3.738403,1.2592206438789828
0 days 00:00:10.630000,0.192139,0.186035,-0.702148,113.471977,-96.252434,-36.735535,0.7513575915967043
0 days 00:00:10.640000,0.207275,0.164795,-0.692139,111.381523,-106.0028,-47.58453,0.74106458083692
0 days 00:00:10.650000,0.189941,0.176758,-0.698486,111.900322,-101.379387,-44.174191,0.7451199005804368
0 days 00:00:10.660000,0.750244,0.673828,-0.30542,72.097778,-59.333797,7.385253,1.0536563052153203
0 days 00:00:10.670000,0.692383,0.686035,-0.304443,71.327209,-60.386654,6.980896,1.0211384725701995
0 days 00:00:10.680000,0.647949,0.693115,-0.302246,69.999695,-64.308167,9.368896,0.9957906177214164
0 days 00:00:10.690000,0.638916,0.709229,-0.286865,66.986084,-66.436768,12.96234,0.9967501982553101
0 days 00:00:10.700000,0.673828,0.723633,-0.26123,61.378475,-63.262936,13.702392,1.022707194251121
0 days 00:00:10.710000,0.710205,0.712891,-0.234619,53.390499,-57.014462,11.95526,1.0332718882593295
0 days 00:00:10.720000,0.723389,0.690918,-0.216797,43.853756,-50.453182,9.460449,1.0235527672054823
0 days 00:00:10.730000,0.729004,0.679932,-0.202881,35.079956,-44.05975,6.690979,1.0173077493074552
0 days 00:00:10.740000,0.736084,0.68457,-0.172119,28.587339,-38.154602,3.387451,1.0198434635359486
0 days 00:00:10.750000,0.699463,0.686035,-0.135742,19.294739,-30.372618,0.50354,0.9890997928207244
0 days 00:00:10.760000,0.768799,0.661377,-0.329834,73.028564,-62.614437,11.405944,1.0664248243950438
0 days 00:00:10.770000,0.690918,0.675049,-0.123047,14.045714,-27.976988,-0.259399,0.9737553077308487
0 days 00:00:10.780000,0.680176,0.642578,-0.109863,5.783081,-19.218445,-2.113342,0.9421336188826933
0 days 00:00:10.790000,0.676514,0.640869,-0.104736,2.830505,-14.366149,-3.311157,0.9377387147030882
0 days 00:00:10.800000,0.678955,0.640381,-0.11084,-0.244141,-10.131835,-5.371093,0.9398687263581015
0 days 00:00:10.810000,0.682373,0.648682,-0.115723,-2.426147,-5.737304,-8.285522,0.9485847674203924
0 days 00:00:10.820000,0.686523,0.660889,-0.119385,-5.622863,-1.289368,-11.482238,0.960385796477124
0 days 00:00:10.830000,0.692139,0.675049,-0.123779,-10.520934,3.128052,-13.999938,0.9747147216303855
0 days 00:00:10.840000,0.702148,0.674561,-0.119385,-14.343261,7.057189,-15.678405,0.9809674484150838
0 days 00:00:10.850000,0.722412,0.666016,-0.10498,-16.63208,10.94818,-16.967773,0.988168614356882
0 days 00:00:10.860000,0.737549,0.646973,-0.090088,-18.203735,17.501831,-17.883301,0.98522506965363
0 days 00:00:10.870000,0.749512,0.61084,-0.09668,-16.418457,26.199339,-17.593384,0.9717205185360654
0 days 00:00:10.880000,0.688477,0.653076,-0.113037,9.361267,-24.04022,-1.464844,0.9556600884592806
0 days 00:00:10.890000,0.775879,0.647461,-0.375244,75.187683,-69.05365,17.112732,1.0779619792450936
0 days 00:00:10.900000,0.723877,0.689209,-0.151611,23.727415,-33.317566,0.991821,1.0109366212236057
0 days 00:00:10.910000,0.732666,0.634521,-0.419922,76.599121,-78.50647,20.973204,1.0562910834997141
0 days 00:00:10.920000,0.764404,0.629639,-0.416748,76.644897,-74.691772,21.675108,1.0744475980898278
0 days 00:00:10.930000,0.245361,0.131104,-0.702881,115.684502,-109.741203,-24.108885,0.7559312001088458
0 days 00:00:10.940000,0.261719,0.133789,-0.699463,119.064323,-110.183708,-3.02124,0.7587126068881418
0 days 00:00:10.950000,0.292725,0.196045,-0.706055,121.551506,-112.022392,8.758545,0.7890723862073745
0 days 00:00:10.960000,0.327393,0.262695,-0.716553,121.963493,-113.853447,8.026123,0.8304474945973406
0 days 00:00:10.970000,0.350098,0.301758,-0.716553,121.276848,-112.396233,5.455017,0.852686754897131
0 days 00:00:10.980000,0.39624,0.331055,-0.7229,121.917717,-108.200066,4.562378,0.8883625164452854
0 days 00:00:10.990000,0.454346,0.362061,-0.723633,121.734612,-103.157036,4.318237,0.9279887790948768
0 days 00:00:11,0.518066,0.410889,-0.703613,120.803825,-98.480217,2.63977,0.9655534187428472
0 days 00:00:11.010000,0.584961,0.462891,-0.68335,118.888847,-93.002312,-1.251221,1.0116395958551643
0 days 00:00:11.020000,0.634033,0.519775,-0.667725,113.395683,-85.861198,-6.385803,1.0573649187196443
0 days 00:00:11.030000,0.234863,0.155029,-0.697266,112.663261,-108.734123,-41.473385,0.7519138876001693
0 days 00:00:11.040000,0.635254,0.590576,-0.639404,91.438286,-76.080322,-12.229918,1.0775737243956907
0 days 00:00:11.050000,0.650879,0.570068,-0.662109,102.264397,-79.627991,-10.650634,1.089499575560266
0 days 00:00:11.060000,0.718994,0.683105,-0.415039,70.228577,-72.875977,8.163452,1.0751010113389348
0 days 00:00:11.070000,0.750244,0.701416,-0.449951,67.977905,-68.191528,6.500244,1.121296734585899
0 days 00:00:11.080000,0.774658,0.688721,-0.486328,70.663452,-67.199707,4.447937,1.14496574463562
0 days 00:00:11.090000,0.766357,0.648193,-0.516113,75.973511,-69.023132,2.838135,1.128640706986506
0 days 00:00:11.100000,0.716064,0.660889,-0.420166,73.257446,-77.209473,15.060424,1.0611603978536892
0 days 00:00:11.110000,0.672119,0.568604,-0.565186,81.794731,-73.646545,-5.020141,1.0461786050063344
0 days 00:00:11.120000,0.634033,0.561035,-0.5896,82.351677,-75.080872,-10.551452,1.0316909790794917
0 days 00:00:11.130000,0.624268,0.575195,-0.609619,85.037224,-75.469971,-12.550353,1.045081407838643
0 days 00:00:11.140000,0.728027,0.60376,-0.544922,80.329887,-71.464539,0.434875,1.0915536800418932
0 days 00:00:11.150000,-0.027588,0.028564,-0.929932,-29.136656,19.15741,17.372131,0.93077952516372
0 days 00:00:11.160000,0.018311,0.103027,-0.915771,-50.277706,46.31805,6.004333,0.9217301014347964
0 days 00:00:11.170000,0.025146,0.09375,-0.930664,-50.743099,45.494076,9.788513,0.9357119560591284
0 days 00:00:11.180000,0.03833,0.082764,-0.933594,-50.85754,43.586727,14.648437,0.9380388187234044
0 days 00:00:11.190000,0.038818,0.067139,-0.934326,-48.21777,39.726257,18.440247,0.9375390961026638
0 days 00:00:11.200000,0.036865,0.047119,-0.918213,-43.914791,34.919739,18.730164,0.9201599544399875
0 days 00:00:11.210000,0.032227,0.024414,-0.900635,-38.459778,31.089781,16.51001,0.9015420268351332
0 days 00:00:11.220000,0.01123,0.118164,-0.904053,-51.36108,47.851559,5.149841,0.911811751736618
0 days 00:00:11.230000,0.020264,0.008545,-0.895264,-32.722473,27.275084,14.48059,0.8955340732864383
0 days 00:00:11.240000,-0.008057,0.013672,-0.905273,-28.96118,22.933958,14.625548,0.905412084833199
0 days 00:00:11.250000,-0.012207,0.031006,-0.952637,-31.166075,17.295837,20.713804,0.9532196161714256
0 days 00:00:11.260000,0.090088,0.025146,-1.0271,5.561828,21.087645,9.971619,1.0313498819799223
0 days 00:00:11.270000,0.067871,-0.044678,-0.969971,-21.980284,20.698545,21.026609,0.9733685515599937
0 days 00:00:11.280000,0.09375,-0.0625,-0.98877,-10.375976,24.200438,20.103453,0.9951690436302769
0 days 00:00:11.290000,0.115479,-0.029053,-1.010498,0.053406,24.177549,15.785216,1.0174898939321215
0 days 00:00:11.300000,0.046143,0.085693,-1.023682,5.844116,20.317076,5.622863,1.0282982562573955
0 days 00:00:11.310000,0.039551,0.145508,-1.02417,4.058838,23.460386,2.494812,1.0352106300483008
0 days 00:00:11.320000,0.05835,0.177734,-1.039307,0.076294,29.380796,0.160217,1.056008114317783
0 days 00:00:11.330000,0.074463,0.184814,-1.068604,-5.294799,38.917542,-0.976562,1.087021371354308
0 days 00:00:11.340000,0.084961,0.175049,-1.101807,-11.650084,48.095699,-2.799988,1.118856196823792
0 days 00:00:11.350000,0.065918,0.182617,-1.097656,-20.622252,53.970333,-6.103515,1.1146940592597594
0 days 00:00:11.360000,0.01709,0.143066,-0.917236,-52.413937,52.360531,5.744934,0.9284836176002247
0 days 00:00:11.370000,0.030518,0.005371,-0.958008,-29.525755,17.501831,21.759031,0.9585090109273882
0 days 00:00:11.380000,0.04126,0.167725,-0.929932,-53.291317,59.364315,6.698608,0.9458369774168274
0 days 00:00:11.390000,-0.056641,0.187012,-1.004639,-43.388363,59.318539,-6.713867,1.0234652956236474
0 days 00:00:11.400000,0.12207,0.206055,-0.901855,-56.510921,72.570801,9.300232,0.933114242175094
0 days 00:00:11.410000,-0.004639,0.200684,-1.060303,-31.326292,57.243343,-7.476806,1.0791376371835057
0 days 00:00:11.420000,0.412842,0.369873,-0.694336,-56.65588,71.868896,-1.953125,0.8884520437192994
0 days 00:00:11.430000,0.408691,0.371094,-0.715088,-57.319637,72.105408,-0.068665,0.9033769634327632
0 days 00:00:11.440000,0.399658,0.376709,-0.735352,-58.311459,71.94519,0.259399,0.917811936917907
0 days 00:00:11.450000,0.383057,0.362305,-0.741211,-58.372494,71.57135,0.12207,0.9096105346767922
0 days 00:00:11.460000,0.366455,0.328857,-0.750732,-56.419369,70.4422,0.030518,0.8977943691614466
0 days 00:00:11.470000,0.360352,0.307373,-0.763916,-53.443905,69.953918,0.488281,0.8988322313363045
0 days 00:00:11.480000,0.356689,0.305176,-0.787354,-51.918026,70.472717,0.915527,0.9166710178755517
0 days 00:00:11.490000,0.345215,0.299805,-0.816406,-51.986691,72.105408,1.243591,0.9357217487511978
0 days 00:00:11.500000,0.32666,0.282471,-0.835205,-51.643368,73.0896,1.907349,0.9402467832787306
0 days 00:00:11.510000,0.307861,0.271484,-0.851563,-50.941463,72.631836,2.944946,0.9453261344879872
0 days 00:00:11.520000,0.291016,0.279297,-0.863037,-51.139828,72.158813,4.089355,0.9526436846135076
0 days 00:00:11.530000,0.287109,0.288086,-0.85498,-52.581783,72.639465,4.806519,0.9467924385402536
0 days 00:00:11.540000,0.29126,0.29126,-0.853027,-54.618832,73.883057,4.585266,0.9472696753981941
0 days 00:00:11.550000,0.294678,0.290771,-0.860596,-56.320187,76.004028,3.90625,0.9549912949032573
0 days 00:00:11.560000,0.293945,0.276611,-0.857666,-55.938717,77.156067,3.700256,0.9478967643694117
0 days 00:00:11.570000,0.281006,0.259521,-0.876465,-53.0014,76.965332,4.272461,0.9562982890824391
0 days 00:00:11.580000,0.245117,0.244141,-0.909912,-51.23138,75.958252,5.607605,0.9734613599491251
0 days 00:00:11.590000,0.207275,0.228271,-0.912354,-50.73547,73.776245,7.598876,0.963047452819434
0 days 00:00:11.600000,0.178467,0.213135,-0.892578,-50.781246,72.280884,9.567261,0.9348649551662529
0 days 00:00:11.610000,0.162842,0.207275,-0.879883,-52.192684,72.685242,10.925292,0.9185175753778476
0 days 00:00:11.620000,0.155029,0.212891,-0.880127,-54.351803,74.180603,11.268615,0.9186838982212544
0 days 00:00:11.630000,0.144287,0.214355,-0.891846,-56.419369,75.065613,10.742187,0.9285236088059367
0 days 00:00:11.640000,0.082275,0.188965,-0.924316,-54.862972,66.848755,7.881164,0.9470147911759351
0 days 00:00:11.650000,0.414307,0.387695,-0.672852,-56.076046,70.930481,-4.829407,0.8801633468726132
0 days 00:00:11.660000,-0.02124,-0.05835,-0.978516,-157.585144,96.839897,-11.466979,0.9804842795047762
0 days 00:00:11.670000,-0.129639,0.131836,-0.916992,-67.237854,58.944698,3.723144,0.9354471279986913
0 days 00:00:11.680000,-0.563721,-0.458252,-0.782715,-39.031982,72.067261,-11.444091,1.0679040371540882
0 days 00:00:11.690000,-0.575684,-0.408691,-0.74292,-41.587826,65.116882,-10.261535,1.0248758596713068
0 days 00:00:11.700000,-0.576904,-0.348877,-0.705078,-44.960018,57.258602,-11.047362,0.9755349160481135
0 days 00:00:11.710000,-0.574707,-0.322998,-0.698486,-45.967098,51.254269,-14.808654,0.9604678735121753
0 days 00:00:11.720000,-0.580811,-0.324951,-0.723145,-45.280453,47.386166,-17.601013,0.9827885129299182
0 days 00:00:11.730000,-0.609619,-0.352783,-0.704102,-42.8009,40.115356,-15.930175,0.9959170631402998
0 days 00:00:11.740000,-0.655029,-0.406982,-0.669678,-36.987305,27.458189,-11.993407,1.0213549641769994
0 days 00:00:11.750000,-0.682861,-0.449951,-0.636719,-29.991148,13.679503,-8.110046,1.0364198631264263
0 days 00:00:11.760000,-0.703125,-0.474365,-0.613037,-22.964476,1.678467,-3.746032,1.0465282042157298
0 days 00:00:11.770000,-0.099121,0.160889,-0.949951,-54.817196,59.30328,-2.27356,0.9685644766162963
0 days 00:00:11.780000,-0.540771,-0.48291,-0.81958,-37.704468,78.033447,-11.695861,1.0942333932671768
0 days 00:00:11.790000,-0.728027,-0.513428,-0.586914,-12.290954,-12.344359,5.096435,1.0668175417141397
0 days 00:00:11.800000,-0.746582,-0.532227,-0.571533,-1.266479,-21.430967,10.864257,1.0804166938464066
0 days 00:00:11.810000,-0.765137,-0.574219,-0.580811,7.026672,-25.68054,14.930724,1.119153030845648
0 days 00:00:11.820000,-0.779053,-0.618652,-0.61377,15.647887,-31.288145,21.003721,1.168917228384029
0 days 00:00:11.830000,-0.794678,-0.631836,-0.638184,23.15521,-37.322998,23.41461,1.199169993135252
0 days 00:00:11.840000,-0.809814,-0.629883,-0.665283,28.900145,-43.945309,21.682737,1.2227644001908136
0 days 00:00:11.850000,-0.788086,-0.63501,-0.708252,33.561707,-51.673885,16.166687,1.235288686502066
0 days 00:00:11.860000,-0.751953,-0.647949,-0.749268,39.031982,-59.028622,8.773804,1.243653390874644
0 days 00:00:11.870000,-0.735107,-0.655762,-0.769775,43.495174,-67.367554,4.516602,1.2501838475672287
0 days 00:00:11.880000,-0.703369,-0.638916,-0.759033,45.867916,-76.728821,4.91333,1.216171328516669
0 days 00:00:11.890000,-0.647217,-0.602295,-0.722656,44.319149,-84.419243,8.033752,1.1418760030975343
0 days 00:00:11.900000,-0.734863,-0.524658,-0.573486,-7.537841,-17.227173,8.590698,1.069661552982531
0 days 00:00:11.910000,-0.527832,-0.512939,-0.842285,-37.330627,82.290642,-7.942199,1.118551321652252
0 days 00:00:11.920000,-0.718994,-0.493164,-0.599365,-17.028809,-6.629943,0.923157,1.0580177248784635
0 days 00:00:11.930000,-0.644775,-0.688477,-0.925293,-50.392147,84.609978,0.053406,1.3213260445488086
0 days 00:00:11.940000,-0.565918,-0.608887,-0.882324,-41.213985,83.69445,-1.289368,1.212230259673879
0 days 00:00:11.950000,-0.124268,0.103027,-0.908936,-80.841057,63.850399,6.309509,0.9231585728622141
0 days 00:00:11.960000,-0.131836,0.067627,-0.919922,-93.002312,71.296692,6.942749,0.931778207573562
0 days 00:00:11.970000,-0.143799,0.034912,-0.929932,-100.639336,74.546814,9.605408,0.9416318414162723
0 days 00:00:11.980000,-0.159912,0.041992,-0.923828,-104.972832,73.738098,14.86206,0.9385059133495111
0 days 00:00:11.990000,-0.147949,0.113037,-0.92749,-109.809868,75.668335,15.602111,0.9459936416646785
0 days 00:00:12,-0.153076,0.119141,-0.952148,-121.421806,78.62854,12.046813,0.9717060530638882
0 days 00:00:12.010000,-0.143066,0.067627,-0.967773,-144.996643,84.136955,3.166198,0.9806252449401861
0 days 00:00:12.020000,-0.094238,0.014404,-0.963379,-151.641846,90.576164,-1.930237,0.9680843834609667
0 days 00:00:12.030000,-0.044678,-0.022949,-0.970459,-156.677246,95.764153,-7.377624,0.9717579178818149
