t,ax,ay,az,gx,gy,gz,acc_mag
0 days 00:01:06.180000,0.560059,0.25415,0.744385,0.526428,2.113342,0.396728,0.9655917016037369
0 days 00:01:06.190000,0.550537,0.254395,0.737305,-0.106812,2.593994,1.12915,0.9546865807263659
0 days 00:01:06.200000,0.560303,0.254639,0.727051,-1.091003,2.655029,1.991272,0.9525668631287779
0 days 00:01:06.210000,0.581787,0.250977,0.721436,-1.831055,2.220154,2.13623,0.9601747080578618
0 days 00:01:06.220000,0.588135,0.249268,0.727051,-2.433777,1.213074,2.052307,0.9678018757214721
0 days 00:01:06.230000,0.607666,0.264404,0.75415,-2.304077,-0.015259,1.113892,1.0039470430615351
0 days 00:01:06.240000,0.605957,0.26123,0.772217,-1.701355,0.0,0.236511,1.0157480464357291
0 days 00:01:06.250000,0.587646,0.252686,0.782959,-1.220703,1.670837,-0.274658,1.0110404698096906
0 days 00:01:06.260000,0.598389,0.258057,0.811768,-0.183105,2.906799,-0.724792,1.0409755503343967
0 days 00:01:06.270000,0.55835,0.264893,0.744629,1.88446,3.471374,-0.862122,0.9676752407652063
0 days 00:01:06.280000,0.601563,0.262939,0.795898,0.938415,3.173828,-0.823975,1.0317308695071596
0 days 00:01:06.290000,0.600586,0.284424,0.773926,3.807068,0.541687,-1.739502,1.020079412912544
0 days 00:01:06.300000,0.61377,0.287354,0.782959,5.622863,-1.937866,-2.410889,1.0355243743616083
0 days 00:01:06.310000,0.622314,0.282715,0.791748,7.690429,-4.478455,-3.608703,1.0459767594573983
0 days 00:01:06.320000,0.622803,0.274902,0.79834,9.666443,-6.141662,-5.081176,1.0491908510909729
0 days 00:01:06.330000,0.613281,0.273438,0.79541,11.398314,-7.080078,-5.798339,1.040941397440317
0 days 00:01:06.340000,0.601807,0.276367,0.785645,13.069152,-7.369995,-6.446838,1.027515668962279
0 days 00:01:06.350000,0.590088,0.267334,0.769287,14.381408,-6.950378,-7.080078,1.005720539548139
0 days 00:01:06.360000,0.585938,0.257813,0.750732,14.953612,-6.881713,-7.4234,0.986604996255847
0 days 00:01:06.370000,0.585938,0.256836,0.745117,14.98413,-7.095336,-7.484436,0.9820832013780706
0 days 00:01:06.380000,0.581787,0.24585,0.756348,14.587401,-7.385253,-7.270813,0.985383495382889
0 days 00:01:06.390000,0.603027,0.276855,0.772705,2.212524,2.326965,-1.335144,1.0185103194268579
0 days 00:01:06.400000,0.553223,0.267822,0.743896,2.655029,4.226685,-1.579285,0.9649692068812352
0 days 00:01:06.410000,0.586914,0.22876,0.756592,13.931273,-7.286071,-7.43103,0.9844951170320755
0 days 00:01:06.420000,0.556396,0.280029,0.738037,3.669739,3.608703,-2.571106,0.9657594747275328
0 days 00:01:06.430000,0.540771,0.293701,0.741455,0.38147,2.304077,-2.235413,0.9635606202346586
0 days 00:01:06.440000,0.542725,0.290283,0.750732,0.267029,2.372742,-2.098083,0.9707796771348275
0 days 00:01:06.450000,0.546631,0.282227,0.762939,0.282288,2.197266,-1.960754,0.9800680830488258
0 days 00:01:06.460000,0.556396,0.27417,0.772217,0.396728,1.525879,-2.128601,0.990487149237687
0 days 00:01:06.470000,0.558838,0.270264,0.77417,0.358582,0.465393,-2.14386,0.9923113064154817
0 days 00:01:06.480000,0.558105,0.266846,0.768066,0.083923,-0.25177,-2.326965,0.9862116198347087
0 days 00:01:06.490000,0.558594,0.273926,0.743164,3.303528,4.28009,-2.388,0.9692035086647179
0 days 00:01:06.500000,0.541992,0.267334,0.756104,0.358582,0.793457,-3.356933,0.9679442413879015
0 days 00:01:06.510000,0.536133,0.272705,0.750977,0.62561,2.487183,-3.662109,0.9621710166300999
0 days 00:01:06.520000,0.536377,0.271973,0.755615,1.12915,3.875732,-3.753662,0.9657244053470949
0 days 00:01:06.530000,0.540527,0.279785,0.764648,2.067566,5.149841,-3.791809,0.9773104153021188
0 days 00:01:06.540000,0.552979,0.263916,0.761475,0.0,-0.297546,-2.89154,0.9773850853793503
0 days 00:01:06.550000,0.550293,0.279785,0.776611,2.883911,6.149292,-3.730774,0.992081991266347
0 days 00:01:06.560000,0.550293,0.278564,0.785889,3.578186,6.17218,-3.555298,0.9990204243487717
0 days 00:01:06.570000,0.557373,0.278564,0.784668,4.188538,5.897521,-3.372192,1.0019812540407131
0 days 00:01:06.580000,0.566895,0.280762,0.770508,4.669189,5.584716,-3.532409,0.996935213408073
0 days 00:01:06.590000,0.566162,0.278076,0.760254,4.928589,5.058288,-3.547668,0.9878521228078624
0 days 00:01:06.600000,0.564209,0.281494,0.760498,5.195617,4.516602,-3.379822,0.9878906193101542
0 days 00:01:06.610000,0.567383,0.282959,0.751709,5.233764,4.440308,-3.639221,0.9833898947269084
0 days 00:01:06.620000,0.561279,0.284424,0.739502,5.0354,4.577637,-3.715515,0.9709759706712623
0 days 00:01:06.630000,0.562256,0.28418,0.73584,4.669189,4.318237,-3.295898,0.9686849784816527
0 days 00:01:06.640000,0.562012,0.282959,0.734375,4.043579,3.784179,-2.952575,0.967072864085225
0 days 00:01:06.650000,0.546387,0.293945,0.748291,1.251221,1.731872,-2.388,0.9720503266163744
0 days 00:01:06.660000,0.484619,-0.918213,1.310303,12.802123,13.511657,20.118711,1.6717848666437318
0 days 00:01:06.670000,0.453857,-0.87915,1.31665,3.944397,27.961729,23.902891,1.6469541953099363
0 days 00:01:06.680000,0.435791,-0.850586,1.289795,-5.981445,35.194397,28.495787,1.6052979415367106
0 days 00:01:06.690000,0.422119,-0.842041,1.213135,-14.86206,38.81073,32.524109,1.5358756538427845
0 days 00:01:06.700000,0.352295,-0.791504,0.633301,-30.2124,82.153313,41.427608,1.0731544649499436
0 days 00:01:06.710000,0.440918,-0.820801,0.974854,-25.375364,52.513119,37.208557,1.3485040918147042
0 days 00:01:06.720000,0.418701,-0.808838,0.879883,-26.725767,66.207886,39.344788,1.2663820637287944
0 days 00:01:06.730000,0.398438,-0.791992,0.77002,-27.656553,76.675415,40.985104,1.174280617360263
0 days 00:01:06.740000,0.417969,-0.832764,1.094971,-20.89691,43.17474,35.255432,1.4377605696005158
0 days 00:01:06.750000,0.543945,-0.946777,1.299316,18.569946,-9.086609,15.777587,1.6971991393498878
0 days 00:01:06.760000,0.256348,-1.032959,0.03125,-36.193848,-118.263237,-51.910397,1.064751217555068
0 days 00:01:06.770000,0.559326,-0.981934,1.191406,29.991148,-53.657528,4.03595,1.6420987215962382
0 days 00:01:06.780000,0.53418,-1.007568,1.036133,29.235838,-71.868896,-3.669739,1.540815738728353
0 days 00:01:06.790000,0.440674,-1.012207,0.840332,29.945372,-83.45031,-10.383605,1.3874128640563341
0 days 00:01:06.800000,0.446777,-1.034912,0.685547,26.596067,-89.027397,-16.288757,1.3193283233077353
0 days 00:01:06.810000,0.493652,-1.037598,0.53833,20.88928,-94.291679,-20.332335,1.2688975906699484
0 days 00:01:06.820000,0.549316,-1.041504,0.387695,13.298034,-102.615349,-22.53723,1.23967175611006
0 days 00:01:06.830000,0.61377,-1.049805,0.248047,3.204345,-115.875237,-24.696348,1.2411009085219462
0 days 00:01:06.840000,0.625488,-1.054688,0.159912,-8.491516,-129.524231,-31.166075,1.2365976965982106
0 days 00:01:06.850000,0.547363,-1.046143,0.119629,-18.165588,-136.680603,-38.948059,1.1867318685613022
0 days 00:01:06.860000,0.412842,-1.041748,0.089844,-26.268003,-132.957458,-46.173092,1.124166071718943
0 days 00:01:06.870000,0.307861,-0.815186,0.498047,-32.058716,83.007805,40.229794,1.003671970379765
0 days 00:01:06.880000,0.570313,-0.953857,1.268555,25.039671,-33.088684,10.398864,1.6865147145646253
0 days 00:01:06.890000,0.278809,-0.833496,0.377441,-33.035278,79.055786,38.063049,0.956510192824938
0 days 00:01:06.900000,0.234863,-0.819336,-0.195557,-43.80798,22.079466,15.998839,0.8744796452256621
0 days 00:01:06.910000,0.273682,-0.845703,0.192627,-39.039612,62.423702,32.371521,0.9095166642024762
0 days 00:01:06.920000,0.130127,-1.004395,-0.089844,-45.379635,-92.308037,-53.390499,1.01676658899179
0 days 00:01:06.930000,0.199951,-0.921143,-0.244141,-2.235413,-36.552429,-2.990722,0.9736989559052633
0 days 00:01:06.940000,0.188721,-0.918457,-0.208984,-6.721496,-28.503416,-0.793457,0.9606524808410167
0 days 00:01:06.950000,0.188477,-0.89917,-0.187744,-12.191772,-23.277281,0.930786,0.9376982872784828
0 days 00:01:06.960000,0.192627,-0.886719,-0.182373,-16.990662,-21.469114,2.868652,0.9255461399730431
0 days 00:01:06.970000,0.187744,-0.886963,-0.181885,-20.812986,-20.843504,5.485534,0.9246801209769787
0 days 00:01:06.980000,0.202881,-0.884766,-0.193848,-24.505613,-21.545408,7.972717,0.9281964350400189
0 days 00:01:06.990000,0.232422,-0.877686,-0.209229,-28.511045,-23.178099,10.169982,0.9317346591820013
0 days 00:01:07,0.254395,-0.858398,-0.215088,-31.791685,-23.468016,11.749267,0.9207751029285055
0 days 00:01:07.010000,0.264404,-0.842773,-0.224365,-33.02002,-20.217894,12.809752,0.9113262083195018
0 days 00:01:07.020000,0.274902,-0.841553,0.272461,-35.797119,71.815491,35.171509,0.9262923717347563
0 days 00:01:07.030000,0.27002,-0.837402,-0.234619,-35.209656,-12.512206,13.664245,0.9106036377947323
0 days 00:01:07.040000,0.270752,-0.816162,-0.224121,-41.465755,9.643555,14.465331,0.8886266248481417
0 days 00:01:07.050000,0.209473,-0.813477,-0.159424,-46.417233,33.828735,18.409729,0.8550086426662599
0 days 00:01:07.060000,0.210449,-0.799805,-0.132568,-48.46954,43.342587,20.790098,0.8375864697152169
0 days 00:01:07.070000,0.223877,-0.791016,-0.103271,-50.392147,49.446102,23.29254,0.8285482018724076
0 days 00:01:07.080000,0.261719,-0.789551,-0.076172,-52.436825,49.59869,25.650023,0.835278271084553
0 days 00:01:07.090000,0.322754,-0.804199,-0.056396,-54.550167,43.632504,27.305601,0.868381647049844
0 days 00:01:07.100000,0.367188,-0.809814,-0.028564,-56.610104,35.629272,28.305052,0.8896300602137948
0 days 00:01:07.110000,0.367188,-0.793701,0.041992,-53.512569,32.302856,27.923582,0.875529344344894
0 days 00:01:07.120000,0.318115,-0.811035,0.106445,-47.157284,38.421631,28.022764,0.877670474879382
0 days 00:01:07.130000,0.274658,-0.837402,0.14502,-42.320248,50.60577,29.930113,0.8931460837780122
0 days 00:01:07.140000,0.273926,-0.824707,-0.23877,-38.719177,-2.006531,14.167785,0.9012148479829879
0 days 00:01:07.150000,0.102783,-0.996094,-0.237793,-51.918026,-67.855835,-48.080441,1.0292293781145192
0 days 00:01:07.160000,0.212891,-0.916992,-0.256348,1.838684,-45.539852,-5.523681,0.975659368349938
0 days 00:01:07.170000,0.195557,-0.974854,-0.214355,-67.695618,-54.786678,-29.388426,1.0171189348301406
0 days 00:01:07.180000,0.405518,-0.318848,0.461182,-125.358574,58.830257,93.215935,0.6919521172393361
0 days 00:01:07.190000,0.487549,-0.311768,0.44873,-125.984184,53.12347,94.474785,0.7322990687724518
0 days 00:01:07.200000,0.5,-0.27124,0.439697,-124.90081,47.08099,96.565239,0.7189607704242283
0 days 00:01:07.210000,0.480225,-0.210938,0.446777,-123.832695,46.417233,99.990837,0.6889996939026896
0 days 00:01:07.220000,0.509277,-0.16626,0.45459,-124.64904,48.324581,99.96032,0.702607656113282
0 days 00:01:07.230000,0.556152,-0.124756,0.486816,-125.617973,52.688595,98.739616,0.7495724944900259
0 days 00:01:07.240000,0.586426,-0.077637,0.545166,-125.465385,56.426998,99.296562,0.8044432390175208
0 days 00:01:07.250000,0.654053,-0.037354,0.615967,-124.122612,54.023739,101.34124,0.8992196579334774
0 days 00:01:07.260000,0.750977,-0.015869,0.694824,-123.031609,43.899532,103.637688,1.0232295298055074
0 days 00:01:07.270000,0.842285,-0.006836,0.762939,-122.451775,25.131224,103.3554,1.1364711478264637
0 days 00:01:07.280000,0.372559,-0.325195,0.454834,-124.534599,58.0368,90.011589,0.6718824034472104
0 days 00:01:07.290000,0.912598,-0.003174,0.787354,-121.704094,2.410889,97.534172,1.2053097133915416
0 days 00:01:07.300000,0.871826,0.040039,0.799561,-121.948235,-29.525755,82.077019,1.1836306385515711
0 days 00:01:07.310000,0.906494,0.024658,0.801025,-126.525871,-45.860287,77.766418,1.2099505938777004
0 days 00:01:07.320000,0.926025,-0.001221,0.816895,-132.797241,-64.338684,72.624207,1.2348446187642395
0 days 00:01:07.330000,0.934082,0.055176,0.841064,-138.48114,-79.338074,67.825317,1.2581503192369343
0 days 00:01:07.340000,0.951416,0.095947,0.841309,-142.01355,-88.829033,59.272762,1.2736557876231709
0 days 00:01:07.350000,0.885986,0.131104,0.925049,-140.472412,-87.310783,49.858089,1.2875849888116124
0 days 00:01:07.360000,0.86792,0.184326,1.000732,-133.834839,-76.667786,42.472836,1.3374325166153245
0 days 00:01:07.370000,0.853027,0.205322,1.029785,-125.183098,-63.133236,34.27887,1.3528744703918394
0 days 00:01:07.380000,0.830078,0.195313,1.020264,-119.026176,-49.751278,27.839659,1.329704961165822
0 days 00:01:07.390000,0.85376,0.18335,1.002197,-116.317741,-39.886475,19.371033,1.3292562532894099
0 days 00:01:07.400000,0.898438,0.022461,0.791992,-120.887749,-16.067505,88.249199,1.197892593027021
0 days 00:01:07.410000,0.356201,-0.32666,0.42627,-125.198357,56.495663,87.181084,0.644431548654316
0 days 00:01:07.420000,0.14917,-0.996582,-0.294189,-59.379574,-55.999752,-37.986755,1.049749750819213
0 days 00:01:07.430000,0.27124,-0.399414,0.334229,-127.16674,60.363766,83.717339,0.5872066973706959
0 days 00:01:07.440000,0.20874,-0.950195,-0.082031,-74.806213,-57.502743,-23.277281,0.9763052855464832
0 days 00:01:07.450000,0.204346,-0.911865,0.044678,-81.665031,-58.578487,-20.614622,0.9355486035610336
0 days 00:01:07.460000,0.153564,-0.896484,0.126953,-85.266106,-52.703854,-21.049498,0.918358605644331
0 days 00:01:07.470000,0.056396,-0.906982,0.13916,-87.493889,-38.208008,-19.363403,0.9193271249887061
0 days 00:01:07.480000,-0.004883,-0.903809,0.07373,-89.782707,-20.378111,-14.686584,0.9068244951863619
0 days 00:01:07.490000,-0.001709,-0.899414,-0.004395,-93.597404,-6.240844,-11.123656,0.8994263616894939
0 days 00:01:07.500000,0.33252,-0.359619,0.384033,-126.731865,57.739254,85.548393,0.6223959516658186
0 days 00:01:07.510000,0.008545,-0.831787,-0.108154,-101.150505,6.950378,1.419067,0.8388324732090431
0 days 00:01:07.520000,0.01416,-0.804443,-0.040527,-104.86602,10.276793,9.147644,0.805587663496655
0 days 00:01:07.530000,0.048096,-0.754883,0.058838,-108.367912,11.253356,17.425537,0.7586985429991282
0 days 00:01:07.540000,0.101318,-0.728027,0.15625,-110.832207,8.842468,23.063658,0.751467040097568
0 days 00:01:07.550000,0.013672,-0.868652,-0.085449,-98.953239,2.220154,-6.263732,0.8729517468273947
0 days 00:01:07.560000,0.124512,-0.753662,0.192627,-109.184258,6.774902,26.473997,0.7877910950988213
0 days 00:01:07.570000,0.058838,-0.761719,0.162354,-108.932487,13.015746,29.71649,0.7810483765561517
0 days 00:01:07.580000,0.035645,-0.734375,0.124023,-111.556999,22.438047,33.042908,0.7456265225828544
0 days 00:01:07.590000,0.017578,-0.687744,0.084229,-115.020744,34.835815,37.345886,0.6931055619896582
0 days 00:01:07.600000,0.016602,-0.636475,0.055908,-120.353691,48.606869,42.480465,0.6391414213560251
0 days 00:01:07.610000,0.0271,-0.572266,0.076416,-123.504631,60.577389,49.903866,0.5779811327474281
0 days 00:01:07.620000,0.052734,-0.540527,0.091797,-127.220146,69.107056,59.799191,0.5507966972431843
0 days 00:01:07.630000,0.130859,-0.491455,0.133301,-131.698608,70.587158,67.558289,0.5257577878709929
0 days 00:01:07.640000,0.212891,-0.438477,0.212646,-131.965637,67.199707,72.776794,0.5317922326679847
0 days 00:01:07.650000,0.233643,-0.418457,0.285156,-128.341675,63.71307,78.88031,0.5576820390096852
0 days 00:01:07.660000,0.159912,-0.733887,0.196533,-111.190788,5.92041,24.780272,0.7763937123663482
0 days 00:01:07.670000,0.359131,-0.910156,-0.507568,-32.455444,-3.623962,-2.105713,1.1022632598980153
0 days 00:01:07.680000,0.362305,-0.906738,-0.542236,-22.91107,-12.725829,-3.921509,1.116896858875071
0 days 00:01:07.690000,0.369385,-0.888672,-0.562012,-13.175963,-22.239683,-6.530761,1.1144687927227932
0 days 00:01:07.700000,0.404297,-0.869141,-0.608154,-2.281189,-32.363892,-9.414673,1.1352151469241414
0 days 00:01:07.710000,0.458496,-0.856201,-0.86499,102.668755,-89.279167,-7.087707,1.3005792688325462
0 days 00:01:07.720000,0.480713,-0.883301,-0.728271,28.358458,-52.009579,-8.354187,1.241645800706063
0 days 00:01:07.730000,0.473389,-0.880859,-0.773193,50.468441,-62.881466,-5.91278,1.26405582885053
0 days 00:01:07.740000,0.478516,-0.856934,-0.803467,74.302673,-75.592041,-5.760192,1.2684134431253085
0 days 00:01:07.750000,0.44873,-0.868652,-0.662109,10.581969,-42.327877,-10.345458,1.1808061813375639
0 days 00:01:07.760000,0.354004,-0.900879,-0.45752,-42.373653,5.226135,-0.862122,1.0706196126808998
0 days 00:01:07.770000,0.498291,-0.745117,0.102783,-132.17926,23.803709,13.206481,0.9022514114474967
0 days 00:01:07.780000,0.364746,-0.859863,-0.375244,-62.232967,19.706726,2.479553,1.0065843644826797
0 days 00:01:07.790000,0.39209,-0.841553,-0.344971,-71.380615,23.582457,2.952575,0.990429710151104
0 days 00:01:07.800000,0.378906,-0.823242,-0.300049,-79.063416,29.624937,3.746032,0.9546342492289914
0 days 00:01:07.810000,0.322266,-0.815674,-0.25293,-84.556572,39.024353,5.691528,0.9127721697838953
0 days 00:01:07.820000,0.323486,-0.811768,-0.218994,-91.941826,50.025936,6.912231,0.9008711617406787
0 days 00:01:07.830000,0.344482,-0.795166,-0.189941,-99.57885,58.197018,8.178711,0.8871495924369238
0 days 00:01:07.840000,0.363037,-0.789063,-0.15625,-105.545036,60.69183,9.658813,0.8825136507941392
0 days 00:01:07.850000,0.386963,-0.793457,-0.107422,-111.305229,57.388302,11.070251,0.8892996459585487
0 days 00:01:07.860000,0.42041,-0.794678,-0.042236,-118.400566,48.21014,12.809752,0.9000230949703458
0 days 00:01:07.870000,0.461426,-0.772461,0.022461,-126.060478,35.217285,14.114379,0.9000635791531618
0 days 00:01:07.880000,0.419434,-0.836426,-0.881592,136.016846,-107.00988,-10.490417,1.2855884988191206
0 days 00:01:07.890000,0.35376,-0.880615,-0.414551,-52.444454,13.618468,0.671387,1.0356068015545283
0 days 00:01:07.900000,0.4375,-0.79126,-0.856934,170.783981,-130.523682,-13.442992,1.245726502068572
0 days 00:01:07.910000,-0.063721,-1.409912,0.581055,-11.497497,-70.121765,21.766661,1.5262821254964627
0 days 00:01:07.920000,0.50415,-0.773193,-0.896484,245.422348,-163.772568,-13.893126,1.2867315959457124
0 days 00:01:07.930000,0.486572,-0.728516,0.186035,-135.421753,18.852234,11.192321,0.8955986236395186
0 days 00:01:07.940000,0.239746,-0.393799,0.383301,4.188538,99.967949,-1.785278,0.599562718585804
0 days 00:01:07.950000,0.264648,-0.616455,0.59082,36.2854,177.22319,1.13678,0.8939371361169642
0 days 00:01:07.960000,0.585938,-0.814209,0.712646,43.869015,215.591415,-1.937866,1.2304974428421214
0 days 00:01:07.970000,1.049561,-0.901855,0.741211,33.454895,186.248764,-11.383056,1.5698135176724017
0 days 00:01:07.980000,1.27124,-0.910889,0.770508,25.80261,104.057304,-19.40918,1.743402559934165
0 days 00:01:07.990000,1.174805,-0.93335,0.779297,18.302917,11.383056,-32.424927,1.6907432758210221
0 days 00:01:08,0.697266,-0.902832,0.727783,9.223938,-52.337643,-43.876644,1.3531273369749797
0 days 00:01:08.010000,0.037842,-0.932617,0.605713,2.571106,-73.188782,-45.249935,1.1126970495251616
0 days 00:01:08.020000,-0.316406,-1.004639,0.445557,2.464294,-75.546265,-38.68866,1.1436491233791946
0 days 00:01:08.030000,0.489746,-0.784668,-0.896729,208.274826,-151.878357,-13.97705,1.2882848730700054
0 days 00:01:08.040000,-0.175781,-1.043945,0.255371,-0.099182,-96.588127,-26.05438,1.0890061848433183
0 days 00:01:08.050000,-0.050537,-1.760498,0.164063,-15.205382,-140.144348,15.007018,1.7688481744745645
0 days 00:01:08.060000,-0.060059,-0.977539,1.110596,3.219604,83.57238,-7.339477,1.480747465038519
0 days 00:01:08.070000,0.101563,0.159424,0.871094,58.181759,224.807724,-44.219967,0.8913673830587476
0 days 00:01:08.080000,0.537842,1.62915,1.518066,-36.758423,249.832138,32.684326,2.2908356815406905
0 days 00:01:08.090000,2.64209,1.357422,6.633789,-146.217346,94.429008,-57.685848,7.268451729956318
0 days 00:01:08.100000,2.682617,2.560059,4.767578,151.054382,-73.83728,-65.917969,6.039878809897927
0 days 00:01:08.110000,0.336914,-0.582764,0.128662,249.992355,-126.991264,-38.162231,0.6853311851477356
0 days 00:01:08.120000,0.298584,-0.380615,0.049561,249.824509,-152.366638,-25.123594,0.48628846994556635
0 days 00:01:08.130000,0.327393,-0.527832,-0.419189,249.626144,-164.619431,-15.335082,0.7493411869062049
0 days 00:01:08.140000,0.421875,-0.686523,-0.746826,249.992355,-167.083725,-13.137816,1.0986543675924654
0 days 00:01:08.150000,-0.070068,-1.341553,0.11377,-10.437011,-130.783081,-2.952575,1.348190487035493
0 days 00:01:08.160000,0.489502,-0.235352,0.360596,-39.611816,25.627134,-6.29425,0.6519449724662351
0 days 00:01:08.170000,0.433105,-0.721436,0.241455,-133.666992,24.177549,11.497497,0.8754143933852128
0 days 00:01:08.180000,0.441406,-0.738281,0.277588,-130.889893,50.292965,13.09204,0.9038546285443251
0 days 00:01:08.190000,0.520752,-1.777588,0.469971,64.575195,36.651611,8.842468,1.9109878293932172
0 days 00:01:08.200000,0.648438,-1.340576,-0.010498,55.511471,141.242981,-46.997066,1.4892031626423574
0 days 00:01:08.210000,1.859375,-0.250244,0.615479,-64.483643,100.471489,-17.89856,1.974515598723393
0 days 00:01:08.220000,2.131104,2.342529,5.637695,-178.810104,-90.240471,-90.164177,6.46627027641762
0 days 00:01:08.230000,3.142578,3.169434,7.500732,37.124634,-121.582024,-190.788254,8.728235153927969
0 days 00:01:08.240000,-0.790283,0.497314,-0.165527,249.992355,-142.799377,-78.483582,0.9482972226121934
0 days 00:01:08.250000,0.146729,-0.417725,-0.259033,249.992355,-154.73938,-66.604614,0.5129538674725048
0 days 00:01:08.260000,0.164551,-0.467773,-0.518555,249.748215,-171.577438,-55.282589,0.7174872118407407
0 days 00:01:08.270000,0.240723,-0.543457,-0.80835,249.664291,-174.96489,-48.59161,1.003355767451406
0 days 00:01:08.280000,0.241455,-0.7229,-1.086426,242.416367,-160.499573,-38.017273,1.3271045100145655
0 days 00:01:08.290000,0.293945,-1.715088,0.256104,23.078917,-55.793758,23.330687,1.7588404616635926
0 days 00:01:08.300000,0.303467,-0.767334,-1.003662,197.586044,-154.258728,-36.117554,1.2993194749133101
0 days 00:01:08.310000,0.338623,-0.73584,-0.727051,119.1101,-136.024475,-25.451658,1.0884526624203736
0 days 00:01:08.320000,0.38208,-0.737549,-0.649658,89.37072,-117.34771,-24.353025,1.0545231959350159
0 days 00:01:08.330000,0.381592,-0.787842,-0.629639,66.818237,-96.839897,-23.094175,1.0783101324521625
0 days 00:01:08.340000,0.383789,-0.825195,-0.59375,48.263546,-83.290092,-21.514891,1.086636943530819
0 days 00:01:08.350000,0.378174,-0.849609,-0.536133,33.798218,-76.560974,-19.889832,1.0734475398667602
0 days 00:01:08.360000,0.334229,-0.876953,-0.43335,23.239134,-72.593689,-17.562866,1.0337058629755371
0 days 00:01:08.370000,0.282227,-0.895264,-0.334961,16.151428,-68.534851,-15.090941,0.9966687417321766
0 days 00:01:08.380000,0.249023,-0.915283,-0.28125,10.864257,-62.728878,-11.924743,0.9893720165428168
0 days 00:01:08.390000,0.228027,-0.91748,-0.26416,6.393432,-54.756161,-8.346558,0.9816039775433879
0 days 00:01:08.400000,0.401367,-0.739502,0.270752,-130.683899,37.010193,13.137816,0.883892143984208
0 days 00:01:08.410000,0.29541,-0.762939,-0.864014,155.265808,-147.05658,-31.074522,1.1899004908045883
0 days 00:01:08.420000,0.127441,-1.313965,-0.19458,-7.255554,-72.868347,-4.852295,1.3343937222971338
0 days 00:01:08.430000,0.224854,-0.638672,-1.029785,249.992355,-168.579086,-43.510433,1.2324440722097696
0 days 00:01:08.440000,0.032959,-0.922363,0.211914,35.53772,19.439697,-13.122558,0.94696744550486
0 days 00:01:08.450000,0.170654,-0.904541,-0.13501,15.457152,-32.814026,-10.673522,0.9303466603890187
0 days 00:01:08.460000,0.489746,-0.701904,0.324463,-126.884453,71.69342,15.48767,0.9153123008574724
0 days 00:01:08.470000,0.550537,-0.683594,0.425293,-125.40435,79.689026,15.808105,0.9753286015769249
0 days 00:01:08.480000,0.595215,-0.62915,0.575928,-119.628899,84.854118,16.304016,1.0400979184235493
0 days 00:01:08.490000,0.571045,-0.599365,0.725586,-106.50634,86.372368,17.684937,1.1008205297168108
0 days 00:01:08.500000,0.574463,-0.568848,0.811523,-90.469353,77.62146,19.302368,1.145497867742232
0 days 00:01:08.510000,0.618652,-0.516602,0.789795,-75.958252,50.117489,22.697447,1.1284432043895696
0 days 00:01:08.520000,0.687988,-0.460693,0.711426,-66.421509,4.570007,27.801512,1.091646683624789
0 days 00:01:08.530000,0.908936,-0.397461,0.610107,-57.106014,-49.46899,25.535582,1.1646331826227518
0 days 00:01:08.540000,1.01001,-0.436768,0.468506,-41.603085,-99.517815,16.273499,1.195986771649252
0 days 00:01:08.550000,0.876709,-0.537842,0.436523,-26.94702,-130.195618,4.768372,1.117338362884762
0 days 00:01:08.560000,0.475342,-0.717773,0.28125,-129.547119,61.576839,13.839721,0.9056763544407019
0 days 00:01:08.570000,0.355225,-0.668213,0.507324,-22.636412,-112.243645,-17.791748,0.9110823535608622
0 days 00:01:08.580000,0.66626,-0.632813,0.449951,-23.208616,-133.583069,-9.056091,1.0231376168287432
0 days 00:01:08.590000,0.148926,-0.780029,0.789063,45.715328,28.488157,-34.912109,1.1194840830873836
0 days 00:01:08.600000,0.507324,-0.857422,0.863281,41.259762,17.196655,-35.194397,1.3182580217927748
0 days 00:01:08.610000,0.777344,-0.891846,0.821777,36.346436,35.217285,-31.753538,1.440475761608296
0 days 00:01:08.620000,0.821777,-0.802002,0.824219,32.608032,74.073792,-27.465818,1.4134573236196415
0 days 00:01:08.630000,-0.071045,-0.884033,0.541992,43.617245,40.52734,-25.154112,1.039383021401639
0 days 00:01:08.640000,0.279297,-0.726074,0.893066,19.386292,64.208984,-6.271362,1.1843804912446845
0 days 00:01:08.650000,0.047852,-0.727783,0.784424,10.246276,3.059387,-6.04248,1.0711110683626606
0 days 00:01:08.660000,0.090332,-0.655518,0.647461,-6.187438,-63.781734,-13.22174,0.9257804626740619
0 days 00:01:08.670000,0.627197,-0.729492,0.883301,27.404783,91.796867,-16.601563,1.3060456774071878
0 days 00:01:08.680000,0.321777,-0.642822,0.38208,20.202635,-7.469177,-26.44348,0.8140919406387708
0 days 00:01:08.690000,0.619141,-0.548584,0.417969,-0.686645,-27.374266,-23.658751,0.9268106969052526
0 days 00:01:08.700000,0.626465,-0.561279,0.395264,1.518249,-27.130125,-24.856565,0.9293686791376176
0 days 00:01:08.710000,0.627197,-0.591064,0.365479,3.211975,-32.707214,-26.855467,0.9361130425039489
0 days 00:01:08.720000,0.598877,-0.625244,0.336426,2.792358,-43.815609,-28.427122,0.9288520733362229
0 days 00:01:08.730000,0.561768,-0.632813,0.310303,1.457214,-57.53326,-28.556822,0.9012899259405932
0 days 00:01:08.740000,0.508301,-0.652588,0.29834,0.617981,-65.505981,-27.801512,0.8793450744417689
0 days 00:01:08.750000,0.617432,-0.551758,0.43042,-2.403259,-30.662535,-23.078917,0.9332312369332694
0 days 00:01:08.760000,0.425781,-0.662109,0.30249,2.822876,-59.93652,-26.725767,0.8433136948621195
0 days 00:01:08.770000,0.36084,-0.65918,0.322754,9.19342,-39.382935,-26.168821,0.8178593537497753
0 days 00:01:08.780000,0.322266,-0.630371,0.488281,36.148071,31.143187,-28.038023,0.8600240155704956
0 days 00:01:08.790000,0.513916,-0.9104,0.211914,72.669983,71.495056,-32.211304,1.0666983446373206
0 days 00:01:08.800000,0.518555,-0.677734,0.661377,70.014954,90.019218,-33.363342,1.0796491091600084
0 days 00:01:08.810000,0.653564,-0.768555,0.606689,79.116821,90.034477,-31.669615,1.1772400914180592
0 days 00:01:08.820000,0.676514,-0.854004,0.447998,80.314629,78.773499,-32.875061,1.1780051919308334
0 days 00:01:08.830000,0.408936,-0.985352,0.001709,56.411739,60.317989,-28.144835,1.0668411956242598
0 days 00:01:08.840000,0.401367,-1.039795,-0.15918,37.42981,19.515991,-28.533934,1.125880714424934
0 days 00:01:08.850000,0.436523,-1.126709,-0.45874,8.117676,-69.740295,-21.263121,1.2924658168825973
0 days 00:01:08.860000,0.443848,-1.51709,-0.719727,-19.454956,-177.291855,2.990722,1.7368275877970731
0 days 00:01:08.870000,0.317383,-2.10376,-0.48877,-14.320373,-233.787521,3.944397,2.182987452824454
0 days 00:01:08.880000,-0.018311,-1.763428,0.050049,-1.953125,-199.951157,12.504577,1.7642331213039848
0 days 00:01:08.890000,0.628174,-0.55127,0.442383,-3.479004,-34.225464,-22.972105,0.945623553992285
0 days 00:01:08.900000,0.398438,-0.636719,0.604004,54.306026,68.252563,-31.784056,0.9638385532966608
0 days 00:01:08.910000,0.655273,-0.541504,0.453369,-4.348755,-36.705017,-22.605894,0.9634068386232267
0 days 00:01:08.920000,-0.218506,-0.961182,0.706787,-14.09912,-56.900021,22.293089,1.2129153196035576
0 days 00:01:08.930000,0.672607,-0.533691,0.440674,-0.892639,-32.89032,-20.797728,0.9651009450860567
0 days 00:01:08.940000,0.606201,-0.615234,0.080078,-1.38855,-73.036194,-26.672361,0.8674128274593361
0 days 00:01:08.950000,0.585693,-0.606201,0.072998,-4.898071,-73.448181,-25.650023,0.8460760312489652
0 days 00:01:08.960000,0.557861,-0.602539,0.071777,-9.361267,-70.770264,-24.971006,0.8242657821182438
0 days 00:01:08.970000,0.539795,-0.587891,0.10376,-12.237548,-64.285278,-24.871824,0.8048357643059857
0 days 00:01:08.980000,0.514893,-0.583252,0.131592,-12.863158,-53.245541,-25.016783,0.789059029108089
0 days 00:01:08.990000,0.502686,-0.582275,0.1604,-12.199401,-38.81073,-24.963377,0.7857897620998888
0 days 00:01:09,0.508057,-0.572998,0.207275,-10.231017,-23.696898,-24.475096,0.7933546173546858
0 days 00:01:09.010000,0.523438,-0.556885,0.258789,-6.721496,-9.597778,-23.574827,0.8068952779574311
0 days 00:01:09.020000,0.553467,-0.544189,0.292725,-3.288269,2.098083,-22.430418,0.8295512723364362
0 days 00:01:09.030000,0.591064,-0.53125,0.318848,-0.724792,11.161803,-21.339415,0.8562985820962219
0 days 00:01:09.040000,0.67334,-0.532471,0.452637,-3.952026,-36.026001,-21.545408,0.9704598782072343
0 days 00:01:09.050000,0.614746,-0.519531,0.346924,1.045227,17.150879,-20.790098,0.8764595633872677
0 days 00:01:09.060000,0.652344,-0.517334,0.435303,5.455017,17.753601,-21.026609,0.9395083095433483
0 days 00:01:09.070000,0.665771,-0.525146,0.4646,8.369446,14.190673,-21.812437,0.9668932235552177
0 days 00:01:09.080000,0.675049,-0.526855,0.491943,11.100768,9.170532,-23.338316,0.9875602557186067
0 days 00:01:09.090000,0.655273,-0.535645,0.501953,13.366698,3.715515,-24.307249,0.9839995349404388
0 days 00:01:09.100000,0.655029,-0.548828,0.499756,13.816833,-1.724243,-24.765013,0.9899652640173795
0 days 00:01:09.110000,0.667969,-0.557129,0.49292,13.47351,-7.064819,-24.79553,0.9997726911663471
0 days 00:01:09.120000,0.676025,-0.568115,0.472412,12.596129,-13.038634,-24.261473,1.001467698727223
0 days 00:01:09.130000,0.668213,-0.573975,0.450684,11.131286,-19.081116,-23.139952,0.9894806626963459
0 days 00:01:09.140000,0.667725,-0.562256,0.443115,8.628845,-24.29199,-22.163389,0.9789481030095517
0 days 00:01:09.150000,0.666748,-0.542969,0.438477,4.386902,-28.770445,-21.110533,0.965209982332342
0 days 00:01:09.160000,0.631836,-0.512451,0.392334,2.845764,18.959045,-20.851133,0.9031880899641005
0 days 00:01:09.170000,0.020508,0.05542,1.40918,60.630795,163.032516,-43.205257,1.410418458069803
0 days 00:01:09.180000,0.606201,-0.62207,0.071777,2.63977,-69.587708,-27.8244,0.8715518774175178
0 days 00:01:09.190000,1.213379,1.217529,5.092529,-156.532288,186.187729,-44.876095,5.374803910778793
0 days 00:01:09.200000,0.353271,-0.815186,-0.292725,-87.081902,39.726257,12.947082,0.9354231874729213
0 days 00:01:09.210000,0.389404,-0.810303,-0.269287,-95.069878,41.229244,13.687133,0.9384785108855715
0 days 00:01:09.220000,0.409668,-0.796143,-0.224121,-102.241508,41.870113,13.206481,0.922985248697941
0 days 00:01:09.230000,0.424072,-0.784912,-0.176025,-109.420769,44.05975,11.856078,0.9093452092318957
0 days 00:01:09.240000,0.433105,-0.77124,-0.146484,-117.530815,47.33276,10.612487,0.896576065306787
0 days 00:01:09.250000,0.452637,-0.746094,-0.10498,-126.777641,50.537106,8.842468,0.8789523940493024
0 days 00:01:09.260000,0.455566,-0.726074,-0.059082,-134.002686,52.192684,7.873535,0.859194108776358
0 days 00:01:09.270000,0.466553,-0.727783,-0.032715,-140.388489,51.376339,7.980346,0.8651069691795344
0 days 00:01:09.280000,0.50415,-0.724609,0.010498,-146.347046,49.133297,7.369995,0.8827998829774503
0 days 00:01:09.290000,0.528076,-0.704834,0.064209,-150.291443,49.484249,5.851745,0.8830504091007488
0 days 00:01:09.300000,0.318848,-0.808594,-0.306641,-78.987122,34.77478,11.787414,0.9216924686797653
0 days 00:01:09.310000,0.502197,-0.693848,0.118652,-150.352478,56.182858,4.91333,0.8646994686114939
0 days 00:01:09.320000,0.483643,-0.684082,0.210938,-148.445129,77.735901,5.477905,0.8639291487251718
0 days 00:01:09.330000,0.481201,-0.678711,0.269287,-146.682739,85.083,7.118225,0.8744818536087526
0 days 00:01:09.340000,0.492676,-0.657227,0.365234,-142.494202,89.530937,7.789611,0.8989287209011624
0 days 00:01:09.350000,0.484619,-0.627441,0.489746,-135.231018,90.5075,9.368896,0.9318738799633779
0 days 00:01:09.360000,0.532715,-0.614746,0.62915,-126.098625,82.344048,12.573241,1.028361628144983
0 days 00:01:09.370000,0.671143,-0.634033,0.796387,-118.9804,58.227535,15.197753,1.2192879173136262
0 days 00:01:09.380000,0.806396,-0.673096,0.876709,-110.893242,20.271299,14.61029,1.3681927513011463
0 days 00:01:09.390000,0.835449,-0.634766,0.843262,-100.654594,-15.716552,10.765075,1.346103156151489
0 days 00:01:09.400000,0.760498,-0.481689,0.717285,-89.065544,-32.981873,5.050659,1.1510340012136913
0 days 00:01:09.410000,0.681396,-0.286377,0.53125,-72.822571,-21.995543,-4.081726,0.91024109852555
0 days 00:01:09.420000,0.486572,-0.697754,0.171875,-149.467468,66.963196,4.402161,0.8678444395886857
0 days 00:01:09.430000,0.318848,-0.818359,-0.32251,-70.671082,26.390074,10.017395,0.9356218253573395
0 days 00:01:09.440000,0.025391,1.892334,1.898438,104.99572,249.992355,21.568296,2.680604318112056
0 days 00:01:09.450000,0.320068,-0.886963,-0.383057,-52.589413,8.537292,7.240295,1.0177816825046517
0 days 00:01:09.460000,4.557861,3.446777,6.693115,31.562803,-40.420528,-112.487785,8.80069071074964
0 days 00:01:09.470000,0.384277,-0.222656,0.427734,249.992355,-165.76384,-60.119625,0.6166043154414345
0 days 00:01:09.480000,0.382568,-0.436035,0.00415,249.992355,-194.099411,-49.110409,0.5800879401857963
0 days 00:01:09.490000,0.435303,-0.468506,-0.325928,249.740585,-212.341293,-40.740963,0.717785229040693
0 days 00:01:09.500000,0.487305,-0.594971,-0.671387,249.80162,-219.44426,-34.500122,1.0208903749350366
0 days 00:01:09.510000,0.538574,-0.718262,-0.858398,249.992355,-219.43663,-31.166075,1.2420987805017762
0 days 00:01:09.520000,0.530518,-0.788086,-0.942139,201.766953,-192.192062,-30.189512,1.3379666614086465
0 days 00:01:09.530000,0.459961,-0.835693,-1.010742,165.534958,-158.958435,-30.807493,1.3898008139060791
0 days 00:01:09.540000,0.479736,-0.855469,-1.026611,130.996704,-127.830498,-30.273436,1.4198253360811675
0 days 00:01:09.550000,0.509033,-0.8396,-0.971191,98.014824,-105.720512,-27.870176,1.3810339291885627
0 days 00:01:09.560000,0.570313,-0.760986,-0.917236,241.477951,-212.913498,-28.991697,1.3212412686035053
0 days 00:01:09.570000,0.496094,-0.85791,-0.823975,47.119137,-79.101563,-20.03479,1.2888186938281894
0 days 00:01:09.580000,0.52124,-0.844727,-0.918945,70.175171,-90.332024,-24.200438,1.3526694922093867
0 days 00:01:09.590000,0.348145,-0.904053,-0.409668,-36.628723,-5.142211,1.770019,1.051829186730431
0 days 00:01:09.600000,0.351074,-0.906494,-0.430176,-29.167173,-9.307861,-0.953674,1.0630313807635219
0 days 00:01:09.610000,0.339355,-0.904785,-0.454102,-21.263121,-14.175414,-3.40271,1.0677107935457053
0 days 00:01:09.620000,0.336182,-0.89624,-0.48584,-13.420104,-21.354673,-5.928039,1.0734546941180145
0 days 00:01:09.630000,0.320557,-0.906006,-0.399902,-43.777462,0.87738,4.989624,1.0409251999490645
0 days 00:01:09.640000,0.327881,-0.882813,-0.564453,3.219604,-42.816158,-11.19995,1.0979398582522633
0 days 00:01:09.650000,0.396973,-0.881592,-0.639648,13.71765,-55.763241,-15.014647,1.1592849438757498
0 days 00:01:09.660000,0.459961,-0.870117,-0.719727,28.404234,-68.03894,-17.51709,1.219292692399573
0 days 00:01:09.670000,0.322998,-0.88916,-0.525635,-5.203247,-30.822752,-8.239746,1.0822316604262692
0 days 00:01:09.680000,0.328369,-0.849854,-0.350586,-61.721798,16.876221,8.506775,0.9762113320756935
0 days 00:01:09.690000,0.793701,-0.356689,0.446045,5.020141,0.732422,-7.865905,0.9778263967325693
0 days 00:01:09.700000,0.75293,-0.278564,0.424561,-2.426147,34.53064,-6.286621,0.9081594186688811
0 days 00:01:09.710000,0.772217,-0.294189,0.427734,-0.663757,35.308838,-3.944397,0.9304959094837548
0 days 00:01:09.720000,0.828369,-0.294434,0.422363,0.671387,33.302307,-3.265381,0.975334344871542
0 days 00:01:09.730000,0.861816,-0.287598,0.408691,1.495361,28.442381,-3.631592,0.9962267618072705
0 days 00:01:09.740000,0.866211,-0.304688,0.398926,1.88446,23.490904,-2.845764,1.0011484541969786
0 days 00:01:09.750000,0.889404,-0.310791,0.393066,2.082825,18.39447,-3.570556,1.020848373292038
0 days 00:01:09.760000,0.906982,-0.315918,0.396973,1.327515,12.145995,-5.638122,1.0392343786543052
0 days 00:01:09.770000,0.895508,-0.324463,0.416748,0.953674,6.103515,-8.049011,1.0396584592725633
0 days 00:01:09.780000,0.847656,-0.338623,0.434814,2.487183,2.098083,-9.025574,1.0110635217734838
0 days 00:01:09.790000,0.698975,-0.452637,0.223877,43.17474,-0.541687,-2.883911,0.8623034358756783
0 days 00:01:09.800000,0.799072,-0.407959,0.444824,13.603209,8.69751,-2.990722,1.0014065097856115
0 days 00:01:09.810000,0.804199,-0.395996,0.427002,16.921997,16.746521,-2.738952,0.992914684965934
0 days 00:01:09.820000,0.810303,-0.366943,0.398193,20.26367,25.321959,-1.853943,0.9745746673841876
0 days 00:01:09.830000,0.867432,-0.362305,0.368408,23.620604,25.55084,-0.999451,1.0096670946965638
0 days 00:01:09.840000,0.920654,-0.37915,0.32251,27.038572,16.113281,-3.234863,1.0465998329428492
0 days 00:01:09.850000,0.884033,-0.378174,0.266113,29.449461,5.706787,-5.447387,0.9976703103400442
0 days 00:01:09.860000,0.828613,-0.368408,0.22998,31.829832,-1.502991,-6.721496,0.9355291329686104
0 days 00:01:09.870000,0.759033,-0.361572,0.210938,36.643982,-3.242492,-6.278991,0.8668103864842646
0 days 00:01:09.880000,0.697754,-0.400635,0.204346,41.336056,-1.304626,-4.188538,0.8301363354636394
0 days 00:01:09.890000,0.777832,-0.27002,0.409668,-5.363464,32.096863,-8.69751,0.9196528099494938
0 days 00:01:09.900000,0.780029,-0.376465,0.447998,7.225036,0.976562,-5.691528,0.9751273481294636
0 days 00:01:09.910000,0.793457,-0.273926,0.380859,-7.8125,30.662535,-9.597778,0.9217716865938116
0 days 00:01:09.920000,0.783691,-0.442627,0.428467,-6.484985,29.693602,-17.402649,0.9968320895210989
0 days 00:01:09.930000,0.797119,-0.305664,0.360107,-6.538391,29.747007,-12.878417,0.926556114062176
0 days 00:01:09.940000,0.856934,-0.539551,0.485596,34.477234,78.559875,9.69696,1.1230559367961153
0 days 00:01:09.950000,0.837158,-0.584229,0.503418,36.102295,80.505363,7.377624,1.1382384302636246
0 days 00:01:09.960000,0.825928,-0.633301,0.51709,35.018921,78.369141,5.111694,1.1621571691836694
0 days 00:01:09.970000,0.826416,-0.670898,0.523682,31.562803,70.983887,2.258301,1.1863011289651544
0 days 00:01:09.980000,0.828125,-0.687988,0.522705,27.305601,60.325619,-0.526428,1.196803668441069
0 days 00:01:09.990000,0.816895,-0.684326,0.520508,22.796629,48.866268,-3.242492,1.185979803101638
0 days 00:01:10,0.802002,-0.679932,0.512207,18.165588,38.795471,-6.752014,1.1695600640740944
0 days 00:01:10.010000,0.773438,-0.663086,0.498779,14.343261,32.409668,-9.918213,1.1343147156239313
0 days 00:01:10.020000,0.739746,-0.650635,0.483398,10.467528,29.403685,-12.245177,1.0973712562961542
0 days 00:01:10.030000,0.731201,-0.628662,0.462646,6.622314,29.663084,-14.595031,1.069538280736599
0 days 00:01:10.040000,0.80127,-0.279785,0.360596,-7.835388,30.609129,-10.864257,0.9221403007899612
0 days 00:01:10.050000,0.709473,-0.591553,0.44165,3.509521,32.600403,-16.189575,1.0238855463566228
0 days 00:01:10.060000,0.738525,-0.484375,0.432129,-3.425598,33.943176,-16.723633,0.9832465554940938
0 days 00:01:10.070000,0.728516,-0.472656,0.250488,44.982906,-1.747131,-2.700805,0.9038160735105346
0 days 00:01:10.080000,0.807617,-0.425781,0.41748,-9.132385,23.780821,-18.218994,1.0039044919961262
0 days 00:01:10.090000,0.812988,-0.406738,0.414063,-10.765075,18.959045,-18.714905,0.9989161410033377
0 days 00:01:10.100000,0.831787,-0.393555,0.403076,-11.398314,14.892577,-20.278929,1.0046021168452715
0 days 00:01:10.110000,0.832764,-0.369873,0.397705,-10.57434,14.373778,-22.514341,0.9942188807551383
0 days 00:01:10.120000,0.803955,-0.356201,0.395264,-8.506775,17.601013,-21.873472,0.964083203941444
0 days 00:01:10.130000,0.792725,-0.376953,0.393311,-7.064819,20.751951,-19.683838,0.961873189435593
0 days 00:01:10.140000,0.783447,-0.378906,0.390381,-5.737304,24.04785,-17.39502,0.9538114508675182
0 days 00:01:10.150000,0.783691,-0.348389,0.374756,-5.371093,27.252195,-14.900207,0.935942593505606
0 days 00:01:10.160000,0.698242,-0.540039,0.429932,0.045776,34.858704,-16.410828,0.9818480211870878
0 days 00:01:10.170000,0.748291,-0.459717,0.264648,47.401424,-2.174377,-2.120972,0.9172337241259723
0 days 00:01:10.180000,0.794434,-0.397949,0.44873,10.086059,3.52478,-3.784179,0.9954131804718079
0 days 00:01:10.190000,0.734863,-0.439697,0.246338,48.896786,-2.960205,-0.907898,0.891088935416662
0 days 00:01:10.200000,0.927734,-0.481445,0.026367,24.986265,-41.183468,-1.853943,1.045550037764812
0 days 00:01:10.210000,0.919922,-0.494141,0.05127,20.965574,-44.158932,-5.470275,1.0454953021726114
0 days 00:01:10.220000,0.914307,-0.506836,0.074707,17.669678,-46.363827,-8.132935,1.048055894021879
0 days 00:01:10.230000,0.932129,-0.525391,0.101074,15.174865,-48.950191,-10.627746,1.074763289751748
0 days 00:01:10.240000,0.960205,-0.5354,0.123047,13.290404,-52.223202,-13.313293,1.106249233325836
0 days 00:01:10.250000,0.975342,-0.545898,0.152832,12.504577,-54.992672,-16.166687,1.1281197913306902
0 days 00:01:10.260000,0.982422,-0.568359,0.183838,12.825011,-55.732723,-19.264221,1.1497744775428789
0 days 00:01:10.270000,0.988037,-0.59668,0.208984,13.038634,-54.76379,-22.590635,1.1729955021333203
0 days 00:01:10.280000,0.985352,-0.605225,0.234619,12.725829,-53.665157,-25.863646,1.1799414984184597
0 days 00:01:10.290000,0.957764,-0.611572,0.299805,12.298583,-54.794308,-31.173704,1.1752511343985166
0 days 00:01:10.300000,0.912354,-0.465332,0.023438,29.579161,-36.514282,1.792908,1.0244379099701455
0 days 00:01:10.310000,0.943604,-0.615479,0.325439,13.198852,-58.029171,-33.821106,1.1726523146175938
0 days 00:01:10.320000,0.880371,-0.608154,0.362793,13.832091,-69.404602,-38.291931,1.129833238228545
0 days 00:01:10.330000,0.838867,-0.607178,0.373779,14.297484,-75.630188,-40.145874,1.1009421911317596
0 days 00:01:10.340000,0.788818,-0.616699,0.356689,15.571593,-79.727173,-41.313168,1.0629104084757097
0 days 00:01:10.350000,0.749023,-0.630127,0.31958,16.197205,-80.375664,-41.969296,1.0296731845872262
0 days 00:01:10.360000,0.685547,-0.637695,0.273682,15.899657,-77.11792,-41.297909,0.9754647299405551
0 days 00:01:10.370000,0.624268,-0.645752,0.227539,14.785766,-71.632385,-39.138794,0.9265420540099624
0 days 00:01:10.380000,0.601318,-0.649658,0.183838,12.847899,-65.834045,-37.155151,0.9041212663863183
0 days 00:01:10.390000,0.591309,-0.644287,0.137451,10.147094,-62.644955,-34.454346,0.8852371711869086
0 days 00:01:10.400000,0.591797,-0.628662,0.095947,6.858825,-64.781189,-30.517576,0.8687033016295035
0 days 00:01:10.410000,0.747803,-0.405518,0.222168,50.834652,-3.692627,-0.068665,0.8792114622529668
0 days 00:01:10.420000,0.908203,-0.611816,0.344482,14.030456,-62.973019,-36.003113,1.1479631332882603
0 days 00:01:10.430000,0.890625,-0.446289,0.033203,34.507751,-31.517027,4.78363,0.9967392845448603
0 days 00:01:10.440000,0.969482,-0.608643,0.264893,12.20703,-53.329464,-28.556822,1.1749510420532423
0 days 00:01:10.450000,0.826904,-0.394287,0.094971,41.473385,-24.711607,9.925842,0.9210059470090298
0 days 00:01:10.460000,0.859619,-0.423828,0.054443,38.764954,-27.580259,7.492065,0.9599682489509744
0 days 00:01:10.470000,0.763428,-0.397461,0.147461,54.13055,2.716064,-2.189636,0.873236682822017
0 days 00:01:10.480000,0.754395,-0.39502,0.11377,51.74255,5.554199,-2.471924,0.8591252698675556
0 days 00:01:10.490000,0.768066,-0.396973,0.07666,47.637936,3.669739,-0.785828,0.8679802409530991
0 days 00:01:10.500000,0.770264,-0.414551,0.063721,42.762753,-0.808716,1.235962,0.8770516103046615
0 days 00:01:10.510000,0.766846,-0.433838,0.103271,37.834167,-2.548218,2.731323,0.8870924965306606
0 days 00:01:10.520000,0.771973,-0.431396,0.14624,34.255981,-1.861572,4.943848,0.8963431034737758
0 days 00:01:10.530000,0.7771,-0.422607,0.183838,32.974243,-0.015259,7.316589,0.9034807671959598
0 days 00:01:10.540000,0.792236,-0.419922,0.206299,31.524656,2.212524,8.68988,0.9200715424253704
0 days 00:01:10.550000,0.827148,-0.401855,0.220459,29.518126,3.211975,8.926392,0.9456550246310755
0 days 00:01:10.560000,0.845947,-0.386963,0.226807,28.541563,1.556396,9.185791,0.9575009688908936
0 days 00:01:10.570000,0.8479,-0.383789,0.224121,28.213499,-1.365662,9.83429,0.9573184575479572
0 days 00:01:10.580000,0.763428,-0.391846,0.188477,53.535458,-1.663208,-0.610352,0.8785722385945278
0 days 00:01:10.590000,0.797607,-0.369873,0.134521,43.113705,-22.644041,11.665343,0.889426141969641
0 days 00:01:10.600000,0.835205,-0.391602,0.212891,29.762266,-6.91986,10.32257,0.9467006371129154
0 days 00:01:10.610000,0.821533,-0.393311,0.209961,31.044004,-8.041382,10.612487,0.9347158040447374
0 days 00:01:10.620000,0.813721,-0.391357,0.209229,32.661438,-8.56781,11.352538,0.926865115176421
0 days 00:01:10.630000,0.815186,-0.383789,0.212891,34.729004,-9.44519,11.665343,0.9258211430929842
0 days 00:01:10.640000,0.814697,-0.374756,0.214844,37.078857,-10.795592,11.985778,0.9221340497351781
0 days 00:01:10.650000,0.802246,-0.359619,0.222656,39.291382,-12.580871,12.5885,0.9069179477841421
0 days 00:01:10.660000,0.794189,-0.351807,0.218994,41.526791,-15.457152,12.870788,0.8958028270808259
0 days 00:01:10.670000,0.785889,-0.355469,0.196533,43.42651,-18.203735,12.7182,0.8846496201157834
0 days 00:01:10.680000,0.783447,-0.356201,0.170166,43.746944,-20.51544,12.382506,0.8772826350532649
0 days 00:01:10.690000,0.843262,-0.38623,0.219238,28.778074,-4.493713,10.231017,0.9530633316773863
0 days 00:01:10.700000,0.332031,-0.75293,0.437988,47.569271,-17.791748,36.079407,0.9321918568647766
0 days 00:01:10.710000,0.334229,-0.758057,0.416992,46.95892,-18.547058,34.77478,0.9274921928264409
0 days 00:01:10.720000,0.349121,-0.752686,0.401367,47.134396,-20.957945,34.40094,0.9216925495662857
0 days 00:01:10.730000,0.361816,-0.747559,0.409668,47.813412,-23.826597,35.102844,0.9260578527073781
0 days 00:01:10.740000,0.346924,-0.739014,0.546631,39.169312,-21.65222,38.108826,0.982498551720561
0 days 00:01:10.750000,0.392334,-0.73877,0.486572,47.729488,-25.909422,36.338806,0.967708319505418
0 days 00:01:10.760000,0.384766,-0.735596,0.520752,45.883175,-23.826597,37.460327,0.979963772532434
0 days 00:01:10.770000,0.364746,-0.737549,0.539551,42.556759,-21.77429,38.05542,0.9839377284757405
0 days 00:01:10.780000,0.354492,-0.740234,0.458252,48.606869,-19.958496,37.651062,0.9400031108054908
0 days 00:01:10.790000,0.377441,-0.744385,0.44751,48.416134,-26.008604,35.690308,0.9470142220716646
0 days 00:01:10.800000,0.384277,-0.722168,0.470703,49.911495,-24.177549,38.787842,0.9437991031792731
0 days 00:01:10.810000,0.378662,-0.685303,0.407471,55.938717,-22.979734,44.494625,0.882642468893266
0 days 00:01:10.820000,0.427246,-0.701416,0.470947,52.37579,-33.706665,39.146423,0.9467389430994164
0 days 00:01:10.830000,0.414063,-0.69165,0.465088,53.565975,-35.545349,39.749146,0.9306636009928615
0 days 00:01:10.840000,0.396484,-0.682129,0.444092,54.550167,-33.546448,41.069027,0.9053823719075824
0 days 00:01:10.850000,0.388672,-0.681152,0.416504,55.061337,-28.96118,42.121883,0.8879806037881683
0 days 00:01:10.860000,0.377686,-0.697754,0.397461,55.984493,-17.799377,47.760006,0.8874021667953037
0 days 00:01:10.870000,0.402588,-0.695068,0.386475,55.320736,-15.647887,50.796505,0.8913806975658605
0 days 00:01:10.880000,0.424072,-0.66626,0.400635,55.061337,-15.693664,54.00848,0.8855776939427732
0 days 00:01:10.890000,0.449951,-0.644775,0.415771,54.13055,-18.157959,56.373592,0.8894134176337796
0 days 00:01:10.900000,0.483643,-0.633057,0.425293,52.37579,-22.628782,57.640072,0.9030757734249103
0 days 00:01:10.910000,0.489014,-0.625977,0.444336,51.269527,-26.405333,59.211727,0.9101738172574512
0 days 00:01:10.920000,0.410889,-0.708496,0.477295,51.261898,-29.21295,39.161682,0.947948769376278
0 days 00:01:10.930000,0.282471,-0.713135,0.598389,38.017273,-26.603697,39.428711,0.9728416054975239
0 days 00:01:10.940000,0.477783,-0.630127,0.46167,50.125118,-28.045652,61.164852,0.9156832531601744
0 days 00:01:10.950000,0.320557,-0.654053,0.629883,43.67828,-59.67712,42.427059,0.9629614274450456
0 days 00:01:10.960000,0.300049,-0.699707,0.469238,-1.098633,-13.168334,-7.026672,0.8943173871137695
0 days 00:01:10.970000,0.303711,-0.696533,0.47168,-1.228333,-10.124206,-5.294799,0.8943604497125306
0 days 00:01:10.980000,0.335205,-0.666016,0.494385,0.816345,-9.895325,-3.585815,0.8946263088608563
0 days 00:01:10.990000,0.364502,-0.651855,0.495605,4.760742,-12.268065,-1.869202,0.89632637195053
0 days 00:01:11,0.381592,-0.645996,0.49585,9.132385,-16.693115,0.259399,0.8993278095222009
0 days 00:01:11.010000,0.393555,-0.654785,0.48999,12.657165,-22.109983,2.14386,0.9075897390065623
0 days 00:01:11.020000,0.368896,-0.673584,0.472656,14.98413,-25.756834,3.746032,0.9017778874024357
0 days 00:01:11.030000,0.3125,-0.687256,0.468018,16.372681,-25.55847,6.393432,0.8882667999311918
0 days 00:01:11.040000,0.286865,-0.693359,0.466797,16.067505,-23.185728,8.750916,0.8837067784706644
0 days 00:01:11.050000,0.294434,-0.682861,0.477295,15.792846,-19.78302,9.719849,0.8836294713860556
0 days 00:01:11.060000,0.205322,-0.663086,0.644775,42.228695,-44.93713,42.66357,0.9474043316900128
0 days 00:01:11.070000,0.290527,-0.672607,0.485352,14.755248,-16.365051,10.69641,0.8788473576691233
0 days 00:01:11.080000,0.298584,-0.657227,0.512451,11.940001,-10.665893,14.556884,0.8852715752728085
0 days 00:01:11.090000,0.329834,-0.658691,0.521484,11.421203,-10.597228,17.326355,0.9025574016609692
0 days 00:01:11.100000,0.364258,-0.639893,0.53833,13.031005,-13.366698,20.927427,0.9121108106546046
0 days 00:01:11.110000,0.387451,-0.612549,0.546387,16.63208,-18.005371,25.459288,0.9076746711079912
0 days 00:01:11.120000,0.402344,-0.592285,0.551758,22.521971,-22.964476,29.319761,0.9039464066663466
0 days 00:01:11.130000,0.381592,-0.608154,0.570801,30.441282,-23.384092,32.13501,0.9172118205632764
0 days 00:01:11.140000,0.360107,-0.700195,0.556641,31.829832,-19.645691,32.646179,0.9642610084178453
0 days 00:01:11.150000,0.404053,-0.774414,0.506592,25.123594,-17.364502,31.745909,1.009758052539815
0 days 00:01:11.160000,0.482422,-0.659424,0.525879,31.616209,-25.039671,32.417297,0.9716582323538457
0 days 00:01:11.170000,0.419678,-0.579102,0.726563,41.397091,-48.59161,38.009644,1.0195011245982026
0 days 00:01:11.180000,0.288818,-0.662598,0.497803,13.229369,-13.160705,12.252807,0.8776444459671582
0 days 00:01:11.190000,0.306152,-0.696777,0.468262,-1.052856,-17.044067,-8.476257,0.893586333533028
0 days 00:01:11.200000,0.486572,-0.637207,0.46167,48.912045,-28.213499,61.584469,0.9251617485245486
0 days 00:01:11.210000,0.483154,-0.641846,0.467041,47.889706,-23.857115,63.323971,0.929263886693656
0 days 00:01:11.220000,0.573975,-0.521973,0.273193,-70.56427,-22.056578,30.479429,0.8225190141285489
0 days 00:01:11.230000,0.538818,-0.508789,0.289063,-72.8302,-15.884398,31.028746,0.7954549023131355
0 days 00:01:11.240000,0.516357,-0.491943,0.315674,-74.249268,-6.568908,31.631468,0.7799247021180955
0 days 00:01:11.250000,0.503418,-0.468018,0.338623,-74.111938,4.005432,32.409668,0.7662480454637389
0 days 00:01:11.260000,0.503418,-0.438721,0.357178,-72.990417,13.732909,33.432007,0.7572858920176712
0 days 00:01:11.270000,0.520508,-0.413574,0.369141,-71.418762,20.774839,33.912659,0.760419035414685
0 days 00:01:11.280000,0.535645,-0.399414,0.379395,-69.30542,24.29199,34.805298,0.7683668885669137
0 days 00:01:11.290000,0.543701,-0.390137,0.395508,-66.177368,25.314329,36.476135,0.7773314828527145
0 days 00:01:11.300000,0.556152,-0.384277,0.404541,-61.897274,25.482176,37.528992,0.7877990102265933
0 days 00:01:11.310000,0.570557,-0.383301,0.404053,-57.243343,26.618956,37.528992,0.7973166081670442
0 days 00:01:11.320000,0.609131,-0.536377,0.25708,-68.153381,-25.199888,30.609129,0.8513700650657151
0 days 00:01:11.330000,0.572021,-0.378906,0.410156,-52.12402,30.326841,36.92627,0.7993783369675462
0 days 00:01:11.340000,0.581299,-0.366211,0.423096,-39.253235,43.945309,36.651611,0.8068638355621103
0 days 00:01:11.350000,0.626221,-0.358154,0.419922,-31.639097,51.055904,35.705566,0.83472241771801
0 days 00:01:11.360000,0.683594,-0.355469,0.41748,-23.79608,56.732174,33.760071,0.8763267182946096
0 days 00:01:11.370000,0.741455,-0.355225,0.423096,-15.579223,61.225887,31.112669,0.9246353567033871
0 days 00:01:11.380000,0.795166,-0.357422,0.431396,-7.225036,64.926147,28.19824,0.972698289530726
0 days 00:01:11.390000,0.843262,-0.363525,0.436279,1.319885,67.428589,25.016783,1.0166516572110627
0 days 00:01:11.400000,0.878662,-0.385986,0.438477,9.292603,69.18335,21.759031,1.0551275666804465
0 days 00:01:11.410000,0.904297,-0.41333,0.444824,16.990662,70.701599,18.257141,1.0892488898709054
0 days 00:01:11.420000,0.897705,-0.446777,0.454834,24.375914,72.83783,15.075683,1.1010712612315336
0 days 00:01:11.430000,0.875732,-0.490479,0.470459,30.71594,75.561523,12.565612,1.1085160603013382
0 days 00:01:11.440000,0.566162,-0.373291,0.418701,-46.31805,36.643982,36.705017,0.7969919123341215
0 days 00:01:11.450000,0.632568,-0.553223,0.234375,-64.964294,-26.840208,31.883238,0.8724274198911908
0 days 00:01:11.460000,0.490234,-0.641113,0.467529,48.027035,-26.428221,61.752316,0.9327050012549519
0 days 00:01:11.470000,0.661865,-0.59375,0.200684,-54.733273,-29.167173,36.598206,0.9115253197695607
0 days 00:01:11.480000,0.498535,-0.645752,0.443115,47.775265,-22.766111,65.536499,0.9283769142724305
0 days 00:01:11.490000,0.532471,-0.654297,0.418945,46.966549,-24.681089,67.466736,0.9418836674850032
0 days 00:01:11.500000,0.571045,-0.668701,0.413818,45.585629,-28.739927,68.725586,0.9718532587536043
0 days 00:01:11.510000,0.597656,-0.674561,0.406006,44.212337,-33.462524,69.656372,0.9884665442456816
0 days 00:01:11.520000,0.607422,-0.672119,0.399902,42.091366,-37.124634,70.4422,0.990266148996824
0 days 00:01:11.530000,0.622803,-0.67627,0.380615,39.230347,-39.604187,70.968628,0.9950339029068307
0 days 00:01:11.540000,0.648193,-0.572754,0.212402,-60.325619,-27.519224,34.118652,0.8906828388203065
0 days 00:01:11.550000,0.69165,-0.713135,0.337402,31.402586,-44.616695,68.832397,1.0491812809657823
0 days 00:01:11.560000,0.693848,-0.730225,0.333496,27.664183,-46.905514,67.41333,1.0610717128191667
0 days 00:01:11.570000,0.689697,-0.733887,0.335449,24.253843,-50.010677,67.420959,1.0615074715606103
0 days 00:01:11.580000,0.70459,-0.725098,0.339355,20.881651,-54.862972,67.337036,1.0664783137640448
0 days 00:01:11.590000,0.656738,-0.689941,0.354736,35.369873,-41.862484,70.663452,1.016445283240077
0 days 00:01:11.600000,0.748779,-0.71167,0.318115,12.527465,-66.291809,64.079285,1.0808983916011718
0 days 00:01:11.610000,0.760254,-0.692871,0.28418,7.408142,-70.022583,61.180111,1.0671525849460328
0 days 00:01:11.620000,0.757568,-0.671875,0.24585,1.274109,-71.395874,57.060238,1.042001685578771
0 days 00:01:11.630000,0.743408,-0.665527,0.205322,-5.950927,-69.801331,52.566525,1.0186946381899729
0 days 00:01:11.640000,0.708984,-0.672363,0.171875,-13.389586,-66.238403,49.110409,0.9921044963359454
0 days 00:01:11.650000,0.658447,-0.682129,0.156982,-20.881651,-61.332699,46.539303,0.9609868744025591
0 days 00:01:11.660000,0.630371,-0.686279,0.150391,-28.19824,-54.206844,45.097347,0.9439088496051936
0 days 00:01:11.670000,0.616455,-0.677734,0.150146,-35.316467,-45.684811,44.410702,0.9283770586873632
0 days 00:01:11.680000,0.63208,-0.655762,0.162842,-42.358395,-38.589478,42.5415,0.9252385876129464
0 days 00:01:11.690000,0.660645,-0.622559,0.184326,-48.995968,-32.943726,39.520264,0.926286995904617
0 days 00:01:11.700000,0.728027,-0.72168,0.339111,17.082214,-61.103817,66.078186,1.0797414530571658
0 days 00:01:11.710000,0.519531,-0.666016,0.419922,-14.73236,-25.688169,-8.895874,0.9433049656929618
0 days 00:01:11.720000,0.502197,-0.659668,0.405518,-15.426635,-25.039671,-8.010864,0.9229347459907444
0 days 00:01:11.730000,0.487305,-0.65918,0.384521,-14.091491,-25.009153,-7.415771,0.9054506253054332
0 days 00:01:11.740000,0.484863,-0.653564,0.380127,-11.665343,-25.100706,-6.988525,0.8981840384876587
0 days 00:01:11.750000,0.490479,-0.595459,0.297363,-20.179747,-21.194456,-10.589599,0.8267803964118887
0 days 00:01:11.760000,0.493164,-0.63916,0.362305,-12.96997,-22.140501,-5.752563,0.8848735217651165
0 days 00:01:11.770000,0.480225,-0.620605,0.344727,-15.281676,-20.195005,-6.156921,0.8570900309646589
0 days 00:01:11.780000,0.482666,-0.601318,0.320068,-17.814636,-19.973755,-8.270264,0.8348612635066979
0 days 00:01:11.790000,0.494873,-0.648926,0.374756,-11.360168,-24.452208,-6.385803,0.8980235515514056
0 days 00:01:11.800000,0.532471,-0.679932,0.420898,-13.862609,-26.908873,-9.613037,0.9607226534588429
0 days 00:01:11.810000,0.471436,-0.663086,0.412842,-9.712219,-19.050598,-6.980896,0.9123450347626165
0 days 00:01:11.820000,0.541992,-0.6875,0.413086,-13.404845,-30.250547,-10.025024,0.9680142671779172
0 days 00:01:11.830000,0.538818,-0.678955,0.418457,-13.565063,-31.486509,-9.780884,0.9625024623334738
0 days 00:01:11.840000,0.525879,-0.675049,0.416992,-13.671874,-31.196592,-9.57489,0.951904513649347
0 days 00:01:11.850000,0.499268,-0.67627,0.412842,-13.839721,-29.624937,-8.872986,0.9365084973923088
0 days 00:01:11.860000,0.490234,-0.667725,0.419189,-13.687133,-28.07617,-7.987976,0.9283886406575642
0 days 00:01:11.870000,0.497314,-0.654053,0.418945,-13.328551,-26.954649,-7.446289,0.922291415134067
0 days 00:01:11.880000,0.498291,-0.646729,0.425049,-12.603759,-25.451658,-7.293701,0.9204449861469179
0 days 00:01:11.890000,0.493896,-0.651367,0.420898,-12.283324,-23.880003,-7.255554,0.9194386080152389
0 days 00:01:11.900000,0.488037,-0.651611,0.421631,-11.71112,-22.468565,-7.17163,0.9168149807082125
0 days 00:01:11.910000,0.486816,-0.656494,0.420898,-10.780334,-21.057127,-7.034301,0.9193091516437765
0 days 00:01:11.920000,0.50415,-0.594727,0.258057,-22.575377,-24.101255,-12.931823,0.821255649769303
0 days 00:01:11.930000,0.539307,-0.686035,0.417969,-13.267516,-28.648375,-10.032654,0.9675712616830865
0 days 00:01:11.940000,0.536865,-0.602539,0.215088,-24.566648,-27.359007,-15.373229,0.8351886747855242
0 days 00:01:11.950000,0.591797,-0.769287,0.248291,-46.394344,11.016845,-8.987427,1.0018356143894067
0 days 00:01:11.960000,0.602051,-0.623291,0.183838,-29.174803,-32.531738,-19.248962,0.885863131373013
0 days 00:01:11.970000,0.448242,-0.666992,0.409424,-8.232117,-16.044617,-6.538391,0.9019020070961147
0 days 00:01:11.980000,0.578369,-0.663574,0.143799,-30.197142,-6.469726,-8.255005,0.8919188898313568
0 days 00:01:11.990000,0.587158,-0.668457,0.142578,-29.533384,-3.364563,-7.537841,0.9010647945053674
0 days 00:01:12,0.604248,-0.667969,0.138672,-28.511045,-1.197815,-6.286621,0.9113331740088254
0 days 00:01:12.010000,0.626709,-0.669434,0.140381,-27.496336,-0.450134,-5.187988,0.9276922313989698
0 days 00:01:12.020000,0.643066,-0.681396,0.147461,-27.137754,-1.625061,-4.318237,0.9484614571467835
0 days 00:01:12.030000,0.647461,-0.693359,0.164551,-27.725218,-3.875732,-3.974914,0.9628237019324981
0 days 00:01:12.040000,0.640381,-0.702637,0.17627,-29.418943,-5.615234,-4.760742,0.9668803916876171
0 days 00:01:12.050000,0.611816,-0.721924,0.17749,-32.402039,-5.798339,-5.424499,0.9628062005055846
0 days 00:01:12.060000,0.579834,-0.743164,0.19165,-35.751343,-3.845215,-5.828857,0.9618887258680184
0 days 00:01:12.070000,0.570313,-0.615234,0.189697,-26.298521,-29.922483,-17.486572,0.8600899630468896
0 days 00:01:12.080000,0.557861,-0.754639,0.215088,-38.482666,-0.62561,-6.561279,0.9627833418718875
0 days 00:01:12.090000,0.556152,-0.765137,0.241699,-43.479916,8.331299,-7.6828,0.9762981524483184
0 days 00:01:12.100000,0.646484,-0.77124,0.266602,-49.98016,9.32312,-11.215209,1.041071239762198
0 days 00:01:12.110000,0.699951,-0.772705,0.292969,-52.825924,3.913879,-14.10675,1.0829751864133361
0 days 00:01:12.120000,0.728027,-0.759766,0.297607,-54.565426,-4.188538,-16.662598,1.0935436040387234
0 days 00:01:12.130000,0.75293,-0.735107,0.296875,-55.007931,-13.534545,-19.668579,1.093352940259457
0 days 00:01:12.140000,0.75415,-0.705811,0.283936,-53.054806,-22.552488,-22.239683,1.0712287534961895
0 days 00:01:12.150000,0.72876,-0.683838,0.266602,-49.285885,-28.976439,-23.223875,1.0343124161722124
0 days 00:01:12.160000,0.692383,-0.66626,0.236572,-44.708248,-32.531738,-23.094175,0.9895771407389117
0 days 00:01:12.170000,0.656738,-0.647461,0.211914,-39.070129,-34.263611,-22.216795,0.9462653383491335
0 days 00:01:12.180000,0.626709,-0.631592,0.197021,-33.531189,-34.164429,-20.881651,0.9113121855796728
0 days 00:01:12.190000,0.548828,-0.762939,0.231201,-40.985104,3.723144,-7.133483,0.96785432463052
0 days 00:01:12.200000,0.572998,-0.658691,0.143799,-30.532835,-9.498596,-8.659363,0.884804325196255
0 days 00:01:12.210000,0.431885,-0.663574,0.409424,-6.996154,-13.084411,-5.844116,0.8913378251129029
0 days 00:01:12.220000,0.442383,-0.650391,0.417725,-5.767822,-9.498596,-5.584716,0.8906207650818614
0 days 00:01:12.230000,0.527344,-0.68457,0.39917,-16.616821,-11.184691,-21.369932,0.9518741871360943
0 days 00:01:12.240000,0.524414,-0.674805,0.41333,-15.182494,-10.421752,-21.629332,0.9493226639667884
0 days 00:01:12.250000,0.517578,-0.666016,0.420654,-12.901305,-9.483337,-21.598814,0.9425572057206926
0 days 00:01:12.260000,0.51001,-0.669189,0.417969,-10.917663,-9.048462,-21.232603,0.9394797511293153
0 days 00:01:12.270000,0.500732,-0.688721,0.416016,-9.605408,-9.101868,-20.904539,0.9477016745374043
0 days 00:01:12.280000,0.484619,-0.705811,0.415283,-8.926392,-9.887695,-20.095823,0.9515696049007661
0 days 00:01:12.290000,0.473877,-0.720703,0.420166,-8.94928,-11.032104,-19.241333,0.9594330059436146
0 days 00:01:12.300000,0.459229,-0.734131,0.424072,-9.346008,-11.444091,-18.997192,0.964197417952361
0 days 00:01:12.310000,0.42627,-0.748779,0.427734,-9.780884,-10.940551,-18.264771,0.9619420348945148
0 days 00:01:12.320000,0.4104,-0.758301,0.45166,-10.635375,-11.344909,-15.464782,0.9733680301925886
0 days 00:01:12.330000,0.5354,-0.693115,0.392578,-16.746521,-11.436461,-21.255491,0.9597807298070742
0 days 00:01:12.340000,0.40918,-0.741455,0.462158,-9.735107,-12.46643,-13.694762,0.964766192602643
0 days 00:01:12.350000,0.42041,-0.717773,0.469971,-7.987976,-13.572692,-11.58142,0.9554137263353505
0 days 00:01:12.360000,0.438232,-0.71582,0.472656,-8.079529,-15.830993,-11.83319,0.9632493200412862
0 days 00:01:12.370000,0.451172,-0.71582,0.477539,-7.843017,-19.477844,-12.306212,0.9715955652971044
0 days 00:01:12.380000,0.451416,-0.707031,0.478271,-7.125854,-23.139952,-12.641906,0.9656150317067356
0 days 00:01:12.390000,0.440186,-0.699951,0.478271,-5.859375,-26.05438,-12.702941,0.9552163453574274
0 days 00:01:12.400000,0.418945,-0.704102,0.468262,-4.249573,-27.915953,-12.451171,0.9436863038494308
0 days 00:01:12.410000,0.385254,-0.711914,0.46167,-2.914428,-27.6947,-11.619567,0.9318698282549983
0 days 00:01:12.420000,0.342773,-0.716309,0.456543,-1.968384,-25.100706,-10.543822,0.9159822180910501
0 days 00:01:12.430000,0.315186,-0.702148,0.463135,-1.335144,-21.255491,-9.45282,0.8982472135915591
0 days 00:01:12.440000,0.439209,-0.654785,0.40918,-6.317138,-11.032104,-5.561828,0.888299619670075
0 days 00:01:12.450000,0.409668,-0.729004,0.466553,-8.636475,-12.771605,-12.245177,0.9575731846960837
0 days 00:01:12.460000,0.543457,-0.69873,0.395752,-15.716552,-10.82611,-20.973204,0.9696333169054165
0 days 00:01:12.470000,0.408691,-0.759766,0.439453,-10.421752,-10.581969,-16.899109,0.9681898819167654
0 days 00:01:12.480000,0.548096,-0.709717,0.414063,-12.184142,-6.515502,-20.126341,0.9877021885538171
0 days 00:01:12.490000,0.550781,-0.699707,0.407959,-14.038085,-9.078979,-20.523069,0.9794795258151137
0 days 00:01:12.500000,0.443359,-0.635742,0.437012,-5.256652,-5.622863,-5.233764,0.8897834464570579
0 days 00:01:12.510000,0.454346,-0.629395,0.445068,-5.233764,-3.517151,-5.477905,0.8947926454575943
0 days 00:01:12.520000,0.463135,-0.626221,0.45459,-4.79126,-1.922607,-5.851745,0.9018308251362891
0 days 00:01:12.530000,0.469238,-0.634521,0.469238,-4.425049,-1.518249,-6.126403,0.9181424185435503
0 days 00:01:12.540000,0.473145,-0.652832,0.477295,-4.15802,-1.823425,-6.759643,0.9369452109243102
0 days 00:01:12.550000,0.462891,-0.67041,0.480713,-3.784179,-1.365662,-7.705688,0.9459400796826404
0 days 00:01:12.560000,0.440674,-0.680176,0.484375,-3.64685,-0.183105,-8.506775,0.9441674141152087
0 days 00:01:12.570000,0.424805,-0.6875,0.487793,-4.402161,0.984192,-8.804321,0.9439584465822635
0 days 00:01:12.580000,0.423828,-0.691895,0.497314,-5.149841,2.861023,-9.44519,0.9516670001660245
0 days 00:01:12.590000,0.425049,-0.703369,0.500732,-6.42395,5.584716,-10.253905,0.9623549960310903
0 days 00:01:12.600000,0.437256,-0.642822,0.423828,-5.493164,-7.80487,-5.371093,0.8854620865988561
0 days 00:01:12.610000,0.431885,-0.699707,0.518799,-8.308411,10.520934,-12.20703,0.9722483949459624
0 days 00:01:12.620000,0.425537,-0.702393,0.508545,-7.659912,8.163452,-11.161803,0.965948074092495
0 days 00:01:12.630000,0.552979,-0.712158,0.447021,-9.078979,-1.235962,-19.737244,1.006370988177819
0 days 00:01:12.640000,0.546631,-0.7146,0.456055,-8.69751,0.907898,-19.256592,1.0086846748047678
0 days 00:01:12.650000,0.542236,-0.713867,0.469238,-8.384705,2.937317,-18.890381,1.011835102192546
0 days 00:01:12.660000,0.545166,-0.705322,0.490234,-8.346558,4.890442,-18.478394,1.0173566070931077
0 days 00:01:12.670000,0.546875,-0.716309,0.431641,-10.276793,-3.753662,-19.966125,0.9992421137977523
0 days 00:01:12.680000,0.520264,-0.709229,0.523682,-9.056091,9.971619,-16.578674,1.0236812205276602
0 days 00:01:12.690000,0.490479,-0.713379,0.526367,-9.048462,11.878966,-15.129088,1.0131838262482282
0 days 00:01:12.700000,0.45752,-0.707031,0.524902,-8.758545,11.993407,-13.633727,0.9923404128448059
0 days 00:01:12.710000,0.536133,-0.700439,0.509521,-8.636475,7.164001,-17.662048,1.018658449064749
0 days 00:01:12.720000,0.552002,-0.783936,-0.062744,-9.819031,-8.209229,3.799438,0.9608322796596709
0 days 00:01:12.730000,0.604492,-0.741699,-0.07373,-7.148742,-8.850098,4.165649,0.9596687436636665
0 days 00:01:12.740000,0.593018,-0.739502,-0.062256,-8.003235,-8.041382,3.913879,0.9499522966254674
0 days 00:01:12.750000,0.593262,-0.741211,-0.059082,-8.354187,-7.469177,3.807068,0.9512330050460822
0 days 00:01:12.760000,0.592529,-0.743896,-0.05542,-8.811951,-7.019042,3.738403,0.9526506448100479
0 days 00:01:12.770000,0.577393,-0.75,-0.05835,-8.842468,-6.401062,3.608703,0.9483076499475263
0 days 00:01:12.780000,0.563965,-0.758301,-0.060303,-8.598328,-6.332397,3.746032,0.9469495127170191
0 days 00:01:12.790000,0.612305,-0.746338,-0.072754,-5.752563,-8.903503,4.722595,0.9681068989450493
0 days 00:01:12.800000,0.562744,-0.767578,-0.057861,-8.590698,-7.133483,3.89862,0.9535222550842745
0 days 00:01:12.810000,0.560059,-0.776367,-0.055908,-8.972168,-8.018494,3.974914,0.9589251830221167
0 days 00:01:12.820000,0.535645,-0.77832,-0.062012,-10.95581,-7.8125,4.005432,0.9468595865116433
0 days 00:01:12.830000,0.539307,-0.727051,-0.016113,-17.524719,-1.228333,3.341675,0.9053810389106898
0 days 00:01:12.840000,0.549316,-0.755371,-0.046631,-13.786315,-5.874633,4.333496,0.9351512528238414
0 days 00:01:12.850000,0.55127,-0.746826,-0.042236,-15.441894,-4.386902,3.677368,0.9292101844426803
0 days 00:01:12.860000,0.539307,-0.737549,-0.032959,-16.967773,-2.685547,3.242492,0.9142848917766279
0 days 00:01:12.870000,0.542236,-0.726318,-0.006104,-17.51709,0.679016,3.593445,0.9064187639474374
0 days 00:01:12.880000,0.533203,-0.723633,-0.001953,-17.311096,3.39508,4.447937,0.898862599125695
0 days 00:01:12.890000,0.530029,-0.7229,0.00293,-16.967773,6.820678,5.874633,0.8963948548162243
0 days 00:01:12.900000,0.543213,-0.720459,0.003662,-16.433716,10.086059,7.339477,0.9023053498090322
0 days 00:01:12.910000,0.561768,-0.71167,0.001953,-15.914916,12.542724,9.010315,0.9066759558590931
0 days 00:01:12.920000,0.581543,-0.70752,0.005127,-15.327453,13.984679,10.620116,0.9158619423133599
0 days 00:01:12.930000,0.603516,-0.753418,-0.073242,-3.799438,-8.117676,5.302429,0.9681087932376196
0 days 00:01:12.940000,0.536865,-0.768311,-0.052979,-12.268065,-6.843566,4.333496,0.938793159000959
0 days 00:01:12.950000,0.591553,-0.75708,-0.074463,-1.602173,-6.935119,5.439758,0.9636647843404884
0 days 00:01:12.960000,0.603516,-0.699951,0.01001,-14.526366,14.236449,12.092589,0.9242635796984537
0 days 00:01:12.970000,0.580078,-0.755859,-0.068115,2.624511,-5.584716,5.043029,0.9552240403120097
0 days 00:01:12.980000,0.55957,-0.751465,-0.036621,13.244628,2.777099,1.777649,0.9376349656268158
0 days 00:01:12.990000,0.555908,-0.755859,-0.041016,13.336181,2.929687,1.960754,0.9391692310765936
0 days 00:01:13,0.549561,-0.759033,-0.046387,13.198852,2.929687,2.326965,0.9382431143253863
0 days 00:01:13.010000,0.553467,-0.755859,-0.043945,13.137816,2.479553,2.815246,0.9378591104185106
0 days 00:01:13.020000,0.557373,-0.754395,-0.046875,13.168334,1.914978,3.234863,0.93913457117657
0 days 00:01:13.030000,0.553955,-0.758301,-0.051514,12.680053,1.396179,3.479004,0.9404999951206804
0 days 00:01:13.040000,0.561279,-0.76001,-0.051025,12.031554,0.297546,3.578186,0.9461780311157091
0 days 00:01:13.050000,0.571533,-0.759766,-0.048584,11.543273,-1.625061,3.288269,0.9519741329999466
0 days 00:01:13.060000,0.571289,-0.761963,-0.049316,11.138915,-3.501892,3.265381,0.9536198418374063
0 days 00:01:13.070000,0.561768,-0.763184,-0.052246,10.925292,-4.669189,3.570556,0.949085216509034
0 days 00:01:13.080000,0.589355,-0.757813,-0.075439,0.831604,-5.569458,5.15747,0.9629698342705237
0 days 00:01:13.090000,0.548584,-0.759521,-0.054688,10.848998,-5.149841,3.921509,0.9385133626331593
0 days 00:01:13.100000,0.530273,-0.75,-0.059326,11.177062,-4.325867,4.959106,0.9204395845491435
0 days 00:01:13.110000,0.538574,-0.747559,-0.064209,11.154174,-3.845215,4.997253,0.9235958031725783
0 days 00:01:13.120000,0.545898,-0.745361,-0.067139,10.848998,-3.807068,4.951477,0.9263235352974682
0 days 00:01:13.130000,0.552979,-0.74585,-0.069336,10.238647,-4.150391,4.867554,0.9310668492847332
0 days 00:01:13.140000,0.555908,-0.749268,-0.072998,9.605408,-4.501343,4.776001,0.935823139429668
0 days 00:01:13.150000,0.563232,-0.758057,-0.07251,8.621216,-4.882813,4.600525,0.947173902286692
0 days 00:01:13.160000,0.572754,-0.761475,-0.076172,7.568359,-5.096435,4.318237,0.9558731577594383
0 days 00:01:13.170000,0.577881,-0.757324,-0.077393,6.477355,-5.981445,4.173279,0.9557592623595127
0 days 00:01:13.180000,0.584229,-0.757568,-0.075439,5.203247,-6.835937,4.272461,0.9596477696457174
0 days 00:01:13.190000,0.578369,-0.761719,-0.073242,3.631592,-6.599426,4.760742,0.9592137017818292
0 days 00:01:13.200000,0.535645,-0.752686,-0.056396,11.062621,-4.875183,4.501343,0.9255443206227348
0 days 00:01:13.210000,0.626465,-0.694824,0.015625,-13.534545,13.236999,12.931823,0.9356724468669578
0 days 00:01:13.220000,0.565186,-0.755859,-0.037598,13.107299,2.990722,1.792908,0.9445483852513856
0 days 00:01:13.230000,0.647461,-0.698242,0.008545,-14.671325,9.376526,12.4588,0.9522713132873425
0 days 00:01:13.240000,0.624756,-0.695557,0.068115,-13.046264,-8.766174,4.478455,0.9374215983270281
0 days 00:01:13.250000,0.628418,-0.696777,0.069092,-11.894225,-8.056641,4.386902,0.9408406214216094
0 days 00:01:13.260000,0.646484,-0.707031,0.06543,-12.023925,-6.851196,3.379822,0.9602684427372379
0 days 00:01:13.270000,0.667969,-0.720947,0.054688,-13.259887,-6.057739,1.571655,0.9843464527868224
0 days 00:01:13.280000,0.694092,-0.727539,0.053223,-15.098571,-6.54602,-0.892639,1.00693067721368
0 days 00:01:13.290000,0.718506,-0.723145,0.044434,-17.715454,-8.293152,-3.829956,1.0203744133488453
0 days 00:01:13.300000,0.713135,-0.718018,0.04834,-19.27948,-10.887145,-5.950927,1.0131377656316045
0 days 00:01:13.310000,0.708252,-0.718262,0.049072,-20.057678,-13.46588,-7.5531,1.0099154703894777
0 days 00:01:13.320000,0.712158,-0.713623,0.041504,-21.118162,-15.541076,-9.178162,1.0090338869973594
0 days 00:01:13.330000,0.689453,-0.699951,0.041992,-22.209166,-17.173767,-10.32257,0.9833820059742806
0 days 00:01:13.340000,0.625488,-0.687256,0.063477,-15.220641,-8.918762,3.822326,0.9314426322694276
0 days 00:01:13.350000,0.667725,-0.679443,0.05542,-22.926329,-17.631531,-10.414123,0.9542383571592582
0 days 00:01:13.360000,0.657227,-0.665039,0.072266,-26.145933,-17.570496,-11.177062,0.9377881294866128
0 days 00:01:13.370000,0.626221,-0.662354,0.06958,-27.626036,-15.533446,-11.238097,0.9141700818540279
0 days 00:01:13.380000,0.604492,-0.664795,0.075928,-28.381346,-12.695312,-10.95581,0.9017361206433954
0 days 00:01:13.390000,0.603516,-0.673096,0.074219,-28.900145,-9.910583,-10.45227,0.9070822715900693
0 days 00:01:13.400000,0.606689,-0.674072,0.078125,-29.182432,-8.537292,-9.658813,0.9102461862210685
0 days 00:01:13.410000,0.61792,-0.666016,0.098877,-29.266356,-8.995056,-8.972168,0.9138813379126418
0 days 00:01:13.420000,0.62793,-0.65625,0.121094,-29.136656,-10.688781,-8.506775,0.9163099389595204
0 days 00:01:13.430000,0.62793,-0.653564,0.137207,-29.098509,-12.176513,-8.293152,0.9166611957779167
0 days 00:01:13.440000,0.616455,-0.655273,0.140625,-29.45709,-12.519835,-8.659363,0.9105903920967978
0 days 00:01:13.450000,0.587402,-0.658691,0.140137,-30.143736,-11.650084,-8.834839,0.8936181073892807
0 days 00:01:13.460000,0.663574,-0.667236,0.064941,-24.429319,-17.700195,-10.635375,0.943266487612594
0 days 00:01:13.470000,0.640625,-0.687012,0.050781,-18.310547,-8.781433,2.532959,0.9407255650454068
0 days 00:01:13.480000,0.642334,-0.694824,0.010986,-13.671874,11.497497,12.954711,0.9463054743199999
0 days 00:01:13.490000,0.685059,-0.705078,0.028076,-22.102354,-6.736755,1.861572,0.9834780533092744
0 days 00:01:13.500000,0.643555,-0.700684,0.012207,-15.281676,6.538391,12.031554,0.9514568391314447
0 days 00:01:13.510000,0.635254,-0.702881,0.013672,-14.884948,4.142761,11.58142,0.9475105636672343
0 days 00:01:13.520000,0.612305,-0.708008,0.020264,-14.007567,3.578186,11.810302,0.9362709921732063
0 days 00:01:13.530000,0.597168,-0.710938,0.025879,-12.931823,4.478455,12.504577,0.9288230093559267
0 days 00:01:13.540000,0.598389,-0.704346,0.037109,-12.107848,5.599975,13.366698,0.9249593293318361
0 days 00:01:13.550000,0.611572,-0.696289,0.044189,-11.383056,6.362915,13.839721,0.9277884189975644
0 days 00:01:13.560000,0.665527,-0.699707,0.039063,-21.133421,-8.209229,1.617432,0.9664584789565457
0 days 00:01:13.570000,0.656738,-0.698242,0.040039,-12.123107,6.530761,13.000487,0.9594007571025781
0 days 00:01:13.580000,0.688721,-0.707031,0.026123,-13.771056,4.493713,11.138915,0.9873762514517959
0 days 00:01:13.590000,0.705322,-0.718994,0.015137,-15.327453,1.251221,8.872986,1.0073036406610472
0 days 00:01:13.600000,0.702393,-0.720703,0.006104,-16.136169,-1.998901,6.782531,1.0063826307493589
0 days 00:01:13.610000,0.62793,-0.696045,0.044434,-11.291503,6.874084,13.885497,0.9384823425515261
0 days 00:01:13.620000,0.638916,-0.704102,-0.006592,-14.61029,-4.463196,6.576538,0.9507979469498239
0 days 00:01:13.630000,0.621582,-0.6875,-0.005615,-12.596129,-4.348755,7.591247,0.9268505602032077
0 days 00:01:13.640000,0.612549,-0.689453,-0.000244,-11.131286,-3.761291,8.331299,0.9222590612978546
0 days 00:01:13.650000,0.600342,-0.695557,-0.000244,-10.643004,-2.89917,8.911133,0.9188090752430562
0 days 00:01:13.660000,0.594727,-0.692627,0.007324,-10.856627,-1.663208,9.468079,0.9129545479562496
0 days 00:01:13.670000,0.612549,-0.693115,0.015137,-11.802672,-0.465393,9.338379,0.9251236724865493
0 days 00:01:13.680000,0.633789,-0.707764,0.015381,-13.97705,0.038147,8.384705,0.9501867981497111
0 days 00:01:13.690000,0.664551,-0.710449,0.022461,-16.868591,-0.686645,7.102966,0.9730726127699824
0 days 00:01:13.700000,0.701172,-0.704346,0.019043,-19.66095,-2.754211,5.302429,0.9940362655099663
0 days 00:01:13.710000,0.709961,-0.705566,0.022949,-21.52252,-4.989624,3.196716,1.0011966132973082
0 days 00:01:13.720000,0.670898,-0.717285,-0.004883,-15.968322,-4.081726,6.050109,0.9821536240924837
0 days 00:01:13.730000,0.550537,-0.727539,0.185303,20.759581,16.830444,-0.030518,0.9309893590686201
0 days 00:01:13.740000,0.536133,-0.718262,0.193604,20.439146,16.738892,0.297546,0.9169631416523786
0 days 00:01:13.750000,0.527832,-0.719727,0.199219,19.538879,16.235352,0.328064,0.9144953716197802
0 days 00:01:13.760000,0.528076,-0.73291,0.199463,18.516541,15.731811,-0.061035,0.9250982749119144
0 days 00:01:13.770000,0.541016,-0.729004,0.240479,12.847899,16.731262,-0.152588,0.9391353969013201
0 days 00:01:13.780000,0.540527,-0.738525,0.211426,16.952515,15.289306,-0.305176,0.9393027024500675
0 days 00:01:13.790000,0.543457,-0.730957,0.221436,15.731811,15.441894,-0.350952,0.937378018087687
0 days 00:01:13.800000,0.541992,-0.728271,0.233643,14.266967,16.059875,-0.312805,0.9374022770155831
0 days 00:01:13.810000,0.532959,-0.739746,0.204834,17.723083,15.396117,-0.305176,0.9344658408700662
0 days 00:01:13.820000,0.558594,-0.727539,0.180908,20.950315,16.281128,-0.541687,0.9349160164533497
0 days 00:01:13.830000,0.566895,-0.730713,0.147217,19.676208,8.049011,-0.854492,0.9364743853854199
0 days 00:01:13.840000,0.558594,-0.734375,0.177002,20.698545,15.296935,-0.778198,0.93950178576999
0 days 00:01:13.850000,0.557617,-0.737793,0.174316,20.675657,14.663695,-0.648498,0.941095796077105
0 days 00:01:13.860000,0.553711,-0.734863,0.173828,20.652769,14.068603,-0.457764,0.9363950415684611
0 days 00:01:13.870000,0.557861,-0.728027,0.175049,20.729063,13.061522,-0.167847,0.9337421273836797
0 days 00:01:13.880000,0.571777,-0.727539,0.173096,20.698545,12.039184,-0.137329,0.9413841720923505
0 days 00:01:13.890000,0.578613,-0.731445,0.170166,20.454405,11.154174,-0.556946,0.9480301995980931
0 days 00:01:13.900000,0.577393,-0.729492,0.168457,20.149229,10.223388,-0.968933,0.9454729056731346
0 days 00:01:13.910000,0.574707,-0.726074,0.163086,19.927979,9.056091,-0.968933,0.9402492396811603
0 days 00:01:13.920000,0.576904,-0.729736,0.160156,19.844055,8.590698,-1.098633,0.9439188520460856
0 days 00:01:13.930000,0.571045,-0.731689,0.1521,19.828796,8.430481,-1.152039,0.9405294225838977
0 days 00:01:13.940000,0.548584,-0.729248,0.247559,11.512755,17.456055,0.1297,0.9455329232982848
0 days 00:01:13.950000,0.557861,-0.728027,0.181396,21.041868,15.785216,-0.701904,0.9349527885759794
0 days 00:01:13.960000,0.551758,-0.728271,0.255859,10.429381,18.577576,0.63324,0.9488305264302999
0 days 00:01:13.970000,0.520752,-0.693604,0.322998,3.27301,22.468565,2.922058,0.9255251818962031
0 days 00:01:13.980000,0.539551,-0.724854,0.260498,8.880615,20.965574,2.105713,0.9404189549987814
0 days 00:01:13.990000,0.570557,-0.726563,0.145264,19.493103,7.827758,-0.480652,0.935163468551889
0 days 00:01:14,0.474854,-0.725586,0.352783,-2.700805,10.047912,-3.135681,0.9361715707075279
0 days 00:01:14.010000,0.487793,-0.717041,0.350098,-1.823425,11.100768,-3.082275,0.9352317446141358
0 days 00:01:14.020000,0.488037,-0.713135,0.341064,-0.823975,12.20703,-3.044128,0.9290136132963821
0 days 00:01:14.030000,0.488037,-0.714355,0.329834,-0.045776,13.282775,-2.815246,0.9258907316470988
0 days 00:01:14.040000,0.485596,-0.717041,0.323486,0.671387,14.190673,-2.357483,0.9244427851917069
0 days 00:01:14.050000,0.479492,-0.713135,0.32251,1.235962,15.144347,-1.861572,0.9178708004882822
0 days 00:01:14.060000,0.463623,-0.707764,0.318604,1.594543,16.853333,-1.014709,0.9040932886826447
0 days 00:01:14.070000,0.45166,-0.703613,0.316406,1.823425,19.012451,0.045776,0.8939691080820411
0 days 00:01:14.080000,0.458496,-0.702393,0.316162,2.159119,20.812986,1.00708,0.896399976968429
0 days 00:01:14.090000,0.54834,-0.727539,0.257568,9.498596,19.859314,1.403808,0.9467476045625889
0 days 00:01:14.100000,0.467041,-0.699707,0.316162,2.075195,22.140501,1.88446,0.898707734346378
0 days 00:01:14.110000,0.500244,-0.69458,0.321533,2.670288,23.15521,2.89154,0.9143680364191434
0 days 00:01:14.120000,0.539307,-0.693848,0.321533,4.180908,21.118162,2.593994,0.9357673628856693
0 days 00:01:14.130000,0.540771,-0.697754,0.312744,5.439758,20.042419,2.326965,0.9365376279109131
0 days 00:01:14.140000,0.537354,-0.708008,0.302734,6.477355,19.477844,2.235413,0.9389741871510633
0 days 00:01:14.150000,0.534424,-0.71875,0.291748,7.240295,19.302368,2.159119,0.9419806100870655
0 days 00:01:14.160000,0.526855,-0.72998,0.278564,7.835388,19.493103,2.235413,0.9423613391480997
0 days 00:01:14.170000,0.515381,-0.737061,0.268311,8.117676,19.966125,2.487183,0.9385453029039141
0 days 00:01:14.180000,0.509277,-0.736328,0.263916,8.155823,20.904539,2.716064,0.9333775449243462
0 days 00:01:14.190000,0.510254,-0.729492,0.263184,8.331299,21.667479,2.937317,0.9283229720501373
0 days 00:01:14.200000,0.523193,-0.723877,0.260986,8.636475,21.629332,2.845764,0.9305065924398387
0 days 00:01:14.210000,0.480713,-0.695557,0.318115,2.090454,22.979734,2.578735,0.903372393779553
0 days 00:01:14.220000,0.570313,-0.726807,0.141357,19.592285,7.789611,-0.244141,0.9346053363142113
0 days 00:01:14.230000,0.55835,-0.770508,0.018066,15.556334,5.752563,3.028869,0.951716176661929
0 days 00:01:14.240000,0.567383,-0.737061,0.135498,19.378662,7.232666,-0.175476,0.939969198651743
0 days 00:01:14.250000,0.54834,-0.780273,0.026611,15.655517,4.051208,2.624511,0.9540497133011466
0 days 00:01:14.260000,0.541016,-0.785889,0.022705,14.083861,3.433227,2.89154,0.9543769431424881
0 days 00:01:14.270000,0.528564,-0.782471,0.024658,12.825011,3.417969,3.616333,0.9445892148976719
0 days 00:01:14.280000,0.524658,-0.77417,0.030029,12.283324,4.066467,4.333496,0.9356852818683213
0 days 00:01:14.290000,0.530518,-0.76709,0.028564,11.993407,4.875183,4.745483,0.9331089531882116
0 days 00:01:14.300000,0.533691,-0.760742,0.028564,12.08496,5.386352,4.776001,0.9297152123854918
0 days 00:01:14.310000,0.541504,-0.758789,0.025391,12.817382,5.386352,4.493713,0.9325406325828383
0 days 00:01:14.320000,0.548096,-0.756104,0.025635,13.526916,5.172729,4.241943,0.934216054912888
0 days 00:01:14.330000,0.545898,-0.760742,0.023682,14.274596,5.210876,3.990173,0.9366396607511344
0 days 00:01:14.340000,0.550293,-0.76709,0.021729,15.037536,5.622863,3.494262,0.9443101203471241
0 days 00:01:14.350000,0.55249,-0.768799,0.029785,17.074585,4.859924,2.197266,0.9471981042664729
0 days 00:01:14.360000,0.567627,-0.731445,0.139893,19.65332,7.888793,-0.183105,0.9363665151013251
0 days 00:01:14.370000,0.556396,-0.775391,0.003418,16.052246,6.355285,3.173828,0.954368584154466
0 days 00:01:14.380000,0.562988,-0.780029,-0.001465,15.731811,6.843566,3.265381,0.9619786251315566
0 days 00:01:14.390000,0.571777,-0.773438,-0.007324,15.159606,6.904602,3.288269,0.9618674121462896
0 days 00:01:14.400000,0.570801,-0.769531,-0.010986,14.846801,7.102966,3.364563,0.9581818375225029
0 days 00:01:14.410000,0.567627,-0.765625,-0.013672,14.465331,7.667541,3.494262,0.9531888455799302
0 days 00:01:14.420000,0.577393,-0.769775,-0.019043,13.793944,7.949829,3.280639,0.9624442128887263
0 days 00:01:14.430000,0.587402,-0.772461,-0.024414,12.832641,7.308959,2.555847,0.9707384557752927
0 days 00:01:14.440000,0.585449,-0.770996,-0.02417,12.435912,6.233215,2.182007,0.9683850228690033
0 days 00:01:14.450000,0.582031,-0.766357,-0.024414,12.664794,4.966736,1.960754,0.9626313831399846
0 days 00:01:14.460000,0.577637,-0.762451,-0.029053,12.947082,4.043579,1.853943,0.9569953542097266
0 days 00:01:14.470000,0.55542,-0.769287,0.010986,15.945434,5.706787,3.013611,0.9489017636009536
0 days 00:01:14.480000,0.561768,-0.759033,0.02832,18.463135,5.897521,1.663208,0.9447308628985294
0 days 00:01:14.490000,0.570557,-0.760254,-0.035645,13.153075,3.425598,1.838684,0.951205551282161
0 days 00:01:14.500000,0.554443,-0.753418,0.032715,20.500181,7.156372,1.197815,0.9360106806003873
0 days 00:01:14.510000,0.569824,-0.73877,0.133789,19.340515,6.050109,0.25177,0.9425391240670066
0 days 00:01:14.520000,0.567627,-0.746338,0.132813,19.40155,5.264282,0.534058,0.947026987124443
0 days 00:01:14.530000,0.568359,-0.754883,0.127441,19.340515,4.669189,0.297546,0.9534786337674274
0 days 00:01:14.540000,0.566895,-0.754639,0.125,19.233704,3.807068,0.335693,0.9520897863888678
0 days 00:01:14.550000,0.565674,-0.751465,0.125,19.294739,2.998352,0.595093,0.9488475749565892
0 days 00:01:14.560000,0.566406,-0.754883,0.12085,19.432068,2.655029,0.473022,0.9514561592764008
0 days 00:01:14.570000,0.560303,-0.752197,0.029541,19.638062,6.736755,1.533508,0.938409531760521
0 days 00:01:14.580000,0.5625,-0.757813,0.105469,19.325256,2.197266,0.030518,0.9496370374674736
0 days 00:01:14.590000,0.550781,-0.751221,0.105469,19.599915,2.548218,-0.083923,0.9374520845157901
0 days 00:01:14.600000,0.552734,-0.74707,0.100342,19.927979,2.906799,-0.289917,0.9347175919067748
0 days 00:01:14.610000,0.549561,-0.746826,0.092529,20.347593,3.547668,-0.564575,0.9318411789774049
0 days 00:01:14.620000,0.570557,-0.759277,0.112305,19.332886,2.281189,0.114441,0.9563729743165059
0 days 00:01:14.630000,0.54834,-0.751953,0.091797,21.14868,4.66156,-1.098633,0.935166701191825
0 days 00:01:14.640000,0.551514,-0.752441,0.084717,21.263121,4.981995,-1.342773,0.9367561693236933
0 days 00:01:14.650000,0.552002,-0.752686,0.07959,21.377562,5.302429,-1.548767,0.9367907934539066
0 days 00:01:14.660000,0.549316,-0.752197,0.078369,21.568296,5.706787,-1.617432,0.9347139106839055
0 days 00:01:14.670000,0.551025,-0.749268,0.068359,21.324156,5.805969,-1.655578,0.9325792402418146
0 days 00:01:14.680000,0.558838,-0.749268,0.061768,20.874022,5.455017,-1.419067,0.9367591642957116
0 days 00:01:14.690000,0.5625,-0.746826,0.057861,20.935057,5.325317,-1.083374,0.9367514182519288
0 days 00:01:14.700000,0.552734,-0.747559,0.050781,20.805357,5.683898,-0.602722,0.931095077421205
0 days 00:01:14.710000,0.550293,-0.742188,0.047363,20.805357,6.04248,0.205994,0.925153320786344
0 days 00:01:14.720000,0.552246,-0.748291,0.038818,20.942686,6.820678,0.694275,0.930817867426813
0 days 00:01:14.730000,0.546631,-0.750488,0.093018,20.790098,4.180908,-0.976562,0.9331077304518487
0 days 00:01:14.740000,0.610596,-0.79248,0.284668,-25.733946,-30.181883,-24.635313,1.0401384022523157
0 days 00:01:14.750000,0.623047,-0.7771,0.258789,-20.622252,-15.86914,-20.362852,1.0290984990417584
0 days 00:01:14.760000,0.570557,-0.706299,0.302734,-14.938354,-21.072386,-8.682251,0.9571005393405648
0 days 00:01:14.770000,0.558594,-0.705078,0.343018,-17.753601,-29.33502,-9.689331,0.9627167762348384
0 days 00:01:14.780000,0.615479,-0.775146,0.144287,-15.052794,17.14325,-19.271851,1.0002422002325237
0 days 00:01:14.790000,0.583252,-0.727539,0.361328,-19.91272,-26.245115,-10.658263,1.0000269074424948
0 days 00:01:14.800000,0.616699,-0.787354,0.31665,-22.308348,-7.995605,-17.532349,1.0490525250991964
0 days 00:01:14.810000,0.594238,-0.816162,0.22876,-20.332335,7.789611,-19.27948,1.0351668215741847
0 days 00:01:14.820000,0.618652,-0.730225,0.335205,-20.080564,-31.204222,-12.489318,1.0140617534223444
0 days 00:01:14.830000,0.62793,-0.770264,0.342529,-22.560118,-49.385067,-16.395569,1.0511559496273615
0 days 00:01:14.840000,0.310791,-0.741211,0.269043,-2.624511,6.217956,-5.332946,0.8475664741192869
0 days 00:01:14.850000,0.548828,-0.757813,0.251465,-17.379761,-37.239075,-19.317627,0.9688794366576265
0 days 00:01:14.860000,0.388184,-0.66626,0.272705,-22.994993,-5.66101,-21.736143,0.8178980513982167
0 days 00:01:14.870000,0.299561,-0.458496,0.409668,-6.103515,36.445618,-27.938841,0.6839468144241919
0 days 00:01:14.880000,0.281738,-0.494873,0.411377,11.543273,85.754387,-47.447201,0.702500265410626
0 days 00:01:14.890000,0.345947,-0.822998,0.230469,-23.559568,117.439262,-59.165951,0.9220200620235983
0 days 00:01:14.900000,0.468262,-0.861084,0.223633,-57.800289,110.397331,-53.054806,1.0053589778725804
0 days 00:01:14.910000,0.535889,-0.758057,0.360352,-49.621578,70.846558,-40.763851,0.9958318128449201
0 days 00:01:14.920000,0.570068,-0.629883,0.676025,-13.85498,28.343199,-41.290279,1.0856978948759182
0 days 00:01:14.930000,0.291992,-0.601318,0.581543,18.875122,-3.700256,-32.653809,0.8860219670171842
0 days 00:01:14.940000,0.226563,-0.746094,0.214111,7.911682,-2.494812,-14.617919,0.8085979038595141
0 days 00:01:14.950000,0.707275,-0.722656,0.174316,-9.613037,16.876221,-17.677307,1.0260875634257536
0 days 00:01:14.960000,0.629639,-0.766113,0.317627,-16.059875,-53.802486,-14.045714,1.0412786899860191
0 days 00:01:14.970000,0.666748,-0.736328,0.168457,-4.676819,5.180358,-9.986877,1.0075264661223546
0 days 00:01:14.980000,0.495361,-0.811279,0.224854,26.023863,-19.90509,-11.177062,0.9767883381152745
0 days 00:01:14.990000,0.533447,-0.692139,0.21167,7.385253,-19.363403,-10.055541,0.8991252893951988
0 days 00:01:15,0.362061,-0.717773,0.311768,-5.729675,9.742737,0.419617,0.8622560716364948
0 days 00:01:15.010000,0.57373,-0.779785,0.246826,46.783443,-18.257141,-9.040833,0.9990764902653849
0 days 00:01:15.020000,0.555176,-0.785645,0.243652,43.289181,-16.571045,-7.209777,0.9923833705302604
0 days 00:01:15.030000,0.557373,-0.773193,0.259277,40.786739,-14.198302,-5.867004,0.9877837005675888
0 days 00:01:15.040000,0.572754,-0.747803,0.269775,39.207458,-12.054442,-4.676819,0.979813769014296
0 days 00:01:15.050000,0.589844,-0.742432,0.277832,37.521362,-11.45172,-4.379272,0.9880849352074952
0 days 00:01:15.060000,0.602539,-0.741943,0.286621,36.064148,-11.047362,-5.004883,0.9978397964658455
0 days 00:01:15.070000,0.602539,-0.744629,0.289551,35.28595,-12.237548,-5.714416,1.0006824550090803
0 days 00:01:15.080000,0.605713,-0.76123,0.280518,33.8974,-15.502929,-6.67572,1.0124473811477808
0 days 00:01:15.090000,0.603271,-0.774902,0.275391,32.440186,-19.622803,-7.789611,1.0199260815990538
0 days 00:01:15.100000,0.518555,-0.716553,0.168945,3.189087,-10.093688,-4.905701,0.9004942547617947
0 days 00:01:15.110000,0.592529,-0.7854,0.261963,30.982969,-22.941587,-9.063721,1.0181200269172588
0 days 00:01:15.120000,0.529785,-0.807861,0.229736,27.633665,-22.895811,-11.390685,0.9930207305197611
0 days 00:01:15.130000,0.479004,-0.810547,0.220947,24.04022,-16.181946,-10.261535,0.9670826479851657
0 days 00:01:15.140000,0.475586,-0.807373,0.22168,21.835325,-11.96289,-9.19342,0.962899385670694
0 days 00:01:15.150000,0.48584,-0.799805,0.218018,19.546509,-8.102417,-8.018494,0.9608643983148715
0 days 00:01:15.160000,0.503174,-0.789795,0.229736,17.723083,-4.974365,-6.958007,0.964229664549375
0 days 00:01:15.170000,0.53833,-0.78125,0.232178,16.197205,-2.532959,-7.408142,0.9767586063526648
0 days 00:01:15.180000,0.577393,-0.761475,0.22583,15.563964,-1.63269,-8.750916,0.9819501214287822
0 days 00:01:15.190000,0.612793,-0.750732,0.204834,14.488219,-6.034851,-9.613037,0.9904901636205177
0 days 00:01:15.200000,0.660889,-0.760986,0.172119,9.864807,-15.281676,-12.046813,1.0224964120611866
0 days 00:01:15.210000,0.645752,-0.734375,0.179199,6.706237,-20.927427,-13.999938,0.9941904081864802
0 days 00:01:15.220000,0.564941,-0.798096,0.244385,29.350279,-24.177549,-10.559081,1.007888677841953
0 days 00:01:15.230000,0.403076,-0.700684,0.344238,-4.882813,10.131835,3.929138,0.8785944060122395
0 days 00:01:15.240000,0.602051,-0.783203,0.258545,50.23193,-18.325806,-10.391234,1.0211355751490592
0 days 00:01:15.250000,0.445557,-0.712158,0.366211,-3.166198,8.903503,6.843566,0.9164063256732791
0 days 00:01:15.260000,0.572998,-0.69043,0.290283,-0.923157,-12.382506,0.015259,0.9430188296068112
0 days 00:01:15.270000,0.57251,-0.686279,0.289063,1.159668,-14.808654,-0.030518,0.9393103767711714
0 days 00:01:15.280000,0.559814,-0.689453,0.290039,3.128052,-16.204834,0.099182,0.9342696480813235
0 days 00:01:15.290000,0.542725,-0.69043,0.293457,4.753113,-16.403198,0.656128,0.925937914427312
0 days 00:01:15.300000,0.530273,-0.698975,0.294922,6.286621,-15.701293,1.541138,0.9255995307032087
0 days 00:01:15.310000,0.515625,-0.713379,0.293945,7.637023,-14.434813,2.471924,0.9279991386262166
0 days 00:01:15.320000,0.498291,-0.729736,0.295166,8.132935,-13.21411,3.135681,0.931628422673439
0 days 00:01:15.330000,0.486084,-0.729248,0.309082,8.369446,-12.695312,3.585815,0.9293072598898602
0 days 00:01:15.340000,0.478271,-0.712402,0.322021,8.590698,-12.672423,3.875732,0.9164918349259855
0 days 00:01:15.350000,0.467773,-0.708496,0.317627,8.522034,-12.535094,3.990173,0.9064574301499216
0 days 00:01:15.360000,0.568604,-0.708984,0.291748,-2.761841,-9.712219,-0.030518,0.9545081018912306
0 days 00:01:15.370000,0.459961,-0.72168,0.316895,7.339477,-11.489867,3.517151,0.9125834673858605
0 days 00:01:15.380000,0.444336,-0.750732,0.329834,3.593445,-7.17163,1.770019,0.9326432781487249
0 days 00:01:15.390000,0.446777,-0.759766,0.343018,1.487732,-4.310608,0.907898,0.9457882483986572
0 days 00:01:15.400000,0.449219,-0.763184,0.351563,-0.190735,-1.693725,0.068665,0.9528085173769176
0 days 00:01:15.410000,0.453369,-0.759277,0.356445,-1.533508,0.312805,-0.88501,0.9534663344423862
0 days 00:01:15.420000,0.453613,-0.758301,0.36084,-2.555847,2.098083,-1.724243,0.9544583102315155
0 days 00:01:15.430000,0.447998,-0.757568,0.358643,-3.303528,3.768921,-2.334595,0.9503874389305658
0 days 00:01:15.440000,0.449707,-0.751465,0.361816,-3.814697,5.393981,-2.601623,0.9475478087832826
0 days 00:01:15.450000,0.458496,-0.746826,0.360107,-3.822326,6.767272,-2.952575,0.9474411368211747
0 days 00:01:15.460000,0.459229,-0.744873,0.359375,-3.684997,7.835388,-3.311157,0.9459796251479203
0 days 00:01:15.470000,0.462646,-0.73877,0.354248,-3.326416,8.987427,-3.257751,0.9409113027910762
0 days 00:01:15.480000,0.446777,-0.739014,0.321045,5.516052,-9.735107,2.708435,0.9213149689167109
0 days 00:01:15.490000,0.569824,-0.731201,0.290039,-4.112244,-7.057189,-0.25177,0.9713273984079724
0 days 00:01:15.500000,0.435791,-0.70752,0.350342,-4.608154,9.742737,5.882263,0.9017970187603195
0 days 00:01:15.510000,0.580811,-0.734863,0.317383,-5.348205,-2.784729,-0.038147,0.9889878741314274
0 days 00:01:15.520000,0.437256,-0.708008,0.362061,-0.511169,8.033752,7.186889,0.9075000304798893
0 days 00:01:15.530000,0.460449,-0.709961,0.351074,1.609802,7.93457,6.347656,0.9161391033014582
0 days 00:01:15.540000,0.48291,-0.713135,0.338135,3.944397,6.774902,5.28717,0.9252561129492741
0 days 00:01:15.550000,0.501465,-0.713379,0.330322,6.385803,3.77655,4.676819,0.9324641374069031
0 days 00:01:15.560000,0.507324,-0.711426,0.319092,9.658813,0.12207,4.806519,0.9302280897263854
0 days 00:01:15.570000,0.510254,-0.703857,0.296387,12.939452,-3.211975,5.004883,0.9184873840908213
0 days 00:01:15.580000,0.579834,-0.740234,0.299805,-4.821777,-4.882813,-0.404358,0.9869330678100718
0 days 00:01:15.590000,0.532959,-0.707031,0.261719,16.044617,-7.4234,5.622863,0.9232740468587861
0 days 00:01:15.600000,0.535889,-0.721924,0.259277,16.25061,-7.629394,5.722045,0.9357220980750642
0 days 00:01:15.610000,0.535645,-0.745605,0.260498,15.808105,-6.843566,5.729675,0.9543068636733155
0 days 00:01:15.620000,0.535645,-0.769043,0.266357,14.335631,-5.325317,5.531311,0.9743145043172662
0 days 00:01:15.630000,0.52417,-0.701904,0.273926,15.060424,-5.973815,5.226135,0.9178555810104333
0 days 00:01:15.640000,0.526367,-0.791016,0.282471,10.551452,-1.968384,5.004883,0.991240836924105
0 days 00:01:15.650000,0.507568,-0.797607,0.290771,8.110046,-0.312805,4.760742,0.9891157543553737
0 days 00:01:15.660000,0.488525,-0.796631,0.303711,4.821777,1.983642,4.730225,0.9826077535349494
0 days 00:01:15.670000,0.476563,-0.784912,0.315674,1.457214,3.890991,4.798889,0.9710042301601988
0 days 00:01:15.680000,0.484131,-0.770996,0.334473,-1.457214,4.615784,4.516602,0.9698916665824076
0 days 00:01:15.690000,0.50293,-0.758301,0.345947,-3.730774,4.379272,3.723144,0.9734671634472319
0 days 00:01:15.700000,0.524414,-0.753662,0.346924,-5.554199,3.463745,2.738952,0.9815155197020576
0 days 00:01:15.710000,0.549316,-0.744385,0.345703,-6.477355,2.105713,1.571655,0.9876070373837966
0 days 00:01:15.720000,0.565186,-0.73999,0.338379,-6.690979,0.564575,0.801086,0.990717296879892
0 days 00:01:15.730000,0.571533,-0.736084,0.327881,-6.118774,-0.961304,0.442505,0.9879147611540178
0 days 00:01:15.740000,0.534424,-0.783691,0.275146,12.435912,-3.52478,5.226135,0.9876669056787314
0 days 00:01:15.750000,0.528076,-0.524658,0.729248,-22.064207,19.676208,21.224974,1.0420810545461423
0 days 00:01:15.760000,0.52832,-0.557373,0.695313,-23.597715,22.483824,13.114928,1.0359762794089447
0 days 00:01:15.770000,0.583008,-0.580566,0.644043,-27.992247,22.666929,-0.892639,1.044866783024994
0 days 00:01:15.780000,0.654297,-0.567871,0.578369,-32.730103,22.056578,-17.059326,1.041677847038613
0 days 00:01:15.790000,0.921387,-0.506836,0.740967,-32.958984,-34.736633,-59.272762,1.2864170512528197
0 days 00:01:15.800000,0.743408,-0.514893,0.525879,-37.445068,15.586852,-44.31152,1.0460970215778267
0 days 00:01:15.810000,0.772705,-0.513428,0.571289,-37.467957,3.14331,-54.321285,1.0895193663859308
0 days 00:01:15.820000,0.820801,-0.511475,0.643311,-35.476685,-15.747069,-59.608456,1.1615377737925703
0 days 00:01:15.830000,0.70874,-0.537598,0.53125,-35.987854,20.782469,-31.555174,1.0361228497161907
0 days 00:01:15.840000,0.534912,-0.497803,0.746582,-23.139952,14.198302,24.887083,1.0446642318357606
0 days 00:01:15.850000,0.554443,-0.070313,0.568115,-63.064571,-3.65448,-13.908385,0.7969351362833741
0 days 00:01:15.860000,0.508301,-0.473877,0.75293,-30.578611,-4.707336,26.992796,1.0246135381840316
0 days 00:01:15.870000,0.481689,-0.450928,0.75293,-35.949707,-15.258788,26.649473,1.0011313294493385
0 days 00:01:15.880000,0.441895,-0.402344,0.752197,-41.381832,-24.406431,25.833128,0.9607040190245901
0 days 00:01:15.890000,0.420898,-0.334961,0.740723,-46.82922,-31.066893,23.132322,0.9154368141242737
0 days 00:01:15.900000,0.410645,-0.264648,0.732422,-51.86462,-34.431458,19.02771,0.8804032405738861
0 days 00:01:15.910000,0.407471,-0.202637,0.724854,-56.213375,-33.782959,14.152526,0.8558666315063347
0 days 00:01:15.920000,0.414551,-0.152588,0.71167,-59.68475,-29.602049,8.415222,0.837621524463764
0 days 00:01:15.930000,0.431152,-0.12207,0.686279,-61.843868,-22.842405,2.365112,0.8196169824039763
0 days 00:01:15.940000,0.461914,-0.102295,0.654541,-63.652035,-15.342711,-3.242492,0.807621650961637
0 days 00:01:15.950000,0.501465,-0.08374,0.613281,-64.491272,-8.651733,-8.224487,0.7966135316362634
0 days 00:01:15.960000,1.020996,-0.504639,0.841309,-30.685423,-44.425961,-52.345272,1.4159428610710252
0 days 00:01:15.970000,0.520752,-0.482178,0.753662,-25.970457,5.744934,26.786802,1.0352220435404185
0 days 00:01:15.980000,1.063477,-0.495361,0.918945,-27.091978,-37.857056,-41.305538,1.4902435246881631
0 days 00:01:15.990000,0.432129,-0.348389,0.588867,-5.462646,44.982906,-4.440308,0.8092432957096402
0 days 00:01:16,1.026123,-0.475098,0.949951,-13.557433,20.629881,-19.309998,1.4768389970250648
0 days 00:01:16.010000,0.611572,-0.054443,0.525391,-60.089108,0.450134,-19.798279,0.8080965624936169
0 days 00:01:16.020000,0.476807,-0.589844,0.599121,5.798339,74.127197,-1.800537,0.966543755981073
0 days 00:01:16.030000,0.488525,-0.528564,0.57666,4.898071,74.775696,-1.373291,0.9222653269645347
0 days 00:01:16.040000,0.513184,-0.520752,0.558838,2.510071,73.638916,-1.739502,0.920239302357816
0 days 00:01:16.050000,0.516846,-0.529785,0.564453,0.579834,71.311951,-2.662658,0.9308110029162742
0 days 00:01:16.060000,0.508057,-0.553467,0.575684,-0.862122,68.267822,-3.005981,0.9464986546181668
0 days 00:01:16.070000,0.514648,-0.568848,0.594482,-2.494812,63.84277,-3.997802,0.9704944406497134
0 days 00:01:16.080000,0.521729,-0.573975,0.604492,-3.77655,59.188839,-5.928039,0.9833915944983463
0 days 00:01:16.090000,0.509277,-0.565674,0.615723,-4.570007,54.115292,-7.019042,0.9790122316569901
0 days 00:01:16.100000,0.505127,-0.560303,0.623779,-5.828857,47.241207,-8.544922,0.9788733211090187
0 days 00:01:16.110000,1.067383,-0.490723,0.953125,-21.331785,-14.442443,-29.83856,1.5127996552891596
0 days 00:01:16.120000,0.508057,-0.525146,0.631104,-6.881713,41.000362,-10.368346,0.9655011628066534
0 days 00:01:16.130000,0.427979,-0.38916,0.607422,-6.706237,39.901733,-6.690979,0.8387925942239833
0 days 00:01:16.140000,0.431152,-0.350342,0.575195,-3.631592,53.070065,-2.319336,0.7996754667319738
0 days 00:01:16.150000,0.417725,-0.366211,0.573975,-1.251221,62.721249,1.121521,0.798781555101894
0 days 00:01:16.160000,0.417969,-0.372314,0.584229,1.045227,71.82312,5.966186,0.8090978457504382
0 days 00:01:16.170000,0.443848,-0.362061,0.609863,2.563476,79.75769,10.147094,0.8366732298777104
0 days 00:01:16.180000,0.489014,-0.350098,0.647949,3.15094,87.409966,11.589049,0.8840481934832513
0 days 00:01:16.190000,0.542969,-0.338379,0.70752,3.753662,94.039909,10.375976,0.9538869078680134
0 days 00:01:16.200000,0.625732,-0.363037,0.783936,4.211426,94.795219,6.950378,1.0667202310301422
0 days 00:01:16.210000,0.768066,-0.407471,0.861572,2.082825,83.091728,0.50354,1.2240360727449988
0 days 00:01:16.220000,0.924316,-0.44751,0.915771,-4.585266,56.594845,-9.208679,1.3759584995184266
0 days 00:01:16.230000,0.459961,-0.455811,0.626465,-7.080078,38.444519,-9.498596,0.9009917788010056
0 days 00:01:16.240000,0.467773,-0.638428,0.607178,5.493164,73.348999,-2.883911,0.9975304578793571
0 days 00:01:16.250000,0.656982,-0.014404,0.486816,-55.183407,4.753113,-24.894712,0.8178157747292479
0 days 00:01:16.260000,0.751953,0.065918,0.395508,-43.212887,14.381408,-34.751892,0.8521766688879718
0 days 00:01:16.270000,0.487549,-0.593994,0.592773,104.293816,8.209229,14.015197,0.9705218848464985
0 days 00:01:16.280000,0.488037,-0.641357,0.589844,102.012627,12.878417,11.825561,0.998716606026955
0 days 00:01:16.290000,0.477783,-0.67749,0.589111,100.288383,13.015746,10.581969,1.0170157646319944
0 days 00:01:16.300000,0.488525,-0.702637,0.590332,99.128716,9.651184,9.918213,1.0396380618359449
0 days 00:01:16.310000,0.49585,-0.716553,0.587402,98.777763,4.78363,8.918762,1.0508836919055315
0 days 00:01:16.320000,0.478027,-0.734863,0.564209,98.236076,1.518249,6.462097,1.0425282908290787
0 days 00:01:16.330000,0.45752,-0.767578,0.533936,96.588127,1.609802,3.028869,1.0409554210339653
0 days 00:01:16.340000,0.446533,-0.802246,0.507813,94.367973,4.646301,-0.160217,1.049220857386089
0 days 00:01:16.350000,0.450195,-0.826172,0.483154,91.224663,8.529663,-3.204345,1.057673626089353
0 days 00:01:16.360000,0.494873,-0.828857,0.441162,83.389275,15.640258,-7.392883,1.0613798202443836
0 days 00:01:16.370000,0.477295,-0.540039,0.609863,106.575005,-0.457764,16.181946,0.944132150344961
0 days 00:01:16.380000,0.529297,-0.806885,0.428711,80.070496,17.715454,-8.453369,1.0559412099899312
0 days 00:01:16.390000,0.602051,-0.744629,0.428467,75.401306,18.371582,-11.619567,1.049057541000969
0 days 00:01:16.400000,0.613037,-0.723633,0.43335,74.882507,17.654419,-12.939452,1.0427134335751123
0 days 00:01:16.410000,0.623047,-0.727295,0.419189,73.84491,14.312743,-13.633727,1.0454018361161415
0 days 00:01:16.420000,0.648682,-0.745117,0.389404,71.426392,7.896423,-14.47296,1.0618960194053841
0 days 00:01:16.430000,0.653809,-0.769287,0.36499,68.870544,0.549316,-14.831542,1.0735391920884862
0 days 00:01:16.440000,0.63501,-0.802734,0.343262,65.971375,-5.363464,-13.565063,1.079559343204439
0 days 00:01:16.450000,0.625244,-0.830322,0.30835,61.958309,-9.780884,-11.528014,1.0841791391278472
0 days 00:01:16.460000,0.63208,-0.828125,0.282959,57.456966,-13.420104,-10.31494,1.0795285719729701
0 days 00:01:16.470000,0.627686,-0.802246,0.272705,53.924557,-16.296387,-10.459899,1.0544934215712303
0 days 00:01:16.480000,0.700684,0.035645,0.445068,-49.293514,9.735107,-29.289244,0.830851465970302
0 days 00:01:16.490000,0.570557,-0.775635,0.424072,77.262878,18.486023,-9.857178,1.0521321231946108
0 days 00:01:16.500000,0.480469,-0.490479,0.64209,108.360283,-11.367797,16.75415,0.9400530184526829
0 days 00:01:16.510000,0.475098,-0.83667,0.458008,87.196342,12.290954,-5.813598,1.0656012981260863
0 days 00:01:16.520000,0.560059,-0.41626,0.680664,110.397331,-24.726866,15.441894,0.97480354532439
0 days 00:01:16.530000,0.515625,-0.445801,0.668945,109.588615,-20.790098,16.174316,0.9550366931437765
0 days 00:01:16.540000,0.760254,0.03833,0.306396,-28.160093,20.050049,-45.097347,0.820569218428281
0 days 00:01:16.550000,0.729248,0.000977,0.274902,-18.77594,20.301817,-44.578548,0.7793424854561696
0 days 00:01:16.560000,0.737793,-0.032959,0.272461,-8.529663,19.996643,-41.351315,0.7871847324808835
0 days 00:01:16.570000,0.750488,-0.043457,0.295898,3.486633,21.156309,-36.621094,0.8078838873235435
0 days 00:01:16.580000,0.751953,-0.040039,0.31958,17.227173,25.871275,-31.166075,0.8180267795922087
0 days 00:01:16.590000,0.746826,-0.041016,0.330322,31.913755,33.7677,-25.115965,0.8176454061608859
0 days 00:01:16.600000,0.748535,-0.050049,0.333984,46.257015,41.938778,-18.714905,0.8211911232362415
0 days 00:01:16.610000,0.753418,-0.05835,0.346924,60.150143,47.950741,-12.115478,0.8315044600000653
0 days 00:01:16.620000,0.761475,-0.066406,0.36377,72.929382,50.468441,-5.363464,0.8465119877243322
0 days 00:01:16.630000,0.764648,-0.080811,0.381836,84.266655,49.278255,1.205444,0.8584961924906831
0 days 00:01:16.640000,0.785889,0.062744,0.349365,-36.361694,17.822266,-41.343685,0.862330698213858
0 days 00:01:16.650000,0.736572,-0.13623,0.441406,103.378288,38.497925,13.168334,0.8694459045392071
0 days 00:01:16.660000,0.751465,-0.102539,0.408203,94.520561,44.80743,7.492065,0.8613034203780919
0 days 00:01:16.670000,0.634766,-0.33667,0.667236,113.319389,-16.609192,13.877868,0.980550071822954
0 days 00:01:16.680000,0.697021,-0.292969,0.655762,114.646904,-8.68988,14.129638,1.0008460970828632
0 days 00:01:16.690000,0.731445,-0.248535,0.639404,115.905754,0.076294,17.082214,1.00280551926383
0 days 00:01:16.700000,0.726807,-0.20874,0.616211,117.065422,8.514404,20.790098,0.9754674773512442
0 days 00:01:16.710000,0.588379,-0.381836,0.674805,111.724846,-22.689817,14.877318,0.9733192521274816
0 days 00:01:16.720000,0.710693,-0.180664,0.555176,116.394035,20.713804,22.354124,0.9197523645639624
0 days 00:01:16.730000,0.716309,-0.178955,0.513672,114.295952,25.924681,20.706175,0.8994344884926306
0 days 00:01:16.740000,0.725586,-0.165527,0.47583,110.107414,31.98242,17.631531,0.8833393572263153
0 days 00:01:16.750000,0.717285,-0.185303,0.592285,117.256157,15.35797,22.575377,0.9484916943542521
0 days 00:01:16.760000,-0.9646,-0.18335,0.46167,-31.425474,74.775696,17.76886,1.0849928900227872
0 days 00:01:16.770000,-0.723877,-0.330811,0.415527,11.054992,15.830993,4.15802,0.8978287790993336
0 days 00:01:16.780000,-0.709717,-0.310303,0.36499,6.027221,7.202148,5.53894,0.8562732461066386
0 days 00:01:16.790000,-0.765381,-0.299805,0.315918,-0.88501,-0.305176,8.460999,0.8806221073252704
0 days 00:01:16.800000,-0.85498,-0.303955,0.268311,-10.414123,-0.114441,13.061522,0.9462400515440044
0 days 00:01:16.810000,-0.92627,-0.303223,0.259277,-21.911619,8.071899,17.311096,1.0085360000307377
0 days 00:01:16.820000,-0.950195,-0.276123,0.32373,-30.326841,23.590086,18.539429,1.0411126557937906
0 days 00:01:16.830000,-0.766602,-0.34668,0.470215,13.175963,15.968322,3.547668,0.9638297541729037
0 days 00:01:16.840000,-0.9646,-0.25,0.402344,-33.256531,44.013973,18.157959,1.074631962271735
0 days 00:01:16.850000,-0.981689,-0.227783,0.437012,-33.042908,63.629147,17.318726,1.0984433876873219
0 days 00:01:16.860000,-0.89502,-0.131836,0.494629,-29.426573,69.839478,21.286009,1.0310671069028436
0 days 00:01:16.870000,-0.919922,-0.295654,0.631104,-20.538328,22.491453,42.533871,1.1541057285257708
0 days 00:01:16.880000,-0.79248,-0.115234,0.535889,-27.915953,30.357359,27.664183,0.9635769016933728
0 days 00:01:16.890000,-0.850098,-0.14209,0.562256,-27.816771,18.600464,31.829832,1.029071419892711
0 days 00:01:16.900000,-0.929443,-0.195313,0.594727,-25.703428,18.234253,39.108276,1.1205854107327116
0 days 00:01:16.910000,-0.832764,-0.391113,0.655518,-13.153075,19.233704,37.368774,1.1296765496322387
0 days 00:01:16.920000,-0.810547,-0.444824,0.663574,-7.17163,1.930237,34.591675,1.1380620737292848
0 days 00:01:16.930000,-0.915283,-0.485107,0.663086,-6.103515,-29.640196,44.013973,1.2299409802645003
0 days 00:01:16.940000,-1.059082,-0.524902,0.641602,-12.397765,-71.601868,56.472775,1.3449274771272985
0 days 00:01:16.950000,-1.19873,-0.553223,0.635986,-27.481077,-110.069267,55.076595,1.4654308215760308
0 days 00:01:16.960000,-1.416748,-0.472656,0.71167,-41.557308,-115.142815,46.69952,1.6544040554652903
0 days 00:01:16.970000,-0.796875,-0.340332,0.538086,12.077331,3.952026,3.257751,1.0199863622838297
0 days 00:01:16.980000,-0.819092,-0.109131,0.518311,-28.045652,50.941463,25.253294,0.9754319926811915
0 days 00:01:16.990000,-0.775391,-0.312012,0.602051,8.010864,-16.220093,2.845764,1.0300718895426668
0 days 00:01:17,-1.984619,-0.331299,0.796387,-52.8717,-58.975216,63.415524,2.163955604057301
0 days 00:01:17.010000,-0.605957,-0.316895,0.675049,-3.944397,-50.666805,2.113342,0.9608836970596389
0 days 00:01:17.020000,-0.771729,-0.274414,0.916748,34.988403,-13.122558,28.808592,1.2293476271344081
0 days 00:01:17.030000,-0.808105,-0.306885,0.896729,33.874512,-9.155273,33.485413,1.2455259907729745
0 days 00:01:17.040000,-0.775391,-0.32959,0.92627,33.065796,-3.738403,37.895203,1.2521329337897795
0 days 00:01:17.050000,-0.691162,-0.34668,0.950439,32.943726,-0.762939,41.191097,1.2252453735333997
0 days 00:01:17.060000,-0.560547,-0.360596,0.95459,33.01239,-3.921509,41.427608,1.1642527571472614
0 days 00:01:17.070000,-0.430664,-0.379639,0.926025,32.463074,-13.435363,37.437439,1.0895501603147972
0 days 00:01:17.080000,-0.371826,-0.393066,0.877441,30.616758,-25.512693,32.463074,1.0308531239284286
0 days 00:01:17.090000,-0.390137,-0.39209,0.822021,28.144835,-35.186768,29.739378,0.9907875510471456
0 days 00:01:17.100000,-0.429199,-0.398193,0.771729,24.42169,-40.367123,28.060911,0.9686769824306759
0 days 00:01:17.110000,-0.453857,-0.421875,0.748047,19.02771,-40.985104,26.046751,0.97135936001204
0 days 00:01:17.120000,-0.697754,-0.297607,0.648438,2.159119,-36.964417,2.365112,0.9979491023138404
0 days 00:01:17.130000,-0.46582,-0.445068,0.763916,14.076232,-37.826538,24.093626,0.9993204951765975
0 days 00:01:17.140000,-0.459229,-0.471924,0.784424,7.339477,-28.549192,19.683838,1.0241701753092598
0 days 00:01:17.150000,-0.431885,-0.476563,0.753906,3.311157,-25.650023,16.082764,0.9909647839504692
0 days 00:01:17.160000,-0.406982,-0.463623,0.706055,-1.564026,-24.528502,11.70349,0.9376002866243163
0 days 00:01:17.170000,-0.408936,-0.443115,0.659912,-6.057739,-24.269102,7.225036,0.8939034640636538
0 days 00:01:17.180000,-0.440186,-0.427002,0.62207,-9.773254,-24.818419,4.226685,0.873536208465339
0 days 00:01:17.190000,-0.465576,-0.416992,0.59375,-12.596129,-27.000425,3.135681,0.8620802760416225
0 days 00:01:17.200000,-0.475098,-0.402588,0.592529,-14.404296,-32.76062,2.700805,0.8595846806388536
0 days 00:01:17.210000,-0.468506,-0.386963,0.627441,-14.450072,-41.862484,2.13623,0.8734531721197193
0 days 00:01:17.220000,-0.480713,-0.37085,0.659912,-12.763976,-50.254818,1.701355,0.8967154278883575
0 days 00:01:17.230000,-0.529297,-0.349854,0.673584,-9.384155,-54.298397,1.831055,0.9253477943892231
0 days 00:01:17.240000,-0.471924,-0.460938,0.785645,10.551452,-32.974243,22.209166,1.025872393451057
0 days 00:01:17.250000,-2.371826,-0.127441,0.821289,-67.565918,19.081116,95.565788,2.513228084412157
0 days 00:01:17.260000,-1.80835,0.018311,0.915283,-81.878654,83.602898,96.031181,2.026871477255033
0 days 00:01:17.270000,-1.108643,0.055176,1.14917,-89.530937,121.383659,72.853088,1.5977250643727787
0 days 00:01:17.280000,0.152588,-0.387939,0.721924,15.785216,146.179199,25.459288,0.8336390269421172
0 days 00:01:17.290000,0.199951,-0.403809,0.747314,15.419005,139.160156,21.041868,0.872651319530315
0 days 00:01:17.300000,0.258301,-0.435547,0.761719,15.144347,127.593987,16.654968,0.9146783209254498
0 days 00:01:17.310000,0.301025,-0.469238,0.774414,14.801024,114.326469,12.733459,0.9542103513717507
0 days 00:01:17.320000,0.305664,-0.481201,0.775391,14.564513,103.462212,10.047912,0.9624012085289586
0 days 00:01:17.330000,0.301025,-0.47168,0.76416,13.72528,97.724907,7.93457,0.9471212058786351
0 days 00:01:17.340000,0.293701,-0.450439,0.756592,12.351989,97.358696,5.859375,0.9282171214678169
0 days 00:01:17.350000,0.293213,-0.440186,0.741943,10.604857,100.631706,4.28772,0.911162440629551
0 days 00:01:17.360000,0.311768,-0.441406,0.729492,8.338928,104.476921,2.609253,0.9078530281515835
0 days 00:01:17.370000,0.345947,-0.451416,0.725098,6.156921,106.147758,-0.045776,0.9215328759566855
0 days 00:01:17.380000,0.11499,-0.369141,0.699219,17.555237,149.024963,30.09796,0.7989962377520936
0 days 00:01:17.390000,0.364258,-0.470947,0.719727,4.547119,105.552666,-2.258301,0.9340674075793459
0 days 00:01:17.400000,0.353516,-0.493896,0.714111,1.365662,100.059502,-1.365662,0.9374760484369721
0 days 00:01:17.410000,0.373291,-0.493408,0.718262,0.961304,96.626274,-1.487732,0.9479967962968018
0 days 00:01:17.420000,0.404785,-0.476807,0.721436,0.358582,93.482964,-2.326965,0.9548118733918216
0 days 00:01:17.430000,0.436279,-0.445801,0.717285,0.053406,90.904228,-3.036499,0.9505659728114614
0 days 00:01:17.440000,0.46875,-0.430664,0.702393,-0.556946,89.546196,-4.142761,0.9479208668686432
0 days 00:01:17.450000,0.509277,-0.446045,0.685791,-0.938415,88.150017,-5.523681,0.9636537243403359
0 days 00:01:17.460000,0.54248,-0.480713,0.670898,-0.427246,85.556023,-6.950378,0.9876607034670357
0 days 00:01:17.470000,0.551514,-0.514404,0.652832,0.411987,82.015984,-7.972717,0.9974812216959275
0 days 00:01:17.480000,0.534912,-0.547119,0.635498,1.853943,78.24707,-7.904052,0.994649564373805
0 days 00:01:17.490000,0.50708,-0.592773,0.62085,3.311157,74.874878,-6.431579,0.9969777722843173
0 days 00:01:17.500000,0.362793,-0.489502,0.709473,2.586365,103.057854,-2.449036,0.9351913743090234
0 days 00:01:17.510000,0.071533,-0.357178,0.69165,19.943237,149.986267,35.385132,0.7817114661260893
0 days 00:01:17.520000,0.479736,-0.630371,0.614502,4.760742,73.043823,-4.676819,1.0025601903831012
0 days 00:01:17.530000,-0.013916,-0.387451,0.718262,23.04077,146.980286,45.974728,0.816218250899231
0 days 00:01:17.540000,-0.734131,0.007324,1.468262,-80.955498,124.359123,53.070065,1.6415831586553877
0 days 00:01:17.550000,-0.587158,-0.141846,1.705811,-58.586117,113.69323,47.119137,1.809603816419771
0 days 00:01:17.560000,-0.670898,-0.263916,1.566895,-35.583496,109.504692,54.412838,1.724794400061932
0 days 00:01:17.570000,-0.738037,-0.257324,1.141113,-21.965025,119.956963,64.804077,1.3831316398354858
0 days 00:01:17.580000,-0.657227,-0.226563,0.872559,-15.457152,135.322571,70.159912,1.1156331525098202
0 days 00:01:17.590000,-0.514893,-0.244629,0.810059,-11.802672,147.834778,71.502686,0.9905320452014664
0 days 00:01:17.600000,0.030273,-0.369629,0.697021,22.14813,149.375916,40.634151,0.7895443791269747
0 days 00:01:17.610000,-0.303955,-0.312012,0.838135,-8.880615,158.706665,67.520142,0.9445689008187809
0 days 00:01:17.620000,-0.257324,-0.321777,0.854248,-8.659363,155.296326,64.781189,0.9484174841329107
0 days 00:01:17.630000,-0.248047,-0.321777,0.879639,-8.163452,146.888733,65.551758,0.9689337037480944
0 days 00:01:17.640000,-0.239502,-0.327637,0.915771,-6.614685,135.932922,68.161011,1.0016704728672001
0 days 00:01:17.650000,-0.39209,-0.282959,0.82251,-9.666443,156.021118,70.617676,0.9541085178746702
0 days 00:01:17.660000,-0.135742,-0.350342,0.958984,-3.227234,117.332451,68.67218,1.029959086461205
0 days 00:01:17.670000,-0.115234,-0.337158,0.941162,-0.831604,114.273064,67.260742,1.0063499897967902
0 days 00:01:17.680000,-0.095703,-0.326172,0.89209,1.953125,114.868156,64.51416,0.9546579523017656
0 days 00:01:17.690000,-0.064697,-0.334229,0.843506,3.799438,117.889397,61.180111,0.9096137082773104
0 days 00:01:17.700000,-0.034424,-0.353027,0.798828,5.821228,122.390739,59.364315,0.8740361823683274
0 days 00:01:17.710000,0.005859,-0.379395,0.75708,7.606506,125.991814,56.716915,0.8468441534934276
0 days 00:01:17.720000,0.009033,-0.407715,0.721924,9.536743,128.341675,53.039547,0.8291485862558049
0 days 00:01:17.730000,-0.065918,-0.420166,0.70166,13.061522,131.858826,52.940365,0.820494610512464
0 days 00:01:17.740000,-0.109375,-0.428223,0.700195,16.998291,137.252808,54.122921,0.828016223499878
0 days 00:01:17.750000,-0.067871,-0.414307,0.7229,20.683287,142.837524,51.513668,0.8359672080231376
0 days 00:01:17.760000,-0.196289,-0.342285,0.942627,-4.699707,124.862663,69.374084,1.0218777098435017
0 days 00:01:17.770000,-1.00293,0.355469,0.726318,-8.460999,97.114555,7.041931,1.2883185289302488
0 days 00:01:17.780000,-0.975586,0.349121,0.686279,-10.292052,68.855286,4.447937,1.2428324029723397
0 days 00:01:17.790000,-0.956299,0.351563,0.670898,-10.810851,43.746944,1.670837,1.2199214920534847
0 days 00:01:17.800000,-0.909912,0.327148,0.668945,-12.733459,24.597166,-1.190186,1.1757776467823329
0 days 00:01:17.810000,-0.813965,0.304688,0.760742,-20.149229,19.309998,-0.213623,1.1550334147257386
0 days 00:01:17.820000,-0.824707,0.283203,0.716553,-13.603209,11.337279,-4.127502,1.128624728094773
0 days 00:01:17.830000,-0.808594,0.285645,0.741211,-14.617919,12.306212,-3.120422,1.1334950680889617
0 days 00:01:17.840000,-0.799316,0.293945,0.756104,-17.021179,16.014099,-1.51062,1.1388603907841381
0 days 00:01:17.850000,-0.856445,0.296875,0.68335,-13.511657,14.282226,-3.494262,1.1351651977355544
0 days 00:01:17.860000,-0.994629,0.376953,0.775879,-3.051758,125.846855,8.506775,1.3165745837175347
0 days 00:01:17.870000,-0.556152,0.321533,0.867432,87.783806,-19.203186,22.994993,1.0794103908231567
0 days 00:01:17.880000,-0.854248,0.46167,0.83252,15.174865,160.819992,7.850646,1.2790497976247837
0 days 00:01:17.890000,-0.745361,0.522705,0.838867,27.084349,163.505539,7.118225,1.237934320162019
0 days 00:01:17.900000,-0.614502,0.55127,0.840088,38.154602,152.946472,10.848998,1.1778196672869747
0 days 00:01:17.910000,-0.481201,0.523682,0.864502,46.836849,131.019592,16.197205,1.1194467149127734
0 days 00:01:17.920000,-0.37915,0.455322,0.890381,55.206295,104.156487,18.783569,1.0695097808552292
0 days 00:01:17.930000,-0.32666,0.354492,0.937012,62.416073,75.408936,19.927979,1.0537375488270313
0 days 00:01:17.940000,-0.288818,0.266602,1.002441,69.122314,45.280453,19.821167,1.0767452911478181
0 days 00:01:17.950000,-0.254395,0.269287,1.024902,83.351128,14.785766,18.798828,1.0897965011863453
0 days 00:01:17.960000,-0.272949,0.333984,1.010498,105.316154,-6.54602,13.946532,1.0987049999253666
0 days 00:01:17.970000,-0.406738,0.296143,0.907715,101.409904,-11.070251,10.047912,1.0378260925212857
0 days 00:01:17.980000,-0.835205,0.304688,0.765137,-23.506163,20.027161,-0.419617,1.1729606976101117
0 days 00:01:17.990000,-0.930664,0.410889,0.80957,4.524231,147.850037,8.918762,1.30014185230574
0 days 00:01:18,-0.849854,0.28833,0.769531,-26.145933,17.929077,-1.998901,1.182186097946089
0 days 00:01:18.010000,-0.797852,0.285645,0.739502,-3.39508,23.948668,-11.95526,1.1247328962615968
0 days 00:01:18.020000,-0.826172,0.252197,0.769775,-28.907774,8.522034,-8.300781,1.157029408017791
0 days 00:01:18.030000,-0.515381,0.22583,0.77002,68.527222,-25.566099,30.784605,0.9537020312765409
0 days 00:01:18.040000,-0.85376,0.39624,0.638428,-43.601986,-19.737244,-15.731811,1.1373225516026664
0 days 00:01:18.050000,-0.841553,0.35498,0.674072,-37.567139,-15.289306,-16.372681,1.1351631219313814
0 days 00:01:18.060000,-0.81958,0.338379,0.700684,-31.265257,-13.824462,-16.120911,1.1301193706405532
0 days 00:01:18.070000,-0.792969,0.32666,0.700439,-26.268003,-14.541625,-15.396117,1.107303654505845
0 days 00:01:18.080000,-0.772949,0.30835,0.688721,-22.445677,-15.754699,-14.694213,1.0802159482908962
0 days 00:01:18.090000,-0.78125,0.290283,0.673828,-19.424438,-15.541076,-14.160155,1.071755548701755
0 days 00:01:18.100000,-0.799561,0.272461,0.66626,-17.25769,-12.649535,-14.869689,1.0758416132693511
0 days 00:01:18.110000,-0.818115,0.252686,0.678223,-15.296935,-8.216858,-15.876769,1.092313510650674
0 days 00:01:18.120000,-0.8396,0.241699,0.69751,-12.825011,-3.013611,-16.044617,1.1179744034194163
0 days 00:01:18.130000,-0.851074,0.264893,0.773193,-27.816771,13.587951,-4.867554,1.1799672326696196
0 days 00:01:18.140000,-0.852783,0.241699,0.706543,-10.44464,4.333496,-16.113281,1.133516767647925
0 days 00:01:18.150000,-0.84668,0.280273,0.727295,-5.279541,20.309446,-13.96942,1.150816229444997
0 days 00:01:18.160000,-0.732422,0.279297,0.734619,-2.349854,23.132322,-11.619567,1.0742969214579368
0 days 00:01:18.170000,-0.69458,0.266602,0.716797,-3.875732,19.668579,-12.130736,1.033109840245944
0 days 00:01:18.180000,-0.668213,0.25708,0.712158,-7.583618,13.824462,-12.428283,1.0098355097405716
