t,ax,ay,az,gx,gy,gz,acc_mag
0 days 00:01:06.300000,0.44043,-0.278809,0.862793,-5.775451,14.625548,-2.784729,1.0080301603771584
0 days 00:01:06.310000,0.357178,-0.397949,1.022461,30.822752,-14.068603,-2.76947,1.153848355203577
0 days 00:01:06.320000,0.311279,-0.412598,0.990967,14.85443,6.622314,1.64032,1.11765259384748
0 days 00:01:06.330000,0.295898,-0.356201,0.9375,-0.022888,30.456541,-3.974914,1.0456294892575477
0 days 00:01:06.340000,0.330566,-0.341797,0.933105,-3.456115,31.326292,-5.706787,1.0472745631351885
0 days 00:01:06.350000,0.343018,-0.348145,0.948486,-6.340026,29.953001,-7.446289,1.0670013971616907
0 days 00:01:06.360000,0.36084,-0.34668,0.957275,-8.644104,27.458189,-8.110046,1.0801703354679761
0 days 00:01:06.370000,0.373291,-0.331787,0.939941,-9.796143,25.619505,-7.247924,1.0643861458751707
0 days 00:01:06.380000,0.386719,-0.316162,0.909668,-10.154723,24.414061,-5.828857,1.0377889310592014
0 days 00:01:06.390000,0.407471,-0.306885,0.888428,-9.529114,22.682188,-4.943848,1.0244585546765668
0 days 00:01:06.400000,0.429443,-0.304932,0.889648,-8.491516,20.423887,-4.486084,1.033865745044781
0 days 00:01:06.410000,0.441162,-0.300781,0.891602,-7.400512,17.868042,-3.807068,1.0392532158280772
0 days 00:01:06.420000,0.331055,-0.384277,1.000977,22.567747,-5.996704,-0.144958,1.1221502485331454
0 days 00:01:06.430000,0.30835,-0.404785,1.014648,116.706841,-114.799492,19.416809,1.1350952306432267
0 days 00:01:06.440000,0.426758,-0.275879,0.846191,3.601074,-3.875732,4.653931,0.9870515800534438
0 days 00:01:06.450000,0.408936,-0.287354,0.845215,3.65448,-2.342224,4.425049,0.9819314485426159
0 days 00:01:06.460000,0.400635,-0.309082,0.866211,2.304077,1.098633,1.693725,1.0031757485455874
0 days 00:01:06.470000,0.422607,-0.297607,0.859131,0.473022,4.081726,0.831604,1.0026328730193321
0 days 00:01:06.480000,0.435547,-0.291992,0.858154,-1.014709,5.645751,0.984192,1.0056782810566212
0 days 00:01:06.490000,0.42749,-0.308838,0.851074,-2.563476,7.400512,0.656128,1.0012270291097818
0 days 00:01:06.500000,0.416748,-0.31958,0.851318,-4.40979,9.033203,-0.312805,1.0002762663524511
0 days 00:01:06.510000,0.422119,-0.322266,0.860107,-6.240844,9.803772,-1.220703,1.0108530439020302
0 days 00:01:06.520000,0.425293,-0.31665,0.867432,-8.117676,10.437011,-1.914978,1.0166511854972677
0 days 00:01:06.530000,0.440674,-0.307617,0.874268,-9.963989,10.643004,-2.159119,1.0262389238325547
0 days 00:01:06.540000,0.449219,-0.295654,0.877197,-11.795043,11.032104,-1.815796,1.0289235027376913
0 days 00:01:06.550000,0.449219,-0.29126,0.876465,-13.885497,12.107848,-1.602173,1.0270447866505141
0 days 00:01:06.560000,0.422607,-0.287842,0.86792,4.40979,-3.433227,2.845764,1.007340468666379
0 days 00:01:06.570000,0.444092,-0.289795,0.877686,-16.334534,13.71765,-1.579285,1.0254421295641212
0 days 00:01:06.580000,0.43335,-0.293701,0.87207,-21.858213,18.966675,-1.686096,1.0171325305981518
0 days 00:01:06.590000,0.427002,-0.283936,0.859863,-24.635313,22.811888,-1.914978,1.001156700456527
0 days 00:01:06.600000,0.435303,-0.275146,0.850098,-26.908873,26.43585,-2.13623,0.9939117831724302
0 days 00:01:06.610000,0.457031,-0.264648,0.843262,-28.175352,27.709959,-2.105713,0.9949908037308686
0 days 00:01:06.620000,0.459229,-0.247803,0.832031,-28.442381,28.526304,-2.197266,0.9821268686941621
0 days 00:01:06.630000,0.45166,-0.240479,0.815186,-28.060911,30.021666,-2.502441,0.9624734384059644
0 days 00:01:06.640000,0.445557,-0.234863,0.799316,-27.084349,31.715391,-3.059387,0.944768615521282
0 days 00:01:06.650000,0.438477,-0.225098,0.787842,-25.871275,33.493042,-3.723144,0.9293149122321239
0 days 00:01:06.660000,0.433105,-0.217773,0.780029,-24.383543,35.415649,-4.371643,0.9183954820201371
0 days 00:01:06.670000,0.434326,-0.215088,0.784424,-22.819517,37.605286,-5.187988,0.9220753406289532
0 days 00:01:06.680000,0.436035,-0.296387,0.877686,-19.165039,16.090393,-1.548767,1.0238674179746126
0 days 00:01:06.690000,0.438965,-0.282471,0.854736,5.737304,-5.226135,3.166198,1.0015257194710478
0 days 00:01:06.700000,0.418213,-0.278564,0.842529,3.723144,-3.295898,4.669189,0.9809970088160309
0 days 00:01:06.710000,0.456543,-0.272217,0.845703,6.210327,-6.29425,4.081726,0.9988729499525953
0 days 00:01:06.720000,0.395996,-0.291504,0.848877,3.27301,-1.037598,3.875732,0.9810094674165994
0 days 00:01:06.730000,0.39209,-0.295654,0.861572,2.410889,0.343323,2.807617,0.9916915684828626
0 days 00:01:06.740000,0.394043,-0.298828,0.869385,1.296997,1.678467,1.701355,1.000199148998838
0 days 00:01:06.750000,0.402832,-0.294434,0.869873,0.061035,2.830505,1.098633,1.002818047658198
0 days 00:01:06.760000,0.415039,-0.291016,0.865723,-0.961304,3.807068,0.953674,1.0032068562893697
0 days 00:01:06.770000,0.427734,-0.287598,0.864258,-1.731872,4.066467,1.235962,1.0062856825593813
0 days 00:01:06.780000,0.434814,-0.286133,0.847168,6.256103,-5.317688,3.585815,0.9942982090444497
0 days 00:01:06.790000,0.424316,-0.274658,0.850586,-2.616882,5.378723,1.953125,0.9894329831858244
0 days 00:01:06.800000,0.422119,-0.281494,0.848145,-3.059387,6.530761,2.128601,0.9883184017420702
0 days 00:01:06.810000,0.428711,-0.2771,0.843018,-3.158569,7.240295,2.372742,0.9855236576790027
0 days 00:01:06.820000,0.437012,-0.278564,0.852783,-3.196716,6.576538,2.403259,0.9979059250896348
0 days 00:01:06.830000,0.429199,-0.277344,0.858154,-2.258301,4.371643,1.594543,0.998779136572746
0 days 00:01:06.840000,0.437988,-0.279785,0.847412,-2.845764,5.516052,2.685547,0.994092667769459
0 days 00:01:06.850000,0.439697,-0.280762,0.848877,-2.441406,4.898071,2.861023,0.9963698678613279
0 days 00:01:06.860000,0.439941,-0.280518,0.844482,-2.319336,5.012512,2.830505,0.9926672554935012
0 days 00:01:06.870000,0.456055,-0.272705,0.838867,-1.594543,4.241943,2.952575,0.9930015225260231
0 days 00:01:06.880000,0.46167,-0.27124,0.839844,-0.656128,3.295898,3.303528,0.9960162000871271
0 days 00:01:06.890000,0.464355,-0.262939,0.828369,0.717163,2.372742,3.509521,0.9853718505757103
0 days 00:01:06.900000,0.473633,-0.26001,0.829834,2.13623,0.534058,3.89862,0.990231228726402
0 days 00:01:06.910000,0.475342,-0.267578,0.835938,3.532409,-1.701355,4.02832,0.9981684942393243
0 days 00:01:06.920000,0.472412,-0.263672,0.837402,4.798889,-3.852844,4.196167,0.9969644582090176
0 days 00:01:06.930000,0.466064,-0.263916,0.841309,5.691528,-5.477905,4.257202,0.9973305072206504
0 days 00:01:06.940000,0.437988,-0.282471,0.851563,-3.044128,5.91278,2.532959,0.9983901526727915
0 days 00:01:06.950000,0.739014,0.784424,0.398193,-24.078367,-68.809509,-15.800475,1.1489213938390215
0 days 00:01:06.960000,0.760742,0.728516,0.387451,-25.375364,-62.873837,-19.317627,1.1223111111545676
0 days 00:01:06.970000,0.786865,0.662842,0.466553,-27.297972,-58.753963,-21.606443,1.129684799843744
0 days 00:01:06.980000,0.823975,0.601563,0.557129,-27.57263,-57.586666,-23.605345,1.1624136811974468
0 days 00:01:06.990000,1.119385,0.424805,1.10791,13.748168,24.79553,-44.212337,1.631240826594896
0 days 00:01:07,1.115723,0.504395,0.894287,-16.334534,-50.292965,-27.099607,1.516245813554979
0 days 00:01:07.010000,1.210938,0.453613,1.049316,-7.125854,-29.846189,-32.470703,1.6652926654101974
0 days 00:01:07.020000,1.19751,0.42334,1.116699,3.40271,-1.548767,-38.772583,1.6912313893435753
0 days 00:01:07.030000,0.955811,0.553467,0.696777,-23.452757,-57.769772,-24.406431,1.3059090992634212
0 days 00:01:07.040000,0.699463,0.830078,0.385498,-23.880003,-74.661255,-12.4588,1.151905674288047
0 days 00:01:07.050000,0.396729,0.897949,0.040283,21.385191,-21.942137,-37.200928,0.9825115908379911
0 days 00:01:07.060000,0.541992,0.893555,0.186279,-26.016233,-71.937561,-12.573241,1.061553452224616
0 days 00:01:07.070000,0.506592,0.922607,0.050293,-22.514341,-64.781189,-13.710021,1.053740251087525
0 days 00:01:07.080000,0.495605,0.932617,-0.092529,-14.35852,-60.363766,-17.219543,1.0601699866318608
0 days 00:01:07.090000,0.498535,0.904541,-0.067139,-9.101868,-62.95776,-21.675108,1.0350068657873726
0 days 00:01:07.100000,0.508301,0.885742,0.070068,-6.439209,-69.641113,-23.834227,1.0236299730806049
0 days 00:01:07.110000,0.499268,0.877441,0.178955,-3.90625,-75.378418,-25.329588,1.0252785652348342
0 days 00:01:07.120000,0.459229,0.884033,0.225342,-2.128601,-76.705933,-27.122496,1.0213641057399656
0 days 00:01:07.130000,0.398926,0.915771,0.194824,-0.335693,-69.190979,-29.792784,1.017710601739512
0 days 00:01:07.140000,0.35376,0.950195,0.123047,4.508972,-53.901669,-32.905579,1.0213506938529977
0 days 00:01:07.150000,0.358643,0.946777,0.04541,12.84027,-35.644531,-34.934998,1.0134463761235717
0 days 00:01:07.160000,1.039795,0.454346,1.052246,23.681639,45.211788,-48.59161,1.5475223986285305
0 days 00:01:07.170000,0.622314,0.866699,0.298828,-24.932859,-76.652527,-11.970519,1.1080343157055201
0 days 00:01:07.180000,0.967285,0.50708,0.956787,32.791138,61.141964,-52.139278,1.4519682369094717
0 days 00:01:07.190000,0.393799,0.820313,-0.052002,42.434689,74.226379,-20.050049,0.9114248616172371
0 days 00:01:07.200000,0.791992,0.579346,0.725098,45.181271,87.303154,-54.77142,1.220106645086404
0 days 00:01:07.210000,0.44458,0.830078,0.148926,23.857115,-19.706726,-42.434689,0.9533413952829279
0 days 00:01:07.220000,0.280762,1.014404,-0.133545,23.483274,5.432128,-19.416809,1.060979284851971
0 days 00:01:07.230000,0.284668,0.999756,-0.142822,24.955748,13.488769,-18.196106,1.0492597645216366
0 days 00:01:07.240000,0.276123,0.979004,-0.150391,25.93231,22.735594,-17.288208,1.028255900068655
0 days 00:01:07.250000,0.275879,0.962402,-0.152832,27.183531,31.257627,-16.395569,1.01276080713513
0 days 00:01:07.260000,0.280762,0.947021,-0.140869,28.732298,39.405823,-15.563964,0.9977575608563435
0 days 00:01:07.270000,0.283447,0.925293,-0.110596,30.487059,46.310421,-15.11383,0.9740332709276414
0 days 00:01:07.280000,0.299072,0.89917,-0.092529,32.493591,51.826473,-15.167235,0.9521094295956742
0 days 00:01:07.290000,0.316162,0.876709,-0.095947,34.889221,56.02264,-16.029358,0.9369006925677875
0 days 00:01:07.300000,0.337158,0.855957,-0.0896,37.200928,59.288021,-16.830444,0.9243192429096129
0 days 00:01:07.310000,0.882568,0.558594,0.844482,40.138245,75.111389,-54.428097,1.3431691553129115
0 days 00:01:07.320000,0.354004,0.834229,-0.080811,38.925171,62.492367,-17.219543,0.9098281563998776
0 days 00:01:07.330000,0.37207,0.821777,-0.076172,41.252132,70.419312,-19.355774,0.9052931548470915
0 days 00:01:07.340000,0.380859,0.812988,-0.001465,42.297359,80.436699,-20.606993,0.8977779303647424
0 days 00:01:07.350000,0.347412,0.801025,0.052246,41.633602,89.721672,-22.270201,0.8746803947071181
0 days 00:01:07.360000,0.340088,0.799072,0.078857,42.251583,98.449699,-25.367735,0.8720059262281421
0 days 00:01:07.370000,0.37207,0.789551,0.127686,43.937679,105.331413,-28.915403,0.8821171016917199
0 days 00:01:07.380000,0.408936,0.76001,0.199463,45.883175,110.755913,-32.501221,0.8857930574152181
0 days 00:01:07.390000,0.45166,0.718506,0.260742,47.615047,113.319389,-37.353516,0.8878254435416908
0 days 00:01:07.400000,0.513672,0.673584,0.348877,49.34692,112.365715,-43.212887,0.9161274418818596
0 days 00:01:07.410000,0.601318,0.631348,0.48291,49.903866,106.979362,-48.84338,0.9966873643866466
0 days 00:01:07.420000,0.698975,0.598145,0.610352,48.622128,97.93853,-52.886959,1.104025840075313
0 days 00:01:07.430000,0.361084,0.822754,-0.077393,39.962769,66.429138,-17.951965,0.9018289616224354
0 days 00:01:07.440000,0.256348,1.010986,-0.129395,21.217344,-1.289368,-20.240782,1.050975763433677
0 days 00:01:07.450000,0.488525,0.823242,0.27002,22.02606,-27.076719,-47.302242,0.9946330311170044
0 days 00:01:07.460000,0.473145,0.919922,0.301514,20.721434,-46.272274,-49.72839,1.0775125842907822
0 days 00:01:07.470000,0.841309,0.070313,0.401855,114.219658,-103.706352,-87.432854,0.9350038462354046
0 days 00:01:07.480000,0.821045,0.046143,0.424805,112.663261,-106.735222,-83.015434,0.9255827118626406
0 days 00:01:07.490000,0.840332,0.017578,0.44458,112.319939,-108.711235,-77.705383,0.9508513199801533
0 days 00:01:07.500000,0.868164,-0.009277,0.46167,112.617485,-110.946648,-71.784973,0.9833280136988879
0 days 00:01:07.510000,0.882813,-0.022705,0.491943,113.18969,-113.319389,-65.704346,1.0108819046965871
0 days 00:01:07.520000,0.886719,-0.050049,0.537598,112.953178,-113.319389,-58.700558,1.038165255133305
0 days 00:01:07.530000,0.865723,-0.088379,0.571289,112.197868,-106.765739,-51.223751,1.0409890882670194
0 days 00:01:07.540000,0.842041,-0.125244,0.594238,111.213676,-93.482964,-44.31152,1.0381897253686343
0 days 00:01:07.550000,0.86377,-0.140381,0.625,110.145561,-80.070496,-35.896301,1.075374557101385
0 days 00:01:07.560000,0.844971,-0.169189,0.763916,101.562492,-61.767574,-20.408628,1.1515939230553451
0 days 00:01:07.570000,0.865234,0.087158,0.371582,115.95153,-99.479668,-91.934196,0.9456741375569071
0 days 00:01:07.580000,0.826416,-0.162109,0.787842,95.901482,-58.464046,-16.609192,1.1532292703105484
0 days 00:01:07.590000,0.943604,-0.125488,0.843994,95.428459,-87.936394,-7.713317,1.2721877294629123
0 days 00:01:07.600000,0.916504,-0.096191,0.858643,102.645866,-114.288322,-2.815246,1.2595634529256556
0 days 00:01:07.610000,0.841797,-0.112793,0.870605,111.076347,-134.727478,1.594543,1.2162637526799027
0 days 00:01:07.620000,0.761719,-0.153809,0.875732,118.370049,-145.042419,8.728027,1.1708029634682344
0 days 00:01:07.630000,0.675293,-0.207764,0.864746,122.703545,-148.323059,15.830993,1.116679076575271
0 days 00:01:07.640000,0.562988,-0.251953,0.87793,124.664299,-147.422791,20.568846,1.0729384359100014
0 days 00:01:07.650000,0.456055,-0.300537,0.912109,125.251762,-141.845703,23.338316,1.0631328605941028
0 days 00:01:07.660000,0.378418,-0.340576,0.953613,124.679558,-132.606506,22.193907,1.0810041388769054
0 days 00:01:07.670000,0.327881,-0.366455,0.985352,122.894279,-123.26049,20.256041,1.1012328459912553
0 days 00:01:07.680000,0.503662,0.866699,0.315674,20.500181,-38.650513,-48.957821,1.0509484483650946
0 days 00:01:07.690000,0.882568,-0.152588,0.815674,93.490593,-66.825867,-12.680053,1.2114179487872878
0 days 00:01:07.700000,0.879395,0.099854,0.333008,116.859428,-93.360893,-97.602837,0.9456218670298399
0 days 00:01:07.710000,0.88623,-0.157471,0.692383,107.406609,-70.350647,-26.733397,1.135603340709246
0 days 00:01:07.720000,0.86377,0.154785,0.288818,113.998405,-77.11792,-109.901421,0.9238359411978947
0 days 00:01:07.730000,0.409424,0.946533,0.24707,21.362303,-45.806881,-51.36108,1.060469856603666
0 days 00:01:07.740000,0.884521,0.122314,0.300537,116.493217,-85.479729,-103.912346,0.9421574191216668
0 days 00:01:07.750000,0.341553,0.96167,0.143066,25.0473,-34.439087,-55.099483,1.0305025575247255
0 days 00:01:07.760000,0.290527,0.939941,0.017334,34.584045,-14.404296,-60.737606,0.9839692519413399
0 days 00:01:07.770000,0.30249,0.858643,-0.053467,46.32568,5.119323,-67.390442,0.9119357003857235
0 days 00:01:07.780000,0.376953,0.751221,0.004883,54.084774,13.458251,-74.325562,0.8405060373007442
0 days 00:01:07.790000,0.477539,0.688477,0.122803,57.464596,7.339477,-78.392029,0.8468321279090679
0 days 00:01:07.800000,0.476318,0.658203,0.277344,56.816097,-17.402649,-82.733147,0.8585043509901391
0 days 00:01:07.810000,0.452148,0.677979,0.283447,57.434078,-31.166075,-88.424675,0.8628067803129504
0 days 00:01:07.820000,0.452881,0.697266,0.200684,60.905453,-45.448299,-95.92437,0.8553099688259221
0 days 00:01:07.830000,0.460449,0.697754,0.063721,68.748474,-55.198666,-103.523247,0.8384117675450411
0 days 00:01:07.840000,0.509521,0.661377,0.217529,57.769772,-5.226135,-79.50592,0.8627572378201182
0 days 00:01:07.850000,0.510254,0.589844,-0.129395,95.176689,-60.6842,-117.256157,0.7905808971111054
0 days 00:01:07.860000,0.822754,0.189697,0.299072,109.931938,-68.115234,-114.44091,0.8957416801226791
0 days 00:01:07.870000,0.484131,0.660889,-0.070801,81.100456,-60.020443,-111.053459,0.8222954925590921
0 days 00:01:07.880000,0.735107,0.268311,0.345459,102.928154,-53.474422,-117.797844,0.8554034222815571
0 days 00:01:07.890000,0.685547,0.277344,0.379883,101.303093,-48.286434,-119.667046,0.8313876816708315
0 days 00:01:07.900000,0.632568,0.27832,0.388672,101.631157,-44.898983,-121.826164,0.7928872685369592
0 days 00:01:07.910000,0.770752,0.234375,0.319824,105.850212,-60.066219,-116.722099,0.8667627571054262
0 days 00:01:07.920000,0.564209,0.311035,0.250977,107.711784,-47.309872,-121.047966,0.6914217391975754
0 days 00:01:07.930000,0.537598,0.381348,0.103516,108.970634,-53.482052,-119.728081,0.6671982231421184
0 days 00:01:07.940000,0.525879,0.487305,-0.052979,105.583183,-58.494564,-119.171135,0.7189030950740162
0 days 00:01:07.950000,0.591309,0.281494,0.34668,104.385368,-44.227596,-122.161858,0.7409940808920136
0 days 00:01:07.960000,0.240723,0.876465,-0.282959,66.764832,65.765381,-27.122496,0.9519476112869868
0 days 00:01:07.970000,0.209961,0.910645,-0.47876,-8.522034,-43.746944,5.332946,1.050032892411471
0 days 00:01:07.980000,0.202393,0.90918,-0.4375,0.061035,-32.623291,1.777649,1.0290662995400248
0 days 00:01:07.990000,0.192383,0.915283,-0.385498,8.346558,-21.667479,-1.861572,1.0116140058253444
0 days 00:01:08,0.192383,0.924072,-0.366455,16.853333,-10.368346,-5.355834,1.0125263191137306
0 days 00:01:08.010000,0.189697,0.922119,-0.342773,24.841307,1.235962,-9.300232,1.0018890814351658
0 days 00:01:08.020000,0.198486,0.921143,-0.333252,32.714844,13.114928,-12.7182,0.9994788712869322
0 days 00:01:08.030000,0.20459,0.912598,-0.337402,41.061398,26.153563,-16.120911,0.9942496101623576
0 days 00:01:08.040000,0.20459,0.905518,-0.327393,49.713131,39.634705,-19.78302,0.9843810709643903
0 days 00:01:08.050000,0.218994,0.896729,-0.313721,58.403011,52.955624,-23.460386,0.9749369914604739
0 days 00:01:08.060000,0.266602,0.857178,-0.246582,75.592041,76.339722,-30.921934,0.9309314866369061
0 days 00:01:08.070000,0.661621,0.701904,0.219971,152.252197,81.222527,-54.237362,0.9893426169421794
0 days 00:01:08.080000,0.307129,0.834229,-0.194336,93.65081,89.645378,-38.742065,0.909963036599839
0 days 00:01:08.090000,0.325195,0.821533,-0.154297,102.302544,92.506401,-43.273922,0.8969257618794322
0 days 00:01:08.100000,0.358154,0.809082,-0.138428,111.991875,92.498772,-48.027035,0.8955725998622334
0 days 00:01:08.110000,0.409668,0.777344,-0.092773,120.780937,88.882439,-52.040096,0.883571385960976
0 days 00:01:08.120000,0.471436,0.758789,-0.038574,128.707886,82.733147,-54.740902,0.894147975501259
0 days 00:01:08.130000,0.515381,0.748291,-0.005615,136.322021,76.667786,-56.922909,0.9086190203088421
0 days 00:01:08.140000,0.556885,0.733154,0.052979,142.578125,72.402954,-58.227535,0.9221943750544133
0 days 00:01:08.150000,0.589111,0.727783,0.104736,147.399902,71.243286,-58.326717,0.9421727522625561
0 days 00:01:08.160000,0.622559,0.723145,0.150146,150.894165,74.462891,-56.922909,0.9659514588332065
0 days 00:01:08.170000,0.198242,0.919678,-0.531006,-17.723083,-55.122372,8.979797,1.0803124021707795
0 days 00:01:08.180000,0.289795,0.849121,-0.233154,84.9533,84.053032,-34.851074,0.9270104650876385
0 days 00:01:08.190000,0.192139,0.928711,-0.608643,-27.099607,-67.955017,12.626647,1.1268841192824575
0 days 00:01:08.200000,0.634521,0.994141,0.61377,34.637451,65.963745,22.346495,1.3295288038331474
0 days 00:01:08.210000,0.236572,0.932129,-0.782715,-48.957821,-88.821404,20.278929,1.2399490130848123
0 days 00:01:08.220000,0.714355,0.675537,0.332031,150.039673,89.691154,-50.788876,1.0377369075806258
0 days 00:01:08.230000,0.590088,0.628906,0.786377,11.360168,116.119377,35.858154,1.1670969928454962
0 days 00:01:08.240000,0.536865,0.418701,0.942871,-10.986327,169.174179,51.261898,1.1629876518119184
0 days 00:01:08.250000,0.731445,0.245117,1.00293,-11.009215,175.285324,55.664059,1.2652915539961531
0 days 00:01:08.260000,1.138184,0.01416,1.064697,-1.693725,97.755424,30.3421,1.5586029081408133
0 days 00:01:08.270000,1.475586,0.064697,1.226318,9.590149,-41.770931,-9.475708,1.9197384150787316
0 days 00:01:08.280000,1.322754,0.103027,1.15625,-28.648375,-142.608643,-12.08496,1.7598882833137448
0 days 00:01:08.290000,1.16626,-0.28833,0.817627,-167.762741,-154.220581,-42.266842,1.4532069665498442
0 days 00:01:08.300000,0.827393,1.429199,-0.121338,-137.962341,-123.092644,-34.52301,1.655871935958213
0 days 00:01:08.310000,-0.513184,4.89917,-1.095215,198.722824,-137.481689,110.694878,5.04625805949131
0 days 00:01:08.320000,-0.160156,4.31958,-2.067871,249.992355,-208.961472,-75.721741,4.791712824593832
0 days 00:01:08.330000,1.475098,-1.043945,-1.385254,52.001949,-4.882813,-106.178276,2.276985708594808
0 days 00:01:08.340000,4.361572,-6.287598,4.597656,-233.665451,-114.547722,178.459152,8.927241433675018
0 days 00:01:08.350000,1.356934,-0.288818,0.18042,-249.847397,-249.992355,83.412163,1.3990128998261595
0 days 00:01:08.360000,0.543457,0.461182,-0.903564,-249.641403,-242.568954,75.004578,1.1508528359738268
0 days 00:01:08.370000,0.483154,0.605957,-1.13208,-249.992355,-218.009933,68.939209,1.3719427101613972
0 days 00:01:08.380000,0.447266,0.71582,-1.273438,-245.956406,-188.529953,63.774105,1.527772720989611
0 days 00:01:08.390000,0.419434,0.780029,-1.320313,-211.112961,-161.262497,57.777401,1.5898416710999874
0 days 00:01:08.400000,0.370117,0.816895,-1.304199,-175.5905,-138.954163,51.36871,1.5827947012531347
0 days 00:01:08.410000,0.31543,0.859863,-1.245605,-142.326355,-120.315544,43.876644,1.5460893504885156
0 days 00:01:08.420000,0.288086,0.897949,-1.164063,-110.305779,-107.00988,36.117554,1.4981150216074866
0 days 00:01:08.430000,0.267334,0.89624,-1.018066,-84.83886,-99.479668,29.777525,1.3824514405620185
0 days 00:01:08.440000,0.253174,0.913574,-0.862061,-65.338135,-94.207756,24.719236,1.2813522917109876
0 days 00:01:08.450000,0.210693,0.928711,-0.702637,-36.903381,-80.390923,16.151428,1.1834671163741728
0 days 00:01:08.460000,0.776855,0.661621,0.424316,143.882751,98.266594,-45.44067,1.1051199511917247
0 days 00:01:08.470000,0.190186,0.998535,-0.529053,-66.116333,-84.068291,18.135071,1.1459231813825916
0 days 00:01:08.480000,0.886963,0.599121,0.602295,119.262688,109.374992,-30.296324,1.228172871803884
0 days 00:01:08.490000,0.894531,0.249756,-0.47583,-249.710068,-249.992355,64.27002,1.0435410669432228
0 days 00:01:08.500000,0.580078,0.572998,-0.875,-249.870285,-248.016342,58.235165,1.1960109506555532
0 days 00:01:08.510000,0.434082,0.768555,-1.08252,-249.992355,-234.260544,51.010128,1.396765377989088
0 days 00:01:08.520000,0.319092,0.967285,-1.222656,-239.967331,-208.183273,45.921322,1.5913351846876884
0 days 00:01:08.530000,0.239746,1.096191,-1.280762,-198.158249,-173.0728,42.808529,1.7027812994160465
0 days 00:01:08.540000,0.208252,1.131348,-1.205811,-157.867432,-137.992859,39.56604,1.6665225351998696
0 days 00:01:08.550000,0.231689,1.104248,-1.049805,-123.313896,-113.05999,35.720825,1.541146967764593
0 days 00:01:08.560000,0.231445,1.047363,-0.849609,-98.052971,-99.311821,30.204771,1.368346262710941
0 days 00:01:08.570000,0.204102,1.016357,-0.660889,-80.032349,-91.232292,23.612974,1.229395562125551
0 days 00:01:08.580000,0.839111,0.643555,0.505127,133.850098,105.590813,-37.788391,1.1719315656108082
0 days 00:01:08.590000,4.860107,-4.33667,6.496094,-89.790337,-237.800583,132.400513,9.199270840516927
0 days 00:01:08.600000,0.174561,0.994141,-0.433594,-53.924557,-76.805115,13.145446,1.0985406808298
0 days 00:01:08.610000,0.151855,0.993652,-0.338867,-35.163879,-61.43951,1.670837,1.060770984622977
0 days 00:01:08.620000,0.135986,1.00708,-0.291504,-27.862547,-51.376339,-2.609253,1.0572023934006203
0 days 00:01:08.630000,0.158447,0.993652,-0.241699,-21.110533,-42.221066,-6.973266,1.0348275970005825
0 days 00:01:08.640000,0.198486,0.972168,-0.17041,-16.25061,-36.735535,-11.253356,1.0067506545912945
0 days 00:01:08.650000,0.227295,0.972168,-0.11792,-11.894225,-33.866882,-14.282226,1.00532520293137
0 days 00:01:08.660000,0.243652,0.986328,-0.095215,-7.087707,-32.524109,-16.784668,1.0204288887095465
0 days 00:01:08.670000,0.266846,0.99585,-0.097168,-1.38855,-32.295227,-18.52417,1.0355508825934145
0 days 00:01:08.680000,0.270264,0.993164,-0.10376,4.402161,-30.639647,-19.363403,1.034496736675375
0 days 00:01:08.690000,0.244141,0.985596,-0.103027,9.44519,-25.543211,-19.699097,1.0205973083572188
0 days 00:01:08.700000,0.225342,0.987549,-0.110352,13.801574,-17.242432,-20.019531,1.0189257128314115
0 days 00:01:08.710000,0.164063,0.987305,-0.374756,-43.30444,-69.625854,7.057189,1.0687047723903922
0 days 00:01:08.720000,3.772461,-5.2854,1.273438,-128.77655,-84.442131,249.992355,6.617292459636721
0 days 00:01:08.730000,0.230713,0.998779,-0.126221,17.837524,-8.453369,-20.248411,1.032821243028531
0 days 00:01:08.740000,-0.876953,3.766602,-0.876221,249.992355,249.992355,-249.992355,3.9653625851180365
0 days 00:01:08.750000,0.935791,0.574463,0.640381,101.493828,107.109062,-24.009703,1.271141360829314
0 days 00:01:08.760000,1.010742,0.613525,0.595459,83.259575,99.357597,-16.654968,1.3238518560888903
0 days 00:01:08.770000,1.074219,0.68335,0.514893,69.465637,90.011589,-4.501343,1.3733275224468489
0 days 00:01:08.780000,1.103271,0.71167,0.405518,61.531063,81.275932,11.512755,1.374090949196959
0 days 00:01:08.790000,1.042725,0.703125,0.327637,57.907101,75.248718,18.554688,1.2996177111054619
0 days 00:01:08.800000,0.984131,0.731934,0.342529,56.27441,64.193726,22.888182,1.273407759265664
0 days 00:01:08.810000,0.162842,0.653809,-2.541748,61.752316,128.898621,-24.879454,2.629537339713776
0 days 00:01:08.820000,0.98877,0.744385,0.435303,51.422115,42.732235,39.154053,1.3119694519820193
0 days 00:01:08.830000,0.925781,0.69165,0.543457,44.876095,37.521362,48.698421,1.2770261130102234
0 days 00:01:08.840000,0.818359,0.618652,0.670654,31.951902,43.533321,57.739254,1.2256502509692557
0 days 00:01:08.850000,0.666016,0.619873,0.77002,15.99121,53.047176,58.097836,1.1919524524011016
0 days 00:01:08.860000,0.998291,0.716797,0.396484,52.452084,53.092953,29.58679,1.2913490706025232
0 days 00:01:08.870000,0.448975,1.101074,0.607422,17.059326,30.693052,35.743713,1.3352542792236242
0 days 00:01:08.880000,0.579102,1.056641,0.602783,14.465331,7.247924,35.873413,1.3472923492598032
0 days 00:01:08.890000,0.763428,0.806152,0.670898,-1.342773,-12.069701,48.667904,1.2972306983308712
0 days 00:01:08.900000,0.849609,0.619629,0.744385,-20.294188,-12.382506,67.16156,1.2883650797607795
0 days 00:01:08.910000,0.975586,0.500488,0.770752,-21.812437,-36.186218,70.556641,1.3402667372743382
0 days 00:01:08.920000,1.103027,0.235107,0.853271,-10.0708,-112.991325,29.258726,1.4142189588670488
0 days 00:01:08.930000,1.001953,0.087891,1.07251,-1.014709,-175.3311,-16.693115,1.4703442937591182
0 days 00:01:08.940000,0.664063,-0.249023,1.172363,-92.025749,-187.553391,34.606934,1.3701923683435842
0 days 00:01:08.950000,-0.151367,0.50415,0.63501,-181.396469,-123.626701,74.066162,0.824813246310339
0 days 00:01:08.960000,-0.717773,2.866211,-0.508789,52.360531,75.828552,-112.365715,2.9982044330850757
0 days 00:01:08.970000,0.501709,0.837891,0.704102,11.032104,48.33984,46.279903,1.2039654791421555
0 days 00:01:08.980000,0.404541,1.132568,0.357178,7.186889,-19.752502,27.969358,1.2545675824717455
0 days 00:01:08.990000,0.617188,0.968262,0.380371,1.770019,-15.014647,40.534969,1.2096009365195612
0 days 00:01:09,0.758789,0.803711,0.343018,4.592896,-15.037536,38.94043,1.1573130373265479
0 days 00:01:09.010000,0.7229,0.723877,0.329834,9.414673,-18.302917,32.241821,1.0748826860104317
0 days 00:01:09.020000,0.814453,0.515381,0.30542,25.177,-30.364988,25.871275,1.0110552115339695
0 days 00:01:09.030000,0.609375,0.665771,0.359863,15.899657,-35.003662,27.626036,0.9716430897376875
0 days 00:01:09.040000,0.690918,0.610596,0.356201,19.874573,-39.405823,26.725767,0.9884706927071738
0 days 00:01:09.050000,0.770264,0.545654,0.339355,22.872923,-36.781311,26.679991,1.0030985661623686
0 days 00:01:09.060000,0.628662,0.693604,0.350586,12.435912,-25.497435,29.312132,0.9996064037690036
0 days 00:01:09.070000,0.384277,1.065674,0.338623,8.865356,-28.602598,18.486023,1.1823685648451587
0 days 00:01:09.080000,4.246094,-5.306641,5.668457,-111.953728,-200.759872,197.494492,8.849924164678812
0 days 00:01:09.090000,0.530273,0.49707,0.652832,-36.6745,-0.144958,46.363827,0.9769634894165697
0 days 00:01:09.100000,0.516602,0.428955,0.827881,-56.114193,25.718687,59.829708,1.0659582396088505
0 days 00:01:09.110000,0.649414,0.019287,0.849121,-69.488525,15.586852,30.883787,1.0691664998521044
0 days 00:01:09.120000,1.049316,-0.169678,0.946777,-66.53595,-31.181334,-19.432068,1.4234610564637868
0 days 00:01:09.130000,1.344238,0.179688,1.082764,-91.819756,-92.300407,5.836486,1.7354081530533387
0 days 00:01:09.140000,1.017334,0.102295,0.805176,-235.534653,-117.149345,78.720093,1.3014380990108596
0 days 00:01:09.150000,0.071777,1.807373,0.007813,-139.190674,-50.788876,91.041557,1.8088145681155376
0 days 00:01:09.160000,-0.207275,3.870361,0.008301,235.610947,-25.817869,-128.990173,3.875916162992564
0 days 00:01:09.170000,0.876953,1.864502,-3.769531,111.869804,-71.266174,-249.992355,4.295902493327101
0 days 00:01:09.180000,0.431885,-2.135498,-2.387451,-135.452271,41.671749,110.41259,3.2321507759741035
0 days 00:01:09.190000,0.824219,0.518311,0.273926,26.039122,-21.934507,24.314878,1.0114438719760974
0 days 00:01:09.200000,0.511963,0.774902,0.450439,-6.240844,-26.458738,28.640745,1.0322182500295178
0 days 00:01:09.210000,0.788574,0.520264,0.275635,26.451109,-12.741088,23.15521,0.9841230799026105
0 days 00:01:09.220000,0.797119,0.533691,0.285156,26.885984,23.384092,37.704468,1.0007690682560089
0 days 00:01:09.230000,0.742188,0.520752,0.24585,30.792234,3.166198,24.703978,0.9393976236652932
0 days 00:01:09.240000,1.095459,-0.076172,-0.705322,-249.992355,-246.879562,116.600029,1.3051098489970105
0 days 00:01:09.250000,0.690674,0.654541,-0.119141,26.466368,9.681702,55.732723,0.958983353785664
0 days 00:01:09.260000,0.691162,0.65918,-0.060303,31.257627,13.885497,54.168697,0.9570055561244146
0 days 00:01:09.270000,0.681152,0.639893,0.010742,33.210754,20.805357,51.727291,0.9346370895256618
0 days 00:01:09.280000,0.68335,0.594971,0.079346,33.447266,29.304502,49.781796,0.9095347717690622
0 days 00:01:09.290000,0.70459,0.523438,0.141846,33.729553,36.92627,48.59161,0.8891314276640996
0 days 00:01:09.300000,0.734131,0.446045,0.216309,33.256531,41.893002,46.264645,0.885829583309905
0 days 00:01:09.310000,0.754883,0.416504,0.269775,31.677244,42.327877,43.594357,0.903383903072221
0 days 00:01:09.320000,0.775391,0.430176,0.282471,29.479979,40.679928,42.198177,0.9306301411935893
0 days 00:01:09.330000,0.780762,0.466553,0.276855,28.106688,38.642883,42.434689,0.9507416544351047
0 days 00:01:09.340000,0.753906,0.515137,0.283936,28.20587,-3.40271,23.345945,0.9562217513218364
0 days 00:01:09.350000,0.771484,0.498047,0.258301,27.06146,37.284851,42.465206,0.9539170734744189
0 days 00:01:09.360000,0.774902,0.530029,0.268066,26.596067,30.303953,38.993835,0.9763520014835838
0 days 00:01:09.370000,0.816406,0.529541,0.30835,27.626036,17.402649,36.247253,1.0207899637129079
0 days 00:01:09.380000,0.812256,0.530029,0.333008,29.022215,11.749267,34.286499,1.0254681264871182
0 days 00:01:09.390000,0.811035,0.526855,0.341309,31.265257,6.866455,32.875061,1.0255953372217523
0 days 00:01:09.400000,0.792236,0.508301,0.343262,32.699585,4.356384,31.494139,1.0019164570666559
0 days 00:01:09.410000,0.759033,0.501221,0.337891,33.332825,3.761291,29.418943,0.9703215517605491
0 days 00:01:09.420000,0.743164,0.514893,0.31543,33.546448,4.844666,27.740477,0.9575508431644766
0 days 00:01:09.430000,0.736816,0.529053,0.283936,33.14209,6.637573,26.725767,0.9504812185209132
0 days 00:01:09.440000,0.739258,0.533936,0.259521,32.569885,7.362365,25.863646,0.9481250930657831
0 days 00:01:09.450000,0.741211,0.530273,0.237549,32.104492,6.393432,25.291441,0.9418135316775821
0 days 00:01:09.460000,0.762451,0.518555,0.25415,26.649473,35.03418,40.885921,0.9564638194547664
0 days 00:01:09.470000,0.711426,0.300781,-1.276123,-249.649033,-225.463852,112.510674,1.4916722409986718
0 days 00:01:09.480000,0.565186,0.476807,-1.409912,-249.870285,-199.447617,108.27636,1.5920527559063486
0 days 00:01:09.490000,0.372559,0.689697,-1.497314,-249.992355,-172.142014,101.21154,1.6900980370635308
0 days 00:01:09.500000,0.367676,0.835449,-0.269775,99.815361,80.070496,-47.378536,0.9518083962657611
0 days 00:01:09.510000,0.404541,0.837646,-0.231934,109.466545,80.596916,-50.285336,0.9586957923934996
0 days 00:01:09.520000,0.424072,0.824219,-0.164063,117.561333,83.457939,-52.62756,0.941323902338616
0 days 00:01:09.530000,0.438477,0.812012,-0.095215,124.740593,87.074272,-55.404659,0.9277345869902662
0 days 00:01:09.540000,0.4646,0.797852,-0.046387,130.187988,89.828484,-58.273312,0.9244310291595582
0 days 00:01:09.550000,0.496338,0.79541,-0.010498,135.452271,90.965263,-60.317989,0.9376239578573063
0 days 00:01:09.560000,0.532715,0.774414,0.048828,139.144897,90.965263,-62.034603,0.941215431346618
0 days 00:01:09.570000,0.571045,0.749512,0.130127,141.441345,90.339653,-63.529964,0.9512064267539407
0 days 00:01:09.580000,0.623535,0.729004,0.156982,142.951965,90.812675,-63.476559,0.9720525071028828
0 days 00:01:09.590000,0.72583,0.679688,0.310303,138.778687,107.711784,-56.419369,1.0416779339378366
0 days 00:01:09.600000,0.327148,0.819336,-0.257813,89.103691,80.535881,-43.319698,0.9191326551532156
0 days 00:01:09.610000,0.775879,0.63623,0.434814,129.981995,124.39727,-51.582333,1.0935447179411548
0 days 00:01:09.620000,0.935791,0.58667,0.638672,100.158684,149.093628,-41.458126,1.2758481132819064
0 days 00:01:09.630000,1.051758,0.626465,0.641846,84.548943,146.728516,-33.729553,1.382251632122386
0 days 00:01:09.640000,1.189209,0.700195,0.598145,71.479797,129.096985,-24.696348,1.5040839486980107
0 days 00:01:09.650000,1.289063,0.77124,0.516357,63.804623,96.641533,-7.476806,1.5884329091963563
0 days 00:01:09.660000,1.272217,0.72168,0.418457,53.0014,60.31036,12.321471,1.5213363790884644
0 days 00:01:09.670000,1.07373,0.674072,0.323242,42.060848,32.38678,21.682737,1.3083403856214177
0 days 00:01:09.680000,0.826904,0.768311,0.178711,39.69574,21.072386,23.948668,1.1428077876257232
0 days 00:01:09.690000,0.631348,0.939453,0.099609,42.137142,21.697996,19.897461,1.1362632569937303
0 days 00:01:09.700000,0.537842,1.072021,0.168213,42.190548,28.32794,12.428283,1.211114633209425
0 days 00:01:09.710000,0.536621,1.145264,0.389404,40.946957,40.954586,12.825011,1.3233394132092493
0 days 00:01:09.720000,0.847412,0.594238,0.552246,116.043083,140.266418,-47.050472,1.1731161676935495
0 days 00:01:09.730000,0.298096,0.808594,-0.248779,79.444885,80.337517,-38.093567,0.8969818687649156
0 days 00:01:09.740000,0.686523,0.703125,0.21582,142.63916,95.878593,-60.699459,1.0061197083617832
0 days 00:01:09.750000,0.28125,0.843262,-0.318359,63.316341,79.093933,-28.289793,0.9442165090830598
0 days 00:01:09.760000,0.289795,0.820557,-0.267822,71.708679,80.093384,-32.875061,0.910507306921806
0 days 00:01:09.770000,0.147705,0.922363,-1.437988,-190.71196,-134.70459,78.483582,1.714753556327556
0 days 00:01:09.780000,0.07666,0.952637,-1.284668,-151.077271,-126.533501,62.32452,1.6011764048951633
0 days 00:01:09.790000,0.090088,0.968994,-1.138428,-119.331352,-122.024529,48.736568,1.4976927358320198
0 days 00:01:09.800000,0.110107,0.972656,-0.981689,-95.79467,-116.561882,38.406372,1.3863248315261472
0 days 00:01:09.810000,0.121094,0.979004,-0.868408,-76.942444,-108.871452,30.624388,1.3142469491370332
0 days 00:01:09.820000,0.128418,0.969238,-0.768555,-61.141964,-100.532524,24.070738,1.2436198259086255
0 days 00:01:09.830000,0.112793,0.950195,-0.677002,-48.812862,-90.400688,16.921997,1.1721452584377074
0 days 00:01:09.840000,0.097656,0.938477,-0.631348,-37.788391,-78.338623,9.223938,1.1352867791747598
0 days 00:01:09.850000,0.114258,0.927979,-0.604248,-27.023314,-65.452576,2.220154,1.1132455077425645
0 days 00:01:09.860000,0.134521,0.909424,-0.56543,-18.455505,-52.658077,-3.486633,1.079286336482122
0 days 00:01:09.870000,0.240234,0.854736,-1.519043,-237.8311,-149.467468,92.102043,1.7594822080092198
0 days 00:01:09.880000,0.182861,0.892822,-0.426025,-7.331848,-27.130125,-8.026123,1.0060151935383481
0 days 00:01:09.890000,0.155273,0.900635,-0.50415,-12.405395,-39.56604,-6.729125,1.0437530025125674
0 days 00:01:09.900000,0.245117,0.872314,-0.363281,43.243404,65.155029,-22.338865,0.9762106039405637
0 days 00:01:09.910000,0.24585,0.863281,-0.352539,34.187317,52.680965,-19.073486,0.9643547345152612
0 days 00:01:09.920000,0.244873,0.851807,-0.330078,26.733397,39.596558,-16.059875,0.9457745172407639
0 days 00:01:09.930000,0.22998,0.860596,-0.323242,20.690916,26.031492,-13.633727,0.9476294983694841
0 days 00:01:09.940000,0.26416,0.86377,-0.352783,53.466793,74.699402,-25.085447,0.9697087003781084
0 days 00:01:09.950000,0.225586,0.866943,-0.304932,8.842468,0.083923,-10.932921,0.946288926950432
0 days 00:01:09.960000,0.225342,0.876709,-0.323486,2.990722,-9.025574,-10.086059,0.9612704509351153
0 days 00:01:09.970000,0.207031,0.880615,-0.357666,-2.784729,-17.196655,-9.101868,0.9727638874577943
0 days 00:01:09.980000,0.220459,0.866211,-0.308594,14.541625,12.268065,-12.130736,0.9455971256502421
0 days 00:01:09.990000,0.601807,0.018066,-0.086914,72.303772,30.525206,213.592514,0.6083190684180465
0 days 00:01:10,0.834229,0.007568,-0.122314,94.116203,-14.068603,249.992355,0.8431820762213816
0 days 00:01:10.010000,0.671875,0.020264,-0.083496,95.222466,-17.463684,249.908432,0.6773464603413825
0 days 00:01:10.020000,0.652832,0.023193,-0.053467,95.275871,-20.042419,249.992355,0.65542829932953
0 days 00:01:10.030000,0.681641,0.023193,-0.03833,93.414299,-22.094725,249.992355,0.6831116724445572
0 days 00:01:10.040000,0.688477,-0.017578,-0.008789,86.891167,-18.974304,246.055588,0.6887574407104434
0 days 00:01:10.050000,0.638916,-0.02002,-0.009766,80.871574,-5.149841,234.802231,0.6393041765951479
0 days 00:01:10.060000,1.077637,-0.030518,-0.141602,89.736931,-6.179809,249.992355,1.0873288272169557
0 days 00:01:10.070000,0.679932,0.02832,-0.01001,82.778923,11.83319,229.530319,0.6805951418604161
0 days 00:01:10.080000,0.711914,0.014404,-0.005127,79.25415,24.368284,225.349411,0.7120781591517886
0 days 00:01:10.090000,0.636475,0.050781,-0.093994,72.471619,31.639097,199.958786,0.645378964347305
0 days 00:01:10.100000,0.890381,0.095215,-0.139893,80.039978,37.872314,162.490829,0.9063190789313662
0 days 00:01:10.110000,0.688232,0.061768,-0.171387,71.472168,27.603148,174.240097,0.7119354432931402
0 days 00:01:10.120000,0.783936,0.085693,-0.170166,71.617126,27.709959,165.672287,0.8067561031073766
0 days 00:01:10.130000,0.896973,0.116455,-0.204346,75.752258,33.081055,163.627609,0.9272969413677584
0 days 00:01:10.140000,0.850098,0.03833,-0.022949,81.802361,41.511532,155.075073,0.8512710820326274
0 days 00:01:10.150000,0.820068,0.025635,-0.050537,83.328239,44.174191,142.593384,0.8220235192608543
0 days 00:01:10.160000,0.830811,0.035889,-0.113037,85.266106,49.133297,133.659363,0.8392331627211832
0 days 00:01:10.170000,0.826172,0.025879,-0.115967,85.3424,58.54797,125.366203,0.8346725353777971
0 days 00:01:10.180000,0.833252,0.006104,-0.107178,84.32769,70.053101,115.005486,0.8401388444798872
0 days 00:01:10.190000,0.911621,-0.006348,-0.092773,83.808891,78.056335,106.155388,0.9163514469208853
0 days 00:01:10.200000,1.156494,-0.099854,-0.138672,76.23291,7.80487,249.992355,1.1690505194113723
0 days 00:01:10.210000,0.703857,0.061523,-0.142822,73.631287,30.487059,186.882004,0.7208313808804385
0 days 00:01:10.220000,1.107666,-0.194336,-0.111328,58.441158,23.559568,249.992355,1.1300815776022546
0 days 00:01:10.230000,1.41748,-0.173584,0.354492,31.425474,50.529476,-209.541306,1.4714093697948236
0 days 00:01:10.240000,1.183594,-0.214844,-0.01416,30.555723,31.318663,249.992355,1.2030183734141389
0 days 00:01:10.250000,1.016357,-0.008545,-0.088623,83.641045,79.841614,99.418633,1.0202492855194754
0 days 00:01:10.260000,1.453369,-0.157715,0.381592,43.014523,32.569885,-198.989853,1.5108831608863738
0 days 00:01:10.270000,1.44873,-0.145752,0.402832,52.314754,10.276793,-187.637314,1.5107401757509464
0 days 00:01:10.280000,1.440918,-0.13208,0.411621,58.624264,-10.581969,-175.407394,1.504367527157177
0 days 00:01:10.290000,1.424561,-0.111328,0.42334,62.034603,-25.390623,-161.773666,1.490296856973469
0 days 00:01:10.300000,1.427979,-0.085938,0.442871,63.140865,-30.242918,-144.91272,1.4975460216387344
0 days 00:01:10.310000,1.426025,-0.085449,0.474609,60.264584,-25.985716,-126.129143,1.5053579425196522
0 days 00:01:10.320000,1.466797,-0.09375,0.508545,56.747433,-18.203735,-105.430595,1.5552814917994748
0 days 00:01:10.330000,1.55249,-0.123291,0.531738,53.558346,-14.030456,-82.885735,1.6456522024489257
0 days 00:01:10.340000,1.626953,-0.173828,0.533447,48.744198,-17.555237,-60.150143,1.7209758683961842
0 days 00:01:10.350000,1.690674,-0.21875,0.507324,41.061398,-30.09033,-37.124634,1.7786533607625743
0 days 00:01:10.360000,1.754883,-0.24292,0.453125,32.821655,-50.277706,-13.076781,1.8286461483058989
0 days 00:01:10.370000,1.80835,-0.284424,0.398438,23.811338,-74.073792,13.46588,1.8734405712805515
0 days 00:01:10.380000,1.781494,-0.398682,0.380371,8.354187,-90.904228,42.312618,1.8647654830570517
0 days 00:01:10.390000,1.720215,-0.52417,0.39624,-11.314391,-92.987053,72.219849,1.8414396467777596
0 days 00:01:10.400000,1.713379,-0.586914,0.418213,-27.778624,-83.747856,102.958672,1.8587731853042209
0 days 00:01:10.410000,1.727051,-0.56543,0.386475,-36.437988,-70.640564,133.781433,1.857896436060417
0 days 00:01:10.420000,1.684814,-0.490723,0.297363,-35.827637,-56.594845,162.834152,1.7798404510219448
0 days 00:01:10.430000,1.559814,-0.42627,0.206299,-28.892515,-41.046139,188.590988,1.6301181260562072
0 days 00:01:10.440000,1.414307,-0.372803,0.116943,-19.622803,-23.262022,209.304794,1.4672838962883086
0 days 00:01:10.450000,1.294189,-0.355957,0.094971,-10.841369,-5.897521,222.961411,1.345603970123082
0 days 00:01:10.460000,1.253174,-0.320801,0.063965,-1.182556,8.300781,237.777695,1.2951640348241609
0 days 00:01:10.470000,1.244141,-0.256104,0.023438,13.458251,21.354673,249.191269,1.2704430040505554
0 days 00:01:10.480000,1.108643,-0.226563,-0.061768,44.395443,32.341003,249.992355,1.133241095372913
0 days 00:01:10.490000,1.066162,-0.005859,-0.063477,83.137505,74.59259,90.88134,1.068066040867324
0 days 00:01:10.500000,0.660889,0.641357,-0.144287,18.890381,7.797241,57.632442,0.9321651195678798
0 days 00:01:10.510000,1.053223,-0.015137,-0.023438,80.314629,58.601376,74.59259,1.0535925001356075
0 days 00:01:10.520000,1.072754,0.338135,0.251953,52.993771,-32.295227,-3.410339,1.1526563828609113
0 days 00:01:10.530000,1.064453,0.361816,0.252441,51.071163,-35.583496,0.595093,1.1522575517417972
0 days 00:01:10.540000,1.024414,0.395508,0.255615,49.140926,-33.828735,5.546569,1.1274704651054057
0 days 00:01:10.550000,0.963623,0.411865,0.257813,46.798702,-27.091978,9.346008,1.0791985949411722
0 days 00:01:10.560000,0.921875,0.397949,0.255371,44.18182,-19.40918,11.253356,1.036065282627982
0 days 00:01:10.570000,0.916992,0.379639,0.246582,42.16766,-15.380858,12.268065,1.0226449927071466
0 days 00:01:10.580000,0.928955,0.376221,0.239746,40.870663,-17.00592,13.305663,1.030523060092301
0 days 00:01:10.590000,0.94165,0.388184,0.238525,39.131165,-24.04022,14.007567,1.046081123040178
0 days 00:01:10.600000,0.935059,0.414307,0.247559,36.949158,-35.041809,15.083312,1.0522694912478456
0 days 00:01:10.610000,0.840332,0.461914,0.280518,27.008055,-52.337643,21.163939,0.9991059813373153
0 days 00:01:10.620000,1.078125,0.338135,0.231689,54.794308,-26.481627,-5.91278,1.1534160509421567
0 days 00:01:10.630000,0.786133,0.483154,0.319336,19.020081,-54.496761,25.192259,0.9764314427039924
0 days 00:01:10.640000,0.802246,0.528809,0.318115,0.617981,-52.169796,36.628723,1.0121436440654064
0 days 00:01:10.650000,0.823486,0.581299,0.259766,-7.247924,-49.34692,44.105526,1.040920791584547
0 days 00:01:10.660000,0.827148,0.64917,0.178711,-12.435912,-45.135494,51.399227,1.066551979195107
0 days 00:01:10.670000,0.79834,0.715088,0.095459,-15.281676,-40.122986,57.167049,1.076015810304384
0 days 00:01:10.680000,0.749756,0.763184,0.012451,-15.167235,-32.836914,61.264034,1.0699247192176653
0 days 00:01:10.690000,0.688965,0.777344,-0.074951,-11.672973,-23.895262,62.522884,1.041419280579153
0 days 00:01:10.700000,0.659424,0.752441,-0.144043,-5.058288,-13.839721,62.156673,1.0108193983625364
0 days 00:01:10.710000,0.650146,0.69458,-0.174561,3.15094,-4.03595,61.759945,0.9672655997382518
0 days 00:01:10.720000,0.642578,0.640869,-0.163574,10.520934,3.65448,60.363766,0.9221583457958834
0 days 00:01:10.730000,1.075928,0.001709,-0.043701,82.511894,65.132141,81.748955,1.0768164928463901
0 days 00:01:10.740000,0.781982,0.497559,0.338623,10.078429,-53.932186,30.311583,0.9867757308193184
0 days 00:01:10.750000,1.077637,0.353516,0.192871,55.557247,-20.202635,-8.911133,1.1504235257790933
0 days 00:01:10.760000,0.901855,0.440186,0.257813,33.340454,-45.845028,17.730713,1.036134015747963
0 days 00:01:10.770000,1.05127,0.371338,0.139893,49.659725,-10.513305,-13.374328,1.1236683561411702
0 days 00:01:10.780000,1.068359,0.368408,0.154053,53.657528,-14.579772,-11.543273,1.1405471205320716
0 days 00:01:10.790000,0.906738,-0.025391,0.023926,71.548462,60.394283,60.18829,0.9074089249070675
0 days 00:01:10.800000,0.858154,-0.007813,0.022705,67.810059,64.407349,50.575253,0.858489864651878
0 days 00:01:10.810000,0.856934,0.013428,0.032715,64.590454,65.90271,40.542599,0.8576633738040816
0 days 00:01:10.820000,0.884766,0.03418,0.060303,61.294552,64.704895,31.814573,0.8874770977129495
0 days 00:01:10.830000,0.900391,0.052979,0.078857,57.899471,60.546871,23.757933,0.9053889516506152
0 days 00:01:10.840000,0.900146,0.071045,0.092041,54.161068,55.007931,16.410828,0.9076242388907427
0 days 00:01:10.850000,0.891357,0.10376,0.090332,51.513668,50.437923,11.108397,0.9019109209190228
0 days 00:01:10.860000,0.873047,0.129395,0.099121,49.85046,48.652645,7.835388,0.8881323678793607
0 days 00:01:10.870000,0.853516,0.135742,0.128174,47.645565,48.690792,4.486084,0.8736956146713798
0 days 00:01:10.880000,0.86499,0.135498,0.158691,44.525143,47.485348,2.02179,0.8898034848127985
0 days 00:01:10.890000,0.985107,-0.033691,0.016113,76.080322,57.853695,67.634583,0.9858146446969632
0 days 00:01:10.900000,0.881836,0.168701,0.174072,37.322998,44.921871,-5.386352,0.9145467836480536
0 days 00:01:10.910000,0.87085,0.147705,0.176514,41.297909,46.07391,-1.304626,0.9007517314560101
0 days 00:01:10.920000,1.002441,0.341553,0.133545,42.839046,-8.079529,-14.083861,1.0674177613825806
0 days 00:01:10.930000,1.009277,0.334229,0.133545,40.328976,-8.209229,-13.137816,1.0715331792319824
0 days 00:01:10.940000,1.024658,0.326904,0.131836,38.337708,-5.676269,-12.832641,1.0835917003539663
0 days 00:01:10.950000,1.037598,0.312012,0.125732,36.659241,0.343323,-12.901305,1.0907656180738372
0 days 00:01:10.960000,1.023682,0.355713,0.137207,45.669552,-8.392334,-14.533996,1.092374631864911
0 days 00:01:10.970000,1.022217,0.258545,0.11792,34.01947,19.668579,-10.437011,1.0609798483072144
0 days 00:01:10.980000,0.99585,0.237793,0.128418,33.065796,29.563902,-8.789063,1.03186913708716
0 days 00:01:10.990000,0.948975,0.196533,0.1521,32.997131,39.199829,-7.629394,0.9809756269724544
0 days 00:01:11,1.033447,0.287842,0.121338,35.369873,9.315491,-12.046813,1.0796242999381775
0 days 00:01:11.010000,0.555176,0.620605,0.674316,-11.909484,-44.464108,-42.945858,1.0714816959971831
0 days 00:01:11.020000,0.532715,0.69458,0.519287,-3.662109,-41.076656,-2.487183,1.017784670740329
0 days 00:01:11.030000,0.505371,0.684326,0.527588,-2.113342,-44.906612,-7.125854,1.0010249845338526
0 days 00:01:11.040000,0.49292,0.680908,0.549805,-0.50354,-45.677181,-12.557982,1.0044358460792804
0 days 00:01:11.050000,0.501221,0.690674,0.581543,1.312256,-45.883175,-17.25769,1.0326883973232197
0 days 00:01:11.060000,0.522949,0.687744,0.615234,1.075745,-46.310421,-21.492002,1.06065090434742
0 days 00:01:11.070000,0.522217,0.683105,0.638672,-0.473022,-45.219418,-25.878904,1.0710952150476631
0 days 00:01:11.080000,0.561523,0.692139,0.50415,-7.408142,-35.980225,0.289917,1.0239783676181835
0 days 00:01:11.090000,0.497559,0.673828,0.664795,-3.27301,-42.572018,-31.311033,1.0693743610588389
0 days 00:01:11.100000,0.498047,0.648682,0.678223,-7.705688,-40.885921,-37.54425,1.062462041233474
0 days 00:01:11.110000,0.629639,0.596436,0.685303,-14.244079,-57.167049,-46.134945,1.1053602915909364
0 days 00:01:11.120000,0.503418,0.538818,0.544434,-33.790588,-111.122124,-73.104858,0.9166040040300937
0 days 00:01:11.130000,0.642334,0.515625,0.72998,-21.919249,-97.969048,-56.266781,1.100605700776168
0 days 00:01:11.140000,0.610596,0.502686,0.712646,-26.847837,-112.602226,-61.576839,1.0646055659858256
0 days 00:01:11.150000,0.555176,0.518799,0.644287,-31.265257,-115.562431,-66.848755,0.9962321675924745
0 days 00:01:11.160000,0.497803,0.550781,0.484863,-33.996582,-105.537407,-78.018188,0.8867128427732396
0 days 00:01:11.170000,0.526611,0.522949,0.479004,-34.767151,-99.929802,-82.305901,0.8833117422167556
0 days 00:01:11.180000,0.5354,0.473389,0.502441,-37.658691,-93.841545,-86.502068,0.8736116206885071
0 days 00:01:11.190000,0.552734,0.441406,0.539063,-42.236324,-89.302055,-90.980522,0.8893497903305537
0 days 00:01:11.200000,0.599609,0.437012,0.56958,-47.782894,-91.728203,-96.435539,0.9353779008641373
0 days 00:01:11.210000,0.651611,0.434326,0.588623,-54.725643,-101.013176,-100.120537,0.9796494300136147
0 days 00:01:11.220000,0.566895,0.696045,0.509766,-11.322021,-28.869627,1.655578,1.0323322904016905
0 days 00:01:11.230000,0.661133,0.553223,0.713867,-17.38739,-77.011108,-50.23193,1.1192670034924643
0 days 00:01:11.240000,0.555908,0.69873,0.517334,-15.61737,-20.912169,2.761841,1.0319359403180024
0 days 00:01:11.250000,0.667725,0.421631,0.603027,-62.629696,-110.977165,-102.699272,0.9936150856921406
0 days 00:01:11.260000,0.52832,0.689453,0.511719,-21.957396,-10.528563,5.340576,1.0081288591097866
0 days 00:01:11.270000,0.427002,0.672852,0.545654,12.657165,-5.012512,-10.108947,0.9658151011575663
0 days 00:01:11.280000,0.430176,0.663086,0.532471,10.917663,-4.638672,-9.757996,0.953026652414821
0 days 00:01:11.290000,0.418457,0.655029,0.51416,8.995056,-4.737854,-10.261535,0.9319494392347687
0 days 00:01:11.300000,0.388184,0.658691,0.500977,7.225036,-3.89862,-11.215209,0.9140780086327426
0 days 00:01:11.310000,0.358643,0.656982,0.503906,5.256652,-0.869751,-12.611388,0.9023144721265418
0 days 00:01:11.320000,0.338135,0.652832,0.515381,2.151489,4.867554,-14.35852,0.8978543721617666
0 days 00:01:11.330000,0.326904,0.64502,0.532227,-1.426697,12.977599,-15.342711,0.8978767204605541
0 days 00:01:11.340000,0.3396,0.649414,0.544434,-4.486084,20.851133,-15.853881,0.9129485657757507
0 days 00:01:11.350000,0.35376,0.655029,0.565674,-7.614135,27.717588,-16.25824,0.9349846002566032
0 days 00:01:11.360000,0.351074,0.641846,0.580078,-11.71112,34.14917,-17.044067,0.9336539654904273
0 days 00:01:11.370000,0.538574,0.698242,0.507813,-18.745422,-14.35852,4.615784,1.0175843390151993
0 days 00:01:11.380000,0.357422,0.628174,0.585693,-16.029358,39.237976,-18.165588,0.9302630545222141
0 days 00:01:11.390000,0.40918,0.69751,0.566162,-22.02606,43.922421,-15.853881,0.9871615281928282
0 days 00:01:11.400000,0.439941,0.751465,0.520996,-23.849485,45.951839,-15.449523,1.0147337393237696
0 days 00:01:11.410000,0.473877,0.756104,0.47168,-26.68762,46.813961,-17.486572,1.009323878814427
0 days 00:01:11.420000,0.610596,0.656006,0.432861,-24.490355,33.279419,-9.872437,0.9952587565919729
0 days 00:01:11.430000,0.826172,0.48877,0.388428,-24.635313,16.067505,-3.234863,1.0355349330988308
0 days 00:01:11.440000,0.631348,0.670166,0.493896,-24.04022,8.285522,-2.906799,1.0448234412933124
0 days 00:01:11.450000,0.566406,0.676025,0.576904,-26.000975,1.678467,-1.991272,1.0538708567357766
0 days 00:01:11.460000,0.545166,0.689697,0.592773,-26.885984,-3.135681,0.740051,1.060314929110215
0 days 00:01:11.470000,0.526367,0.69043,0.551758,-26.039122,-7.461547,3.02124,1.028684934347247
0 days 00:01:11.480000,0.520996,0.683594,0.528809,-24.696348,-9.353638,4.486084,1.009146444938989
0 days 00:01:11.490000,0.381836,0.641602,0.584229,-19.752502,42.694088,-18.211365,0.9480376478500208
0 days 00:01:11.500000,0.630859,0.396729,0.585449,-71.121216,-116.760246,-106.475822,0.9476958947484155
0 days 00:01:11.510000,0.420898,0.682861,0.544922,14.778136,-6.126403,-9.719849,0.9697392731084991
0 days 00:01:11.520000,0.581299,0.401855,0.503174,-85.418694,-113.960258,-114.31884,0.8675137132645224
0 days 00:01:11.530000,1.047852,0.081299,0.063721,-92.01049,18.447876,-249.992355,1.0529310077806617
0 days 00:01:11.540000,1.039551,0.042969,0.070313,-88.279716,21.675108,-249.992355,1.0428118404252034
0 days 00:01:11.550000,1.052979,-0.004639,0.065918,-86.517326,26.18408,-249.992355,1.0550504620566734
0 days 00:01:11.560000,1.084229,-0.047363,0.058838,-84.96093,33.462524,-249.992355,1.0868567929833262
0 days 00:01:11.570000,1.111084,-0.072754,0.063965,-81.80999,42.053219,-249.992355,1.1152992068485479
0 days 00:01:11.580000,1.140869,-0.087646,0.090332,-77.415466,52.642818,-249.992355,1.1477908200978957
0 days 00:01:11.590000,1.132324,-0.126709,0.113525,-73.867798,63.568111,-249.992355,1.1450330725712687
0 days 00:01:11.600000,1.155273,-0.168701,0.130371,-70.732117,72.097778,-249.992355,1.1747818221146427
0 days 00:01:11.610000,1.213623,-0.196289,0.147705,-67.932129,79.368591,-249.992355,1.238235407616419
0 days 00:01:11.620000,1.245361,-0.206787,0.150391,-64.727783,84.625237,-249.992355,1.2713387969266885
0 days 00:01:11.630000,1.017822,0.105469,0.046143,-97.892754,12.71057,-249.992355,1.0243117250593199
0 days 00:01:11.640000,1.271484,-0.209717,0.147461,-60.531612,86.685173,-249.992355,1.2970726767864629
0 days 00:01:11.650000,1.287598,-0.21875,0.194336,-47.348019,82.519524,-249.992355,1.3204266935350861
0 days 00:01:11.660000,1.302734,-0.227783,0.216309,-40.06958,77.842712,-249.992355,1.3400711001010357
0 days 00:01:11.670000,1.296143,-0.24292,0.236328,-33.226013,73.181152,-249.908432,1.339719271501683
0 days 00:01:11.680000,1.307129,-0.257324,0.250244,-26.702879,69.93866,-249.992355,1.3555161095143797
0 days 00:01:11.690000,1.307617,-0.249756,0.27124,-20.599363,68.969727,-249.992355,1.3586064241806748
0 days 00:01:11.700000,1.310303,-0.217041,0.289551,-12.779235,68.962097,-244.834885,1.3593529817861878
0 days 00:01:11.710000,1.305176,-0.184326,0.310059,-3.044128,69.229126,-237.21312,1.3541037806361076
0 days 00:01:11.720000,1.277588,-0.185547,0.320313,5.294799,69.015503,-231.277451,1.3301350325895487
0 days 00:01:11.730000,1.263184,-0.206055,0.325684,11.520385,67.192078,-227.180466,1.3206674633445772
0 days 00:01:11.740000,1.328125,-0.199951,0.33374,19.851685,61.759945,-220.161423,1.3839359832109288
0 days 00:01:11.750000,1.291504,-0.213623,0.170898,-54.336544,86.273186,-249.992355,1.3201604048557887
0 days 00:01:11.760000,0.933838,0.130127,0.025146,-104.080193,2.571106,-249.992355,0.9431960388429331
0 days 00:01:11.770000,0.594971,0.382813,0.541748,-79.26178,-116.622917,-111.427299,0.891082027264606
0 days 00:01:11.780000,0.810303,0.195557,0.029297,-111.67144,-35.453796,-249.992355,0.8340814146514715
0 days 00:01:11.790000,0.856445,0.166016,0.016357,-108.963005,-13.824462,-249.992355,0.8725404871580459
0 days 00:01:11.800000,0.541748,0.415283,0.483154,-99.037163,-111.328117,-122.63488,0.8362945972018473
0 days 00:01:11.810000,0.535889,0.412354,0.493164,-107.460014,-112.213127,-129.753113,0.8369131212575174
0 days 00:01:11.820000,0.563232,0.412354,0.48877,-115.45562,-115.417473,-136.054993,0.8521515241082421
0 days 00:01:11.830000,0.599121,0.410889,0.456543,-123.832695,-118.873589,-140.991211,0.8580252058133258
0 days 00:01:11.840000,0.590088,0.407227,0.400879,-131.492615,-120.849602,-146.026611,0.8214265943552108
0 days 00:01:11.850000,0.581787,0.409424,0.326904,-136.58905,-121.6278,-150.367737,0.7829242302809385
0 days 00:01:11.860000,0.572266,0.413574,0.260986,-138.961792,-119.667046,-154.602051,0.7527586070102421
0 days 00:01:11.870000,0.533447,0.412354,0.224609,-141.067505,-115.844719,-160.03418,0.7106692099746548
0 days 00:01:11.880000,0.505615,0.409912,0.208008,-142.524719,-112.342827,-167.060837,0.6833313281512857
0 days 00:01:11.890000,0.51001,0.40918,0.202637,-143.1427,-111.778252,-174.45372,0.6845438088749324
0 days 00:01:11.900000,0.566895,0.417725,0.478271,-91.552727,-112.258904,-117.050163,0.8512386657636036
0 days 00:01:11.910000,0.521729,0.380127,0.237793,-149.06311,-113.090508,-188.69017,0.6879267376828727
0 days 00:01:11.920000,0.522949,0.397949,0.222412,-145.240784,-112.991325,-181.938156,0.6937623230948766
0 days 00:01:11.930000,0.75415,0.263428,0.043213,-118.003838,-73.867798,-244.567856,0.8000024356544172
0 days 00:01:11.940000,0.723145,0.288086,0.053223,-123.672478,-84.915154,-238.868698,0.7802338893883038
0 days 00:01:11.950000,0.669434,0.303467,0.067627,-129.562378,-91.629021,-233.80278,0.7381107718859006
0 days 00:01:11.960000,0.605469,0.329346,0.072266,-134.880066,-96.969597,-227.516159,0.6930251600288405
0 days 00:01:11.970000,0.776367,0.228516,0.041504,-113.922112,-56.869503,-249.443039,0.8103627971229923
0 days 00:01:11.980000,0.556641,0.35498,0.099121,-143.638611,-107.749931,-213.226303,0.667596416948144
0 days 00:01:11.990000,0.548828,0.361572,0.136719,-146.888733,-110.359184,-206.672653,0.6712961862911184
0 days 00:01:12,0.525146,0.365967,0.176025,-149.894714,-111.663811,-200.607285,0.6638486024915621
0 days 00:01:12.010000,0.515381,0.37085,0.216553,-150.924683,-112.449638,-194.648727,0.6708520697366894
0 days 00:01:12.020000,0.565918,0.348389,0.076416,-139.572144,-102.806084,-220.237717,0.6689375778807766
0 days 00:01:12.030000,0.515869,0.78418,0.353027,24.436949,-32.600403,17.532349,1.002839548626798
0 days 00:01:12.040000,0.490723,0.727539,0.299805,23.315428,-31.417845,26.016233,0.9273645978119933
0 days 00:01:12.050000,0.493896,0.737305,0.314941,22.476194,-31.654356,27.130125,0.9416686016439116
0 days 00:01:12.060000,0.514404,0.742188,0.333008,21.354673,-33.363342,27.503965,0.9624701712905185
0 days 00:01:12.070000,0.532471,0.751465,0.347168,21.324156,-36.003113,27.206419,0.9842513054550652
0 days 00:01:12.080000,0.541504,0.75708,0.354248,22.094725,-38.040161,25.863646,0.9959359185811103
0 days 00:01:12.090000,0.539063,0.772949,0.358887,23.04077,-37.994385,23.933409,1.008384328189902
0 days 00:01:12.100000,0.531006,0.783691,0.360352,24.177549,-36.66687,21.987913,1.0129128883675043
0 days 00:01:12.110000,0.523438,0.790039,0.359619,24.772642,-34.90448,19.752502,1.0136443096698171
0 days 00:01:12.120000,0.526367,0.719482,0.313232,24.223326,-31.410215,24.726866,0.9448972710496099
0 days 00:01:12.130000,0.494141,0.776855,0.356201,18.77594,-19.859314,5.592346,0.9871971288992892
0 days 00:01:12.140000,0.486084,0.775879,0.355957,20.881651,-26.924131,12.130736,0.982329508640558
0 days 00:01:12.150000,0.486328,0.780518,0.356201,20.423887,-24.719236,10.154723,0.9862060759846291
0 days 00:01:12.160000,0.491455,0.7771,0.35791,19.638062,-21.934507,8.171082,0.9866671146465763
0 days 00:01:12.170000,0.506592,0.775391,0.356689,17.562866,-18.096924,2.197266,0.9925188663526755
0 days 00:01:12.180000,0.50708,0.76123,0.357178,15.61737,-16.731262,-0.083923,0.981925334729683
0 days 00:01:12.190000,0.494385,0.747559,0.359619,13.267516,-15.60974,-0.785828,0.9657053442261775
0 days 00:01:12.200000,0.481201,0.73999,0.352539,10.95581,-15.243529,-0.823975,0.9504858489330602
0 days 00:01:12.210000,0.4729,0.735107,0.352295,9.124756,-15.716552,-0.831604,0.942405686779319
0 days 00:01:12.220000,0.461914,0.730713,0.359863,7.362365,-16.25824,-1.014709,0.9363799498782531
0 days 00:01:12.230000,0.553955,0.699707,0.318848,25.360106,-31.486509,24.826048,0.9476919726250718
0 days 00:01:12.240000,0.501953,0.775879,0.351807,23.29254,-30.441282,15.907287,0.9887938117216348
0 days 00:01:12.250000,0.547852,0.685547,0.293701,27.496336,-32.142639,26.840208,0.9254062786225302
0 days 00:01:12.260000,0.672852,0.782959,0.163086,26.741026,-66.886902,16.639709,1.0451562816062485
0 days 00:01:12.270000,0.526367,0.693359,0.225342,31.181334,-33.821106,31.578062,0.8992151792168546
0 days 00:01:12.280000,0.665527,0.716309,0.025879,13.427733,-29.129026,12.329101,0.9781076085232135
0 days 00:01:12.290000,0.658691,0.727295,0.023193,14.511107,-29.541014,12.977599,0.9815140170955279
0 days 00:01:12.300000,0.660889,0.73584,0.027832,15.747069,-29.83856,14.495849,0.9894490366587861
0 days 00:01:12.310000,0.67627,0.736084,0.04248,16.75415,-31.272886,15.434264,1.0004825427542452
0 days 00:01:12.320000,0.698486,0.739014,0.06665,17.547607,-33.714294,15.853881,1.0190518175696466
0 days 00:01:12.330000,0.707275,0.749268,0.093262,18.867493,-36.262512,16.349792,1.0345715355126488
0 days 00:01:12.340000,0.703125,0.75708,0.112061,20.858763,-38.642883,17.112732,1.0392846384634
0 days 00:01:12.350000,0.703125,0.76416,0.123779,23.28491,-41.40472,18.081665,1.045775555301423
0 days 00:01:12.360000,0.698242,0.775635,0.138672,25.535582,-45.433041,18.112183,1.052796973482067
0 days 00:01:12.370000,0.69458,0.776855,0.164551,26.977537,-51.101681,17.662048,1.05499862512991
0 days 00:01:12.380000,0.534912,0.683838,0.257813,29.891966,-32.981873,29.121397,0.9056670475163596
0 days 00:01:12.390000,0.683594,0.770752,0.177246,27.099607,-57.54089,17.25769,1.045359051644936
0 days 00:01:12.400000,0.449219,0.731445,0.366699,5.104064,-16.197205,-0.808716,0.9334225487885967
0 days 00:01:12.410000,0.672119,0.781494,0.157715,28.633116,-68.611145,17.036438,1.0427611631730442
0 days 00:01:12.420000,0.661377,0.772705,0.140381,30.746458,-67.802429,18.234253,1.0267421187011858
0 days 00:01:12.430000,0.65332,0.753662,0.124023,32.463074,-65.063477,19.744873,1.0050945911569718
0 days 00:01:12.440000,0.640137,0.744629,0.113281,33.477783,-61.096188,21.40045,0.9884737282148676
0 days 00:01:12.450000,0.618652,0.73877,0.097412,33.531189,-55.358883,22.949217,0.9685042631542724
0 days 00:01:12.460000,0.590088,0.723877,0.095215,32.920837,-48.828121,25.573729,0.938758571251416
0 days 00:01:12.470000,0.557129,0.71582,0.111328,32.249451,-42.510983,28.587339,0.9138845214932793
0 days 00:01:12.480000,0.524902,0.70752,0.144287,32.066345,-37.483215,31.158445,0.8927067818567304
0 days 00:01:12.490000,0.52124,0.696289,0.187256,31.723021,-34.790039,32.585144,0.8897046243877796
0 days 00:01:12.500000,0.677002,0.778809,0.170166,26.44348,-63.095089,16.75415,1.0458640609758993
0 days 00:01:12.510000,0.437256,0.735107,0.368408,3.288269,-15.266418,-0.335693,0.9312891953893806
0 days 00:01:12.520000,0.492432,0.771729,0.355225,21.858213,-28.671263,14.053344,0.9819570890268067
0 days 00:01:12.530000,0.440918,0.74292,0.376221,1.464844,-13.816833,-0.350952,0.9422744026901081
0 days 00:01:12.540000,0.473633,0.791504,0.405518,20.469664,-14.312743,7.041931,1.0075969675564729
0 days 00:01:12.550000,0.478027,0.7854,0.41333,20.164488,-13.801574,6.355285,1.0080697702188077
0 days 00:01:12.560000,0.48877,0.774902,0.425781,20.027161,-14.305114,5.53894,1.0102765376197747
0 days 00:01:12.570000,0.491943,0.762451,0.442871,20.118711,-15.922545,4.173279,1.0096901333037775
0 days 00:01:12.580000,0.487305,0.746826,0.456787,20.126341,-18.112183,3.448486,1.0019329322215134
0 days 00:01:12.590000,0.478027,0.732178,0.479736,20.103453,-19.996643,3.585815,0.9973670668861089
0 days 00:01:12.600000,0.462402,0.727295,0.494385,20.03479,-20.095823,3.837585,0.9935744334744127
0 days 00:01:12.610000,0.450928,0.731445,0.492432,20.530699,-19.454956,3.593445,0.9903722147924992
0 days 00:01:12.620000,0.439453,0.741455,0.488037,21.049498,-19.15741,3.311157,0.9904819885303316
0 days 00:01:12.630000,0.431152,0.740723,0.502197,23.147581,-18.951416,2.998352,0.9933601746808657
0 days 00:01:12.640000,0.468262,0.79541,0.400146,21.209715,-15.670775,7.896423,1.0060135138555544
0 days 00:01:12.650000,0.427979,0.742676,0.503906,24.314878,-18.112183,2.76947,0.9943112803609341
0 days 00:01:12.660000,0.443359,0.73291,0.499512,25.032042,-15.388488,1.312256,0.9915828301886837
0 days 00:01:12.670000,0.445557,0.723633,0.489014,23.872374,-13.267516,0.495911,0.9804593062101048
0 days 00:01:12.680000,0.441895,0.725342,0.478027,22.262571,-11.764525,-0.816345,0.9746291708737226
0 days 00:01:12.690000,0.425537,0.727295,0.475586,21.163939,-10.44464,-1.991272,0.9675855511478042
0 days 00:01:12.700000,0.407959,0.7229,0.477295,20.690916,-9.025574,-2.906799,0.9575100379139636
0 days 00:01:12.710000,0.40625,0.714355,0.485596,20.240782,-7.93457,-4.02832,0.9545394720706943
0 days 00:01:12.720000,0.409668,0.70459,0.495605,19.40918,-7.881164,-5.226135,0.9538863948862045
0 days 00:01:12.730000,0.418213,0.699951,0.515869,18.135071,-8.171082,-6.614685,0.9648597519489555
0 days 00:01:12.740000,0.415771,0.692627,0.533936,16.654968,-7.331848,-8.354187,0.9683415397812901
0 days 00:01:12.750000,0.446533,0.747803,0.389404,-1.029968,-12.374877,-1.152039,0.95406316463534
0 days 00:01:12.760000,0.436768,0.736572,0.5,25.085447,-17.112732,2.235413,0.9916171625219079
0 days 00:01:12.770000,0.457275,0.800781,0.390625,22.003172,-17.944336,8.155823,1.001468185321431
0 days 00:01:12.780000,0.434326,0.740967,0.494141,22.02606,-19.081116,3.128052,0.9908816767132189
0 days 00:01:12.790000,0.451172,0.816406,0.374268,23.117064,-22.987364,7.347106,1.0050629165599534
0 days 00:01:12.800000,0.451416,0.810059,0.383545,22.666929,-20.683287,8.003235,1.0035331362551014
0 days 00:01:12.810000,0.462891,0.750732,0.421143,-5.874633,-11.886596,-2.502441,0.9773576828132062
0 days 00:01:12.820000,0.472412,0.750977,0.425537,-8.026123,-12.405395,-1.495361,0.9839823629730362
0 days 00:01:12.830000,0.456787,0.749512,0.426758,-9.605408,-13.832091,-0.091553,0.9759841146642705
0 days 00:01:12.840000,0.447998,0.74585,0.427002,-11.20758,-16.624451,1.472473,0.9691878757537157
0 days 00:01:12.850000,0.454346,0.756104,0.424072,-12.367248,-20.187376,2.250671,0.9787546207890924
0 days 00:01:12.860000,0.456787,0.773682,0.426758,-12.435912,-23.925779,3.044128,0.9946660701245419
0 days 00:01:12.870000,0.457275,0.787598,0.442627,-11.154174,-27.122496,3.448486,1.0125856488998846
0 days 00:01:12.880000,0.467285,0.807373,0.456299,-8.758545,-30.479429,2.555847,1.0384677220573588
0 days 00:01:12.890000,0.478027,0.824219,0.461182,-5.996704,-34.141541,0.450134,1.0585535460306201
0 days 00:01:12.900000,0.479492,0.830566,0.466553,-2.853393,-36.865234,-1.739502,1.066500895559399
0 days 00:01:12.910000,0.474854,0.829834,0.470459,0.175476,-37.826538,-3.601074,1.0655714239566487
0 days 00:01:12.920000,0.450439,0.747803,0.403076,-3.639221,-11.726378,-2.326965,0.9615481689993487
0 days 00:01:12.930000,0.455811,0.816162,0.364746,22.926329,-24.246214,5.958557,1.0034558896538504
0 days 00:01:12.940000,0.475342,0.831055,0.452637,6.385803,-35.087585,-5.638122,1.05900079497515
0 days 00:01:12.950000,0.474609,0.828857,0.435547,9.483337,-33.241272,-5.432128,1.0497422629098059
0 days 00:01:12.960000,0.468018,0.815674,0.420654,12.306212,-32.13501,-4.249573,1.0302012960174338
0 days 00:01:12.970000,0.464844,0.80542,0.406738,14.282226,-31.433104,-2.6474,1.0149961188989838
0 days 00:01:12.980000,0.462891,0.798828,0.396729,15.525817,-30.166624,-1.350403,1.0048821577209937
0 days 00:01:12.990000,0.457275,0.79834,0.383301,17.120361,-28.884886,-0.25177,0.9966779007412576
0 days 00:01:13,0.454102,0.796631,0.368896,18.913269,-27.984617,1.358032,0.9883895160213912
0 days 00:01:13.010000,0.458008,0.802979,0.36377,20.446775,-26.901243,3.105163,0.9934159327316026
0 days 00:01:13.020000,0.458008,0.809326,0.362061,21.926878,-25.444029,4.547119,0.9979318965044659
0 days 00:01:13.030000,0.472656,0.830566,0.465088,3.334045,-37.017822,-4.997253,1.0628030967380553
0 days 00:01:13.040000,0.779053,0.560791,-0.148926,6.782531,-7.835388,3.40271,0.9713851326667502
0 days 00:01:13.050000,0.784668,0.549072,-0.144531,10.353087,-7.644653,3.662109,0.9685417602607541
0 days 00:01:13.060000,0.79834,0.538086,-0.133545,13.359069,-7.56073,3.929138,0.9719658255417214
0 days 00:01:13.070000,0.808105,0.527344,-0.127441,15.296935,-7.255554,3.944397,0.973327588143889
0 days 00:01:13.080000,0.796387,0.568359,-0.147949,17.01355,0.312805,2.700805,0.9895216588084366
0 days 00:01:13.090000,0.813721,0.539063,-0.130615,16.365051,-5.332946,3.242492,0.9847797022862524
0 days 00:01:13.100000,0.808838,0.545898,-0.135498,16.784668,-3.219604,2.983093,0.9851818332937325
0 days 00:01:13.110000,0.80542,0.559082,-0.140137,17.211914,-1.358032,2.716064,0.9904102371709412
0 days 00:01:13.120000,0.77124,0.556885,-0.142334,1.777649,-8.293152,2.792358,0.9618684984866694
0 days 00:01:13.130000,0.814453,0.529785,-0.128662,16.197205,-6.736755,3.585815,0.9800814995080765
0 days 00:01:13.140000,0.763916,0.552734,-0.130859,-4.203796,-9.19342,2.311707,0.9519488472039871
0 days 00:01:13.150000,0.749023,0.590332,-0.107666,-20.179747,-7.461547,5.577087,0.9597495987542792
0 days 00:01:13.160000,0.758545,0.550781,-0.116943,-13.641356,-9.841919,3.204345,0.9446829585818726
0 days 00:01:13.170000,0.753174,0.558105,-0.110352,-16.777039,-9.849548,4.03595,0.9438907930502342
0 days 00:01:13.180000,0.756836,0.570557,-0.113281,-18.844604,-9.58252,4.592896,0.954551520928022
0 days 00:01:13.190000,0.753174,0.578613,-0.11377,-19.844055,-8.81958,4.882813,0.9565603435983534
0 days 00:01:13.200000,0.749023,0.603271,-0.103516,-19.729614,-5.889892,6.393432,0.9673091110012352
0 days 00:01:13.210000,0.748291,0.614502,-0.102783,-18.051147,-4.653931,7.484436,0.9737127265133183
0 days 00:01:13.220000,0.738525,0.620117,-0.104004,-15.35797,-3.585815,7.949829,0.9699387100894572
0 days 00:01:13.230000,0.733887,0.619385,-0.111816,-13.481139,-2.075195,8.31604,0.9668147313989376
0 days 00:01:13.240000,0.741211,0.614502,-0.112793,-12.802123,-1.13678,9.086609,0.9693960570241659
0 days 00:01:13.250000,0.752441,0.608643,-0.109131,-12.626647,-0.923157,9.613037,0.9739216267703475
0 days 00:01:13.260000,0.763916,0.555176,-0.12085,-9.368896,-9.750366,2.555847,0.9520466209865985
0 days 00:01:13.270000,0.788818,0.576416,-0.154785,15.480041,1.63269,2.433777,0.9891651219108971
0 days 00:01:13.280000,0.750488,0.612793,-0.111084,-12.786864,-1.426697,10.360717,0.97523697327829
0 days 00:01:13.290000,0.777588,0.578857,-0.165771,13.72528,3.120422,2.006531,0.9834625303660531
0 days 00:01:13.300000,0.784912,0.550293,-0.11792,1.808166,8.842468,-0.045776,0.965823151510151
0 days 00:01:13.310000,0.785156,0.552734,-0.116943,1.052856,9.277344,0.167847,0.967295448320212
0 days 00:01:13.320000,0.787354,0.553467,-0.114502,0.694275,9.277344,0.12207,0.9692072788671163
0 days 00:01:13.330000,0.790039,0.549561,-0.114258,0.534058,8.995056,-0.106812,0.9691407559307369
0 days 00:01:13.340000,0.791504,0.547119,-0.118652,0.152588,8.422852,-0.320435,0.9694823769832023
0 days 00:01:13.350000,0.788086,0.543945,-0.118408,-0.221252,8.239746,-0.366211,0.9648710592016946
0 days 00:01:13.360000,0.783203,0.543213,-0.121338,-0.450134,8.407593,-0.63324,0.9608382865092335
0 days 00:01:13.370000,0.78125,0.541748,-0.124023,-0.518799,8.598328,-0.976562,0.958761786124687
0 days 00:01:13.380000,0.782715,0.546143,-0.128906,-0.518799,8.766174,-1.533508,0.9630844742336988
0 days 00:01:13.390000,0.778564,0.549316,-0.132324,-0.724792,8.972168,-2.052307,0.9619873236836337
0 days 00:01:13.400000,0.7771,0.546875,-0.137207,-0.892639,8.956909,-2.281189,0.9600950142949395
0 days 00:01:13.410000,0.780762,0.547363,-0.13916,-0.778198,9.017944,-2.27356,0.9636187316636181
0 days 00:01:13.420000,0.78833,0.547852,-0.141113,0.022888,8.728027,-2.288818,0.9703189586795674
0 days 00:01:13.430000,0.792969,0.551758,-0.143555,1.670837,8.132935,-2.105713,0.9766497650386243
0 days 00:01:13.440000,0.787842,0.554688,-0.144043,3.364563,7.850646,-1.937866,0.9742290183303923
0 days 00:01:13.450000,0.783447,0.558594,-0.148682,5.325317,7.606506,-1.678467,0.9736132680736227
0 days 00:01:13.460000,0.782959,0.565918,-0.150635,7.6828,6.996154,-0.991821,0.9777417254213917
0 days 00:01:13.470000,0.781006,0.569336,-0.155518,9.910583,6.263732,0.12207,0.9789278325065642
0 days 00:01:13.480000,0.77417,0.569092,-0.15918,11.184691,5.874633,0.572205,0.9739318075532803
0 days 00:01:13.490000,0.776855,0.571289,-0.157471,11.894225,5.187988,0.732422,0.9770731438264998
0 days 00:01:13.500000,0.776123,0.573975,-0.166016,12.046813,4.318237,0.75531,0.9794771687027728
0 days 00:01:13.510000,0.773193,0.57959,-0.171631,12.229918,3.90625,1.312256,0.9814322103487332
0 days 00:01:13.520000,0.774414,0.584473,-0.169434,13.000487,3.715515,1.747131,0.9849028436759638
0 days 00:01:13.530000,0.781006,0.578857,-0.1604,14.205932,2.593994,2.212524,0.985278619723883
0 days 00:01:13.540000,0.780762,0.550293,-0.117676,2.304077,8.033752,-0.526428,0.9624236735809235
0 days 00:01:13.550000,0.746582,0.61792,-0.115723,-13.389586,-2.311707,11.482238,0.9760131258610204
0 days 00:01:13.560000,0.742188,0.629883,-0.10791,-13.961791,-4.501343,13.008117,0.9794080810025002
0 days 00:01:13.570000,0.735107,0.704346,-0.121582,15.731811,-18.600464,20.149229,1.0253134993205737
0 days 00:01:13.580000,0.74585,0.695068,-0.116211,17.311096,-20.03479,20.26367,1.0261173147574307
0 days 00:01:13.590000,0.754639,0.688721,-0.111328,18.737793,-22.712706,20.477293,1.0277210515241966
0 days 00:01:13.600000,0.744873,0.678955,-0.103516,20.446775,-24.772642,20.668028,1.013178780082765
0 days 00:01:13.610000,0.716553,0.673096,-0.095703,22.02606,-26.069639,20.225523,0.9877578100091136
0 days 00:01:13.620000,0.700195,0.678223,-0.090332,23.399351,-27.633665,19.302368,0.9789889406821713
0 days 00:01:13.630000,0.689209,0.688477,-0.093262,24.520872,-28.617857,18.554688,0.9786252734596629
0 days 00:01:13.640000,0.687012,0.682861,-0.085938,25.604246,-29.144285,17.982483,0.972455640792422
0 days 00:01:13.650000,0.696533,0.67627,-0.078613,25.779722,-30.418394,17.341614,0.9740017129132782
0 days 00:01:13.660000,0.702881,0.668213,-0.072021,24.887083,-31.944273,16.921997,0.9724902765431642
0 days 00:01:13.670000,0.739746,0.711426,-0.133789,13.526916,-18.493652,19.744873,1.0350123644251792
0 days 00:01:13.680000,0.699707,0.661133,-0.059814,23.246763,-32.501221,16.685486,0.9645021742505301
0 days 00:01:13.690000,0.660645,0.665527,-0.022705,19.615173,-32.142639,15.213012,0.9380263966323122
0 days 00:01:13.700000,0.650635,0.670654,-0.012207,17.776489,-32.058716,14.717101,0.9344793747269117
0 days 00:01:13.710000,0.650391,0.676758,-0.016113,15.274047,-31.913755,14.47296,0.938759539080163
0 days 00:01:13.720000,0.646484,0.676025,-0.015137,12.657165,-31.913755,14.335631,0.9355108185638475
0 days 00:01:13.730000,0.650879,0.678955,-0.014404,10.147094,-31.898497,14.114379,0.9406544742263229
0 days 00:01:13.740000,0.660889,0.685791,-0.012939,8.224487,-31.639097,13.85498,0.9524972355461196
0 days 00:01:13.750000,0.676514,0.693848,-0.009766,7.476806,-31.22711,13.481139,0.9691189885953118
0 days 00:01:13.760000,0.678467,0.70166,-0.002686,8.453369,-30.303953,13.236999,0.9760386469218316
0 days 00:01:13.770000,0.677002,0.701904,0.008057,10.078429,-29.33502,12.893676,0.9752260499335526
0 days 00:01:13.780000,0.673828,0.706299,0.018799,11.642455,-28.923033,12.496947,0.9763482234254334
0 days 00:01:13.790000,0.685303,0.658447,-0.041016,21.27075,-32.341003,15.907287,0.9512491607743998
0 days 00:01:13.800000,0.74292,0.707031,-0.136719,11.177062,-18.966675,18.783569,1.034656970363608
0 days 00:01:13.810000,0.743164,0.62207,-0.112793,-14.152526,-3.326416,12.359618,0.9756977383621426
0 days 00:01:13.820000,0.737549,0.685791,-0.121094,7.354736,-18.333435,16.899109,1.0143725055018005
0 days 00:01:13.830000,0.739014,0.641357,-0.107422,-12.672423,-5.439758,13.618468,0.9843881245367601
0 days 00:01:13.840000,0.741943,0.652588,-0.118408,-10.795592,-6.088256,14.091491,0.995173837807747
0 days 00:01:13.850000,0.750244,0.655273,-0.128174,-8.720398,-6.477355,14.442443,1.0043292977609486
0 days 00:01:13.860000,0.760254,0.650391,-0.137207,-7.064819,-6.805419,14.671325,1.0098615539993587
0 days 00:01:13.870000,0.774658,0.645508,-0.141113,-5.91278,-7.202148,14.877318,1.0181789988980325
0 days 00:01:13.880000,0.775146,0.634766,-0.145996,-4.989624,-7.743835,15.228271,1.0124692726636202
0 days 00:01:13.890000,0.74292,0.69751,-0.12915,9.223938,-19.119263,17.50946,1.027195234120564
0 days 00:01:13.900000,0.753906,0.611084,-0.149902,-5.073547,-8.728027,14.831542,0.9819717518829144
0 days 00:01:13.910000,0.751953,0.606445,-0.147705,-5.187988,-10.459899,13.763427,0.9772541221499146
0 days 00:01:13.920000,0.750732,0.604248,-0.145996,-5.172729,-12.535094,12.649535,0.9746943178986938
0 days 00:01:13.930000,0.744385,0.604248,-0.143066,-4.928589,-14.236449,11.871337,0.9693774053922445
0 days 00:01:13.940000,0.765381,0.620117,-0.147949,-4.859924,-8.003235,15.510558,0.9961134852269594
0 days 00:01:13.950000,0.73584,0.632324,-0.141113,-1.037598,-16.410828,11.749267,0.9804116611633095
0 days 00:01:13.960000,0.736816,0.644531,-0.144775,0.640869,-16.616821,11.825561,0.9895846747206628
0 days 00:01:13.970000,0.73584,0.652344,-0.143799,1.747131,-15.914916,11.924743,0.9938266208635187
0 days 00:01:13.980000,0.741943,0.65918,-0.142578,2.5177,-14.877318,12.489318,1.0026595502627
0 days 00:01:13.990000,0.753662,0.656006,-0.135498,2.624511,-14.877318,13.038634,1.008320380773889
0 days 00:01:14,0.755615,0.645264,-0.119385,2.326965,-16.105652,13.442992,1.0007859092463283
0 days 00:01:14.010000,0.749512,0.641846,-0.104492,2.39563,-17.204285,14.038085,0.9922968829559023
0 days 00:01:14.020000,0.734619,0.645264,-0.101807,2.662658,-17.845154,14.671325,0.9830541033463012
0 days 00:01:14.030000,0.726318,0.652588,-0.099121,3.479004,-17.860413,15.304564,0.9814448061450017
0 days 00:01:14.040000,0.724854,0.669189,-0.106934,5.393981,-17.555237,16.143799,0.9923014256731671
0 days 00:01:14.050000,0.737793,0.61792,-0.137207,-3.372192,-15.495299,11.695861,0.9721056517159028
0 days 00:01:14.060000,0.687012,0.677734,0.102539,-9.658813,18.486023,-13.671874,0.9704757129475213
0 days 00:01:14.070000,0.687988,0.674072,0.104736,-10.108947,17.845154,-13.366698,0.9688499259555114
0 days 00:01:14.080000,0.691162,0.677979,0.104004,-10.375976,17.120361,-13.275146,0.9737439430882228
0 days 00:01:14.090000,0.691162,0.679932,0.101318,-11.245727,16.738892,-13.198852,0.9748219180917098
0 days 00:01:14.100000,0.68335,0.677979,0.119629,-16.044617,14.320373,-11.32965,0.9700174455039455
0 days 00:01:14.110000,0.686768,0.686035,0.105469,-12.931823,15.830993,-12.908935,0.9764312658912556
0 days 00:01:14.120000,0.687988,0.683594,0.108398,-14.160155,15.327453,-12.435912,0.9758987505802024
0 days 00:01:14.130000,0.684082,0.679932,0.112549,-15.190124,14.86206,-11.932372,0.9710525138987077
0 days 00:01:14.140000,0.687744,0.685303,0.104004,-11.96289,16.418457,-13.145446,0.9764470509766517
0 days 00:01:14.150000,0.688965,0.683838,0.095703,-8.972168,19.371033,-13.885497,0.9754313126396958
0 days 00:01:14.160000,0.723877,0.655762,0.054443,0.663757,22.575377,-13.916015,0.9782564858062531
0 days 00:01:14.170000,0.686768,0.690918,0.084229,-7.522583,21.003721,-14.167785,0.9778100495438774
0 days 00:01:14.180000,0.689697,0.686768,0.083252,-7.019042,21.102903,-14.549254,0.9768639276465274
0 days 00:01:14.190000,0.695557,0.681641,0.075928,-6.263732,21.064756,-14.884948,0.9768311288620977
0 days 00:01:14.200000,0.695068,0.681885,0.06958,-5.363464,21.339415,-15.007018,0.9761803389994085
0 days 00:01:14.210000,0.692383,0.677246,0.066406,-4.455566,21.713255,-14.98413,0.9708069427239383
0 days 00:01:14.220000,0.693604,0.673828,0.063965,-3.440857,22.010801,-15.014647,0.9691347706201651
0 days 00:01:14.230000,0.699219,0.675293,0.059326,-2.075195,22.354124,-14.739989,0.973882652112666
0 days 00:01:14.240000,0.705322,0.673584,0.059814,-0.938415,22.880552,-14.503478,0.9771244768892037
0 days 00:01:14.250000,0.709961,0.668457,0.0625,-0.259399,23.254393,-14.236449,0.9771313281079468
0 days 00:01:14.260000,0.715088,0.662354,0.05957,0.335693,23.109434,-14.030456,0.9765307235105304
0 days 00:01:14.270000,0.686035,0.677979,0.128906,-16.433716,13.442992,-10.635375,0.9730962452409319
0 days 00:01:14.280000,0.686768,0.691895,0.088379,-8.033752,20.309446,-13.877868,0.9788666019892599
0 days 00:01:14.290000,0.695313,0.679199,0.128662,-16.151428,12.527465,-9.979248,0.9804720086845926
0 days 00:01:14.300000,0.665527,0.687744,0.18457,-16.403198,9.590149,-4.920959,0.9746712687696298
0 days 00:01:14.310000,0.692383,0.681396,0.144287,-15.403747,11.924743,-8.712769,0.982096464647949
0 days 00:01:14.320000,0.730713,0.656494,0.048828,0.457764,22.171019,-13.893126,0.9835192087544604
0 days 00:01:14.330000,0.622314,0.669189,0.234619,-16.151428,0.488281,-6.622314,0.943469505324894
0 days 00:01:14.340000,0.616943,0.669189,0.236084,-16.967773,0.923157,-6.782531,0.940302205690277
0 days 00:01:14.350000,0.613281,0.671631,0.238037,-17.463684,1.89209,-6.645202,0.9401400951406125
0 days 00:01:14.360000,0.613281,0.679199,0.236084,-17.852783,2.929687,-6.568908,0.9450717018396011
0 days 00:01:14.370000,0.61084,0.68457,0.239014,-18.112183,4.150391,-6.286621,0.9480977179046473
0 days 00:01:14.380000,0.612793,0.690674,0.239502,-18.104553,5.53894,-6.019592,0.9538904775334536
0 days 00:01:14.390000,0.619141,0.698242,0.237305,-17.570496,6.91986,-5.683898,0.9629076443096711
0 days 00:01:14.400000,0.629883,0.705566,0.232422,-16.998291,8.171082,-5.508422,0.973958910903843
0 days 00:01:14.410000,0.642334,0.708984,0.223633,-16.357422,9.19342,-5.767822,0.982477988812472
0 days 00:01:14.420000,0.699219,0.679199,0.134033,-15.640258,12.107848,-9.422302,0.9839630768738226
0 days 00:01:14.430000,0.652832,0.707275,0.212891,-15.960692,9.460449,-6.004333,0.9857738704845042
0 days 00:01:14.440000,0.665039,0.694092,0.189453,-15.907287,9.513855,-5.302429,0.9797617134762922
0 days 00:01:14.450000,0.662109,0.688232,0.182129,-17.105103,9.674072,-4.623413,0.9722255840832413
0 days 00:01:14.460000,0.659668,0.688232,0.178955,-17.662048,10.002136,-4.600525,0.9699742512422688
0 days 00:01:14.470000,0.663086,0.689697,0.179199,-17.707825,10.307311,-4.692078,0.9733844445058695
0 days 00:01:14.480000,0.671631,0.692627,0.179688,-17.13562,10.337829,-4.852295,0.9813807307227913
0 days 00:01:14.490000,0.680176,0.69165,0.179688,-16.387939,10.017395,-5.294799,0.9865631712262525
0 days 00:01:14.500000,0.68457,0.692139,0.173828,-15.686034,9.941101,-6.149292,0.9888926401814304
0 days 00:01:14.510000,0.686523,0.689697,0.173096,-15.167235,10.147094,-6.965637,0.9884118607918462
0 days 00:01:14.520000,0.688477,0.68457,0.166992,-15.129088,10.734557,-7.667541,0.9851512536118503
0 days 00:01:14.530000,0.689941,0.682129,0.157227,-15.3656,11.322021,-8.216858,0.9828727718535091
0 days 00:01:14.540000,0.657471,0.700684,0.198975,-15.792846,9.429932,-5.744934,0.9812325077788648
0 days 00:01:14.550000,0.62793,0.67334,0.238525,-15.403747,0.389099,-6.134033,0.9510925381502054
0 days 00:01:14.560000,0.729492,0.651123,0.046875,-0.076294,21.911619,-13.931273,0.978936670483847
0 days 00:01:14.570000,0.741211,0.651611,0.034424,-1.678467,20.919798,-13.900756,0.987509824567837
0 days 00:01:14.580000,0.776367,0.583984,-0.055664,-11.45172,16.387939,-11.398314,0.9730783688074666
0 days 00:01:14.590000,0.778564,0.584473,-0.054199,-11.383056,16.067505,-11.024474,0.9750426254405498
0 days 00:01:14.600000,0.7854,0.588623,-0.060547,-11.070251,15.380858,-10.604857,0.9833596164872747
0 days 00:01:14.610000,0.789795,0.588623,-0.06543,-10.81848,14.442443,-9.819031,0.9871850196665264
0 days 00:01:14.620000,0.791016,0.585205,-0.070801,-10.597228,13.877868,-8.972168,0.9865008798181581
0 days 00:01:14.630000,0.788086,0.583008,-0.07666,-10.437011,13.511657,-8.010864,0.9832876624162432
0 days 00:01:14.640000,0.791504,0.583252,-0.083984,-9.918213,12.96234,-6.835937,0.9867698768081644
0 days 00:01:14.650000,0.795166,0.584473,-0.088135,-9.216309,12.481688,-5.676269,0.990790307537372
0 days 00:01:14.660000,0.792236,0.586914,-0.095459,-8.323669,12.054442,-4.91333,0.9905646590571462
0 days 00:01:14.670000,0.790283,0.593262,-0.104736,-5.767822,12.100219,-3.669739,0.9937185972039569
0 days 00:01:14.680000,0.774902,0.582275,-0.050293,-11.45935,16.860962,-11.734008,0.9705908875927076
0 days 00:01:14.690000,0.795166,0.590088,-0.111816,-4.211426,11.680602,-3.120422,0.9964916623615072
0 days 00:01:14.700000,0.798584,0.583008,-0.105225,-1.144409,10.383605,-2.578735,0.9943374848334945
0 days 00:01:14.710000,0.798584,0.577881,-0.101318,0.137329,9.475708,-2.464294,0.9909329908429731
0 days 00:01:14.720000,0.79541,0.57666,-0.108887,1.205444,8.68988,-2.479553,0.9884686148123267
0 days 00:01:14.730000,0.78833,0.571777,-0.113037,1.831055,8.44574,-2.288818,0.9803930283299652
0 days 00:01:14.740000,0.780518,0.568359,-0.114746,2.189636,8.598328,-1.998901,0.9723203925255296
0 days 00:01:14.750000,0.78418,0.565918,-0.119629,2.716064,7.942199,-1.914978,0.9744293472412456
0 days 00:01:14.760000,0.788818,0.560303,-0.119141,3.013611,7.04956,-1.937866,0.9748681279096163
0 days 00:01:14.770000,0.786377,0.555908,-0.115479,2.845764,6.881713,-1.625061,0.9699267446740502
0 days 00:01:14.780000,0.781494,0.550537,-0.115234,2.449036,7.30133,-1.022339,0.9628617424952557
0 days 00:01:14.790000,0.731445,0.652832,0.041504,-0.717163,21.575926,-13.84735,0.9812869051735074
0 days 00:01:14.800000,0.797607,0.5896,-0.109131,-2.449036,11.161803,-2.784729,0.9978550303576166
0 days 00:01:14.810000,0.770752,0.577148,-0.047119,-11.352538,17.196655,-12.031554,0.9640428722671
0 days 00:01:14.820000,0.784424,0.590576,-0.098145,-7.102966,12.046813,-4.341125,0.986779339354549
0 days 00:01:14.830000,0.776123,0.574707,-0.045654,-10.208129,17.913818,-12.771605,0.9668191840742507
0 days 00:01:14.840000,0.772461,0.57666,-0.048096,-10.803222,17.478943,-12.413024,0.9651662951724951
0 days 00:01:14.850000,0.741211,0.648193,0.024658,-3.189087,20.050049,-13.71765,0.9849649378196159
0 days 00:01:14.860000,0.739746,0.642578,0.020508,-4.203796,19.569397,-13.732909,0.9800771442412071
0 days 00:01:14.870000,0.742188,0.640625,0.018799,-4.867554,18.852234,-13.900756,0.9806104325214983
0 days 00:01:14.880000,0.742188,0.637695,0.010986,-5.554199,18.1427,-13.694762,0.9785799060705263
0 days 00:01:14.890000,0.743652,0.63208,0.010254,-6.271362,17.684937,-13.34381,0.976037175531752
0 days 00:01:14.900000,0.743652,0.629395,0.008057,-6.759643,16.929626,-13.015746,0.9742798768208241
0 days 00:01:14.910000,0.750244,0.629395,0.003174,-7.04956,16.212463,-12.939452,0.9792927038618229
0 days 00:01:14.920000,0.748291,0.626221,0.000977,-7.484436,15.73944,-12.756347,0.9757525895692002
0 days 00:01:14.930000,0.744629,0.619629,-0.002197,-7.965087,15.441894,-12.580871,0.9687193980152353
0 days 00:01:14.940000,0.741455,0.616699,-0.00708,-8.483887,15.533446,-12.580871,0.9644290020659892
0 days 00:01:14.950000,0.744385,0.651367,0.028809,-2.471924,20.332335,-13.839721,0.9895544226544591
0 days 00:01:14.960000,0.743408,0.616943,-0.015137,-8.827209,17.173767,-12.435912,0.9661797185213525
0 days 00:01:14.970000,0.744385,0.617676,-0.013916,-8.895874,16.029358,-12.680053,0.9673811680289213
0 days 00:01:14.980000,0.774414,0.58374,-0.044678,-9.017944,19.973755,-13.153075,0.9708066515429322
0 days 00:01:14.990000,0.764404,0.588379,-0.039795,-8.377075,21.049498,-13.175963,0.9654465106270776
0 days 00:01:15,0.756104,0.59668,-0.04126,-7.911682,21.591185,-13.122558,0.9640656973546978
0 days 00:01:15.010000,0.754639,0.602539,-0.041504,-7.850646,21.347044,-12.901305,0.9665691123028916
0 days 00:01:15.020000,0.777588,0.578369,-0.043945,-9.58252,18.783569,-13.015746,0.9700953360005397
0 days 00:01:15.030000,0.758545,0.614502,-0.035645,-8.43811,20.576475,-11.909484,0.9768693828009966
0 days 00:01:15.040000,0.745361,0.611572,-0.028564,-9.376526,20.683287,-11.016845,0.9645720468689729
0 days 00:01:15.050000,0.741943,0.609863,-0.019043,-9.017944,19.187927,-11.672973,0.9606117477248548
0 days 00:01:15.060000,0.757324,0.60498,-0.039551,-8.232117,20.935057,-12.496947,0.9701055215681436
0 days 00:01:15.070000,0.862549,0.045166,0.256348,132.598877,95.550529,75.706482,0.9009689462245634
0 days 00:01:15.080000,1.022949,0.232178,-0.155762,203.025803,72.319031,135.612488,1.060468330941099
0 days 00:01:15.090000,0.921387,0.147461,-0.128662,182.571396,75.080872,124.565117,0.9419409007650108
0 days 00:01:15.100000,0.822266,0.220703,-0.018555,175.323471,92.239372,119.201653,0.851572355698563
0 days 00:01:15.110000,0.866943,0.201416,0.038574,160.179138,107.170097,111.129753,0.8908684099130466
0 days 00:01:15.120000,0.883789,0.279541,0.128662,156.280518,113.624565,104.881279,0.9358312227351683
0 days 00:01:15.130000,0.941895,0.328369,0.183594,158.218384,108.665459,99.266045,1.0142480702579622
0 days 00:01:15.140000,1.018311,0.306885,-0.164063,215.202316,91.285698,150.45166,1.0761284142308483
0 days 00:01:15.150000,0.938721,0.310303,0.189697,157.875061,100.944511,94.116203,1.0067124810287196
0 days 00:01:15.160000,0.891846,0.222656,0.209717,151.123047,96.900932,88.508598,0.9428394360340471
0 days 00:01:15.170000,0.857666,-0.013916,0.28833,113.204948,96.878044,58.79211,0.9049413304253486
0 days 00:01:15.180000,1.318848,0.502197,0.464844,26.43585,102.706902,-5.996704,1.485813520684544
0 days 00:01:15.190000,0.631592,0.058594,0.29541,62.095638,158.508301,31.09741,0.6997205009144722
0 days 00:01:15.200000,0.746094,-0.05127,0.272217,21.713255,186.866745,-10.513305,0.7958561206807422
0 days 00:01:15.210000,1.068359,0.306152,0.382813,18.424988,171.516403,-47.004696,1.1754428071811918
0 days 00:01:15.220000,0.968994,0.424072,0.414063,19.851685,60.531612,22.483824,1.1358849418796781
0 days 00:01:15.230000,0.805664,0.465576,0.423828,14.533996,42.587276,25.520323,1.0224899345499692
0 days 00:01:15.240000,0.752197,0.507813,0.426025,10.276793,30.899046,22.789,1.0025825005469624
0 days 00:01:15.250000,0.734375,0.539795,0.408936,6.134033,19.836426,18.112183,0.9989564228463622
0 days 00:01:15.260000,0.682861,0.585938,0.365234,2.006531,14.22882,13.153075,0.9710913241920144
0 days 00:01:15.270000,0.644531,0.633057,0.317383,-0.274658,13.153075,9.513855,0.9575559220740061
0 days 00:01:15.280000,0.981689,0.278564,-0.203857,220.466599,108.909599,162.849411,1.0406098554530414
0 days 00:01:15.290000,0.769775,0.029297,0.323486,102.783195,105.62896,42.8009,0.8354968922922454
0 days 00:01:15.300000,0.968018,0.249268,-0.230957,229.01152,117.485039,170.791611,1.0259310503133239
0 days 00:01:15.310000,0.636475,0.662109,0.284668,-0.915527,12.443542,7.278442,0.961522034968518
0 days 00:01:15.320000,0.927734,0.243652,-0.304443,236.778244,127.777092,192.695602,1.00635093884241
0 days 00:01:15.330000,1.015137,-0.406738,0.053467,-26.390074,230.880722,249.992355,1.0948961820656786
0 days 00:01:15.340000,1.131836,-0.39624,0.043213,12.557982,214.256271,249.992355,1.199969262883429
0 days 00:01:15.350000,1.146729,-0.335449,0.019531,56.228634,181.953415,249.992355,1.194945559849067
0 days 00:01:15.360000,0.933105,-0.240967,0.0271,100.158684,148.017883,249.992355,0.9640977368057659
0 days 00:01:15.370000,0.496094,-0.186523,0.034912,134.284973,108.673088,249.992355,0.5311486930314335
0 days 00:01:15.380000,0.288574,-0.133789,0.076416,157.707214,66.474915,249.992355,0.3271297220568623
0 days 00:01:15.390000,0.317627,-0.069336,0.139648,170.761093,28.587339,249.992355,0.3538304056027407
0 days 00:01:15.400000,0.297607,0.016113,0.13208,174.354538,3.623962,249.992355,0.3259979779354467
0 days 00:01:15.410000,0.223389,0.20874,0.064941,179.138168,-0.846863,249.992355,0.3125577809013879
0 days 00:01:15.420000,0.23291,0.44458,-0.050049,194.99205,12.390136,249.992355,0.5043841263372589
0 days 00:01:15.430000,0.970215,0.221436,-0.267334,233.93248,121.452324,179.199203,1.030445785025588
0 days 00:01:15.440000,0.199219,0.549072,-0.157715,204.330429,30.418394,249.992355,0.6050142910460876
0 days 00:01:15.450000,0.466797,0.614258,-0.530518,214.01976,52.635189,249.992355,0.9363021297086748
0 days 00:01:15.460000,0.623779,0.600098,-0.656006,223.548874,58.715816,249.992355,1.086076296804695
0 days 00:01:15.470000,0.744873,0.52124,-0.685547,229.965195,60.737606,249.992355,1.1386402473731552
0 days 00:01:15.480000,0.811768,0.439697,-0.661865,233.985886,62.095638,249.992355,1.135942787229181
0 days 00:01:15.490000,0.851318,0.394531,-0.618652,239.952072,64.659119,249.832138,1.1238893825412712
0 days 00:01:15.500000,0.826172,0.343994,-0.60083,247.520432,70.976257,249.992355,1.0779094277906656
0 days 00:01:15.510000,0.754395,0.280762,-0.541992,249.992355,84.617607,249.992355,0.9704094211893246
0 days 00:01:15.520000,0.6604,0.218506,-0.424316,248.176559,105.323784,241.691574,0.8148110823325858
0 days 00:01:15.530000,0.622803,0.179932,-0.313965,243.232712,126.647942,224.014267,0.7203007168245773
0 days 00:01:15.540000,0.746826,0.198242,-0.289551,238.746628,133.18634,206.062302,0.8251598308455156
0 days 00:01:15.550000,0.269043,0.591553,-0.323975,206.863388,42.732235,249.992355,0.7261397167783896
0 days 00:01:15.560000,0.640137,0.666016,0.272705,-1.289368,11.466979,5.683898,0.9631825933072088
0 days 00:01:15.570000,0.641602,0.140625,0.325195,91.697685,128.105164,35.964966,0.7329258523575218
0 days 00:01:15.580000,0.656738,0.648438,0.279053,0.259399,9.170532,2.037048,0.9641821494390985
0 days 00:01:15.590000,0.644287,0.704834,0.208984,15.441894,6.706237,-2.044678,0.9775331289429531
0 days 00:01:15.600000,0.651367,0.696777,0.209961,15.083312,6.828308,-2.090454,0.9766579636387552
0 days 00:01:15.610000,0.642334,0.686035,0.223145,13.97705,6.431579,-1.686096,0.9659351322971951
0 days 00:01:15.620000,0.628906,0.673096,0.243896,12.687682,5.828857,-1.419067,0.9529250971970462
0 days 00:01:15.630000,0.615967,0.668213,0.248779,11.787414,5.401611,-1.213074,0.9422393269753709
0 days 00:01:15.640000,0.615723,0.662842,0.246094,10.353087,4.989624,-0.854492,0.9375695102385744
0 days 00:01:15.650000,0.628174,0.663086,0.243652,8.613586,4.615784,-0.404358,0.9453316427455498
0 days 00:01:15.660000,0.641113,0.672607,0.250244,7.011413,4.364014,0.12207,0.9623139377323805
0 days 00:01:15.670000,0.645752,0.679688,0.258301,5.470275,3.921509,0.465393,0.9724663641735892
0 days 00:01:15.680000,0.650635,0.681885,0.268066,3.868103,3.02124,0.747681,0.9798736841072935
0 days 00:01:15.690000,0.656494,0.680176,0.276367,2.235413,1.342773,0.564575,0.9848870400716013
0 days 00:01:15.700000,0.65918,0.680908,0.284668,0.907898,-0.50354,0.137329,0.9895402200456532
0 days 00:01:15.710000,0.656006,0.681152,0.289551,-0.12207,-1.823425,-0.068665,0.9890155209808388
0 days 00:01:15.720000,0.649658,0.67627,0.288818,-1.716614,-2.616882,-0.541687,0.9812300785177756
0 days 00:01:15.730000,0.6521,0.673096,0.288574,-3.677368,-3.723144,-1.358032,0.9805955275708736
0 days 00:01:15.740000,0.652832,0.676514,0.28833,-5.15747,-4.608154,-2.27356,0.9833590398831954
0 days 00:01:15.750000,0.64917,0.681152,0.283936,-6.622314,-4.478455,-2.944946,0.9828577659559902
0 days 00:01:15.760000,0.640381,0.682129,0.278564,-8.171082,-3.494262,-3.471374,0.9762098646797214
0 days 00:01:15.770000,0.638672,0.686768,0.270752,-9.552002,-2.159119,-4.051208,0.9761448944250029
0 days 00:01:15.780000,0.638184,0.687012,0.259766,-10.833739,-0.953674,-4.524231,0.9730070301678194
0 days 00:01:15.790000,0.638916,0.685059,0.250488,-12.184142,-0.160217,-4.966736,0.9696719685960815
0 days 00:01:15.800000,0.640137,0.68335,0.246338,-13.366698,0.228882,-5.378723,0.9682071118892899
0 days 00:01:15.810000,0.635254,0.676025,0.243408,-14.48059,0.25177,-5.706787,0.9590645961586738
0 days 00:01:15.820000,0.634766,0.709961,0.210938,15.167235,5.447387,-2.006531,0.9754318715938085
0 days 00:01:15.830000,0.630371,0.714355,0.210205,14.274596,3.028869,-2.14386,0.975631490723316
0 days 00:01:15.840000,0.64502,0.65332,0.275146,-1.251221,10.131835,4.058838,0.9584274328899397
0 days 00:01:15.850000,0.634521,0.718262,0.209717,11.276244,-1.472473,-1.693725,0.9810700383632148
0 days 00:01:15.860000,0.654053,0.661133,0.230225,3.219604,9.559631,-1.594543,0.9580635266635507
0 days 00:01:15.870000,0.651611,0.673828,0.206055,3.875732,11.215209,-2.746582,0.9597394083447861
0 days 00:01:15.880000,0.65625,0.690674,0.189697,4.051208,13.023376,-3.288269,0.9714317210102829
0 days 00:01:15.890000,0.66626,0.703613,0.178955,3.616333,13.740539,-3.112793,0.9853925783128266
0 days 00:01:15.900000,0.678955,0.71167,0.178955,3.120422,13.908385,-2.250671,0.9997394525325086
0 days 00:01:15.910000,0.689209,0.715576,0.184082,2.471924,13.336181,-1.022339,1.0104178542469446
0 days 00:01:15.920000,0.689941,0.715088,0.19458,1.716614,11.497497,0.457764,1.0125368179108354
0 days 00:01:15.930000,0.689697,0.712158,0.209473,0.587463,8.972168,1.754761,1.0132768163251344
0 days 00:01:15.940000,0.674316,0.710693,0.220215,-0.968933,7.04956,3.135681,1.0041320900807822
0 days 00:01:15.950000,0.654785,0.699219,0.236328,-2.685547,5.569458,4.447937,0.986661811245373
0 days 00:01:15.960000,0.631104,0.717773,0.211426,12.939452,0.396728,-2.197266,0.9788724594251286
0 days 00:01:15.970000,0.657715,0.653076,0.263428,2.098083,8.781433,0.053406,0.9635826867399601
0 days 00:01:15.980000,0.635742,0.708252,0.260742,-4.402161,1.838684,6.240844,0.986800474580348
0 days 00:01:15.990000,0.640137,0.719482,0.265869,-3.318786,-0.312805,6.484985,0.9990575820512049
0 days 00:01:16,0.647217,0.731689,0.266113,-1.396179,-1.792908,6.347656,1.0124597604739658
0 days 00:01:16.010000,0.654541,0.73877,0.26001,0.656128,-1.953125,6.034851,1.0206910569222207
0 days 00:01:16.020000,0.659424,0.745361,0.24707,2.555847,-1.396179,5.363464,1.0254007104527478
0 days 00:01:16.030000,0.667969,0.745361,0.236328,4.501343,-1.068115,4.264832,1.028395122929898
0 days 00:01:16.040000,0.666504,0.73877,0.220459,6.233215,-1.13678,3.326416,1.0191225959603682
0 days 00:01:16.050000,0.65918,0.726318,0.211426,7.461547,-1.342773,2.731323,1.0033728434634854
0 days 00:01:16.060000,0.650146,0.720703,0.211182,8.491516,-2.067566,1.434326,0.9933279783883066
0 days 00:01:16.070000,0.642578,0.718506,0.210693,9.559631,-2.281189,-0.259399,0.986685815429106
0 days 00:01:16.080000,0.63916,0.700928,0.25,-4.096985,4.051208,5.554199,0.980981940090642
0 days 00:01:16.090000,0.143311,-0.990479,0.121094,29.71649,16.975403,-16.410828,1.0080924803796525
0 days 00:01:16.100000,0.205078,-1.001221,0.181396,32.730103,23.872374,-26.916502,1.0379812068342085
0 days 00:01:16.110000,0.233643,-0.94873,0.264648,33.52356,28.228758,-35.057068,1.0122826819880897
0 days 00:01:16.120000,0.274902,-0.94165,0.273682,32.531738,36.056519,-41.000362,1.0184192011288868
0 days 00:01:16.130000,0.431396,-0.93042,0.278564,36.102295,0.419617,-23.246763,1.062723758703079
0 days 00:01:16.140000,0.205322,-0.909668,0.338623,31.745909,31.517027,-42.892452,0.9921282830546663
0 days 00:01:16.150000,0.272949,-0.925537,0.216553,31.303404,24.642942,-40.367123,0.9889464579940616
0 days 00:01:16.160000,0.342041,-0.926025,0.230713,32.554626,10.162353,-32.089233,1.013776521071089
0 days 00:01:16.170000,0.186035,-0.950684,0.091064,27.770994,5.867004,-5.996704,0.9729859922820061
0 days 00:01:16.180000,0.196533,-0.922607,0.187988,29.815672,36.956787,-43.151852,0.9618567381278773
0 days 00:01:16.190000,0.269287,-0.909424,0.115723,25.833128,-5.096435,-0.068665,0.9554890438272958
0 days 00:01:16.200000,0.231201,-0.973145,0.156738,8.323669,14.938354,-26.176451,1.0124385878017492
0 days 00:01:16.210000,0.295898,-0.962402,0.24292,16.586304,4.631042,-20.118711,1.0357525584848923
0 days 00:01:16.220000,0.17627,-0.976563,0.106689,13.771056,15.541076,-25.405882,0.9980625975308361
0 days 00:01:16.230000,0.225098,-1.005127,0.119141,11.650084,19.195557,-27.046202,1.0368914955837953
0 days 00:01:16.240000,0.24585,-0.995605,0.163574,4.516602,9.727478,-24.124144,1.0384738764172163
0 days 00:01:16.250000,0.260742,-0.983643,0.158691,2.716064,1.968384,-22.644041,1.0299139650932014
0 days 00:01:16.260000,0.208252,-0.945068,0.071289,-0.366211,-2.044678,-20.736692,0.9703630978396695
0 days 00:01:16.270000,0.223145,-0.942627,0.102539,-2.723694,-0.50354,-21.751402,0.9740911654845248
0 days 00:01:16.280000,0.262451,-0.925537,0.181396,-2.426147,0.747681,-25.55847,0.9789809878572721
0 days 00:01:16.290000,0.239746,-0.931641,0.149902,-0.75531,4.486084,-29.006956,0.9736034649696971
0 days 00:01:16.300000,0.38623,-0.89209,0.223389,35.888672,-4.081726,-18.363953,0.9974471546508116
0 days 00:01:16.310000,0.346924,-0.949951,0.240479,18.241882,-1.777649,-10.841369,1.0395159034945063
0 days 00:01:16.320000,0.380615,-0.894775,0.29834,34.950256,-1.564026,-17.593384,1.0171021750296279
0 days 00:01:16.330000,0.280273,-0.868408,0.222656,74.615479,30.021666,-90.072624,0.9392875509283618
0 days 00:01:16.340000,0.237061,-0.897217,0.338867,26.351927,26.107786,-31.188963,0.9879408415988278
0 days 00:01:16.350000,1.007568,-0.237549,0.833252,226.188644,-61.454769,-134.353638,1.3288836282869165
0 days 00:01:16.360000,1.067871,-0.187988,1.078613,229.576096,-12.46643,-114.120476,1.5294096784557107
0 days 00:01:16.370000,0.83374,-0.192871,1.324219,211.288437,16.288757,-112.853996,1.5766666008392516
0 days 00:01:16.380000,0.491943,-0.303711,1.621826,184.707626,40.801998,-123.832695,1.721792049303864
0 days 00:01:16.390000,0.306152,-0.78125,1.945557,135.299683,60.653683,-127.998344,2.118790374211899
0 days 00:01:16.400000,0.334473,-0.976563,1.187988,80.085754,67.619324,-131.843567,1.573805251243622
0 days 00:01:16.410000,0.401367,-0.958496,0.813965,57.815548,74.829102,-130.622864,1.3199807089234297
0 days 00:01:16.420000,0.493652,-0.94165,0.756348,49.148556,75.637817,-123.191826,1.304783245105485
0 days 00:01:16.430000,0.527832,-0.891113,0.726318,52.818295,63.072201,-115.280144,1.2650007257377365
0 days 00:01:16.440000,0.433838,-0.790283,0.615723,61.111446,40.153503,-109.191887,1.0917313969388258
0 days 00:01:16.450000,0.312988,-0.898682,0.35083,30.509947,10.040282,-22.964476,1.0142349403210285
0 days 00:01:16.460000,0.184326,-0.696289,0.291016,68.191528,22.186277,-107.566826,0.7768428142507338
0 days 00:01:16.470000,0.230469,-0.970703,0.166992,0.549316,5.958557,-30.784605,1.0115664101946051
0 days 00:01:16.480000,0.424316,-0.949219,0.378174,68.031311,30.067442,-73.768616,1.1063798407838965
0 days 00:01:16.490000,0.437256,-0.967285,0.411377,59.143063,26.176451,-60.653683,1.1384481177857864
0 days 00:01:16.500000,0.375244,-0.957764,0.358643,50.559994,23.330687,-54.023739,1.0893781440257555
0 days 00:01:16.510000,0.384766,-0.95459,0.331299,42.366024,24.635313,-49.118038,1.0812242922987811
0 days 00:01:16.520000,0.402588,-0.940674,0.373291,37.002563,25.466917,-46.401974,1.0891697951655654
0 days 00:01:16.530000,0.378662,-0.914795,0.42041,34.118652,23.406981,-45.539852,1.0756297552452703
0 days 00:01:16.540000,0.191162,-0.826904,0.25708,28.869627,25.360106,-46.180721,0.8867938102287363
0 days 00:01:16.550000,0.087158,-0.875488,0.12793,24.307249,35.896301,-45.471188,0.8890679614112749
0 days 00:01:16.560000,0.246094,-0.94043,0.301025,24.055479,37.017822,-38.345337,1.01763789844964
0 days 00:01:16.570000,0.085693,-0.762207,0.058838,73.0896,22.682188,-103.3554,0.7692624463354493
0 days 00:01:16.580000,0.194824,-0.993408,0.157471,-1.174927,7.095336,-31.158445,1.024506203632267
0 days 00:01:16.590000,0.294434,-0.943359,0.140625,21.072386,-5.722045,-1.876831,0.9981948576615689
0 days 00:01:16.600000,0.18335,-1.001953,0.245605,-4.714966,3.768921,-27.801512,1.047782827084888
0 days 00:01:16.610000,-0.049072,-0.763428,0.787109,-13.336181,-14.793395,40.206905,1.0976205857439991
0 days 00:01:16.620000,-0.398926,-1.305908,0.768066,-27.626036,27.9541,38.963318,1.5666726008633713
0 days 00:01:16.630000,-0.068359,-1.918701,0.654297,-44.136044,59.18121,51.544186,2.028346874795088
0 days 00:01:16.640000,0.372803,-1.856934,0.402588,-33.7677,37.567139,65.368652,1.9363013853501734
0 days 00:01:16.650000,0.352051,-1.335693,0.240234,-16.876221,-4.53949,61.622616,1.4020442473780919
0 days 00:01:16.660000,0.315674,-0.925537,0.403076,1.304626,-43.632504,54.145809,1.0577046253189026
0 days 00:01:16.670000,0.287598,-0.760742,0.592773,8.888245,-61.363216,47.531124,1.006389998806129
0 days 00:01:16.680000,0.115234,-0.939697,0.713135,-26.329039,-12.245177,34.599304,1.1852724812421824
0 days 00:01:16.690000,0.25293,-1.144043,1.070313,-78.193665,96.267693,24.162291,1.5869397873637172
0 days 00:01:16.700000,1.126465,-0.952148,1.44458,-84.060661,185.440048,43.510433,2.0645388314412982
0 days 00:01:16.710000,0.247559,-0.684814,0.618652,-20.072937,-21.52252,38.581848,0.9555029932873053
0 days 00:01:16.720000,1.873779,-0.836182,1.399902,-73.280334,197.319016,84.999077,2.4839431731762707
0 days 00:01:16.730000,1.514648,-1.131348,0.937256,-108.894341,132.553101,170.181259,2.1101079760391412
0 days 00:01:16.740000,1.265625,-1.258301,0.714844,-129.219055,100.9674,200.294479,1.9225321821914971
0 days 00:01:16.750000,1.17334,-1.392822,0.555908,-146.91925,89.416496,228.561386,1.9041306635176063
0 days 00:01:16.760000,1.209717,-1.40625,0.521484,-155.36499,97.709648,248.786911,1.9268886436026862
0 days 00:01:16.770000,1.231201,-1.316895,0.434814,-156.166077,123.413078,249.992355,1.8544895680542395
0 days 00:01:16.780000,1.255615,-1.057617,0.342529,-139.518738,147.697449,249.992355,1.6770357368747393
0 days 00:01:16.790000,1.240234,-0.805908,0.22998,-112.899773,161.796555,249.992355,1.4968496516417404
0 days 00:01:16.800000,1.100098,-0.669922,0.115723,-91.423027,174.903854,249.992355,1.2932141773182817
0 days 00:01:16.810000,0.989746,-0.587158,0.067139,-76.538086,196.205124,249.992355,1.15276160015894
0 days 00:01:16.820000,0.162842,-1.015381,0.201172,-4.264832,7.93457,-30.258177,1.0478483982470939
0 days 00:01:16.830000,1.581543,-1.068848,0.921875,-96.824638,160.552979,131.622314,2.1198037228899285
0 days 00:01:16.840000,0.242676,-0.859619,0.336426,-32.287598,-6.591796,35.224915,0.9544731109952758
0 days 00:01:16.850000,0.906494,-0.472168,0.049805,-57.876583,220.542892,249.992355,1.023305687605126
0 days 00:01:16.860000,0.329346,-0.921875,0.087158,-39.344788,-3.364563,22.178648,0.9828116911723221
0 days 00:01:16.870000,0.26709,-0.970459,0.148682,-37.147522,-0.358582,28.320311,1.0174645329961138
0 days 00:01:16.880000,0.167236,-0.931396,0.051758,-4.432678,-7.743835,-19.546509,0.9477052701531209
0 days 00:01:16.890000,0.1875,-0.949707,0.129395,-6.462097,-10.559081,-16.937256,0.9766487095542593
0 days 00:01:16.900000,0.145752,-0.968506,0.105469,-9.963989,-9.628296,-14.816283,0.9850742243612914
0 days 00:01:16.910000,0.123535,-0.997314,0.188965,-12.916564,-7.148742,-11.940001,1.0225477407172734
0 days 00:01:16.920000,0.062256,-1.025391,0.228271,-15.243529,-7.072448,-7.392883,1.0523355747374503
0 days 00:01:16.930000,0.058594,-1.012207,0.223145,-17.440796,-7.118225,-2.174377,1.038166633402365
0 days 00:01:16.940000,0.078369,-0.989502,0.178711,-19.14978,-7.43103,5.0354,1.0085601269562465
0 days 00:01:16.950000,0.185547,-0.979004,0.110352,-21.194456,-8.850098,8.338928,1.002523857635817
0 days 00:01:16.960000,0.325195,-0.981689,0.094971,-26.55792,-7.087707,3.372192,1.038501117759148
0 days 00:01:16.970000,0.361572,-0.975098,0.131592,-33.714294,0.846863,-7.408142,1.048268512954577
0 days 00:01:16.980000,0.187256,-0.954346,0.156738,-3.448486,-3.753662,-23.490904,0.9850928371965761
0 days 00:01:16.990000,0.26001,-0.981201,0.185547,-38.825989,10.467528,-16.25061,1.031885793927797
0 days 00:01:17,0.133057,-1.017334,0.246582,-39.871216,13.900756,-17.501831,1.055213398099645
0 days 00:01:17.010000,0.040283,-1.029785,0.267334,-38.726807,10.124206,-10.910033,1.0646817993513367
0 days 00:01:17.020000,0.03125,-1.017334,0.279053,-37.42981,1.937866,-0.473022,1.055374628681683
0 days 00:01:17.030000,0.047607,-0.982178,0.2854,-36.53717,-8.506775,10.581969,1.0239107432452303
0 days 00:01:17.040000,0.030273,-0.975098,0.208252,-37.612915,-13.801574,20.500181,0.9975477229872264
0 days 00:01:17.050000,0.105469,-0.981934,0.229248,-40.138245,-15.602111,27.053831,1.0138405869864353
0 days 00:01:17.060000,0.112305,-0.939453,0.201416,-43.823238,-11.672973,30.364988,0.9673431435069978
0 days 00:01:17.070000,0.192139,-0.932861,0.191162,-47.271725,-5.279541,28.388975,0.9714370545156285
0 days 00:01:17.080000,0.375,-0.913574,0.256592,-46.600338,-5.622863,24.92523,1.0203342138436797
0 days 00:01:17.090000,0.381836,-0.856201,0.165039,-42.617794,-7.17926,22.354124,0.9519016518622079
0 days 00:01:17.100000,-0.474365,1.089355,-0.256592,-13.748168,-48.828121,-181.12944,1.2155475818387367
0 days 00:01:17.110000,-0.42627,1.016846,-0.191895,-19.004822,-93.711845,-188.964828,1.1191539624381446
0 days 00:01:17.120000,-0.366699,1.002441,-0.171387,-18.486023,-117.317192,-188.19426,1.0810779892547067
0 days 00:01:17.130000,-0.338867,1.05835,-0.210938,-17.745972,-123.51226,-186.897263,1.1311190945400045
0 days 00:01:17.140000,-0.355957,1.205566,-0.480225,-83.427422,-73.387146,-215.698227,1.3456265517705868
0 days 00:01:17.150000,-0.305176,1.138428,-0.411377,-34.637451,-108.451836,-190.933212,1.2483516084377029
0 days 00:01:17.160000,-0.251709,1.178711,-0.462158,-48.034664,-97.015373,-195.365891,1.2908551658361986
0 days 00:01:17.170000,-0.291992,1.215332,-0.484863,-63.4613,-84.609978,-204.643234,1.3406652554075533
0 days 00:01:17.180000,-0.346924,1.109131,-0.302979,-23.330687,-118.392937,-187.950119,1.2009679893227796
0 days 00:01:17.190000,-0.462402,1.131348,-0.32666,-2.487183,12.367248,-159.942627,1.265097096000145
0 days 00:01:17.200000,0.061768,1.118164,-0.453613,77.384949,-39.802551,-106.994621,1.208251120623937
0 days 00:01:17.210000,0.006592,1.016357,-0.495117,48.423763,67.352295,-115.997307,1.130559971696327
0 days 00:01:17.220000,0.108887,1.02124,-0.50415,60.256954,27.519224,-112.792961,1.1440955986581716
0 days 00:01:17.230000,0.142822,1.087402,-0.496826,72.860718,-15.731811,-109.466545,1.2040254596826432
0 days 00:01:17.240000,-0.042725,1.127197,0.158691,-3.089905,-57.945248,-134.132385,1.1391142769340572
0 days 00:01:17.250000,-0.080566,1.066406,-0.334961,66.352844,-22.819517,-101.753227,1.120674577525965
0 days 00:01:17.260000,-0.011719,0.892822,-0.168457,45.227047,16.296387,-90.332024,0.9086507687192038
0 days 00:01:17.270000,0.255615,0.629639,-0.003906,16.815186,40.466305,-69.68689,0.6795583531838895
0 days 00:01:17.280000,0.452881,0.42627,0.13501,-17.601013,34.408569,-49.758907,0.6364236114106704
0 days 00:01:17.290000,0.505127,0.477051,0.243652,-43.357845,-1.853943,-55.381771,0.7362725309516851
0 days 00:01:17.300000,0.369629,0.844482,0.26416,-31.997679,-42.861935,-94.619743,0.9589348004765497
0 days 00:01:17.310000,-0.433105,1.106201,-0.434814,-106.292717,-67.474365,-223.060593,1.2650390539513001
0 days 00:01:17.320000,-0.349854,1.129883,-0.380371,14.457702,64.842224,-136.46698,1.2424634854377008
0 days 00:01:17.330000,-0.481445,0.968994,-0.396729,-125.114433,-67.955017,-226.837143,1.1524463369294036
0 days 00:01:17.340000,-0.743164,0.227539,0.348633,-127.54821,-73.822021,-188.583359,0.8518284428838944
0 days 00:01:17.350000,-0.550293,0.771484,-0.243164,-151.107788,-83.961479,-228.530869,0.978334645712294
0 days 00:01:17.360000,-0.315186,1.192871,-0.064941,11.726378,-46.844479,-155.448914,1.2355163984010897
0 days 00:01:17.370000,-0.861084,-0.002441,0.648438,-13.801574,-44.723507,-80.68084,1.0779348094300507
0 days 00:01:17.380000,-0.835205,-0.018311,0.665283,-21.77429,-53.665157,-91.911308,1.0679438912391417
0 days 00:01:17.390000,-0.800049,-0.014648,0.64209,-31.082151,-61.286922,-101.699821,1.0259495769310498
0 days 00:01:17.400000,-0.80249,0.000732,0.60376,-39.726257,-65.200806,-111.305229,1.0042494080277071
0 days 00:01:17.410000,-0.80249,0.009033,0.546631,-47.241207,-67.314148,-121.398918,0.9710186637495698
0 days 00:01:17.420000,-0.784912,0.029297,0.49707,-53.741451,-70.167542,-130.92804,0.9295287767750927
0 days 00:01:17.430000,-0.784668,0.075684,0.48877,-59.730526,-73.165894,-139.23645,0.9275387059201358
0 days 00:01:17.440000,-0.782471,0.117432,0.509277,-68.069458,-75.332642,-147.30072,0.9409645068726025
0 days 00:01:17.450000,-0.784912,0.148438,0.532471,-78.468323,-76.774597,-155.891418,0.9600239858612909
0 days 00:01:17.460000,-0.501221,0.858643,-0.336914,-139.129639,-73.936462,-227.615341,1.0497625139458926
0 days 00:01:17.470000,-0.789307,0.142578,0.537354,-91.087334,-77.697754,-165.801987,0.9654446372780783
0 days 00:01:17.480000,-0.781006,0.176514,0.439453,-117.637627,-73.890686,-182.426437,0.9133709560967
0 days 00:01:17.490000,-0.6875,0.289551,0.282959,-133.460999,-78.712463,-192.10051,0.7978482482790823
0 days 00:01:17.500000,-0.657471,0.351807,0.262451,-137.390137,-87.234489,-194.686874,0.7905167983610469
0 days 00:01:17.510000,-0.664795,0.41626,0.28418,-141.052246,-96.199028,-199.340805,0.8342559871076743
0 days 00:01:17.520000,-0.693115,0.473633,0.300293,-145.111084,-103.164665,-205.009445,0.8915786604461774
0 days 00:01:17.530000,-0.718262,0.522461,0.300293,-149.742126,-106.452934,-210.87645,0.9375722281584496
0 days 00:01:17.540000,-0.719238,0.552734,0.274902,-154.548645,-107.849113,-216.522202,0.9478339965436986
0 days 00:01:17.550000,-0.689209,0.574463,0.196777,-159.14917,-107.200615,-222.84697,0.9185521061861434
0 days 00:01:17.560000,-0.653564,0.616699,0.071045,-161.735519,-103.469841,-227.905258,0.9013938932131724
0 days 00:01:17.570000,-0.61084,0.688477,-0.094238,-159.240723,-95.130913,-229.64476,0.9252064017142337
0 days 00:01:17.580000,-0.795166,0.141357,0.506592,-105.026237,-76.293945,-174.987778,0.9533657343690302
0 days 00:01:17.590000,-0.306396,1.205078,-0.243652,26.458738,-26.44348,-165.863022,1.2670666091425502
0 days 00:01:17.600000,-0.165039,1.076904,-0.447754,33.508301,84.854118,-122.00164,1.1778980181887564
0 days 00:01:17.610000,0.019775,1.037354,-0.24292,52.421566,-38.337708,-182.998642,1.0656005341313415
0 days 00:01:17.620000,0.807373,-0.318848,0.453369,83.129875,-33.51593,-249.992355,0.979315402918794
0 days 00:01:17.630000,0.907715,-0.311279,0.425293,95.123283,-61.111446,-249.992355,1.049626253918508
0 days 00:01:17.640000,0.945557,-0.303223,0.376465,110.359184,-98.82354,-249.992355,1.061954859776535
0 days 00:01:17.650000,0.894531,-0.288574,0.332764,128.959656,-134.368896,-249.992355,0.9970920434608832
0 days 00:01:17.660000,0.845215,-0.29126,0.282959,151.245117,-159.065247,-249.992355,0.9377028204639251
0 days 00:01:17.670000,0.830322,-0.319336,0.236328,172.752365,-165.847763,-249.992355,0.9204678311402306
0 days 00:01:17.680000,0.820313,-0.37085,0.192871,188.81987,-152.915955,-249.832138,0.9206749497569704
0 days 00:01:17.690000,0.833252,-0.425293,0.178955,199.745163,-121.948235,-249.992355,0.9524746313566572
0 days 00:01:17.700000,0.875977,-0.430908,0.200439,210.23558,-78.483582,-249.992355,0.9965907894988796
0 days 00:01:17.710000,0.989502,-0.416992,0.292725,220.619186,-33.050537,-242.62236,1.112962021675942
0 days 00:01:17.720000,0.698242,-0.330566,0.418701,74.638367,-21.102903,-246.971115,0.8787071743880324
0 days 00:01:17.730000,1.116211,-0.409912,0.404297,227.767929,3.036499,-228.393539,1.2559502014307733
0 days 00:01:17.740000,1.161133,-0.395508,0.557129,244.842514,-9.506226,-217.55217,1.3472375976025905
0 days 00:01:17.750000,1.212402,-0.354736,0.672119,249.80925,-68.54248,-230.720505,1.430908868328448
0 days 00:01:17.760000,1.294678,-0.252197,0.653564,249.992355,-148.841858,-236.45018,1.4720531079376857
0 days 00:01:17.770000,1.32666,-0.056641,0.426514,249.992355,-210.891708,-207.97728,1.3946860401814452
0 days 00:01:17.780000,1.214111,0.075195,0.226074,249.992355,-234.085068,-168.594345,1.2372668515005159
0 days 00:01:17.790000,0.746826,-0.113281,0.429199,249.68718,-240.127548,-154.960632,0.8687884902771215
0 days 00:01:17.800000,0.201416,-0.244873,0.527344,249.992355,-239.585861,-158.27179,0.6153233991333339
0 days 00:01:17.810000,0.27002,-0.337402,0.706543,249.992355,-223.808273,-162.628159,0.8282233520331337
0 days 00:01:17.820000,0.484131,-0.362549,0.615479,234.18425,-187.515244,-162.338242,0.8629246792177171
0 days 00:01:17.830000,0.745605,-0.295166,0.666016,223.556503,-125.625603,-152.679443,1.0424140712005954
0 days 00:01:17.840000,1.133789,-0.397949,0.450684,235.076889,14.167785,-218.368515,1.2833382137916722
0 days 00:01:17.850000,0.605957,-0.330566,0.39209,70.81604,-19.561768,-236.152634,0.7938465432972547
0 days 00:01:17.860000,-0.168457,1.164551,-0.277832,42.518612,-19.790649,-176.139816,1.2090274656408762
0 days 00:01:17.870000,0.543701,-0.233398,0.374023,73.600769,-27.976988,-208.671555,0.6999847200718027
0 days 00:01:17.880000,0.561035,-0.290771,0.386719,71.69342,-23.147581,-222.58757,0.7408506128950694
0 days 00:01:17.890000,0.389893,0.725098,-0.197021,80.856316,-135.787964,-176.658615,0.846522849953857
0 days 00:01:17.900000,0.344971,0.802734,-0.167236,102.935783,-172.866806,-175.941452,0.8895812190536624
0 days 00:01:17.910000,0.174805,0.99707,-0.122314,112.907402,-170.17363,-180.671677,1.0196401755134015
0 days 00:01:17.920000,0.068359,1.152832,-0.034668,107.681267,-127.410881,-180.969223,1.1553771866057423
0 days 00:01:17.930000,0.076416,1.048828,0.112305,87.783806,-68.519592,-173.19487,1.057587817471911
0 days 00:01:17.940000,0.14209,0.624512,0.222412,62.911983,-14.938354,-166.152939,0.6779910795784853
0 days 00:01:17.950000,0.30249,-0.017822,0.209229,44.113155,16.334534,-191.276535,0.3682317181137442
0 days 00:01:17.960000,0.562256,-0.425049,0.19458,45.021053,20.965574,-239.738449,0.7312043752173533
0 days 00:01:17.970000,0.815918,-0.373047,0.35498,57.968136,15.907287,-249.992355,0.964830061375059
0 days 00:01:17.980000,1.07959,0.008057,0.526855,74.737549,25.382994,-231.315598,1.2013141447489912
0 days 00:01:17.990000,0.240234,0.83667,-0.22168,61.958309,-81.741325,-182.281479,0.8982600325384626
0 days 00:01:18,1.414063,0.0979,0.756348,67.420959,18.470764,-179.092392,1.6066178372820963
0 days 00:01:18.010000,1.291748,-0.384277,1.226074,-36.933899,-32.493591,-157.798767,1.8219602525052516
0 days 00:01:18.020000,0.945313,0.561035,0.78125,-82.542412,-44.967648,-145.362854,1.3486024253626419
0 days 00:01:18.030000,1.354004,3.166016,0.097656,92.224113,-53.962704,-83.808891,3.4447816822852504
0 days 00:01:18.040000,1.413818,5.077637,-0.311279,211.051926,-100.532524,-0.930786,5.279978546995622
0 days 00:01:18.050000,0.143555,3.766846,-0.091309,147.224426,-108.612053,-15.007018,3.770686165570134
0 days 00:01:18.060000,0.363281,1.084717,1.076416,131.744385,-39.81781,-109.481804,1.570749967406016
0 days 00:01:18.070000,0.431885,-0.255615,0.833252,76.919556,-33.51593,-161.148056,0.9727140262965266
0 days 00:01:18.080000,0.449951,-0.147217,0.301025,71.136475,-33.309937,-175.384506,0.5610212100402265
0 days 00:01:18.090000,0.524414,-0.133545,0.341797,76.133728,-32.516479,-185.317978,0.6400542942829148
0 days 00:01:18.100000,0.550537,-0.174072,0.365234,76.011658,-31.188963,-195.968613,0.683218796805972
0 days 00:01:18.110000,-0.934814,-0.460693,0.859863,-28.213499,-16.372681,-29.96826,1.351103117313405
0 days 00:01:18.120000,-0.854004,-0.350098,0.839355,-11.886596,-35.430908,-22.056578,1.2475609234201752
0 days 00:01:18.130000,-0.773926,-0.297363,0.799316,-2.609253,-43.067928,-13.839721,1.1516476349565437
0 days 00:01:18.140000,-0.704834,-0.239014,0.691162,6.263732,-46.867367,-5.615234,1.0156887170762507
0 days 00:01:18.150000,-0.708496,-0.277832,0.715088,5.508422,-41.66412,-3.14331,1.044273934360137
0 days 00:01:18.160000,-0.730225,-0.23999,0.68457,7.987976,-41.03088,-0.1297,1.029300653660047
0 days 00:01:18.170000,-0.743652,-0.236572,0.676758,7.781982,-42.465206,-2.365112,1.032950143449334
0 days 00:01:18.180000,-0.921875,-0.487549,0.844971,-50.47607,4.577637,-30.84564,1.3422121791531323
0 days 00:01:18.190000,-0.732666,-0.286133,0.750488,1.495361,-43.258663,-7.93457,1.0871539906512784
0 days 00:01:18.200000,-0.829834,-0.373291,0.837891,-62.995907,14.48059,-27.793882,1.2369446091551553
0 days 00:01:18.210000,-0.378174,-0.280762,0.818848,-46.096798,-41.717525,-41.03088,0.9446453948567155
0 days 00:01:18.220000,-0.620361,-0.241943,0.795166,-71.311951,5.882263,-29.098509,1.0371466401266505
0 days 00:01:18.230000,-0.561523,-0.188477,0.797852,-67.001343,-8.178711,-33.966064,0.993679763788113
0 days 00:01:18.240000,-0.582031,-0.209473,0.79834,-56.40411,-21.553038,-36.125183,1.0099434530160587
0 days 00:01:18.250000,-1.02002,0.202393,0.784668,-10.581969,9.536743,-26.550291,1.3027308229534602
0 days 00:01:18.260000,-0.314209,-0.239502,0.82251,-32.783508,-63.3316,-46.669003,0.9124753168086247
0 days 00:01:18.270000,-0.449707,-0.32373,0.874512,-30.120848,-79.963684,-54.870602,1.0352819600925152
0 days 00:01:18.280000,-0.598877,-0.360596,0.909912,-31.890867,-93.1549,-71.586609,1.1474419305956185
