t,ax,ay,az,gx,gy,gz,acc_mag
0 days 00:00:47.920000,0.552734,0.165527,0.157959,31.692503,16.494751,243.965134,0.5982182780273434
0 days 00:00:47.930000,0.525879,-0.301758,0.000732,8.81958,-76.148987,154.350281,0.6063061512379698
0 days 00:00:47.940000,0.984863,1.504639,-0.484619,249.877914,249.992355,242.805466,1.8624578449594504
0 days 00:00:47.950000,0.526123,-0.62793,0.008789,4.089355,7.751464,114.982597,0.8192549923863754
0 days 00:00:47.960000,0.894531,1.481445,-0.511963,249.992355,249.992355,222.618088,1.8047080404749682
0 days 00:00:47.970000,0.07666,1.019043,0.034424,-13.282775,89.179985,-7.186889,1.0225020309148534
0 days 00:00:47.980000,0.062744,1.006592,0.034668,-11.985778,90.171806,-6.736755,1.0091412855611448
0 days 00:00:47.990000,0.05249,0.995361,0.031738,-10.69641,89.820854,-5.935668,0.9972492271568828
0 days 00:00:48,0.042236,0.991699,0.030762,-9.078979,88.699333,-4.859924,0.993074562629111
0 days 00:00:48.010000,0.036865,0.989746,0.036133,-7.362365,86.830132,-3.555298,0.9910911998549881
0 days 00:00:48.020000,0.034668,0.98877,0.036377,-5.065917,85.418694,-2.212524,0.9900460945092405
0 days 00:00:48.030000,0.025391,0.992676,0.035645,-3.14331,85.418694,-0.938415,0.9936402316140385
0 days 00:00:48.040000,0.002686,0.995361,0.032227,-1.304626,84.533684,0.968933,0.9958861955293888
0 days 00:00:48.050000,-0.006592,0.994873,0.030518,1.098633,80.856316,1.991272,0.9953627926123219
0 days 00:00:48.060000,-0.020264,1.001465,0.026611,3.860473,75.515747,1.89209,1.0020234135198638
0 days 00:00:48.070000,0.081787,1.028076,0.035645,-13.778686,86.463921,-8.079529,1.0319398922272556
0 days 00:00:48.080000,-0.041504,1.004883,0.026855,6.202697,67.428589,1.251221,1.0060982142564414
0 days 00:00:48.090000,-0.068359,1.009766,0.023193,10.688781,43.113705,-2.922058,1.0123429472693528
0 days 00:00:48.100000,-0.092529,1.011963,0.024658,12.092589,28.343199,-5.172729,1.0164835198732933
0 days 00:00:48.110000,-0.110596,1.020996,0.025146,12.786864,11.322021,-7.743835,1.0272763155782383
0 days 00:00:48.120000,-0.118652,1.031982,0.025879,12.20703,-6.515502,-9.841919,1.0391029150517286
0 days 00:00:48.130000,-0.127197,1.036133,0.031494,11.466979,-25.085447,-12.7182,1.0443862037263802
0 days 00:00:48.140000,-0.136719,1.044189,0.037109,10.658263,-44.708248,-15.998839,1.0537551093887991
0 days 00:00:48.150000,-0.13916,1.054688,0.036865,8.293152,-64.63623,-18.089294,1.0644676186568571
0 days 00:00:48.160000,-0.142578,1.058105,0.038574,6.324768,-84.495537,-20.225523,1.0683644652388062
0 days 00:00:48.170000,-0.151855,1.068115,0.039307,3.860473,-104.843132,-21.080015,1.0795715050421626
0 days 00:00:48.180000,-0.147461,1.080078,0.038086,0.63324,-124.343864,-21.095274,1.0907629329973585
0 days 00:00:48.190000,-0.058838,1.00293,0.026611,8.827209,56.083675,-0.686645,1.005006786278083
0 days 00:00:48.200000,0.082764,1.033936,0.032959,-14.266967,83.473198,-8.56781,1.0377667500324916
0 days 00:00:48.210000,0.785156,1.438965,-0.479004,246.002182,249.992355,202.194199,1.7077865931014333
0 days 00:00:48.220000,0.091064,1.032715,0.025879,-15.624999,76.538086,-9.162903,1.0370451513613088
0 days 00:00:48.230000,0.738525,1.401123,-0.394531,224.632248,249.992355,182.89183,1.6322437154772567
0 days 00:00:48.240000,0.720703,1.398926,-0.372803,200.592026,249.992355,163.284286,1.6172163876531798
0 days 00:00:48.250000,0.67627,1.402588,-0.372559,174.217209,249.839767,142.875671,1.6010604045834747
0 days 00:00:48.260000,0.501221,1.414307,-0.354004,145.507813,249.793991,125.198357,1.5416892076894098
0 days 00:00:48.270000,0.279785,1.464844,-0.32666,112.380974,249.992355,110.572807,1.526680826551837
0 days 00:00:48.280000,0.077637,1.498779,-0.334717,79.63562,245.155319,94.177238,1.537661036997101
0 days 00:00:48.290000,0.087158,1.036377,0.030273,-14.938354,80.047607,-8.964539,1.04047597647519
0 days 00:00:48.300000,-0.075928,1.333984,-0.269775,36.239624,184.669479,60.852047,1.3631056173550897
0 days 00:00:48.310000,-0.08252,1.241699,-0.175049,23.246763,153.717041,47.225948,1.2566893448271137
0 days 00:00:48.320000,-0.05957,1.192139,-0.14624,9.437561,123.542778,34.622192,1.202551503188533
0 days 00:00:48.330000,-0.124268,1.172852,-0.097168,-3.746032,98.434441,23.803709,1.183412848481881
0 days 00:00:48.340000,-0.057129,1.443359,-0.33252,53.619381,216.155991,77.262878,1.482268017573745
0 days 00:00:48.350000,-0.126953,1.149902,-0.18457,-13.34381,66.879272,12.702941,1.1715194231053108
0 days 00:00:48.360000,-0.180176,1.171875,-0.113525,-11.32965,80.215454,17.875671,1.191067727808121
0 days 00:00:48.370000,0.111328,1.042969,0.027588,-17.593384,67.756653,-8.491516,1.049256573145482
0 days 00:00:48.380000,0.115479,1.052979,0.015625,-18.562317,62.438961,-7.820129,1.0594075299463377
0 days 00:00:48.390000,0.107666,1.069336,-0.005371,-18.890381,56.686398,-6.988525,1.0747559239627387
0 days 00:00:48.400000,0.092529,1.085693,-0.012695,-18.989563,51.269527,-6.141662,1.0897027434649322
0 days 00:00:48.410000,0.101318,1.034912,0.028076,-16.387939,72.425842,-8.956909,1.0402386488897633
0 days 00:00:48.420000,0.087158,1.07959,-0.006592,-17.89093,44.784542,-4.951477,1.0831225874886001
0 days 00:00:48.430000,0.086914,1.06958,-0.025391,-16.471863,44.708248,-2.822876,1.0734058517993088
0 days 00:00:48.440000,0.036133,1.075195,-0.094238,-15.136718,48.980709,1.731872,1.0799216093578272
0 days 00:00:48.450000,-0.044434,1.104736,-0.178711,-13.938903,56.732174,7.17926,1.1199792996180777
0 days 00:00:48.460000,0.085938,1.089844,-0.010498,-18.722534,47.103878,-5.645751,1.0932774086132029
0 days 00:00:48.470000,0.245361,-0.652344,0.445801,190.483078,-149.81842,23.857115,0.8273410700902016
0 days 00:00:48.480000,0.250244,-0.658691,0.374268,197.402939,-152.84729,31.639097,0.7978548920956743
0 days 00:00:48.490000,0.266357,-0.650146,0.294189,199.455246,-157.691956,37.643433,0.7616974730731355
0 days 00:00:48.500000,0.306396,-0.64502,0.220215,200.218185,-162.200912,44.334408,0.7472776963358401
0 days 00:00:48.510000,0.326416,-0.659912,0.180176,202.705368,-162.521347,49.453732,0.7579542491311729
0 days 00:00:48.520000,0.336426,-0.691406,0.135742,211.418137,-156.50177,51.36871,0.7808012556829043
0 days 00:00:48.530000,0.347412,-0.720703,0.093018,227.165207,-144.630432,53.88641,0.8054565539350959
0 days 00:00:48.540000,0.371826,-0.716797,0.032471,240.493759,-131.607056,57.373043,0.8081502826368373
0 days 00:00:48.550000,0.41333,-0.677979,-0.050293,239.082321,-121.101372,57.53326,0.7956296872226425
0 days 00:00:48.560000,0.45874,-0.638672,-0.12793,226.844772,-113.601677,53.596493,0.7966871381439518
0 days 00:00:48.570000,0.40918,-0.747559,-0.562012,42.6712,-12.130736,37.42218,1.0208477942499556
0 days 00:00:48.580000,0.441406,-0.609131,-0.31958,215.484604,-103.385918,45.707699,0.8173195264992755
0 days 00:00:48.590000,0.420654,-0.611328,-0.438477,214.813217,-97.579948,44.05212,0.8619360711961183
0 days 00:00:48.600000,0.43457,-0.631836,-0.570068,213.508591,-83.679192,39.260864,0.9555340603139169
0 days 00:00:48.610000,0.511475,-0.679443,-0.72168,214.965805,-57.250973,31.539915,1.1153795265621473
0 days 00:00:48.620000,0.623535,-0.683838,-0.894043,217.1707,-17.623901,26.30615,1.2867568505036218
0 days 00:00:48.630000,0.700439,-0.588867,-0.986084,205.940231,21.705626,30.22003,1.3452660671651537
0 days 00:00:48.640000,0.729248,-0.457275,-1.01001,173.027023,43.281551,41.419979,1.327035519957548
0 days 00:00:48.650000,0.647217,-0.390869,-1.033936,124.626152,50.056454,52.360531,1.2808950278402988
0 days 00:00:48.660000,0.60791,-0.439697,-1.074219,75.85144,43.754574,62.286373,1.3102803058391743
0 days 00:00:48.670000,0.555176,-0.559082,-0.96582,41.625973,20.935057,55.679317,1.246435456050573
0 days 00:00:48.680000,0.251709,-0.633545,0.506592,180.488571,-149.658203,15.640258,0.849336295097531
0 days 00:00:48.690000,0.460693,-0.615723,-0.207275,217.651352,-107.76519,48.33984,0.79643943812634
0 days 00:00:48.700000,0.244629,-0.633545,0.556641,173.263535,-152.198792,11.627196,0.8781069510868252
0 days 00:00:48.710000,0.133789,-0.923828,0.921631,21.736143,-44.792171,-8.468628,1.3117779424376674
0 days 00:00:48.720000,0.171143,-0.747559,0.694092,168.296799,-149.749756,9.69696,1.034358781755151
0 days 00:00:48.730000,0.376953,-0.874023,-0.351074,57.090755,-58.4259,12.672423,1.0145258607911383
0 days 00:00:48.740000,0.368896,-0.705078,1.168457,-226.844772,249.992355,-25.962828,1.413687025387515
0 days 00:00:48.750000,0.371338,-0.69751,1.088867,-200.645432,234.695419,-29.975889,1.3453785541746233
0 days 00:00:48.760000,0.388428,-0.684814,1.067627,-176.605209,211.242661,-30.677794,1.326527020798672
0 days 00:00:48.770000,0.400635,-0.716553,1.111572,-150.939941,181.816086,-26.56555,1.3818642900871272
0 days 00:00:48.780000,0.419434,-0.799561,1.137451,-122.352592,146.812439,-22.872923,1.452245657758356
0 days 00:00:48.790000,0.42627,-0.854248,1.068115,-98.648064,111.358635,-23.15521,1.4325904549552884
0 days 00:00:48.800000,0.376221,-0.858643,0.952393,-81.93969,83.854668,-22.78137,1.33636165342283
0 days 00:00:48.810000,0.326172,-0.856445,0.901123,-66.421509,61.759945,-20.805357,1.28526607079546
0 days 00:00:48.820000,0.293945,-0.86792,0.894043,-49.575802,41.091915,-19.546509,1.2802350078302032
0 days 00:00:48.830000,0.207764,-0.679688,0.614502,170.196518,-153.747559,11.085509,0.9395500865009805
0 days 00:00:48.840000,0.239502,-0.889893,0.916992,-29.739378,19.981384,-16.975403,1.3000558016935273
0 days 00:00:48.850000,0.137939,-0.91626,0.928711,5.645751,-23.651121,-10.44464,1.311893165178476
0 days 00:00:48.860000,0.156738,-0.921143,0.903564,37.55188,-64.682007,-9.674072,1.2998073431047388
0 days 00:00:48.870000,0.173828,-0.922363,0.887939,54.916378,-81.504814,-12.016295,1.292054698948152
0 days 00:00:48.880000,0.151123,-0.928711,0.893066,72.372437,-91.651909,-13.97705,1.297269888267665
0 days 00:00:48.890000,0.142822,-0.92627,0.893555,89.363091,-97.618095,-15.266418,1.294918829351477
0 days 00:00:48.900000,0.150879,-0.916504,0.888916,106.994621,-101.760857,-13.145446,1.2856576953890175
0 days 00:00:48.910000,0.163574,-0.895752,0.895264,124.488823,-106.986992,-7.972717,1.2769595642290321
0 days 00:00:48.920000,0.180908,-0.869629,0.86499,140.197754,-116.165154,-2.815246,1.239834667286328
0 days 00:00:48.930000,0.186035,-0.843262,0.815674,153.755188,-128.334045,1.693725,1.1878652685153313
0 days 00:00:48.940000,0.166504,-0.80542,0.764893,163.475021,-140.434265,5.996704,1.1231590536807332
0 days 00:00:48.950000,0.179199,-0.908203,0.936768,-10.978698,-1.869202,-13.740539,1.316996300918875
0 days 00:00:48.960000,0.349854,-0.69751,1.25,-249.504074,249.992355,-24.566648,1.4735732154921926
0 days 00:00:48.970000,0.416504,-0.611816,-0.915039,5.828857,-106.529228,-57.632442,1.1768987940315854
0 days 00:00:48.980000,0.497559,-0.519043,-0.843994,-5.859375,-107.788078,2.090454,1.108736427815917
0 days 00:00:48.990000,0.231934,-0.890869,0.736084,23.696898,119.056694,10.307311,1.1786689995808832
0 days 00:00:49,0.226563,-0.871826,0.675781,39.039612,114.936821,16.662598,1.1260956119291115
0 days 00:00:49.010000,0.242676,-0.859375,0.620361,51.414486,107.093803,22.987364,1.087320008977118
0 days 00:00:49.020000,0.227051,-0.857178,0.553223,61.805721,95.191948,28.732298,1.0451612162790964
0 days 00:00:49.030000,0.18042,-0.865479,0.486816,72.929382,77.438354,34.820557,1.009254721909687
0 days 00:00:49.040000,0.111572,-0.878418,0.416748,85.357658,55.221554,43.060299,0.9786446696385773
0 days 00:00:49.050000,0.07251,-0.887939,0.310303,95.787041,31.09741,51.559444,0.9433882125774098
0 days 00:00:49.060000,0.077393,-0.885254,0.200195,100.303642,6.278991,57.945248,0.9109019480657619
0 days 00:00:49.070000,0.100586,-0.861816,0.114502,97.43499,-16.853333,61.141964,0.8751885906797461
0 days 00:00:49.080000,0.148926,-0.800781,0.029541,83.297722,-56.510921,70.930481,0.8150471361326288
0 days 00:00:49.090000,0.282959,-0.904785,0.831299,2.63977,122.467033,3.791809,1.2608567401996944
0 days 00:00:49.100000,0.144287,-0.774414,0.02417,74.371338,-66.551208,76.835632,0.7881116486038003
0 days 00:00:49.110000,0.242676,-0.73584,-0.033203,56.671139,-68.664551,87.440483,0.7755350319521356
0 days 00:00:49.120000,0.309814,-0.708252,-0.082275,46.691891,-62.118526,92.330925,0.7774154524609092
0 days 00:00:49.130000,0.364502,-0.690674,-0.125244,31.959532,-52.467342,98.1903,0.7909351059448556
0 days 00:00:49.140000,0.368408,-0.676025,-0.142334,15.60974,-39.299011,103.752129,0.7829388371035122
0 days 00:00:49.150000,0.383789,-0.669189,-0.140137,7.583618,-25.794981,106.780998,0.7840575827137953
0 days 00:00:49.160000,0.359131,-0.652588,-0.11084,6.065368,-12.641906,109.733574,0.7530814554249758
0 days 00:00:49.170000,0.338867,-0.64209,-0.05835,3.433227,-2.815246,114.631645,0.7283646986839766
0 days 00:00:49.180000,0.35791,-0.633545,-0.015381,-0.160217,3.860473,117.614738,0.7278155056647254
0 days 00:00:49.190000,0.427002,-0.620117,-0.008301,1.541138,7.728576,116.83654,0.7529573084139631
0 days 00:00:49.200000,0.315186,-0.76709,-0.775391,26.985167,-91.499321,-40.428158,1.1353415722050346
0 days 00:00:49.210000,0.185791,-0.760254,0.000244,65.185547,-70.487976,82.336418,0.7826266668936089
0 days 00:00:49.220000,0.31958,-0.907959,0.959717,-26.153563,129.692078,1.594543,1.3592562827406758
0 days 00:00:49.230000,0.138916,-0.829102,0.052734,91.316216,-38.970947,64.971924,0.8423114959538425
0 days 00:00:49.240000,0.29834,-0.809082,0.955078,-110.656731,152.931213,-6.027221,1.28677675779756
0 days 00:00:49.250000,0.297363,-0.875488,1.000488,-65.635681,141.899109,0.167847,1.362306951482301
0 days 00:00:49.260000,0.348877,-1.313232,-0.616455,70.350647,-175.651535,55.870052,1.492082509105311
0 days 00:00:49.270000,1.105713,-1.566895,-0.324951,182.38829,-158.287048,-25.703428,1.9450846592873534
0 days 00:00:49.280000,1.279297,-1.096191,0.005615,235.511765,10.589599,-89.103691,1.6847157181302133
0 days 00:00:49.290000,1.291504,-0.136963,-0.671631,202.087387,71.403503,-73.135376,1.462131883773143
0 days 00:00:49.300000,-0.472412,0.202637,-0.999756,41.183468,-64.994812,7.530212,1.124164983909835
0 days 00:00:49.310000,-2.932861,-0.270996,0.357178,-139.518738,-22.186277,84.762566,2.9669325238402373
0 days 00:00:49.320000,0.03833,-2.72998,1.185059,-171.844467,126.953117,9.155273,2.9763442043522117
0 days 00:00:49.330000,5.747559,-5.159668,-0.738037,126.464836,-72.898865,-167.02269,7.758950118545292
0 days 00:00:49.340000,1.630371,4.0271,-6.344727,-215.576157,83.152763,-169.143661,7.689681704217022
0 days 00:00:49.350000,0.082031,0.338379,-0.509033,-249.992355,249.992355,-22.819517,0.616720380473193
0 days 00:00:49.360000,0.141113,-0.780518,-0.728027,-2.960205,-120.75042,66.101074,1.0766357507634603
0 days 00:00:49.370000,0.34668,-0.249268,0.459717,-249.992355,249.992355,-16.662598,0.6274243207853836
0 days 00:00:49.380000,0.25293,-0.195801,0.296631,-249.992355,249.992355,-19.90509,0.4362356778875382
0 days 00:00:49.390000,0.296387,-0.762207,0.802979,-172.767624,180.526718,-15.86151,1.1461151944979178
0 days 00:00:49.400000,0.272705,-0.791504,0.8396,-199.577316,195.411667,-16.822815,1.1856537264484095
0 days 00:00:49.410000,0.325195,-0.785889,0.885254,-235.023483,212.074265,-15.823363,1.2276188141528297
0 days 00:00:49.420000,0.356689,-0.695068,0.827148,-249.992355,237.693771,-11.444091,1.1377699157777903
0 days 00:00:49.430000,0.329102,-0.763428,0.871094,-146.369934,164.74913,-13.061522,1.2041325485277774
0 days 00:00:49.440000,0.481934,-0.452637,0.742676,-249.618515,249.992355,-3.845215,0.9943381090459119
0 days 00:00:49.450000,0.536133,-0.361572,0.713379,-249.992355,249.702438,-9.567261,0.9628512359206899
0 days 00:00:49.460000,0.47876,-0.293701,0.615967,-249.992355,249.992355,-14.305114,0.8335986804752032
0 days 00:00:49.470000,0.369873,-0.568848,0.775391,-249.992355,249.992355,-4.714966,1.030352020483291
0 days 00:00:49.480000,0.30542,-0.833252,0.895264,25.42877,-58.860775,-5.043029,1.260590298867955
0 days 00:00:49.490000,0.378662,-0.781494,0.950195,-91.064445,69.80896,-25.360106,1.287240583692497
0 days 00:00:49.500000,0.32373,-0.807373,0.862793,-74.729919,46.302792,-22.354124,1.2251791848044105
0 days 00:00:49.510000,0.294189,-0.830322,0.807129,-59.722897,27.038572,-20.217894,1.1947547924348327
0 days 00:00:49.520000,0.271729,-0.838867,0.780029,-45.0592,10.536193,-19.218445,1.1772764050854836
0 days 00:00:49.530000,0.256104,-0.837402,0.768311,-31.539915,-4.02832,-17.89093,1.16496058351388
0 days 00:00:49.540000,0.249268,-0.830811,0.779785,-17.951965,-17.50946,-14.450072,1.166381626985782
0 days 00:00:49.550000,0.41626,-0.742676,1.028076,-110.313408,98.686211,-27.847288,1.334833431688014
0 days 00:00:49.560000,0.250732,-0.833984,0.822266,-2.975464,-30.616758,-10.833739,1.1977133308250352
0 days 00:00:49.570000,0.276855,-0.834473,0.87207,11.726378,-44.502254,-8.590698,1.2383456559676704
0 days 00:00:49.580000,0.318848,-0.830078,0.883545,38.986206,-73.34137,-1.014709,1.253533126890949
0 days 00:00:49.590000,0.293945,-0.825684,0.808838,105.461113,-124.122612,0.953674,1.1926343283358063
0 days 00:00:49.600000,0.339844,-0.819824,0.83667,64.888,-98.548882,1.106262,1.219681115788877
0 days 00:00:49.610000,0.327637,-0.803955,0.815918,76.477051,-108.467094,0.37384,1.1913907119488552
0 days 00:00:49.620000,0.312012,-0.805908,0.80249,89.866631,-117.065422,0.366211,1.1793343006577905
0 days 00:00:49.630000,0.292969,-0.844971,0.813721,122.070305,-129.814148,1.098633,1.2091107028072328
0 days 00:00:49.640000,0.286133,-0.848877,0.808594,138.549805,-133.514404,2.243042,1.2067677952506026
0 days 00:00:49.650000,0.287598,-0.837646,0.785889,153.190613,-136.413574,7.110595,1.184054454508322
0 days 00:00:49.660000,0.286865,-0.805664,0.759033,162.635788,-138.595581,11.718749,1.1434671417272995
0 days 00:00:49.670000,0.310791,-0.754395,0.710938,168.571457,-141.044617,14.427184,1.0821902335310551
0 days 00:00:49.680000,0.343262,-0.692627,0.629639,172.767624,-144.226074,17.036438,0.9969986118816816
0 days 00:00:49.690000,0.404297,-0.688721,1.068604,-132.850647,129.394531,-31.158445,1.3340566662874558
0 days 00:00:49.700000,0.331787,-0.829346,0.859131,52.413937,-86.753838,1.12915,1.239356073227545
0 days 00:00:49.710000,0.394043,-0.64917,1.089111,-156.585693,157.287598,-35.980225,1.3277252521022562
0 days 00:00:49.720000,0.893066,-0.358887,-0.364258,23.834227,-79.460144,-86.532585,1.0291018655551063
0 days 00:00:49.730000,0.343506,-0.60791,1.116943,-210.449203,207.740768,-48.072811,1.3172367309580308
0 days 00:00:49.740000,0.985596,-0.594238,-0.331543,25.573729,-67.726135,-89.019768,1.197680690630437
0 days 00:00:49.750000,1.004883,-1.652344,0.013184,145.347595,-86.067192,-106.224052,1.9339607948148794
0 days 00:00:49.760000,0.390137,-2.292236,0.441162,243.270859,-133.148193,-93.421928,2.366680516822877
0 days 00:00:49.770000,0.795654,-1.169678,0.108154,249.992355,-98.182671,-67.314148,1.4187703123183824
0 days 00:00:49.780000,3.035156,0.457275,-1.057617,249.992355,50.880428,-60.752865,3.246509831904102
0 days 00:00:49.790000,3.300537,1.480225,-0.301514,74.607849,168.296799,-98.381035,3.629810081972609
0 days 00:00:49.800000,-0.993408,0.380615,-0.028809,-152.580261,185.340866,-56.846615,1.064216703106092
0 days 00:00:49.810000,-2.771484,-0.314941,0.324951,-249.992355,90.217583,43.289181,2.8081852766756685
0 days 00:00:49.820000,0.192627,-2.878662,2.377441,-201.621994,186.93541,-88.264458,3.738452324138158
0 days 00:00:49.830000,5.86377,-5.7854,-1.61084,67.024231,-84.07592,18.280029,8.393417496973447
0 days 00:00:49.840000,0.356445,-0.621826,1.081543,-183.403,184.204086,-42.243954,1.297480586810454
0 days 00:00:49.850000,1.141846,3.219727,-6.302246,-249.992355,163.070663,-208.015427,7.168595321732215
0 days 00:00:49.860000,0.338623,0.263916,1.002686,-249.992355,249.992355,-132.904053,1.0907320504051397
0 days 00:00:49.870000,0.503662,0.178467,1.138428,-249.992355,249.992355,-118.064873,1.2575946053943616
0 days 00:00:49.880000,0.625,0.098145,1.204102,-249.992355,249.992355,-120.521538,1.3601908202267063
0 days 00:00:49.890000,0.562988,0.019531,1.24707,-249.992355,249.992355,-117.866508,1.368400720916574
0 days 00:00:49.900000,0.44165,-0.04248,1.229004,-249.992355,249.992355,-100.631706,1.3066407711823476
0 days 00:00:49.910000,0.451904,-0.134277,1.25,-249.992355,249.961838,-89.813225,1.3359444366982482
0 days 00:00:49.920000,0.42749,-0.290771,1.425293,-249.710068,249.702438,-75.965881,1.5161647701981469
0 days 00:00:49.930000,0.422119,-0.438477,1.460205,-249.992355,249.992355,-65.307617,1.5819750856808714
0 days 00:00:49.940000,0.401855,-0.53418,1.333984,-249.992355,249.824509,-58.67004,1.4920955149322712
0 days 00:00:49.950000,0.37085,-0.587891,1.206787,-238.578781,230.171188,-53.108212,1.392652294634235
0 days 00:00:49.960000,0.219482,0.362305,0.514404,-249.992355,249.992355,-148.620605,0.6663698196684781
0 days 00:00:49.970000,0.32959,-0.653076,0.59082,177.055344,-147.476196,19.599915,0.9403223395602169
0 days 00:00:49.980000,0.346191,-0.634033,0.543457,183.349594,-152.931213,21.842955,0.9039864846439906
0 days 00:00:49.990000,0.36084,-0.583252,0.443115,194.877609,-162.918076,25.230406,0.8165410610183667
0 days 00:00:50,0.335449,-0.759277,-0.616699,62.911983,-90.072624,5.027771,1.0340915099404888
0 days 00:00:50.010000,0.723633,-0.661133,-0.458496,51.62048,-107.810966,6.706237,1.08210911852456
0 days 00:00:50.020000,0.475098,-0.682373,-0.269531,50.834652,-96.527092,29.258726,0.8740697802200921
0 days 00:00:50.030000,0.497314,-0.862549,-0.674561,72.113037,-128.593445,41.358944,1.2026406507007819
0 days 00:00:50.040000,1.0,-1.125732,-0.394775,139.305115,-130.615234,7.904052,1.556637349047298
0 days 00:00:50.050000,1.012451,-0.930176,0.266113,214.797958,21.965025,-64.445496,1.4003929973925175
0 days 00:00:50.060000,1.633301,-0.026855,-1.457764,141.899109,111.160271,-115.409843,2.18939928458059
0 days 00:00:50.070000,0.565918,0.255859,-0.789063,-21.568296,-23.262022,-85.388176,1.0041650405057925
0 days 00:00:50.080000,-3.4375,-0.377686,0.497803,-182.762131,-21.354673,19.180298,3.493831820709892
0 days 00:00:50.090000,-2.022217,-2.47998,1.380859,-232.360825,160.881027,119.308464,3.4851734495387743
0 days 00:00:50.100000,0.237549,-0.872803,-0.341309,59.036251,-77.194214,17.356873,0.9668021709176081
0 days 00:00:50.110000,5.583496,-5.781006,-0.188232,145.256042,32.211304,13.366698,8.039333880358248
0 days 00:00:50.120000,-0.585693,0.999756,-0.253906,-249.992355,249.992355,-122.566216,1.1861773082558105
0 days 00:00:50.130000,0.292725,0.092285,0.710449,-249.992355,249.992355,-97.450249,0.7739135794460515
0 days 00:00:50.140000,0.401611,0.054443,0.930664,-249.992355,249.992355,-78.62854,1.0150817289588066
0 days 00:00:50.150000,0.425049,-0.040527,1.13501,-249.992355,249.992355,-62.591549,1.212665159980281
0 days 00:00:50.160000,0.40918,-0.188965,1.211182,-249.992355,249.992355,-54.801937,1.2923226689759024
0 days 00:00:50.170000,0.404541,-0.326904,1.186035,-249.992355,249.992355,-55.694576,1.2950670512070022
0 days 00:00:50.180000,0.335693,-0.417725,1.178223,-249.992355,249.992355,-55.366512,1.2943698867027926
0 days 00:00:50.190000,0.308838,-0.49707,1.223389,-249.946579,249.992355,-46.69952,1.3561490111580659
0 days 00:00:50.200000,0.326904,-0.591064,1.275635,-249.671921,249.984726,-36.804199,1.44342215950047
0 days 00:00:50.210000,0.340332,-0.665283,1.290771,-249.992355,249.725327,-28.900145,1.4914815167322724
0 days 00:00:50.220000,4.0271,3.192871,-5.349854,-159.446716,-11.085509,-230.010971,7.418416101430075
0 days 00:00:50.230000,0.273193,-0.872803,-0.326904,46.669003,-41.175838,8.659363,0.9712289726290089
0 days 00:00:50.240000,0.357422,-0.61499,0.498291,189.643845,-158.935547,23.54431,0.8684797676774054
0 days 00:00:50.250000,0.500732,-0.572998,-0.500977,31.051634,64.979553,0.907898,0.9110637729363407
0 days 00:00:50.260000,0.405762,-0.563477,0.368652,198.867783,-169.837936,26.023863,0.7861637407544309
0 days 00:00:50.270000,0.423096,-0.545166,0.312012,201.370224,-178.062424,27.908323,0.7573425122862179
0 days 00:00:50.280000,0.409424,-0.530273,0.263428,202.43071,-185.272202,32.089233,0.7198692780560927
0 days 00:00:50.290000,0.375977,-0.548096,0.218018,206.184372,-190.635666,37.490845,0.699499662665394
0 days 00:00:50.300000,0.391602,-0.60376,0.157471,217.369064,-197.044357,43.884274,0.7366650391086846
0 days 00:00:50.310000,0.422119,-0.662109,0.109375,227.622971,-205.764755,50.430294,0.7928024146450362
0 days 00:00:50.320000,0.260742,-0.766357,-0.404541,39.466858,20.851133,-0.999451,0.9049546191351254
0 days 00:00:50.330000,0.470459,-0.686279,-0.001221,230.331406,-211.12059,63.323971,0.8320528993777979
0 days 00:00:50.340000,0.582275,-0.665039,-0.091553,222.518906,-206.741318,65.734863,0.8886523498843628
0 days 00:00:50.350000,0.607178,-0.645752,-0.161621,211.517319,-192.733749,64.781189,0.9009895209318475
0 days 00:00:50.360000,0.598145,-0.644287,-0.270996,205.741867,-171.501144,63.293453,0.9199576139203371
0 days 00:00:50.370000,0.412354,-0.692139,0.074707,231.727585,-210.723862,57.617184,0.8091188741377869
0 days 00:00:50.380000,0.624512,-0.6521,-0.450195,202.148422,-128.379822,60.020443,1.008922785038082
0 days 00:00:50.390000,0.645996,-0.631348,-0.546143,194.786057,-109.519951,52.658077,1.0555488172363228
0 days 00:00:50.400000,0.711182,-0.633057,-0.663574,181.243881,-92.77343,39.154053,1.1605479119144544
0 days 00:00:50.410000,0.825439,-0.622803,-0.805176,166.427597,-73.356628,30.998228,1.3105500793582823
0 days 00:00:50.420000,0.928711,-0.60791,-0.907227,161.025986,-36.91864,42.594906,1.4335688051677185
0 days 00:00:50.430000,1.017822,-0.659668,-0.884521,166.191086,19.607544,59.700008,1.5011665108671324
0 days 00:00:50.440000,1.160889,-0.683105,-0.932373,148.170471,81.93206,49.865719,1.6381743260334047
0 days 00:00:50.450000,1.230469,-0.552979,-1.147461,88.127129,115.173332,5.210876,1.7710184868947587
0 days 00:00:50.460000,1.061035,-0.384766,-0.887695,71.716309,114.219658,-18.959045,1.4359117518169422
0 days 00:00:50.470000,0.750732,-0.397217,-0.621338,59.066769,99.044792,-3.372192,1.0523501276462126
0 days 00:00:50.480000,0.599121,-0.662842,-0.372803,204.658493,-148.925781,62.70599,0.968136130104646
0 days 00:00:50.490000,0.465088,1.317139,0.26001,-39.543152,-224.960312,-249.992355,1.4208332742320613
0 days 00:00:50.500000,0.452393,1.351318,0.253418,-54.328915,-222.5952,-249.992355,1.4473909099814741
0 days 00:00:50.510000,0.403809,1.376221,0.232178,-65.231323,-209.213242,-245.338425,1.4529117567856624
0 days 00:00:50.520000,0.373779,1.391113,0.213623,-70.526123,-183.860764,-234.397873,1.4562077138028764
0 days 00:00:50.530000,0.446533,1.326172,0.13623,-66.383362,-55.221554,-170.577988,1.4059454137956422
0 days 00:00:50.540000,0.419189,1.404785,0.1875,-72.113037,-120.597832,-210.433945,1.4779365899611525
0 days 00:00:50.550000,0.436279,1.38208,0.172119,-69.541931,-94.268791,-196.434006,1.45948944580014
0 days 00:00:50.560000,0.433105,1.343018,0.152344,-67.443848,-72.57843,-183.090195,1.4193258905850341
0 days 00:00:50.570000,0.382568,1.404053,0.19751,-72.746277,-151.824951,-222.84697,1.4685820717729738
0 days 00:00:50.580000,0.483154,1.286865,0.267334,-25.329588,-220.687851,-249.992355,1.4003309549877843
0 days 00:00:50.590000,0.594482,1.030029,0.43457,66.680908,-108.306877,-196.174606,1.2661831123755363
0 days 00:00:50.600000,0.563965,1.262695,0.258789,0.312805,-194.389328,-249.992355,1.4069210819271278
0 days 00:00:50.610000,0.604004,1.25,0.262695,12.420653,-175.422653,-249.977097,1.4129152469419388
0 days 00:00:50.620000,0.638672,1.253906,0.273193,23.651121,-155.906677,-249.946579,1.433463147649426
0 days 00:00:50.630000,0.672852,1.262451,0.293213,33.561707,-138.442993,-249.992355,1.4603034632137253
0 days 00:00:50.640000,0.699219,1.270996,0.322266,42.327877,-124.252312,-249.458298,1.485999130798198
0 days 00:00:50.650000,0.708984,1.270264,0.376953,46.730038,-111.412041,-243.667587,1.5027716081164828
0 days 00:00:50.660000,0.65332,1.254639,0.449707,48.362728,-101.699821,-233.848557,1.4843121061858924
0 days 00:00:50.670000,0.55835,1.230225,0.50293,50.643917,-98.548882,-220.031723,1.4415779056384708
0 days 00:00:50.680000,0.48584,1.177734,0.495361,53.031918,-102.401726,-204.040512,1.3669236996544467
0 days 00:00:50.690000,0.517822,1.102051,0.472656,57.937618,-108.215324,-196.182236,1.306162212216002
0 days 00:00:50.700000,0.451172,1.330322,0.125244,-63.186642,-40.443417,-155.738831,1.4103187075281955
0 days 00:00:50.710000,0.520996,1.270264,0.26709,-12.023925,-210.105881,-249.992355,1.3986938656518089
0 days 00:00:50.720000,0.435791,1.286621,0.112061,-57.266232,-26.672361,-139.083862,1.363035238371701
0 days 00:00:50.730000,0.401367,1.10791,-0.031494,-59.623714,103.218071,18.959045,1.1787925639505026
0 days 00:00:50.740000,0.435059,1.221436,0.101318,-54.412838,-3.196716,-110.908501,1.3005566395590005
0 days 00:00:50.750000,0.595215,0.980225,0.371582,73.753357,-94.940178,-193.7332,1.2054854331654117
0 days 00:00:50.760000,0.506348,1.05127,0.031494,-74.440002,-4.089355,148.4375,1.1672826487359436
0 days 00:00:50.770000,0.510254,1.016602,0.011963,-77.484131,38.787842,142.974854,1.137533245355493
0 days 00:00:50.780000,0.468018,1.005371,0.041504,-67.604065,68.229675,131.057739,1.109745141003555
0 days 00:00:50.790000,0.390869,1.029053,0.038818,-56.541439,92.971794,119.560234,1.10146969504113
0 days 00:00:50.800000,0.421875,1.102295,-0.010498,-63.323971,108.695976,102.104179,1.1803147845613051
0 days 00:00:50.810000,0.48584,1.152832,-0.040527,-80.581657,116.516106,80.818169,1.2516806955262194
0 days 00:00:50.820000,0.465088,1.122314,-0.020752,-86.524956,122.917168,69.534302,1.2150416486046889
0 days 00:00:50.830000,0.466064,1.046875,0.097656,-67.153931,126.16729,69.473267,1.1500867845762772
0 days 00:00:50.840000,0.490967,0.990479,0.064453,-52.787777,125.198357,62.683102,1.1073623768843692
0 days 00:00:50.850000,0.439453,1.244629,0.101807,-54.450985,-14.007567,-124.588005,1.3238523150635044
0 days 00:00:50.860000,0.432617,0.997559,0.041504,-53.138729,124.481194,52.062984,1.0881194829548821
0 days 00:00:50.870000,0.410156,1.071289,0.010742,-57.205196,113.014214,30.990599,1.147171938473479
0 days 00:00:50.880000,0.387939,1.129883,-0.064697,-61.706539,92.369072,9.109497,1.1963770155009665
0 days 00:00:50.890000,0.45166,1.131836,-0.07373,-61.210629,81.962578,-1.205444,1.2208544546324922
0 days 00:00:50.900000,0.510986,1.115234,-0.044922,-59.944149,77.24762,-15.922545,1.227546965714958
0 days 00:00:50.910000,0.505371,1.118896,0.013184,-60.897823,77.232361,-28.96118,1.2278036994214505
0 days 00:00:50.920000,0.495605,1.143799,0.041016,-62.385555,75.881958,-39.878845,1.2472300432085495
0 days 00:00:50.930000,0.4729,1.171875,0.058105,-63.598629,69.282532,-53.184505,1.2650302828983977
0 days 00:00:50.940000,0.395996,1.179443,0.070068,-63.148495,53.855892,-67.558289,1.2461172283894482
0 days 00:00:50.950000,0.330322,1.169922,0.092773,-58.822628,29.357908,-80.79528,1.2191952014739067
0 days 00:00:50.960000,0.382324,1.188477,0.101318,-55.160519,8.323669,-95.92437,1.2525631950640255
0 days 00:00:50.970000,0.403809,1.030518,0.036133,-55.27496,120.635979,42.16766,1.10739995055716
0 days 00:00:50.980000,0.587158,0.968994,0.334961,78.033447,-70.930481,-188.163742,1.1814832882952682
0 days 00:00:50.990000,0.436279,1.161865,-0.020996,-71.06781,-65.628052,142.63916,1.241253590561574
0 days 00:00:51,0.657959,0.956055,0.318848,89.591972,-16.983032,-182.151779,1.2035843368081856
0 days 00:00:51.010000,0.246094,-0.096924,-0.226563,21.232603,-96.702568,-137.634277,0.34826327911653276
0 days 00:00:51.020000,0.355469,-0.200195,-0.292969,26.527403,-64.605713,-93.353264,0.5022619664547575
0 days 00:00:51.030000,0.457764,-0.26416,-0.265869,25.955198,-44.68536,-88.500969,0.5916204107846518
0 days 00:00:51.040000,0.469727,-0.298584,-0.295166,8.766174,-35.820007,-89.706413,0.6300149419982037
0 days 00:00:51.050000,0.277588,-0.354492,-0.280762,1.960754,-5.615234,-58.311459,0.5306100041009404
0 days 00:00:51.060000,0.281494,-0.431396,-0.21167,-0.930786,25.985716,-41.870113,0.5569071464364593
0 days 00:00:51.070000,0.297607,-0.495117,-0.179199,-5.134582,50.918575,-36.186218,0.6048330775833941
0 days 00:00:51.080000,0.320557,-0.544678,-0.18042,-6.355285,70.747375,-34.492493,0.6572535966679832
0 days 00:00:51.090000,0.362061,-0.580811,-0.166504,-5.92041,91.094963,-30.914305,0.7043814076606508
0 days 00:00:51.100000,0.44873,-0.606201,-0.157471,-3.738403,112.838737,-25.817869,0.7704773722452853
0 days 00:00:51.110000,0.135742,0.040283,-0.254395,18.959045,-124.90081,-216.514572,0.291145026881793
0 days 00:00:51.120000,0.562744,-0.628174,-0.156494,-1.976013,133.728027,-19.14978,0.8577725548465631
0 days 00:00:51.130000,0.651367,-0.634277,-0.165283,-1.861572,168.174728,-6.095886,0.9240696681024652
0 days 00:00:51.140000,0.662354,-0.631836,-0.226318,-0.572205,167.640671,-4.493713,0.9429471826862839
0 days 00:00:51.150000,0.633057,-0.634521,-0.286133,2.235413,158.836365,-2.357483,0.9408773343954036
0 days 00:00:51.160000,0.64209,-0.631348,-0.261719,5.737304,142.189026,-0.183105,0.9377508731880766
0 days 00:00:51.170000,0.687744,-0.590576,-0.250732,4.348755,116.020195,-7.759094,0.9405521554576333
0 days 00:00:51.180000,0.665283,-0.556641,-0.247559,1.625061,75.157166,-20.904539,0.902073240624618
0 days 00:00:51.190000,0.574219,-0.615234,-0.216064,5.111694,26.214598,-24.955748,0.8688636180742062
0 days 00:00:51.200000,0.547607,-0.765137,-0.150391,28.190611,-16.151428,-27.259825,0.9528512518221299
0 days 00:00:51.210000,0.621582,-0.719971,-0.139404,52.268978,-48.301693,-56.442257,0.9613302755978301
0 days 00:00:51.220000,0.740967,-0.495361,-0.247559,46.82922,-70.350647,-90.774529,0.9250405795915118
0 days 00:00:51.230000,0.623535,-0.637207,-0.142822,-1.564026,154.373169,-11.276244,0.9028990977722815
0 days 00:00:51.240000,0.261719,0.077637,-0.259277,45.516964,-144.523621,-249.992355,0.3764955530401388
0 days 00:00:51.250000,0.617188,0.968994,0.323242,82.595818,-43.479916,-183.715805,1.193463778228732
0 days 00:00:51.260000,0.300537,0.174805,-0.134766,-6.111145,80.856316,-224.784836,0.372882221552597
0 days 00:00:51.270000,0.687256,0.923096,0.32251,98.640434,9.231567,-182.853683,1.19517351662928
0 days 00:00:51.280000,0.691162,0.873047,0.326172,109.596245,34.431458,-184.196457,1.1603034723885817
0 days 00:00:51.290000,0.665771,0.830078,0.337158,121.6278,52.291866,-185.455307,1.1162240041716538
0 days 00:00:51.300000,0.635986,0.796875,0.345947,133.224487,58.158871,-184.806808,1.076646313619287
0 days 00:00:51.310000,0.635742,0.784668,0.337646,141.784668,54.992672,-181.320175,1.0648364109589792
0 days 00:00:51.320000,0.725098,0.75293,0.324219,149.208069,51.170345,-179.168686,1.094435313056464
0 days 00:00:51.330000,0.191895,0.041504,-0.077148,48.522945,-55.01556,-249.992355,0.21094569667333818
0 days 00:00:51.340000,0.960449,0.667236,0.285645,166.488632,74.409485,-198.64653,1.2038518294715508
0 days 00:00:51.350000,0.975586,0.7229,0.24585,170.944199,101.394646,-203.247055,1.2388683045005229
0 days 00:00:51.360000,1.000488,0.835938,0.226807,165.687546,129.737854,-200.03508,1.323332910962695
0 days 00:00:51.370000,1.075684,0.933594,0.186768,149.597168,155.021667,-191.978439,1.4365152663706713
0 days 00:00:51.380000,0.865234,0.697021,0.318848,157.897949,56.236263,-185.974106,1.1559118462499638
0 days 00:00:51.390000,1.153809,0.842041,0.097168,129.211426,181.877121,-190.650925,1.4316947560098139
0 days 00:00:51.400000,0.962646,0.72583,-0.034668,131.721497,163.818344,-193.420395,1.2061170674689916
0 days 00:00:51.410000,0.65332,0.578613,-0.153076,135.33783,135.864258,-183.242783,0.8860317646365733
0 days 00:00:51.420000,0.611328,0.427979,-0.180176,137.969971,111.67907,-174.186691,0.7676922163217497
0 days 00:00:51.430000,0.721924,0.389893,-0.147705,137.756348,93.383781,-189.117416,0.8336711463460877
0 days 00:00:51.440000,0.709229,0.5271,-0.146729,123.374931,83.045952,-230.934128,0.8957508492220367
0 days 00:00:51.450000,0.616211,0.643799,-0.153564,83.274834,86.807243,-249.992355,0.9043091567699622
0 days 00:00:51.460000,0.669922,0.529053,0.044189,31.60858,103.942863,-212.768539,0.8547778837885314
0 days 00:00:51.470000,0.713867,0.37085,0.176758,-10.589599,133.209229,-151.771545,0.8236377885654591
0 days 00:00:51.480000,0.615967,0.286621,-0.005859,-30.670164,138.130188,-153.289795,0.6794124451399165
0 days 00:00:51.490000,1.149658,0.927002,0.14624,134.208679,175.804123,-186.027512,1.4840594201607966
0 days 00:00:51.500000,0.223633,1.122803,0.240479,-20.919798,6.210327,6.568908,1.1698412050098936
0 days 00:00:51.510000,0.247314,1.123535,0.263184,-19.165039,2.189636,6.347656,1.1801529259706134
0 days 00:00:51.520000,0.281006,1.139404,0.286621,-20.400999,-3.662109,6.240844,1.2080386769027722
0 days 00:00:51.530000,0.293945,1.168457,0.259766,-23.727415,-10.307311,4.379272,1.2325476861484914
0 days 00:00:51.540000,0.216309,0.953857,0.351807,-2.464294,-81.603996,-21.865843,1.0394233618593531
0 days 00:00:51.550000,0.314941,1.121338,0.257568,-10.856627,-35.232544,-5.233764,1.1928654653182813
0 days 00:00:51.560000,0.293213,1.054688,0.291504,-3.799438,-51.033016,-11.001586,1.1328350377389464
0 days 00:00:51.570000,0.250977,0.996338,0.338135,-2.380371,-67.527771,-16.868591,1.0816719202225784
0 days 00:00:51.580000,0.310059,1.169922,0.240967,-20.080564,-20.980833,0.083923,1.2340661103255366
0 days 00:00:51.590000,0.223633,1.115479,0.217041,-23.933409,6.973266,5.134582,1.1581933835983522
0 days 00:00:51.600000,0.27124,0.904785,0.209229,-20.408628,-12.191772,-25.703428,0.9674625616870143
0 days 00:00:51.610000,0.218262,1.042969,0.192627,-28.732298,2.372742,-1.754761,1.0828332266484992
0 days 00:00:51.620000,0.233398,0.987793,0.189697,-27.458189,1.64032,-3.875732,1.0325669901086323
0 days 00:00:51.630000,0.257568,0.947998,0.201904,-23.91815,2.593994,-5.012512,1.0028991513826302
0 days 00:00:51.640000,0.258301,0.931641,0.199463,-21.65222,3.974914,-5.973815,0.9871473283411144
0 days 00:00:51.650000,0.229492,0.935791,0.183838,-22.552488,3.120422,-7.751464,0.980901515947957
0 days 00:00:51.660000,0.212158,0.943848,0.157959,-25.161741,-1.541138,-10.95581,0.9802097274303087
0 days 00:00:51.670000,0.238281,0.931396,0.152588,-25.749205,-6.866455,-15.075683,0.9734266492761536
0 days 00:00:51.680000,0.273193,0.912109,0.196777,-22.377012,-10.559081,-18.15033,0.9722645889154865
0 days 00:00:51.690000,0.28418,0.904297,0.205078,-20.530699,-12.298583,-21.087645,0.9698290172463392
0 days 00:00:51.700000,0.279785,0.903809,0.209961,-20.698545,-12.695312,-23.910521,0.9691408443704145
0 days 00:00:51.710000,0.181641,0.912109,0.354492,-4.089355,-91.468803,-22.224424,0.9952893342269874
0 days 00:00:51.720000,0.226563,1.086182,0.202881,-27.076719,4.631042,1.609802,1.1279551543629736
0 days 00:00:51.730000,0.157471,0.886719,0.35083,-7.270813,-98.846428,-20.820616,0.9665140400956419
0 days 00:00:51.740000,0.031738,1.044189,0.360596,-18.325806,17.227173,12.672423,1.1051549409838424
0 days 00:00:51.750000,0.070068,0.861572,0.314209,-7.781982,-101.417534,-22.918699,0.9197516683806559
0 days 00:00:51.760000,0.288818,0.900391,0.220215,-17.539978,-10.69641,-26.123045,0.9708833278154487
0 days 00:00:51.770000,0.157715,0.957275,0.359131,-7.942199,33.233643,22.483824,1.0345165643966268
0 days 00:00:51.780000,0.130859,0.974121,0.362305,-9.002686,28.739927,20.484922,1.0475212234351148
0 days 00:00:51.790000,0.115723,0.98584,0.364258,-9.857178,22.453306,17.875671,1.0573344829773594
0 days 00:00:51.800000,0.13623,0.972656,0.387207,-7.164001,17.39502,14.640807,1.055721349639667
0 days 00:00:51.810000,0.165283,0.950195,0.399658,-1.785278,15.083312,10.910033,1.0439901939568208
0 days 00:00:51.820000,0.189209,0.959961,0.403809,2.159119,16.059875,8.682251,1.0584832902237993
0 days 00:00:51.830000,0.197266,0.990723,0.397949,3.547668,18.005371,6.340026,1.0857298669954696
0 days 00:00:51.840000,0.183105,1.025146,0.378906,1.480102,20.523069,5.752563,1.108161323624408
0 days 00:00:51.850000,0.172363,1.03418,0.380859,-0.106812,22.888182,7.316589,1.115477859058619
0 days 00:00:51.860000,0.109863,0.875732,0.338867,-8.216858,-101.730339,-20.004272,0.9454138026716131
0 days 00:00:51.870000,0.178467,1.038574,0.387451,-1.831055,24.856565,10.06317,1.1227665389411996
0 days 00:00:51.880000,0.095459,1.063965,0.36084,-14.22882,23.948668,13.771056,1.1275368940775288
0 days 00:00:51.890000,-0.014404,1.009521,0.350586,-19.569397,6.179809,7.453918,1.0687612773921966
0 days 00:00:51.900000,-0.053711,0.971924,0.329102,-18.798828,-7.843017,2.616882,1.0275355272208353
0 days 00:00:51.910000,-0.080078,0.942139,0.287842,-17.753601,-24.093626,-1.739502,0.9883781656678784
0 days 00:00:51.920000,-0.099365,0.92627,0.258057,-18.875122,-39.985657,-5.249023,0.9666658840437062
0 days 00:00:51.930000,-0.099365,0.921875,0.249512,-21.179197,-55.358883,-8.995056,0.9601995401967239
0 days 00:00:51.940000,-0.087891,0.916016,0.255127,-22.209166,-70.075989,-13.992309,0.954934514124398
0 days 00:00:51.950000,-0.070801,0.904053,0.256836,-21.751402,-83.915703,-18.39447,0.9424910287668525
0 days 00:00:51.960000,-0.01001,0.871094,0.285645,-16.647339,-94.978325,-22.445677,0.9167867925319386
0 days 00:00:51.970000,0.041992,0.849609,0.317383,-9.437561,-100.135796,-24.208067,0.9079266212827994
0 days 00:00:51.980000,0.169922,1.055664,0.373779,-6.942749,26.206968,11.337279,1.1327006258588366
0 days 00:00:51.990000,0.162354,0.945557,0.360352,-9.033203,34.889221,23.277281,1.0248367799161973
0 days 00:00:52,0.308594,0.89209,0.237305,-12.260436,-9.239197,-26.214598,0.9733285611554816
0 days 00:00:52.010000,0.262939,0.916016,0.215332,-9.284973,-6.393432,-26.008604,0.9770312687938908
0 days 00:00:52.020000,0.136963,1.053955,0.228516,13.755797,11.322021,38.108826,1.0871060517033284
0 days 00:00:52.030000,0.168213,1.063721,0.258789,13.069152,9.101868,36.087036,1.1075963731120646
0 days 00:00:52.040000,0.197021,1.066895,0.255371,10.0708,7.606506,33.226013,1.1145835828267883
0 days 00:00:52.050000,0.178223,1.062256,0.273926,7.202148,9.033203,30.09033,1.111389536004816
0 days 00:00:52.060000,0.157227,1.053955,0.283447,6.469726,-2.304077,21.926878,1.102671153772964
0 days 00:00:52.070000,0.110352,1.050293,0.306885,6.828308,-19.66095,15.060424,1.099759679647331
0 days 00:00:52.080000,0.050781,1.055664,0.297363,6.874084,-43.685909,10.345458,1.0979207369505322
0 days 00:00:52.090000,0.091309,1.076904,0.313477,7.003784,-68.260193,4.379272,1.1253121292450377
0 days 00:00:52.100000,0.069336,1.107178,0.307129,4.241943,-91.361992,-3.15094,1.1510772464178936
0 days 00:00:52.110000,-0.004639,1.131836,0.285889,-8.460999,-141.571045,-12.107848,1.1673931520863055
0 days 00:00:52.120000,0.174561,1.009521,0.218506,19.271851,10.307311,41.15295,1.0475443017829842
0 days 00:00:52.130000,-0.011475,1.128174,0.273438,-6.912231,-159.248352,-19.699097,1.1608947367203455
0 days 00:00:52.140000,-0.157959,1.091797,0.226074,2.845764,-195.289597,-41.511532,1.1260911101531703
0 days 00:00:52.150000,-0.375488,1.124512,0.183838,5.363464,-202.606186,-43.411251,1.1997145020928937
0 days 00:00:52.160000,-0.510986,1.14624,0.132813,6.713867,-220.420822,-42.28973,1.2619873702874367
0 days 00:00:52.170000,-0.484863,1.141113,0.090088,7.164001,-235.137924,-17.753601,1.243119807292121
0 days 00:00:52.180000,-0.321533,1.206055,0.006348,-0.915527,-236.618027,21.286009,1.2481956698442758
0 days 00:00:52.190000,-0.171387,1.263672,-0.106201,-20.050049,-236.679062,45.417782,1.279655844262042
0 days 00:00:52.200000,-0.158691,1.24292,-0.056396,-35.461426,-222.732529,65.757751,1.2542780667367983
0 days 00:00:52.210000,-0.057373,1.250732,-0.06543,-49.041744,-191.436752,89.50042,1.2537556707161885
0 days 00:00:52.220000,0.174316,1.253418,-0.093262,-64.903259,-130.828857,118.759148,1.2689131377773657
0 days 00:00:52.230000,0.293945,0.89917,0.227295,-9.468079,-7.614135,-26.535032,0.9729200218671625
0 days 00:00:52.240000,-0.080078,1.120361,0.22998,-3.250122,-180.389389,-32.875061,1.1465217210349745
0 days 00:00:52.250000,0.155518,0.932861,0.275146,24.612425,11.917113,48.828121,0.9849471127735743
0 days 00:00:52.260000,0.002441,1.131592,0.273926,-3.097534,-119.430534,-8.842468,1.1642774009749566
0 days 00:00:52.270000,0.180664,0.87793,0.356689,12.916564,1.792908,51.826473,0.9646904210766271
0 days 00:00:52.280000,0.187744,0.893066,0.341797,21.583555,6.996154,50.544735,0.9744946788469396
0 days 00:00:52.290000,0.245117,0.904541,0.225586,-3.715515,-6.286621,-24.620054,0.9639324705424132
0 days 00:00:52.300000,0.239258,0.912842,0.219727,0.976562,-4.837036,-24.353025,0.968919430116354
0 days 00:00:52.310000,0.196533,0.959961,0.189209,1.914978,-2.494812,-22.491453,0.9979731395638862
0 days 00:00:52.320000,0.136719,1.017578,0.12793,-0.37384,-1.38092,-18.547058,1.0346608893473264
0 days 00:00:52.330000,0.101807,1.049561,0.090332,-3.334045,-3.639221,-12.96234,1.0583491050659983
0 days 00:00:52.340000,0.109619,1.059082,0.078369,-6.752014,-10.726928,-10.383605,1.0676201141070731
0 days 00:00:52.350000,0.094482,1.052979,0.055908,-12.329101,-18.875122,-11.848449,1.058686604821748
0 days 00:00:52.360000,0.059814,1.064697,0.040527,-18.218994,-28.617857,-14.328002,1.0671456574123328
0 days 00:00:52.370000,0.035645,1.069336,0.04541,-25.459288,-41.91589,-17.150879,1.070893138936374
0 days 00:00:52.380000,0.005859,1.057129,0.077148,-33.576965,-56.541439,-17.616272,1.059956538932611
0 days 00:00:52.390000,0.239014,0.918457,0.212891,-8.293152,-5.928039,-24.902342,0.9726322691161341
0 days 00:00:52.400000,-0.044678,1.001465,0.140381,-45.455929,-81.916801,-5.546569,1.0122426068240755
0 days 00:00:52.410000,-0.039795,1.037598,0.112549,-40.954586,-70.350647,-13.374328,1.0444426882457458
0 days 00:00:52.420000,0.181641,0.901123,0.327148,1.716614,-16.113281,46.485897,0.9757263591366178
0 days 00:00:52.430000,0.151123,0.894775,0.283447,-1.342773,-26.969908,44.075008,0.9506853651776701
0 days 00:00:52.440000,0.118652,0.870361,0.265381,-3.540039,-38.452148,39.81781,0.9176239112980874
0 days 00:00:52.450000,0.109375,0.853027,0.248047,-9.605408,-50.2243,33.935547,0.8950671860609124
0 days 00:00:52.460000,0.16626,0.883789,0.355225,6.484985,-5.676269,50.636288,0.9669075368131124
0 days 00:00:52.470000,0.084473,0.873779,0.204102,-31.10504,-74.714661,20.278929,0.9012674713834955
0 days 00:00:52.480000,0.075928,0.907471,0.193359,-40.100098,-84.602348,11.96289,0.9309438113581292
0 days 00:00:52.490000,0.015625,0.953857,0.170898,-45.143124,-87.623589,3.356933,0.9691715242814349
0 days 00:00:52.500000,0.087158,0.854004,0.224121,-20.095823,-62.721249,27.816771,0.8872145014713183
0 days 00:00:52.510000,0.145996,0.903564,0.200928,31.776426,138.74054,40.90881,0.9370777957544401
0 days 00:00:52.520000,0.218018,0.894531,0.187012,-18.882751,62.675472,-15.388488,0.9395163896542731
0 days 00:00:52.530000,0.216797,0.885254,0.195557,-14.709472,70.846558,-7.110595,0.9321577784763693
0 days 00:00:52.540000,0.203369,0.879395,0.191895,-9.613037,80.67321,2.02179,0.9227774418628796
0 days 00:00:52.550000,0.201172,0.873291,0.182373,-3.837585,90.911858,8.918762,0.9145311669888566
0 days 00:00:52.560000,0.206543,0.871582,0.179199,2.365112,101.34124,14.22882,0.9134700187603312
0 days 00:00:52.570000,0.172119,0.885742,0.170166,7.17163,112.884514,20.668028,0.9182158288120501
0 days 00:00:52.580000,0.216064,0.896973,0.18042,-21.804808,55.419918,-22.315977,0.9401040321288916
0 days 00:00:52.590000,0.125244,0.92041,0.147461,9.086609,124.549858,27.877806,0.9405239891448808
0 days 00:00:52.600000,0.123779,0.931641,0.174316,18.295288,133.453369,35.392761,0.9558568206473185
0 days 00:00:52.610000,0.129395,0.888428,0.180176,39.794922,141.853333,43.647762,0.915702336015913
0 days 00:00:52.620000,0.098877,0.952881,0.193359,66.497803,121.734612,45.761105,0.9773160001611556
0 days 00:00:52.630000,0.087646,0.904785,0.182861,52.604671,139.266968,47.828671,0.9272302102832931
0 days 00:00:52.640000,0.104248,0.909668,0.187744,59.112545,133.377075,47.615047,0.9346717740811478
0 days 00:00:52.650000,0.110596,0.927979,0.191162,63.71307,127.769463,46.57745,0.9538969597923038
0 days 00:00:52.660000,0.108154,0.979004,0.196289,68.756104,114.387505,43.685909,1.0043283781975891
0 days 00:00:52.670000,0.116943,1.007813,0.196777,71.212769,106.582634,41.099545,1.0334814444134932
0 days 00:00:52.680000,0.117432,1.04126,0.190918,71.578979,99.098198,39.047241,1.0651114237242976
0 days 00:00:52.690000,0.11792,1.078369,0.185547,70.846558,90.484612,36.331177,1.1005510055285943
0 days 00:00:52.700000,0.124268,1.109131,0.177002,69.442749,80.024719,33.164978,1.1300193887668477
0 days 00:00:52.710000,0.124512,1.130615,0.171631,67.146301,68.496704,29.739378,1.1503263521844571
0 days 00:00:52.720000,0.228271,0.901611,0.177002,-24.330137,47.645565,-28.488157,0.9467522129712717
0 days 00:00:52.730000,0.102783,0.894775,0.178223,46.272274,142.059326,46.157833,0.9181231308724337
0 days 00:00:52.740000,0.236572,0.912354,0.165039,-27.305601,39.993286,-33.660889,0.9568667639859794
0 days 00:00:52.750000,0.125977,1.14209,0.164063,65.612793,54.450985,26.161192,1.160670685680482
0 days 00:00:52.760000,0.25415,0.953369,0.133057,-32.028198,26.611326,-41.320797,0.9955947156900744
0 days 00:00:52.770000,0.448975,1.131348,-0.006592,33.737183,60.981747,46.989437,1.2171977251839572
0 days 00:00:52.780000,0.470703,1.171143,-0.068604,31.463621,98.518364,64.338684,1.2640584438521822
0 days 00:00:52.790000,0.468506,1.224854,-0.133301,23.612974,135.482788,78.277588,1.318155662261859
0 days 00:00:52.800000,0.474121,1.26001,-0.178467,9.628296,160.224915,78.407288,1.358037699340486
0 days 00:00:52.810000,0.400391,1.263184,-0.205078,-4.440308,166.618332,64.811707,1.340896624211203
0 days 00:00:52.820000,0.2146,1.259766,-0.24292,-17.25769,156.486511,49.659725,1.3007973174772463
0 days 00:00:52.830000,0.114014,1.247559,-0.274658,-33.569336,127.471916,35.118103,1.2825130282539043
0 days 00:00:52.840000,0.162354,1.185547,-0.20874,-45.173641,93.467705,22.308348,1.2146822210458996
0 days 00:00:52.850000,0.211914,1.117676,-0.14209,-48.484798,74.363708,13.336181,1.1464278226177171
0 days 00:00:52.860000,0.227539,1.08667,-0.110352,-48.759457,63.751217,5.722045,1.1157075106518735
0 days 00:00:52.870000,0.243164,0.93042,0.148193,-30.204771,33.26416,-38.047791,0.9730217225452884
0 days 00:00:52.880000,0.216309,1.090576,-0.085205,-53.352352,57.075497,-2.13623,1.1150809330636051
0 days 00:00:52.890000,0.202148,1.046875,0.019043,-53.558346,44.013973,-13.587951,1.0663834748241368
0 days 00:00:52.900000,0.216309,1.010986,0.024902,-50.376888,37.498474,-18.318176,1.0341674841537998
0 days 00:00:52.910000,0.222656,0.986572,0.016357,-46.783443,33.638,-21.858213,1.0115174526269926
0 days 00:00:52.920000,0.233643,0.988525,0.011963,-43.952938,31.60095,-26.81732,1.015831600435328
0 days 00:00:52.930000,0.224121,0.997803,0.01001,-41.824337,27.328489,-33.64563,1.0227126915952496
0 days 00:00:52.940000,0.175537,1.011475,0.022217,-39.68811,21.537779,-39.474487,1.0268342169420532
0 days 00:00:52.950000,0.134033,1.016602,0.039795,-37.30011,17.341614,-41.748043,1.0261715809346894
0 days 00:00:52.960000,0.189697,1.009521,0.059082,-35.232544,14.427184,-43.769833,1.028886915056266
0 days 00:00:52.970000,0.246582,0.98999,0.094238,-33.348083,14.953612,-45.448299,1.0245797594467694
0 days 00:00:52.980000,0.255127,0.96875,0.115479,-32.424927,19.691467,-43.601986,1.0084154640176834
0 days 00:00:52.990000,0.194824,1.081055,-0.03418,-56.15234,51.429745,-8.796692,1.0990016271148102
0 days 00:00:53,0.125488,1.150146,0.154297,64.163208,39.657593,22.460936,1.16721490037996
0 days 00:00:53.010000,0.397705,1.106201,0.032227,34.011841,28.259275,32.554626,1.1759627965862696
0 days 00:00:53.020000,0.168457,1.182373,0.128174,58.143612,14.144897,14.10675,1.2011711977291162
0 days 00:00:53.030000,0.278076,0.991699,0.223877,31.173704,-13.763427,-4.02832,1.0539990889493216
0 days 00:00:53.040000,0.276367,0.966797,0.238037,28.96118,-4.089355,1.998901,1.0333134912827762
0 days 00:00:53.050000,0.29248,0.933105,0.263184,27.816771,3.166198,5.493164,1.012667422839799
0 days 00:00:53.060000,0.294678,0.906494,0.293213,27.999876,9.254456,7.377624,0.9972664433785988
0 days 00:00:53.070000,0.293945,0.903564,0.316406,27.008055,13.534545,8.277893,1.0014710789418735
0 days 00:00:53.080000,0.294922,0.90918,0.334229,23.628233,16.036987,8.049011,1.0125691497004043
0 days 00:00:53.090000,0.2771,0.909424,0.353271,19.737244,16.777039,6.767272,1.0142173441708637
0 days 00:00:53.100000,0.262939,0.921631,0.358398,15.174865,16.227722,4.524231,1.0232251679303046
0 days 00:00:53.110000,0.250732,0.93457,0.371826,10.086059,15.960692,2.449036,1.0366012709812775
0 days 00:00:53.120000,0.234863,0.934326,0.397949,6.584167,16.166687,1.274109,1.0423478832165392
0 days 00:00:53.130000,0.274902,1.006104,0.199463,31.494139,-25.131224,-9.117126,1.0618859904853253
0 days 00:00:53.140000,0.220947,0.92749,0.410156,4.554749,16.052246,0.63324,1.0379225506968235
0 days 00:00:53.150000,0.180176,0.911377,0.406006,3.440857,13.252257,0.312805,1.01386009840658
0 days 00:00:53.160000,0.170654,0.920898,0.376221,0.87738,11.360168,1.304626,1.009315686473266
0 days 00:00:53.170000,0.16333,0.918945,0.375732,-1.251221,10.32257,1.678467,1.0061367390911635
0 days 00:00:53.180000,0.125,0.912842,0.363525,-2.868652,9.986877,3.044128,0.9904826816199261
0 days 00:00:53.190000,0.130859,0.906494,0.367188,-5.500793,10.795592,6.309509,0.9867535037997078
0 days 00:00:53.200000,0.133545,0.901611,0.363281,-6.41632,14.450072,8.583069,0.9811777348202516
0 days 00:00:53.210000,0.134766,0.912842,0.352783,-8.392334,20.027161,12.687682,0.987875618086103
0 days 00:00:53.220000,0.125488,0.928223,0.350342,-10.528563,26.473997,16.899109,1.0000423455219283
0 days 00:00:53.230000,0.123291,0.938477,0.35083,-11.863708,31.745909,20.957945,1.0094659177555227
0 days 00:00:53.240000,0.143311,0.942139,0.359619,-10.925292,34.584045,22.987364,1.0185724143147605
0 days 00:00:53.250000,0.202393,0.915527,0.411865,3.52478,14.846801,-0.1297,1.0241022372805364
0 days 00:00:53.260000,0.25415,1.022217,0.182129,34.042358,-36.125183,-14.427184,1.0689671605012008
0 days 00:00:53.270000,0.12915,1.164795,0.138916,61.935421,25.611876,18.463135,1.180137606205734
0 days 00:00:53.280000,0.252686,1.038574,0.1521,41.969296,-58.067318,-28.137205,1.0796390962131746
0 days 00:00:53.290000,0.203613,1.187256,0.126465,53.75671,7.034301,10.688781,1.2112095027409586
0 days 00:00:53.300000,0.201904,1.177246,0.122559,49.339291,3.517151,7.865905,1.2007056584413183
0 days 00:00:53.310000,0.192871,1.16626,0.108643,44.837948,-0.640869,4.249573,1.1870825210110711
0 days 00:00:53.320000,0.191406,1.141357,0.105469,42.716976,-7.057189,1.319885,1.1620911187363923
0 days 00:00:53.330000,0.193848,1.112061,0.106689,42.144772,-13.46588,-2.151489,1.133860334232572
0 days 00:00:53.340000,0.179688,1.081299,0.105469,42.381283,-19.676208,-7.286071,1.1011898177453332
0 days 00:00:53.350000,0.167725,1.045654,0.101563,44.219967,-34.622192,-17.501831,1.0638792254339777
0 days 00:00:53.360000,0.18335,1.050293,0.094482,42.625423,-39.848328,-21.995543,1.0703548274628372
0 days 00:00:53.370000,0.208984,1.052734,0.087891,40.000916,-43.55621,-27.259825,1.0768695440456102
0 days 00:00:53.380000,0.203613,1.044434,0.097168,38.879395,-47.111507,-32.211304,1.0685233990648029
0 days 00:00:53.390000,0.16748,1.054688,0.104248,43.785091,-27.458189,-12.847899,1.0729790180837648
0 days 00:00:53.400000,0.17334,1.020996,0.097656,40.443417,-62.210079,-39.81781,1.0402001163007049
0 days 00:00:53.410000,0.177246,1.030518,0.094482,39.390564,-53.466793,-35.850525,1.0499096823841563
0 days 00:00:53.420000,0.2229,1.040527,0.146729,48.187252,-70.762634,-36.613464,1.0742021444635084
0 days 00:00:53.430000,0.227051,1.03833,0.140869,51.528927,-74.501038,-41.252132,1.0721592328856755
0 days 00:00:53.440000,0.234619,1.019775,0.148926,53.63464,-77.537537,-44.891354,1.0569607747035838
0 days 00:00:53.450000,0.224365,1.002441,0.133789,50.666805,-79.818726,-44.952389,1.0359184853196701
0 days 00:00:53.460000,0.232178,1.038574,0.161621,46.997066,-65.322876,-33.302307,1.0764125253828107
0 days 00:00:53.470000,0.219971,0.991943,0.113525,47.996517,-80.986015,-51.818844,1.0223629892142028
0 days 00:00:53.480000,0.210205,1.00293,0.10498,44.403072,-77.552795,-50.193783,1.0300852039151909
0 days 00:00:53.490000,0.179199,1.011719,0.100098,41.580196,-70.68634,-43.823238,1.0323309673578527
0 days 00:00:53.500000,0.213867,0.99292,0.119629,49.09515,-81.29882,-47.172543,1.0227122360322085
0 days 00:00:53.510000,0.256348,1.032227,0.166992,37.147522,-47.5769,-21.14868,1.0766119099735987
0 days 00:00:53.520000,0.035156,1.020752,0.101074,-35.018921,39.31427,10.238647,1.026346210260456
0 days 00:00:53.530000,0.135254,1.061035,0.078125,-44.761654,107.711784,-11.512755,1.0724702473103858
0 days 00:00:53.540000,0.148926,1.052246,0.086182,-38.040161,99.594109,-12.634276,1.0662213349563026
0 days 00:00:53.550000,0.146973,1.064697,0.101318,-34.484863,91.629021,-12.092589,1.0795582900714533
0 days 00:00:53.560000,0.132568,1.091797,0.111084,-37.666321,84.182732,-9.239197,1.1054115156307174
0 days 00:00:53.570000,0.124268,1.100098,0.131592,-42.396542,75.706482,-4.508972,1.1148877073015022
0 days 00:00:53.580000,0.122559,1.091553,0.141113,-45.448299,66.337585,0.419617,1.1074391807494441
0 days 00:00:53.590000,0.098145,1.065674,0.135498,-45.608517,57.571407,3.768921,1.078727594578446
0 days 00:00:53.600000,0.074219,1.040283,0.127197,-43.067928,49.423214,5.714416,1.050655156014094
0 days 00:00:53.610000,0.063232,1.023926,0.117188,-38.986206,42.030331,7.148742,1.0325481909547853
0 days 00:00:53.620000,0.142334,1.055176,0.108887,-1.426697,-3.822326,42.518612,1.0702858203774355
0 days 00:00:53.630000,-0.009521,1.001221,0.128174,-20.500181,41.336056,28.480528,1.0094368303950474
0 days 00:00:53.640000,0.018066,0.999023,0.109619,-19.218445,43.624874,33.363342,1.0051814065361535
0 days 00:00:53.650000,0.026123,0.977295,0.104492,-17.974854,44.784542,36.224365,0.9832123403507504
0 days 00:00:53.660000,0.019775,0.959473,0.098145,-15.3656,41.992184,38.604736,0.964682294529655
0 days 00:00:53.670000,0.024658,0.946777,0.103027,-11.466979,34.111023,39.321899,0.9526852929598525
0 days 00:00:53.680000,0.022217,0.944336,0.107178,-6.370544,23.017881,38.421631,0.9506582980592974
0 days 00:00:53.690000,0.01123,0.960938,0.111572,-1.991272,9.124756,37.620544,0.9674586626455933
0 days 00:00:53.700000,-0.009277,0.979248,0.115479,0.839233,-1.953125,39.794922,0.9860771306921179
0 days 00:00:53.710000,0.041748,1.013184,0.109375,1.808166,-7.888793,40.710445,1.019925293335252
0 days 00:00:53.720000,0.161621,1.065918,0.083496,-49.560543,115.036003,-9.666443,1.0813297889085456
0 days 00:00:53.730000,0.003906,1.018066,0.104736,-30.174253,40.733334,15.892028,1.02344675820875
0 days 00:00:53.740000,0.193359,1.05542,0.074219,-51.11694,123.062126,-5.386352,1.0755498776170263
0 days 00:00:53.750000,0.380859,1.116943,0.404053,15.014647,117.286674,-1.480102,1.2473468122134277
0 days 00:00:53.760000,0.221924,1.053467,0.09375,-45.494076,134.925842,2.227783,1.0806627801330995
0 days 00:00:53.770000,0.340576,0.97583,0.251465,54.908749,117.874138,-68.763733,1.06370618448
0 days 00:00:53.780000,0.333984,0.943604,0.298828,59.059139,107.147209,-68.901062,1.0446205026975106
0 days 00:00:53.790000,0.315674,0.929688,0.341553,63.71307,93.063347,-67.718506,1.0395327332167081
0 days 00:00:53.800000,0.322021,0.946533,0.366699,66.734314,81.352226,-64.918518,1.064936806167859
0 days 00:00:53.810000,0.349365,0.988281,0.374023,66.627502,74.119568,-60.6842,1.1129458399738057
0 days 00:00:53.820000,0.345703,1.02002,0.370361,64.216614,70.465088,-56.78558,1.1389111620007946
0 days 00:00:53.830000,0.312744,1.036621,0.369385,62.83569,65.353394,-53.771969,1.1440442235342128
0 days 00:00:53.840000,0.298096,1.062988,0.368896,61.752316,56.411739,-50.888058,1.163996981171343
0 days 00:00:53.850000,0.281982,1.100098,0.376709,57.220455,49.079891,-48.286434,1.1965112321282236
0 days 00:00:53.860000,0.277344,1.123535,0.395264,49.713131,47.32513,-42.961117,1.2228999224208823
0 days 00:00:53.870000,0.209229,1.052734,0.081055,-49.652096,130.996704,-1.167297,1.0763807700911423
0 days 00:00:53.880000,0.321777,1.144043,0.414551,40.786739,54.573055,-32.485962,1.2586609373373752
0 days 00:00:53.890000,0.403076,1.133057,0.418945,22.232054,94.650261,-9.262085,1.2735004279740152
0 days 00:00:53.900000,0.077637,1.082275,0.118896,-7.987976,4.486084,46.943661,1.0915507034535776
0 days 00:00:53.910000,0.324463,1.0896,0.380615,9.872437,131.446838,3.944397,1.1989045735979156
0 days 00:00:53.920000,0.30127,1.078369,0.352051,4.470825,139.183044,8.773804,1.1737049116630636
0 days 00:00:53.930000,0.306152,1.087402,0.295898,-1.953125,147.186279,12.390136,1.1677875590671447
0 days 00:00:53.940000,0.276611,1.098145,0.257568,-8.399963,155.410767,13.954162,1.1613687446155936
0 days 00:00:53.950000,0.232422,1.100586,0.193604,-19.65332,158.065796,12.496947,1.1413991581808707
0 days 00:00:53.960000,0.200439,1.104736,0.126953,-32.852173,154.579163,7.797241,1.1299267616204158
0 days 00:00:53.970000,0.187012,1.097656,0.124512,-38.970947,149.230957,3.112793,1.1204130580388645
0 days 00:00:53.980000,0.192139,1.064453,0.116699,-41.114803,141.25824,4.699707,1.0879320939888666
0 days 00:00:53.990000,0.371094,1.147461,0.416504,31.311033,72.036743,-20.301817,1.2758734597807888
0 days 00:00:54,-0.001465,1.118896,0.114746,-11.001586,-2.525329,45.906063,1.1247653308832912
0 days 00:00:54.010000,-0.005615,1.005615,0.133789,-24.29199,40.924068,22.132872,1.0144912779176567
0 days 00:00:54.020000,-0.024658,1.110107,0.113037,-10.139464,-10.025024,44.883724,1.1161195866850468
0 days 00:00:54.030000,0.171631,0.976807,0.092773,14.762877,-83.297722,-20.256041,0.9961003689081739
0 days 00:00:54.040000,0.170898,0.977539,0.097168,17.51709,-79.734802,-22.926329,0.997110948264535
0 days 00:00:54.050000,0.17627,0.976563,0.104492,19.683838,-76.705933,-25.634764,0.9978301378155502
0 days 00:00:54.060000,0.188232,0.969727,0.119629,21.621702,-74.699402,-29.190062,0.9950441387164692
0 days 00:00:54.070000,0.193848,0.957031,0.135498,24.261473,-74.172974,-32.714844,0.9858220377273983
0 days 00:00:54.080000,0.182129,0.949463,0.144043,26.405333,-75.134277,-35.53772,0.9774453165568905
0 days 00:00:54.090000,0.175781,0.942139,0.147949,27.671812,-77.842712,-37.818909,0.9697493294058005
0 days 00:00:54.100000,0.174561,0.935791,0.155762,27.893064,-81.855766,-39.886475,0.9645922138634544
0 days 00:00:54.110000,0.174805,0.931396,0.160645,27.969358,-86.09771,-41.503902,0.9611774616926887
0 days 00:00:54.120000,0.180908,0.911133,0.166748,30.273436,-91.964714,-42.91534,0.9437668905280583
0 days 00:00:54.130000,0.162842,0.978271,0.08374,11.680602,-86.051933,-16.731262,0.995260796979867
0 days 00:00:54.140000,0.18335,0.899414,0.162354,32.173157,-91.827385,-41.755672,0.9321596361203376
0 days 00:00:54.150000,0.231201,0.888916,0.147949,37.67395,-82.672112,-32.897949,0.9303302983661234
0 days 00:00:54.160000,0.254883,0.903809,0.137451,40.153503,-74.462891,-27.259825,0.9490673472262123
0 days 00:00:54.170000,0.260986,0.934326,0.126221,40.626522,-65.52887,-22.02606,0.978269138485417
0 days 00:00:54.180000,0.263916,0.966553,0.123291,39.779663,-57.754513,-17.570496,1.009493450967365
0 days 00:00:54.190000,0.259033,0.986572,0.122314,39.169312,-50.804134,-12.382506,1.0273184126009813
0 days 00:00:54.200000,0.272949,1.016846,0.11499,38.208008,-42.594906,-4.981995,1.0591032265161882
0 days 00:00:54.210000,0.307861,1.053955,0.105957,37.193298,-32.226563,3.15094,1.1030985555221255
0 days 00:00:54.220000,0.322998,1.077881,0.095703,35.514832,-17.524719,12.008666,1.1292981104978437
0 days 00:00:54.230000,0.352783,1.093994,0.068848,34.378052,1.922607,21.453856,1.151528881196212
0 days 00:00:54.240000,0.070801,1.058105,0.114746,-8.895874,-12.496947,45.341488,1.0666609663534146
0 days 00:00:54.250000,0.196045,0.892822,0.159912,34.713745,-88.638298,-38.116455,0.9279744681040529
0 days 00:00:54.260000,0.138672,0.980469,0.077148,9.094238,-86.441032,-12.283324,0.993227666473805
0 days 00:00:54.270000,0.177979,0.925293,0.166016,28.793333,-89.759819,-42.472836,0.9567679826091591
0 days 00:00:54.280000,0.102295,0.962891,0.075684,7.194519,-78.231812,-3.89862,0.97126279284342
0 days 00:00:54.290000,0.11084,0.974365,0.072998,7.797241,-83.549492,-7.92694,0.9833622764927481
0 days 00:00:54.300000,-0.014648,1.000488,0.118408,-15.998839,-19.134521,28.823851,1.0075769233721068
0 days 00:00:54.310000,-0.107666,1.017822,0.141846,-21.995543,-34.896851,18.173218,1.0332830584868795
0 days 00:00:54.320000,-0.105469,1.02002,0.165771,-24.459837,-49.461361,7.072448,1.038770684415959
0 days 00:00:54.330000,-0.089355,0.996094,0.158203,-23.353575,-63.369747,0.946045,1.01252938825004
0 days 00:00:54.340000,-0.071045,0.983154,0.160889,-20.736692,-72.08252,-0.62561,0.9987614580379041
0 days 00:00:54.350000,-0.019531,0.986816,0.14209,-17.196655,-78.552246,-2.799988,0.9971844593238506
0 days 00:00:54.360000,-0.006836,0.988281,0.143066,-13.97705,-79.330444,-3.471374,0.9986060014905779
0 days 00:00:54.370000,-0.003662,0.994385,0.141602,-10.337829,-78.826904,-2.555847,1.0044232498668078
0 days 00:00:54.380000,0.043457,1.011475,0.131104,-7.095336,-79.185486,-1.701355,1.0208616190698914
0 days 00:00:54.390000,0.057617,1.02417,0.134766,-4.676819,-73.21167,0.282288,1.034604166986099
0 days 00:00:54.400000,0.060059,1.043457,0.118408,-3.570556,-68.145752,2.922058,1.0518697869955198
0 days 00:00:54.410000,0.099609,1.015381,0.116943,-10.177611,-12.847899,40.245052,1.0269353403652053
0 days 00:00:54.420000,0.106689,0.952148,0.080322,5.92041,-71.914673,0.595093,0.9614676179201253
0 days 00:00:54.430000,0.078369,1.054443,0.112793,-0.869751,-61.897274,5.66101,1.063350366181815
0 days 00:00:54.440000,0.067871,1.051514,0.107178,0.1297,-59.494015,6.301879,1.059138937307566
0 days 00:00:54.450000,0.081055,1.043945,0.099121,-0.106812,-57.319637,6.561279,1.0517680584097426
0 days 00:00:54.460000,0.106201,1.030273,0.09082,-1.045227,-56.846615,6.41632,1.039706390924861
0 days 00:00:54.470000,0.123779,1.013916,0.090088,-1.38092,-57.014462,5.683898,1.0254085740040406
0 days 00:00:54.480000,0.102295,0.990967,0.093262,-0.869751,-57.937618,5.813598,1.000588658119809
0 days 00:00:54.490000,0.09082,0.964355,0.09082,1.029968,-59.890743,7.400512,0.9728705519363817
0 days 00:00:54.500000,0.110352,0.954346,0.087646,2.937317,-62.980648,7.728576,0.9646946008639211
0 days 00:00:54.510000,0.121582,0.951904,0.084473,4.676819,-67.214966,5.271911,0.9633478580808699
0 days 00:00:54.520000,0.070801,1.054199,0.119385,-2.311707,-64.575195,5.378723,1.0632972733093038
0 days 00:00:54.530000,0.213867,1.145996,0.233887,36.720276,-60.394283,2.410889,1.1890117974494618
0 days 00:00:54.540000,0.214111,1.179199,0.237793,38.871765,-56.457516,7.942199,1.221842589195106
0 days 00:00:54.550000,0.216797,1.200195,0.238037,41.099545,-53.764339,14.381408,1.2426305125028114
0 days 00:00:54.560000,0.207764,1.206787,0.23584,42.213436,-52.726742,20.744322,1.2470450066717722
0 days 00:00:54.570000,0.171875,1.184326,0.156738,20.980833,-57.28912,49.934383,1.206953143475338
0 days 00:00:54.580000,0.193115,1.209961,0.205811,39.451599,-53.489681,32.623291,1.2424400156413993
0 days 00:00:54.590000,0.182373,1.202393,0.190674,35.354614,-55.14526,38.642883,1.231001791978387
0 days 00:00:54.600000,0.168945,1.194336,0.172119,28.816221,-55.854794,44.509884,1.2184440258304852
0 days 00:00:54.610000,0.227539,1.118652,0.224609,34.52301,-63.697811,-2.830505,1.163445527949633
0 days 00:00:54.620000,0.198486,1.211182,0.224854,41.633602,-52.513119,26.657103,1.247765142419037
0 days 00:00:54.630000,0.238281,1.099365,0.20874,31.433104,-66.070557,-9.010315,1.144095112211393
0 days 00:00:54.640000,0.177002,0.958984,0.104492,4.432678,-90.2481,-37.277222,0.9807642929491265
0 days 00:00:54.650000,0.202637,1.078369,0.15625,21.347044,-73.570251,-19.523621,1.1083120122194832
0 days 00:00:54.660000,0.198975,1.068604,0.133057,15.060424,-78.414917,-24.085997,1.0950843459250068
0 days 00:00:54.670000,0.191895,1.045654,0.119385,9.147644,-82.885735,-28.884886,1.0697984655840558
0 days 00:00:54.680000,0.179199,1.003662,0.112305,5.432128,-86.830132,-32.844543,1.0257007872035588
0 days 00:00:54.690000,0.173584,0.920898,0.095703,5.28717,-93.086235,-41.984554,0.9419891696134304
0 days 00:00:54.700000,0.175293,0.895508,0.080566,6.41632,-94.505302,-46.302792,0.9160529975219773
0 days 00:00:54.710000,0.189941,0.88623,0.069824,6.79779,-94.421379,-50.201412,0.9090415762532537
0 days 00:00:54.720000,0.193604,0.88208,0.066406,6.698608,-92.636101,-52.680965,0.9055149872045188
0 days 00:00:54.730000,0.170166,0.887207,0.064697,5.615234,-90.721123,-53.161617,0.9056922381327996
0 days 00:00:54.740000,0.150146,0.887695,0.069824,4.928589,-92.155449,-51.834103,0.9030069907353985
0 days 00:00:54.750000,0.221924,1.086914,0.182129,27.053831,-69.160461,-15.159606,1.1241900541336416
0 days 00:00:54.760000,0.159424,1.169678,0.143066,12.245177,-59.29565,54.473873,1.1891301509153656
0 days 00:00:54.770000,0.137695,0.893799,0.086182,5.096435,-95.489494,-49.797054,0.9084403681860467
0 days 00:00:54.780000,0.162842,1.1521,0.114014,-7.644653,-62.805172,60.951229,1.1691240820203814
0 days 00:00:54.790000,-0.126953,0.94873,0.083252,-31.837461,-110.054008,-13.259887,0.9607999649318271
0 days 00:00:54.800000,-0.185547,0.904297,0.074707,-33.500671,-132.904053,-16.708374,0.9261543549900308
0 days 00:00:54.810000,-0.231934,0.889404,0.063232,-34.645081,-166.038498,-17.028809,0.9213203250748352
0 days 00:00:54.820000,-0.180664,0.881348,0.074219,-36.437988,-186.256393,-9.117126,0.902730434825923
0 days 00:00:54.830000,-0.138184,0.874512,0.08252,-40.435787,-193.534836,4.234314,0.8891994188032288
0 days 00:00:54.840000,-0.111572,0.883789,0.043945,-45.478817,-208.488449,14.266967,0.8918870280085927
0 days 00:00:54.850000,-0.061768,0.896484,0.036377,-48.484798,-226.020798,20.874022,0.8993453920541318
0 days 00:00:54.860000,-0.037354,0.925537,0.036621,-52.162167,-232.696518,27.374266,0.9270141084827135
0 days 00:00:54.870000,-0.026123,0.949951,0.0354,-56.137081,-231.811508,33.050537,0.9509692284874416
0 days 00:00:54.880000,0.013184,0.976807,0.029785,-58.624264,-227.043137,36.956787,0.9773499267560212
0 days 00:00:54.890000,0.156494,1.15918,0.126953,2.311707,-60.638424,57.884212,1.1765652164861071
0 days 00:00:54.900000,0.069336,1.002197,0.022461,-61.408993,-215.919479,40.336605,1.0048436715360256
0 days 00:00:54.910000,0.088135,1.019531,0.027832,-62.20245,-183.296188,50.315853,1.0237118043717186
0 days 00:00:54.920000,0.124512,1.049316,0.040039,-62.011715,-165.710434,56.564327,1.0574357793837883
0 days 00:00:54.930000,0.095215,1.05542,0.045654,-59.92889,-137.664795,65.490723,1.0606891912058878
0 days 00:00:54.940000,0.159912,1.065186,0.050293,-54.779049,-116.760246,65.727234,1.0782960855854944
0 days 00:00:54.950000,0.162598,1.077881,0.074219,-50.308224,-100.494377,67.085266,1.0925996612327866
0 days 00:00:54.960000,0.156738,1.106445,0.079102,-46.173092,-86.357109,67.520142,1.1202876706779379
0 days 00:00:54.970000,0.140625,1.126465,0.091553,-40.946957,-77.842712,67.581177,1.1388945248173776
0 days 00:00:54.980000,0.137451,1.142578,0.098389,-34.378052,-73.051453,67.382813,1.155014137924727
0 days 00:00:54.990000,0.14502,1.146973,0.098145,-26.214598,-69.694519,66.513062,1.160263032313794
0 days 00:00:55,0.163574,1.152832,0.101074,-17.326355,-65.956116,64.071655,1.1687574714952629
0 days 00:00:55.010000,0.057861,1.005127,0.032227,-63.247677,-198.410019,45.173641,1.0073066866545661
0 days 00:00:55.020000,-0.136719,1.006592,0.098145,-30.799864,-91.918938,-12.977599,1.0205645400708374
0 days 00:00:55.030000,0.126709,0.900635,0.10498,6.095886,-99.746696,-47.363277,0.9155432126917876
0 days 00:00:55.040000,0.112061,0.914307,0.145752,8.255005,-110.565178,-39.489746,0.9326084942107272
0 days 00:00:55.050000,0.307861,1.069092,0.159668,-12.191772,-94.543449,18.302917,1.1239350381623485
0 days 00:00:55.060000,0.347168,1.056396,0.155762,-17.211914,-99.174492,9.82666,1.1228356645938886
0 days 00:00:55.070000,0.388672,1.05542,0.149414,-23.41461,-102.165215,0.640869,1.1345932501914509
0 days 00:00:55.080000,0.405029,1.044678,0.149902,-29.151915,-104.034416,-8.384705,1.1304296635036608
0 days 00:00:55.090000,0.400391,1.021973,0.152832,-33.042908,-105.705254,-17.318726,1.1081964563352475
0 days 00:00:55.100000,0.412598,0.997314,0.165039,-34.172058,-107.406609,-26.092527,1.0918379896857409
0 days 00:00:55.110000,0.436523,0.979248,0.174316,-34.416199,-106.475822,-34.072876,1.0862159282983286
0 days 00:00:55.120000,0.474121,0.969971,0.17041,-35.072327,-101.791374,-41.099545,1.0930114508009512
0 days 00:00:55.130000,0.511475,0.968506,0.172363,-35.934448,-92.544548,-46.676632,1.1087468382953793
0 days 00:00:55.140000,0.530029,0.962646,0.175781,-36.254883,-79.368591,-51.292416,1.1128867966320741
0 days 00:00:55.150000,0.283691,1.085938,0.168945,-8.049011,-87.959282,26.489256,1.1350261390602423
0 days 00:00:55.160000,0.526855,0.953125,0.179932,-35.316467,-63.659664,-55.130001,1.103811116665347
0 days 00:00:55.170000,0.51001,0.943359,0.164795,-29.098509,-25.520323,-60.478207,1.084985619723137
0 days 00:00:55.180000,0.499756,0.928711,0.156494,-23.948668,-3.40271,-61.584469,1.0661850463653106
0 days 00:00:55.190000,0.502441,0.929688,0.140869,-17.936707,19.851685,-62.69836,1.0661195106487829
0 days 00:00:55.200000,0.481445,0.932617,0.13208,-10.31494,42.243954,-63.972469,1.057832162072037
0 days 00:00:55.210000,0.440674,0.927246,0.122314,0.411987,62.431332,-65.284729,1.0338952719632681
0 days 00:00:55.220000,0.412354,0.924316,0.114258,14.755248,79.719543,-67.405701,1.018553277809266
0 days 00:00:55.230000,0.390137,0.934326,0.120605,30.250547,95.146172,-69.229126,1.0196653956421196
0 days 00:00:55.240000,0.371094,0.966797,0.141357,41.900631,108.512871,-70.396423,1.0451741469697764
0 days 00:00:55.250000,0.366699,0.994385,0.173584,48.522945,117.202751,-70.770264,1.07396512507716
0 days 00:00:55.260000,0.351318,1.003174,0.209717,52.162167,120.788567,-69.816589,1.0834037250669761
0 days 00:00:55.270000,0.518799,0.951416,0.174561,-32.852173,-45.730587,-58.28857,1.0976412666158284
0 days 00:00:55.280000,0.270264,1.09375,0.203125,-3.211975,-80.68084,35.209656,1.14481066461708
0 days 00:00:55.290000,0.123291,0.906982,0.123047,7.537841,-105.682365,-43.945309,0.9235570275916912
0 days 00:00:55.300000,0.269531,1.123535,0.261475,4.196167,-67.642212,50.47607,1.184629491364705
0 days 00:00:55.310000,0.093994,0.91748,0.158203,8.06427,-116.447441,-34.255981,0.9357524307449059
0 days 00:00:55.320000,0.067627,0.917236,0.178467,7.522583,-124.687187,-28.358458,0.9368808680478005
0 days 00:00:55.330000,0.052979,0.915039,0.194336,6.553649,-134.002686,-21.064756,0.9369469712091502
0 days 00:00:55.340000,0.053955,0.907471,0.208008,5.462646,-143.013,-13.816833,0.9325674699076738
0 days 00:00:55.350000,0.05542,0.899902,0.218506,4.867554,-151.298523,-7.720947,0.9277067737383402
0 days 00:00:55.360000,0.061523,0.896973,0.23584,5.172729,-158.409119,-0.770569,0.9294977933583274
0 days 00:00:55.370000,0.268311,1.101074,0.24292,1.075745,-73.677063,43.479916,1.1590361826090678
0 days 00:00:55.380000,0.07959,0.907715,0.247559,6.690979,-165.451035,16.815186,0.9442280168508029
0 days 00:00:55.390000,0.081299,0.91333,0.250732,7.8125,-167.716965,23.124693,0.9506038881284885
0 days 00:00:55.400000,0.106689,0.921143,0.251221,9.315491,-166.702255,30.632017,0.9607283487078957
0 days 00:00:55.410000,0.138672,0.947021,0.249268,10.276793,-160.179138,39.505005,0.98904662875367
0 days 00:00:55.420000,0.08374,0.898926,0.245361,5.989074,-163.154587,8.605957,0.9355652630345999
0 days 00:00:55.430000,0.172363,1.009277,0.263672,6.355285,-142.868042,52.268978,1.0572946562250278
0 days 00:00:55.440000,0.156738,1.014893,0.276855,4.951477,-138.938904,56.930538,1.063589814316591
0 days 00:00:55.450000,0.141113,1.005127,0.29126,6.019592,-137.718201,61.546322,1.0559477034863043
0 days 00:00:55.460000,0.167969,0.981689,0.300781,10.757445,-135.307312,66.627502,1.0403826640438605
0 days 00:00:55.470000,0.229492,0.96875,0.29834,17.242432,-124.641411,69.824219,1.0393026008646375
0 days 00:00:55.480000,0.264648,0.97876,0.287354,20.89691,-104.713432,65.2771,1.053841554893334
0 days 00:00:55.490000,0.252197,1.027588,0.264893,18.333435,-87.593071,59.875484,1.090737698075023
0 days 00:00:55.500000,0.233887,1.100342,0.247803,12.260436,-75.424194,57.296749,1.151894948570398
0 days 00:00:55.510000,0.234863,1.14502,0.256104,8.499146,-67.169189,56.53381,1.1965871000411963
0 days 00:00:55.520000,0.255371,1.143066,0.270996,7.461547,-64.826965,55.580135,1.2021867824980441
0 days 00:00:55.530000,0.155762,0.983887,0.252197,8.575439,-150.07019,46.82159,1.0275693437535005
0 days 00:00:55.540000,0.188721,1.001709,0.052002,-13.023376,6.591796,21.316526,1.0206570161058022
0 days 00:00:55.550000,0.194336,1.008301,0.045654,-14.015197,-1.014709,19.050598,1.027872402204184
0 days 00:00:55.560000,0.193848,1.016846,0.039551,-14.625548,-9.674072,16.868591,1.0359136626287926
0 days 00:00:55.570000,0.190918,1.024414,0.027344,-14.762877,-18.981934,14.541625,1.0424113489673834
0 days 00:00:55.580000,0.137451,1.012695,0.004395,-11.45172,-56.709286,10.047912,1.0219898514422732
0 days 00:00:55.590000,0.180176,1.031006,0.014893,-13.481139,-36.834717,11.360168,1.0467371037949311
0 days 00:00:55.600000,0.170654,1.025879,0.005859,-12.763976,-44.822689,10.19287,1.0399927106658007
0 days 00:00:55.610000,0.156738,1.013916,0.001221,-12.168883,-51.757809,9.773254,1.0259600121549572
0 days 00:00:55.620000,0.188721,1.031494,0.019287,-14.419555,-28.19824,12.687682,1.0487933429641894
0 days 00:00:55.630000,0.185791,1.001221,0.052002,-11.589049,12.96997,23.468016,1.019640129911529
0 days 00:00:55.640000,0.134521,1.012451,0.083252,2.120972,7.728576,11.917113,1.0247359768964883
0 days 00:00:55.650000,0.177246,1.010498,0.055176,-8.712769,23.239134,27.351377,1.0274077785845306
0 days 00:00:55.660000,0.173584,1.019287,0.056885,-7.17926,27.343748,28.686522,1.0355256137102549
0 days 00:00:55.670000,0.170654,1.02124,0.061279,-5.470275,30.860899,30.059813,1.0372121485776187
0 days 00:00:55.680000,0.164307,1.022217,0.061523,-3.890991,33.103943,31.09741,1.0371641455753278
0 days 00:00:55.690000,0.157715,1.023682,0.061279,-2.624511,33.462524,31.219481,1.0375711899383098
0 days 00:00:55.700000,0.154541,1.02124,0.067627,-1.838684,32.501221,30.448912,1.0350784846619119
0 days 00:00:55.710000,0.155273,1.014648,0.070313,-1.25885,30.509947,28.625486,1.0288654850863646
0 days 00:00:55.720000,0.154297,1.002441,0.073486,-0.007629,27.595518,25.970457,1.016904968463622
0 days 00:00:55.730000,0.147705,0.993408,0.080078,1.312256,23.048399,22.575377,1.0075161078479093
0 days 00:00:55.740000,0.137695,1.001465,0.081055,2.166748,15.975951,17.807007,1.014131141556653
0 days 00:00:55.750000,0.116943,1.016113,0.003174,-10.94818,-59.280392,9.887695,1.0228251895089406
0 days 00:00:55.760000,0.179932,1.003906,0.054932,-10.131835,18.417358,25.573729,1.02138156733123
0 days 00:00:55.770000,0.118652,1.011475,0.003662,-10.459899,-59.707638,10.337829,1.018417096759967
0 days 00:00:55.780000,0.09668,1.079102,0.046387,12.123107,-61.06567,2.510071,1.0844168490820307
0 days 00:00:55.790000,0.112793,1.037842,0.012451,-9.437561,-58.784481,12.626647,1.0440274446651294
0 days 00:00:55.800000,0.139648,1.03125,0.08374,1.167297,-0.183105,5.279541,1.0440261079130158
0 days 00:00:55.810000,0.053223,1.01123,0.065186,14.274596,-5.813598,7.17926,1.0147255861684972
0 days 00:00:55.820000,0.061279,1.017334,0.067139,15.586852,-9.651184,6.91986,1.021386914307208
0 days 00:00:55.830000,0.057129,1.021973,0.062988,16.494751,-13.481139,6.431579,1.0255047652322244
0 days 00:00:55.840000,0.056152,1.025391,0.064697,16.937256,-18.600464,5.386352,1.0289632898184462
0 days 00:00:55.850000,0.046875,1.028076,0.060303,17.425537,-24.80316,4.295349,1.0309092972759533
0 days 00:00:55.860000,0.04834,1.034668,0.058105,17.784119,-31.867979,3.135681,1.0374250897529902
0 days 00:00:55.870000,0.044922,1.04126,0.057861,18.173218,-39.276123,2.159119,1.0438334488820522
0 days 00:00:55.880000,0.047363,1.051514,0.057373,18.455505,-46.142574,1.701355,1.054142593340199
0 days 00:00:55.890000,0.056641,1.066162,0.05127,17.906189,-51.177975,1.38092,1.0688957975523152
0 days 00:00:55.900000,0.119141,1.018555,0.008545,-10.246276,-59.196468,11.95526,1.0255349252614463
0 days 00:00:55.910000,0.063721,1.073975,0.050049,16.601563,-54.977413,0.732422,1.0770271904028235
0 days 00:00:55.920000,0.083496,1.080811,0.050293,13.389586,-60.386654,1.296997,1.085197394756364
0 days 00:00:55.930000,0.095947,1.073975,0.044189,11.016845,-60.760494,3.234863,1.079157446879277
0 days 00:00:55.940000,0.094238,1.067139,0.037598,9.773254,-61.210629,4.127502,1.0719515173593441
0 days 00:00:55.950000,0.095459,1.065674,0.034424,7.759094,-62.065121,5.393981,1.0704945150410627
0 days 00:00:55.960000,0.101074,1.068359,0.032715,5.584716,-62.652584,6.820678,1.0736280443347221
0 days 00:00:55.970000,0.10498,1.068604,0.026123,3.440857,-62.675472,8.293152,1.0740659757878006
0 days 00:00:55.980000,0.106445,1.067383,0.025635,1.121521,-61.958309,9.58252,1.072983764993208
0 days 00:00:55.990000,0.10376,1.065674,0.020996,-1.754761,-60.852047,10.742187,1.0709192518075301
0 days 00:00:56,0.109619,1.063477,0.013184,-4.928589,-59.799191,11.878966,1.0691929070780446
0 days 00:00:56.010000,0.108398,1.053223,0.015625,-7.484436,-58.891293,12.413024,1.0589017682287627
0 days 00:00:56.020000,0.074219,1.079834,0.052734,15.083312,-58.372494,0.640869,1.0836654475773415
0 days 00:00:56.030000,0.049072,1.008301,0.063965,12.855529,-1.800537,7.438659,1.0115189019538882
0 days 00:00:56.040000,0.146729,1.044678,0.089844,0.12207,-7.095336,-2.311707,1.0587508996270085
0 days 00:00:56.050000,0.145508,1.056885,0.095459,-0.144958,-16.960144,-18.196106,1.0711166612325662
0 days 00:00:56.060000,0.077881,0.789551,0.075439,0.75531,114.097588,25.955198,0.7969612753973684
0 days 00:00:56.070000,0.065674,0.758301,0.064697,2.174377,111.351006,23.994444,0.763884273097699
0 days 00:00:56.080000,0.05127,0.734375,0.05542,4.707336,108.200066,20.202635,0.738245643349827
0 days 00:00:56.090000,0.042725,0.730713,0.033936,6.736755,105.407707,15.266418,0.7327472730007256
0 days 00:00:56.100000,0.038574,0.741943,0.018555,7.118225,102.561943,8.720398,0.7431767331866627
0 days 00:00:56.110000,0.029053,0.768799,0.015381,6.233215,98.159782,0.823975,0.7695014973156322
0 days 00:00:56.120000,0.030273,0.8125,0.002441,3.692627,91.323845,-8.262634,0.8130674406283898
0 days 00:00:56.130000,0.037598,0.868896,0.005859,-0.015259,81.710808,-17.593384,0.8697288061809842
0 days 00:00:56.140000,0.049805,0.931396,0.005371,-3.738403,70.526123,-27.023314,0.9327421371858355
0 days 00:00:56.150000,0.053467,1.06665,-0.019287,-5.653381,46.134945,-42.854305,1.0681633446987404
0 days 00:00:56.160000,0.091064,0.828613,0.091064,0.679016,115.653984,26.161192,0.8385611533817913
0 days 00:00:56.170000,0.096436,1.160889,-0.033203,-9.384155,38.146973,-45.539852,1.16536072167634
0 days 00:00:56.180000,0.123047,1.367676,-0.029541,-23.628233,33.699036,-44.898983,1.3735177013296915
0 days 00:00:56.190000,0.103516,1.425537,-0.013184,-27.992247,31.60858,-40.27557,1.429351292888141
0 days 00:00:56.200000,0.0896,1.436523,0.00293,-30.372618,24.444578,-38.452148,1.439317572472802
0 days 00:00:56.210000,0.012451,1.427979,0.01416,-33.996582,10.803222,-37.124634,1.4281034827497623
0 days 00:00:56.220000,-0.077393,1.403076,0.023682,-37.643433,-10.70404,-34.370422,1.4054084016217492
0 days 00:00:56.230000,-0.113281,1.354248,0.055664,-38.269043,-35.247803,-30.4718,1.36011716824728
0 days 00:00:56.240000,-0.129395,1.276367,0.084717,-36.5448,-55.068966,-26.504515,1.2857032141217506
0 days 00:00:56.250000,-0.133545,1.170898,0.099854,-34.454346,-70.068359,-22.117613,1.1827118054475485
0 days 00:00:56.260000,-0.128906,1.07666,0.110596,-31.929014,-80.612175,-16.769409,1.0899747646858617
0 days 00:00:56.270000,0.144043,1.049561,0.0979,-0.061035,-12.626647,-10.0708,1.063913101982488
0 days 00:00:56.280000,0.13916,1.27124,-0.035645,-16.777039,34.843445,-47.279354,1.2793307661527569
0 days 00:00:56.290000,0.10498,0.87793,0.113037,-0.297546,115.45562,25.093077,0.8913805296667636
0 days 00:00:56.300000,0.048584,0.998047,-0.010986,-5.584716,58.280941,-36.506653,0.9992892031143937
0 days 00:00:56.310000,0.093018,0.995117,0.105713,-2.342224,110.748283,18.005371,1.0050300644169805
0 days 00:00:56.320000,0.108643,0.943604,0.109619,-2.975464,113.830559,22.544859,0.9561423196501658
0 days 00:00:56.330000,0.174805,1.074951,0.079834,-1.075745,-22.354124,-35.385132,1.0919935475917428
0 days 00:00:56.340000,0.190674,1.079346,0.074707,-1.983642,-22.956846,-43.823238,1.0986016101576586
0 days 00:00:56.350000,0.202148,1.070313,0.074463,-2.059937,-22.850035,-51.727291,1.0917776652056956
0 days 00:00:56.360000,0.203369,1.053467,0.072998,-0.900268,-21.965025,-58.593746,1.0753977767570473
0 days 00:00:56.370000,0.218262,1.035156,0.071289,1.747131,-19.966125,-65.193176,1.060315220347704
0 days 00:00:56.380000,0.245361,1.012207,0.072266,5.851745,-15.899657,-70.3125,1.0440246194060754
0 days 00:00:56.390000,0.262207,0.996582,0.086426,9.140015,-8.918762,-72.860718,1.034116844002166
0 days 00:00:56.400000,0.266846,0.999023,0.097168,10.139464,-0.549316,-71.876526,1.0386026008387423
0 days 00:00:56.410000,0.263916,1.00293,0.106934,10.124206,7.530212,-70.075989,1.0425713981843163
0 days 00:00:56.420000,0.259521,1.010986,0.113525,9.269714,15.472411,-67.657471,1.0499198861160788
0 days 00:00:56.430000,0.15625,1.065918,0.090088,-0.259399,-20.553587,-26.924131,1.0810694209753597
0 days 00:00:56.440000,0.240234,1.018066,0.130859,7.514953,32.028198,-59.570309,1.0541796967277448
0 days 00:00:56.450000,0.251953,1.019043,0.122559,8.003235,23.490904,-64.285278,1.0568583909583156
0 days 00:00:56.460000,0.135986,1.022217,0.113281,5.279541,102.684013,3.40271,1.0374258393957612
0 days 00:00:56.470000,0.164307,1.027832,0.110107,7.080078,97.511284,-4.447937,1.0466895250846835
0 days 00:00:56.480000,0.179688,1.031006,0.112793,8.56781,91.018669,-12.931823,1.0526079090663343
0 days 00:00:56.490000,0.197998,1.0271,0.121338,9.864807,82.94677,-21.911619,1.0530244670699727
0 days 00:00:56.500000,0.099854,1.013428,0.114258,2.044678,106.933586,11.146544,1.0247253403053913
0 days 00:00:56.510000,0.227295,1.013672,0.133301,10.06317,62.339779,-39.382935,1.0473600609198348
0 days 00:00:56.520000,0.229736,1.014648,0.139648,9.147644,51.513668,-46.905514,1.0496622111441376
0 days 00:00:56.530000,0.231934,1.016846,0.136475,8.056641,41.343685,-53.688046,1.0518529334926057
0 days 00:00:56.540000,0.215332,1.018066,0.126221,10.421752,73.097229,-30.84564,1.0482165765818627
0 days 00:00:56.550000,0.135498,1.012207,0.057861,-3.234863,-13.763427,1.739502,1.022873703921457
0 days 00:00:56.560000,0.130615,1.022705,0.053955,-4.875183,-16.876221,0.015259,1.0324228480981037
0 days 00:00:56.570000,0.12915,1.015625,0.05835,-4.966736,-17.00592,0.274658,1.02546505821749
0 days 00:00:56.580000,0.131104,1.008301,0.05835,-4.425049,-16.784668,0.526428,1.018461529915097
0 days 00:00:56.590000,0.129395,1.008789,0.052734,-4.013062,-16.601563,0.701904,1.0184199464376176
0 days 00:00:56.600000,0.131104,1.015381,0.046875,-4.058838,-16.349792,0.999451,1.024882480873783
0 days 00:00:56.610000,0.133789,1.017334,0.047607,-4.081726,-15.945434,1.144409,1.0271973474099318
0 days 00:00:56.620000,0.130615,1.025391,0.048096,-4.302979,-17.13562,-0.564575,1.0347947653143592
0 days 00:00:56.630000,0.133789,1.015381,0.053467,-3.967285,-15.411376,1.289368,1.025551944940382
0 days 00:00:56.640000,0.13501,1.014893,0.057129,-3.768921,-14.762877,1.541138,1.0254263621489357
0 days 00:00:56.650000,0.134766,1.011719,0.056396,-2.578735,-12.191772,2.075195,1.0222121690397743
0 days 00:00:56.660000,0.131592,1.018555,0.047363,-2.76947,-9.010315,4.78363,1.0281118597983394
0 days 00:00:56.670000,0.133057,1.020996,0.048096,-2.082825,-9.32312,3.662109,1.0307522604782393
0 days 00:00:56.680000,0.131836,1.025635,0.042969,-2.380371,-8.537292,4.219055,1.0349658057549536
0 days 00:00:56.690000,0.132324,1.025146,0.04541,-2.792358,-8.583069,4.547119,1.0346477808375176
0 days 00:00:56.700000,0.128662,1.01123,0.050293,-2.128601,-9.872437,4.78363,1.0206220696188184
0 days 00:00:56.710000,0.127441,1.014404,0.046875,-1.495361,-10.635375,4.943848,1.0234519770472867
0 days 00:00:56.720000,0.130859,1.014404,0.045654,-1.12915,-10.932921,5.081176,1.0238280328321745
0 days 00:00:56.730000,0.133789,1.013672,0.050049,-0.701904,-10.871886,5.104064,1.0236871213930552
0 days 00:00:56.740000,0.133789,1.010742,0.05249,-0.015259,-10.70404,5.027771,1.020908461707023
0 days 00:00:56.750000,0.138672,1.010742,0.052979,0.389099,-10.620116,4.66156,1.021585086318805
0 days 00:00:56.760000,0.129639,1.024658,0.046875,-3.356933,-17.845154,-1.060486,1.0338895264533827
0 days 00:00:56.770000,0.135986,1.015869,0.050293,-2.258301,-10.635375,2.76947,1.0261634388371084
0 days 00:00:56.780000,0.12915,1.022461,0.044678,-2.26593,-18.90564,-1.525879,1.0315533639637844
0 days 00:00:56.790000,0.140869,1.010742,0.051025,0.602722,-10.437011,4.127502,1.021786189156029
0 days 00:00:56.800000,0.132324,1.000732,0.046631,-1.197815,-20.812986,-2.067566,1.0105189889165864
0 days 00:00:56.810000,0.126465,0.995605,0.039795,4.966736,-33.13446,-5.41687,1.0043935256038838
0 days 00:00:56.820000,0.130371,0.996826,0.037109,4.119873,-32.722473,-5.584716,1.0059998756451216
0 days 00:00:56.830000,0.134766,1.00415,0.036621,3.318786,-31.791685,-5.462646,1.0138146748281955
0 days 00:00:56.840000,0.138672,1.011475,0.032471,2.166748,-30.006407,-4.974365,1.0214528697154852
0 days 00:00:56.850000,0.14624,1.022705,0.029785,0.686645,-27.282713,-4.28772,1.0335370340969887
0 days 00:00:56.860000,0.148438,1.036377,0.035156,-1.167297,-24.002073,-3.479004,1.0475433500858091
0 days 00:00:56.870000,0.150146,1.049072,0.037354,-3.158569,-20.660398,-2.563476,1.060420295833685
0 days 00:00:56.880000,0.151611,1.061768,0.039063,-5.065917,-17.425537,-1.747131,1.0732488523702226
0 days 00:00:56.890000,0.147705,1.07251,0.034424,-6.752014,-14.22119,-0.923157,1.0831802614989807
0 days 00:00:56.900000,0.143555,1.078369,0.031494,-8.140564,-11.810302,-0.305176,1.0883380036652215
0 days 00:00:56.910000,0.131104,1.010986,0.044434,-1.472473,-19.91272,-1.815796,1.0204191939433518
0 days 00:00:56.920000,0.140137,1.079834,0.031982,-8.888245,-10.353087,0.183105,1.089358845674372
0 days 00:00:56.930000,0.131592,1.070801,0.027832,-8.773804,-10.040282,0.328064,1.07921538920134
0 days 00:00:56.940000,0.123535,1.063477,0.025879,-7.530212,-10.879516,0.106812,1.070940683882632
0 days 00:00:56.950000,0.122803,1.05542,0.021484,-6.050109,-12.176513,-0.480652,1.0627575054851415
0 days 00:00:56.960000,0.12085,1.047607,0.022705,-4.989624,-14.038085,-1.266479,1.0547988746552586
0 days 00:00:56.970000,0.116211,1.043701,0.0354,-4.554749,-16.525269,-1.823425,1.050747321634464
0 days 00:00:56.980000,0.107422,1.036621,0.046143,-4.234314,-19.523621,-2.006531,1.0431930598762627
0 days 00:00:56.990000,0.109375,1.01416,0.057617,-3.532409,-22.125242,-1.831055,1.0216668316599105
0 days 00:00:57,0.12085,0.993164,0.067139,-2.5177,-23.307798,-1.800537,1.0027397961171183
0 days 00:00:57.010000,0.130859,0.983643,0.064941,-1.754761,-22.796629,-2.01416,0.9944319799820398
0 days 00:00:57.020000,0.135254,0.991699,0.051758,-1.38855,-21.713255,-2.105713,1.0022172627135297
0 days 00:00:57.030000,0.138428,1.077881,0.028564,-9.185791,-9.803772,0.358582,1.087108855377878
0 days 00:00:57.040000,0.141113,1.013184,0.046387,0.999451,-10.261535,3.860473,1.0240148682485035
0 days 00:00:57.050000,0.162109,1.028809,0.021973,-5.012512,23.849485,-8.087158,1.0417341787092331
0 days 00:00:57.060000,0.142578,1.016357,0.045166,1.716614,-9.536743,3.585815,1.0273022948913333
0 days 00:00:57.070000,0.137207,1.022705,0.024414,-6.622314,24.085997,-10.528563,1.0321566360150962
0 days 00:00:57.080000,0.136719,1.02417,0.025391,-7.385253,24.208067,-10.82611,1.0335671128388324
0 days 00:00:57.090000,0.138428,1.021484,0.027588,-8.163452,24.749754,-11.093139,1.0311900751966148
0 days 00:00:57.100000,0.13916,1.021484,0.030273,-8.69751,25.672911,-11.19995,1.0313639136526933
0 days 00:00:57.110000,0.131592,1.022217,0.029541,-9.254456,26.725767,-11.039733,1.0310755162615395
0 days 00:00:57.120000,0.124023,1.022217,0.022461,-9.803772,27.32086,-10.31494,1.0299581526154349
0 days 00:00:57.130000,0.117432,1.022461,0.020508,-10.208129,28.045652,-9.231567,1.0293868802393977
0 days 00:00:57.140000,0.11084,1.020752,0.023926,-10.45227,28.396605,-8.148193,1.027030965735698
0 days 00:00:57.150000,0.106934,1.015381,0.023682,-10.406493,28.053282,-7.232666,1.0212709202953936
0 days 00:00:57.160000,0.098145,1.013916,0.023926,-10.169982,27.336119,-6.057739,1.0189359889399334
0 days 00:00:57.170000,0.142334,1.023438,0.023438,-6.027221,24.536131,-10.078429,1.0335538917947145
0 days 00:00:57.180000,0.086914,1.009277,0.027344,-9.681702,25.955198,-4.692078,1.0133813697029366
0 days 00:00:57.190000,0.078369,1.000244,0.032227,-7.072448,20.843504,-2.243042,1.003826847233127
0 days 00:00:57.200000,0.072754,0.995117,0.036377,-5.462646,17.715454,-1.045227,0.9984359139844681
0 days 00:00:57.210000,0.066895,0.990479,0.040527,-3.959656,14.556884,0.1297,0.993562292055712
0 days 00:00:57.220000,0.060059,0.988037,0.044678,-1.930237,10.94818,1.213074,0.9908684678270876
0 days 00:00:57.230000,0.053711,0.984375,0.05249,0.434875,7.247924,2.716064,0.9872356417016153
0 days 00:00:57.240000,0.057373,0.984131,0.056885,2.929687,5.088806,4.257202,0.9874418410797671
0 days 00:00:57.250000,0.065918,0.98584,0.05835,5.195617,4.608154,5.393981,0.9897628053346923
0 days 00:00:57.260000,0.063965,0.987305,0.061523,7.575988,4.226685,6.355285,0.9912859142442204
0 days 00:00:57.270000,0.05957,0.98999,0.063721,10.208129,2.494812,6.980896,0.993825513277356
0 days 00:00:57.280000,0.055664,0.998779,0.065674,12.016295,0.556946,7.308959,1.0024824417479838
0 days 00:00:57.290000,0.081299,1.005615,0.030029,-8.628845,23.780821,-3.463745,1.0093427547008003
0 days 00:00:57.300000,0.1521,1.023193,0.020996,-5.462646,24.696348,-9.44519,1.0346492919173145
0 days 00:00:57.310000,0.143066,1.012695,0.048828,1.312256,-9.941101,3.746032,1.0239156298079446
0 days 00:00:57.320000,0.143799,1.019287,0.039063,2.037048,-8.964539,3.311157,1.0301213805853173
0 days 00:00:57.330000,0.159668,1.025391,0.019287,-5.226135,24.566648,-8.728027,1.037927050169712
0 days 00:00:57.340000,0.148193,1.023682,0.03418,2.105713,-7.865905,3.14331,1.0349175207585384
0 days 00:00:57.350000,0.153809,1.023926,0.032959,2.105713,-6.736755,2.952575,1.035938201650079
0 days 00:00:57.360000,0.151367,1.019775,0.033447,2.189636,-6.050109,2.754211,1.031490048969451
0 days 00:00:57.370000,0.14917,1.015381,0.036621,2.716064,-5.699157,2.410889,1.0269329879315399
0 days 00:00:57.380000,0.152344,1.013672,0.033691,2.89154,-5.432128,2.01416,1.0256094292668139
0 days 00:00:57.390000,0.157959,1.020264,0.035645,1.831055,-4.40979,0.762939,1.0330344821940844
0 days 00:00:57.400000,0.158936,1.019775,0.0354,1.411438,-3.509521,0.205994,1.0326930147536586
0 days 00:00:57.410000,0.162598,1.024658,0.037598,1.121521,-2.494812,-0.366211,1.0381597835458665
0 days 00:00:57.420000,0.171143,1.023926,0.032959,0.778198,-1.083374,-1.167297,1.0386532990396748
0 days 00:00:57.430000,0.172363,1.030762,0.027832,0.007629,0.358582,-2.128601,1.0454443670693339
0 days 00:00:57.440000,0.15625,1.016357,0.032715,2.510071,-5.004883,1.365662,1.0288177123154518
0 days 00:00:57.450000,0.163818,1.047119,0.023193,-2.14386,1.739502,-3.341675,1.060109641751267
0 days 00:00:57.460000,0.17041,1.049561,0.026123,-2.76947,2.906799,-4.005432,1.063626001915147
0 days 00:00:57.470000,0.179932,1.046387,0.025146,-2.89154,4.844666,-4.486084,1.0620421835826483
0 days 00:00:57.480000,0.180908,1.042725,0.023926,-2.738952,7.797241,-4.91333,1.058572427170196
0 days 00:00:57.490000,0.181885,1.039795,0.029785,-2.89154,11.299132,-5.41687,1.056003286678124
0 days 00:00:57.500000,0.178711,1.034424,0.033691,-3.295898,14.083861,-5.737304,1.0502883969548555
0 days 00:00:57.510000,0.175537,1.029053,0.037598,-3.448486,15.99121,-6.202697,1.0445941435706023
0 days 00:00:57.520000,0.173096,1.026367,0.039063,-3.417969,17.776489,-6.515502,1.0415936644747796
0 days 00:00:57.530000,0.170654,1.030762,0.033691,-3.860473,20.370481,-6.965637,1.0453363917136913
0 days 00:00:57.540000,0.165527,1.040039,0.026855,-1.075745,1.152039,-2.937317,1.053471167272745
0 days 00:00:57.550000,0.166504,1.02832,0.027588,-4.501343,22.323606,-7.5531,1.04207806912918
0 days 00:00:57.560000,0.516846,3.415527,-0.464111,249.511703,3.562927,29.197691,3.485448822715089
0 days 00:00:57.570000,0.56543,3.504639,-0.465576,249.992355,7.5531,11.215209,3.580358448116194
0 days 00:00:57.580000,0.729492,3.356689,-0.418945,249.992355,-5.15747,-23.567198,3.4604962843225247
0 days 00:00:57.590000,0.815186,2.93042,-0.412598,249.984726,-38.482666,-54.985043,3.069548289341609
0 days 00:00:57.600000,0.261963,1.260986,-0.532471,249.992355,-5.203247,-43.579098,1.3936411558955912
0 days 00:00:57.610000,0.640381,2.024658,-0.508545,249.992355,-89.75219,-78.460693,2.1835626529023617
0 days 00:00:57.620000,0.423584,1.693115,-0.577148,249.992355,-75.286865,-68.634033,1.8382496082374122
0 days 00:00:57.630000,0.301025,1.442139,-0.560791,249.992355,-44.525143,-57.212826,1.576346247379363
0 days 00:00:57.640000,0.513672,3.476807,-0.404053,249.542221,-12.992858,26.779173,3.5376976503994797
0 days 00:00:57.650000,0.771484,2.429199,-0.44165,249.992355,-75.149536,-73.951721,2.586745071775918
0 days 00:00:57.660000,0.366211,3.819092,-0.306152,249.992355,-58.433529,22.964476,3.848805431310993
0 days 00:00:57.670000,0.319092,4.038818,-0.309082,234.283432,-121.810905,19.355774,4.063176371302629
0 days 00:00:57.680000,1.093994,2.884521,-0.286377,189.308151,-144.554138,25.588987,3.098273076668033
0 days 00:00:57.690000,1.521484,3.231201,-0.404541,193.275436,-11.718749,118.904106,3.594332606387172
0 days 00:00:57.700000,1.833496,4.536133,-0.868408,28.686522,186.416611,187.995895,4.969139023026927
0 days 00:00:57.710000,2.423584,4.84375,-1.980469,-210.174545,247.978195,61.279293,5.766968954963864
0 days 00:00:57.720000,0.623535,2.987305,-2.174072,-249.43541,196.25853,7.827758,3.74691554754494
0 days 00:00:57.730000,0.176025,1.626221,0.053955,-245.681747,125.709526,56.205746,1.6366095085544994
0 days 00:00:57.740000,0.210449,1.426025,0.408203,-249.992355,98.709099,50.743099,1.4981541213890512
0 days 00:00:57.750000,0.368164,1.179688,0.544678,-249.992355,85.59417,46.722408,1.3505119888116508
0 days 00:00:57.760000,0.438232,0.892822,0.808838,-232.711777,88.348381,44.021603,1.2819505917748935
0 days 00:00:57.770000,0.258057,1.141846,-0.483398,249.992355,33.187866,-23.490904,1.2665225340944393
0 days 00:00:57.780000,0.55835,3.552734,-0.347412,174.308762,-158.241272,14.053344,3.613082990328343
0 days 00:00:57.790000,0.259521,1.068604,-0.414307,249.992355,64.01825,-0.076294,1.1751238013528618
0 days 00:00:57.800000,0.236084,1.636719,0.200439,233.42131,-22.789,233.93248,1.6657612472194208
0 days 00:00:57.810000,0.19458,0.95166,-0.257324,248.008713,104.812614,39.413452,1.0048551004876274
0 days 00:00:57.820000,0.047119,1.737305,0.49707,249.992355,0.38147,249.992355,1.8076303405525147
0 days 00:00:57.830000,0.080566,1.837646,0.468262,249.992355,-22.201536,249.992355,1.8980787660990257
0 days 00:00:57.840000,0.127686,1.947021,0.421875,249.992355,-35.194397,249.992355,1.996289809787647
0 days 00:00:57.850000,0.181152,2.0271,0.374023,249.992355,-41.244503,249.992355,2.0692616223264277
0 days 00:00:57.860000,0.206787,2.023193,0.345947,249.992355,-41.603085,249.992355,2.0629469468280077
0 days 00:00:57.870000,0.124512,1.990234,0.342773,249.992355,-39.56604,249.992355,2.02337044122647
0 days 00:00:57.880000,-0.025635,1.932373,0.409912,249.992355,-43.182369,249.992355,1.9755380057336278
0 days 00:00:57.890000,-0.118408,1.865723,0.485596,249.900803,-53.993221,249.900803,1.931513976757352
0 days 00:00:57.900000,-0.087891,1.809082,0.429688,249.992355,-63.903805,249.977097,1.8614871173201817
0 days 00:00:57.910000,0.016602,1.758545,0.349854,249.992355,-64.720154,249.992355,1.7930850411358075
0 days 00:00:57.920000,0.227051,0.998291,-0.345459,249.992355,88.188164,21.209715,1.0804994206213163
0 days 00:00:57.930000,0.152588,1.694824,0.266113,246.246323,-51.307674,246.467575,1.7223610589795046
0 days 00:00:57.940000,0.28125,1.617432,0.158203,215.621933,11.283874,222.564682,1.6493077415488597
0 days 00:00:57.950000,0.320557,1.607178,0.13623,193.85527,41.53442,211.395248,1.6444867061891988
0 days 00:00:57.960000,0.307861,1.575195,0.125,177.879318,67.466736,201.354965,1.6098579699296456
0 days 00:00:57.970000,0.291504,1.496582,0.070313,168.724045,89.096062,190.277084,1.5263276786814162
0 days 00:00:57.980000,0.317383,1.33667,0.065674,164.543137,102.653496,173.049911,1.3754023890720126
0 days 00:00:57.990000,0.306152,1.155518,0.134277,167.724594,108.947746,149.368286,1.2029053196976893
0 days 00:00:58,0.254639,0.997803,0.155762,180.732712,112.274162,123.489372,1.0414958702625758
0 days 00:00:58.010000,0.214111,0.903564,0.101318,201.271042,115.531914,97.648613,0.9340967613373895
0 days 00:00:58.020000,0.207031,0.879883,-0.003662,221.977219,116.806023,74.584961,0.90391887849187
0 days 00:00:58.030000,0.207031,0.912598,-0.123047,238.075241,113.601677,55.717464,0.9438418875924082
0 days 00:00:58.040000,0.278809,0.665527,0.921387,-184.097275,98.731987,43.579098,1.1703053661241583
0 days 00:00:58.050000,0.115967,0.523682,0.837402,-140.045166,109.016411,47.7066,0.9944512516041196
0 days 00:00:58.060000,0.243408,0.384521,0.743164,-94.924919,120.689384,42.312618,0.871433637634559
0 days 00:00:58.070000,-0.191895,1.195068,-0.015625,0.190735,96.42791,-0.328064,1.2104773257992072
0 days 00:00:58.080000,0.055176,1.152832,-0.02002,-26.031492,143.77594,7.011413,1.1543252624802076
0 days 00:00:58.090000,0.049072,1.149902,-0.063477,-31.539915,161.926254,12.550353,1.1526977055225711
0 days 00:00:58.100000,-0.003662,0.995361,-0.03833,-21.980284,183.494553,15.533446,0.9961054760741958
0 days 00:00:58.110000,-0.153076,0.897949,-0.03125,-4.829407,180.175766,12.901305,0.9114390988305253
0 days 00:00:58.120000,-0.325195,0.850098,-0.047119,14.427184,168.350204,8.232117,0.9113937665959758
0 days 00:00:58.130000,-0.345459,0.887695,-0.119141,21.530149,149.82605,0.732422,0.9599681825909648
0 days 00:00:58.140000,-0.304932,1.003662,-0.168945,13.145446,131.019592,-5.462646,1.0624798105813589
0 days 00:00:58.150000,-0.279297,1.135254,-0.110352,2.89154,115.211479,-4.40979,1.1743023557112537
0 days 00:00:58.160000,0.133301,0.444824,0.758301,-114.341728,116.035454,48.759457,0.8891894928405306
0 days 00:00:58.170000,-0.130615,1.146729,0.104492,9.094238,73.440552,5.104064,1.1588642093575934
0 days 00:00:58.180000,0.097656,1.141357,0.002441,-19.706726,124.931328,-0.473022,1.145529770135198
0 days 00:00:58.190000,-0.132568,1.12915,0.081543,12.5885,50.407406,8.911133,1.1398259770565857
0 days 00:00:58.200000,-0.086426,1.188232,0.009521,6.393432,5.386352,5.432128,1.191408993058639
0 days 00:00:58.210000,-0.04248,1.161621,-0.011719,6.393432,-11.520385,1.190186,1.162456551016854
0 days 00:00:58.220000,0.001465,1.10791,-0.005371,8.81958,-21.598814,-2.01416,1.1079239874495
0 days 00:00:58.230000,0.060059,1.081787,-0.008789,8.735657,-26.634214,-3.990173,1.0834885524872886
0 days 00:00:58.240000,0.093506,1.077881,0.025879,6.240844,-29.418943,-4.974365,1.0822386727695514
0 days 00:00:58.250000,0.0979,1.078613,0.061523,4.66156,-31.028746,-4.653931,1.084792834276665
0 days 00:00:58.260000,0.098633,1.059326,0.0625,4.829407,-32.173157,-4.577637,1.065742132490313
0 days 00:00:58.270000,0.105713,1.030273,0.060547,5.729675,-33.126831,-4.951477,1.0374505444150097
0 days 00:00:58.280000,0.111328,1.012939,0.057129,6.16455,-33.782959,-5.15747,1.0206385569563792
0 days 00:00:58.290000,0.116211,1.002441,0.04541,6.065368,-33.882141,-5.203247,1.0101757387217334
0 days 00:00:58.300000,-0.123779,1.165283,0.044189,9.20105,27.557371,8.43811,1.172671470894982
0 days 00:00:58.310000,0.119141,1.141846,-0.022949,-15.922545,107.810966,-4.890442,1.14827414940771
0 days 00:00:58.320000,0.056641,1.097656,-0.070313,-31.425474,176.429733,15.11383,1.1013631622612043
0 days 00:00:58.330000,0.11792,1.105225,0.115967,-7.919311,89.805595,-3.837585,1.1175311056583614
0 days 00:00:58.340000,0.258057,0.304199,0.695313,-76.072693,125.129692,36.254883,0.8016174990723443
0 days 00:00:58.350000,0.229492,0.204346,0.662598,-52.551266,124.198906,31.738279,0.7303834440785196
0 days 00:00:58.360000,0.19751,0.121582,0.666504,-24.162291,118.629448,27.534483,0.7057052960266063
0 days 00:00:58.370000,0.215088,0.089355,0.672119,1.693725,113.365166,20.843504,0.7113305236878283
0 days 00:00:58.380000,0.215576,0.114502,0.676025,20.38574,108.215324,17.417908,0.7187444054773574
0 days 00:00:58.390000,0.175293,0.19043,0.648682,28.343199,100.07476,16.357422,0.6984121690470463
0 days 00:00:58.400000,0.148926,0.299072,0.610596,26.725767,87.455742,11.886596,0.6960247767687584
0 days 00:00:58.410000,0.105957,1.13208,0.029053,-11.383056,95.512383,-4.219055,1.1373988258557328
0 days 00:00:58.420000,0.229004,0.522461,0.523438,11.070251,60.989376,-8.766174,0.7742064765816674
0 days 00:00:58.430000,0.271729,0.592773,0.524658,4.699707,52.017208,-15.403747,0.8369483233354374
0 days 00:00:58.440000,0.31958,0.613037,0.569824,4.211426,44.769283,-16.540527,0.8959046437791245
0 days 00:00:58.450000,0.170166,0.414795,0.565674,19.943237,73.005676,2.380371,0.7218022124217964
0 days 00:00:58.460000,0.322754,0.637939,0.595459,6.614685,41.038509,-14.526366,0.9304341636666187
0 days 00:00:58.470000,0.23999,1.049316,0.193359,-2.166748,89.767448,-8.087158,1.0936393239258544
0 days 00:00:58.480000,0.292725,1.019775,0.197754,-0.190735,87.387077,-10.169982,1.079229178981925
0 days 00:00:58.490000,0.341064,0.972412,0.23999,3.723144,80.703728,-8.308411,1.0580666094060431
0 days 00:00:58.500000,0.324463,0.907959,0.27417,7.591247,71.487427,-4.638672,1.0024145713974832
0 days 00:00:58.510000,0.178467,1.073242,0.180176,-4.638672,88.958733,-4.806519,1.10279746627792
0 days 00:00:58.520000,0.289795,0.798584,0.347412,9.979248,49.057003,-4.440308,0.9178304009047641
0 days 00:00:58.530000,0.297607,0.743896,0.445313,10.612487,42.396542,-6.095886,0.9166541622847736
0 days 00:00:58.540000,0.298584,0.687744,0.547852,9.017944,40.359493,-10.124206,0.928593575519452
0 days 00:00:58.550000,0.28125,0.85083,0.295654,9.742737,59.974667,-3.463745,0.943623091661072
0 days 00:00:58.560000,0.121094,0.997559,0.043457,5.752563,-33.607483,-5.226135,1.0058211700724937
0 days 00:00:58.570000,0.397949,1.447021,-0.437988,154.960632,140.403748,31.448362,1.5633511023394582
0 days 00:00:58.580000,0.298828,0.944092,0.273438,249.992355,60.630795,181.25914,1.02731505288884
0 days 00:00:58.590000,0.233887,0.9375,0.246582,249.992355,83.854668,169.952377,0.9972021166709385
0 days 00:00:58.600000,0.197998,0.978516,0.165527,237.480148,97.854607,149.520874,1.0119762635501883
0 days 00:00:58.610000,0.18042,1.028564,0.069824,217.330917,105.667107,124.244682,1.0465995745613506
0 days 00:00:58.620000,0.210205,1.095947,-0.01416,198.127731,111.846916,101.303093,1.1160136533367324
0 days 00:00:58.630000,0.284668,1.156738,-0.087891,181.755051,115.730278,84.892265,1.1944888022702431
0 days 00:00:58.640000,0.342285,1.216309,-0.125,170.242294,119.697563,71.746826,1.269721073585061
0 days 00:00:58.650000,0.336426,1.302246,-0.200195,160.819992,124.893181,60.447689,1.3598180525412213
0 days 00:00:58.660000,0.352295,1.376465,-0.324463,153.831482,131.454468,47.355648,1.4574099977765351
0 days 00:00:58.670000,0.35498,1.013916,0.239258,249.778732,32.302856,185.577377,1.1005820487451174
0 days 00:00:58.680000,0.718018,2.117188,-0.48877,192.22258,205.940231,-3.372192,2.288434178334173
0 days 00:00:58.690000,0.817871,2.558838,-0.54126,229.553207,230.766281,-12.5885,2.740351669126611
0 days 00:00:58.700000,0.705322,2.689209,-0.588379,249.992355,231.849655,-39.482117,2.841744889501167
0 days 00:00:58.710000,0.633545,2.834961,-0.533691,249.992355,191.444382,-55.572506,2.953507951915315
0 days 00:00:58.720000,0.993408,3.491211,-0.365479,249.992355,133.743286,-38.528442,3.648148653827856
0 days 00:00:58.730000,1.269531,4.2854,-0.381104,249.992355,124.038689,-4.257202,4.485710911190889
0 days 00:00:58.740000,0.712158,4.615479,-0.602051,249.877914,131.92749,24.108885,4.708745143135907
0 days 00:00:58.750000,-0.185547,4.0979,-0.813477,249.992355,78.384399,35.087585,4.181980024909014
0 days 00:00:58.760000,-0.445068,3.445068,-0.875977,249.992355,-14.564513,54.824825,3.5824453594963592
0 days 00:00:58.770000,-0.178467,3.136963,-0.869873,244.76622,-64.38446,25.955198,3.260224895553526
0 days 00:00:58.780000,0.500732,1.563965,-0.481689,164.367661,152.694702,13.801574,1.711357166043956
0 days 00:00:58.790000,0.358154,1.114014,0.202881,249.992355,2.89917,190.864548,1.1876288056766726
0 days 00:00:58.800000,0.607666,1.766846,-0.452148,176.620468,173.927292,0.37384,1.9223528732196906
0 days 00:00:58.810000,0.268311,1.276123,0.259766,249.992355,-52.085873,202.217087,1.3296462231007162
0 days 00:00:58.820000,-0.648193,2.199219,-0.862549,249.992355,-117.980949,-14.045714,2.4496344936767604
0 days 00:00:58.830000,-2.072754,-3.109863,1.807617,227.691635,-65.307617,47.348019,4.151510115846281
0 days 00:00:58.840000,-2.582275,-2.451416,1.272949,249.992355,3.02124,139.11438,3.7812674776167317
0 days 00:00:58.850000,-2.830078,-1.427734,1.179199,249.992355,25.947569,192.367538,3.3820520608708846
0 days 00:00:58.860000,-2.466064,-0.510986,1.388184,249.992355,61.027523,228.996262,2.8756969871924962
0 days 00:00:58.870000,-1.375488,0.083252,0.808838,249.992355,93.673698,243.972763,1.5978476284965346
0 days 00:00:58.880000,-0.360596,0.42334,0.131104,249.992355,106.811516,249.992355,0.5713444579515934
0 days 00:00:58.890000,0.056396,0.725098,-0.207275,249.992355,103.439323,249.992355,0.7562476737451825
0 days 00:00:58.900000,0.12915,1.075195,-0.189697,249.992355,87.409966,249.992355,1.0994130080793112
0 days 00:00:58.910000,0.116943,1.358643,-0.029785,249.992355,65.895081,249.992355,1.3639917935687884
0 days 00:00:58.920000,0.096924,1.553223,0.013672,249.992355,46.791073,249.992355,1.5563042353887624
0 days 00:00:58.930000,0.075928,1.648193,-0.027588,249.992355,19.935608,249.862656,1.6501716044633055
0 days 00:00:58.940000,0.043213,1.621094,-0.08374,249.992355,-20.370481,249.992355,1.6238305046417254
0 days 00:00:58.950000,0.033203,1.594727,-0.097412,249.992355,-67.878723,249.992355,1.598044349034782
0 days 00:00:58.960000,0.018066,1.625244,-0.018555,249.992355,-109.886162,242.530807,1.6254503154255437
0 days 00:00:58.970000,0.088623,1.655762,0.062744,249.992355,-137.771606,232.566818,1.6593187295721699
0 days 00:00:58.980000,0.172363,1.609619,0.088135,249.992355,-145.256042,222.221359,1.6212187104629034
0 days 00:00:58.990000,0.16626,1.510742,0.105713,249.992355,-135.215759,215.766891,1.523535039483175
0 days 00:00:59,0.163086,1.421875,0.118896,249.992355,-117.912285,213.363632,1.4361273682501143
0 days 00:00:59.010000,0.167969,1.346436,0.246582,249.992355,-103.202812,210.990891,1.3790961423269228
0 days 00:00:59.020000,0.162354,1.302246,0.363037,249.992355,-93.376152,207.824692,1.3616164398247401
0 days 00:00:59.030000,0.188477,1.300293,0.341797,249.992355,-84.480278,204.513535,1.3576121149234783
0 days 00:00:59.040000,0.227539,1.292236,0.314697,249.992355,-72.319031,203.262314,1.34932652757811
0 days 00:00:59.050000,0.326416,1.214355,0.218018,249.992355,-26.130674,198.066696,1.2762199337908025
0 days 00:00:59.060000,-1.606201,2.723877,-0.898926,249.992355,-182.449326,46.95892,3.2874694701253118
0 days 00:00:59.070000,-1.191406,-0.563965,0.501953,-249.992355,-105.613701,-190.093979,1.410482751496806
0 days 00:00:59.080000,0.92627,7.999756,-6.369873,-249.992355,-220.489487,-6.66809,10.267879732864278
0 days 00:00:59.090000,0.27002,1.980957,0.083984,-249.992355,93.299858,-249.992355,2.0010384175484988
0 days 00:00:59.100000,0.150635,2.549805,0.405762,-249.992355,128.372192,-223.449692,2.586279034035964
0 days 00:00:59.110000,0.038574,2.532715,0.647461,-249.992355,152.351379,-177.040085,2.6144481198184066
0 days 00:00:59.120000,0.023926,2.316406,0.685791,-249.992355,153.900146,-230.575546,2.4159094573251294
0 days 00:00:59.130000,-0.200928,1.635986,0.8125,-249.992355,124.465935,-249.992355,1.837655708608117
0 days 00:00:59.140000,-0.428223,0.930908,0.693604,-249.992355,87.425224,-249.992355,1.237356517342112
0 days 00:00:59.150000,-0.536133,0.463867,0.314209,-249.992355,59.585567,-249.870285,0.7754601750309296
0 days 00:00:59.160000,-0.582031,0.042969,0.143555,-249.992355,37.574768,-249.389633,0.6010111961910526
0 days 00:00:59.170000,-0.808594,-0.332031,0.296631,-249.748215,25.55847,-249.992355,0.9230703071586693
0 days 00:00:59.180000,-1.101318,-0.529053,0.449463,-249.992355,-0.946045,-242.103561,1.301850760380006
0 days 00:00:59.190000,-0.023926,2.439941,-0.051758,-249.992355,79.116821,-249.992355,2.4406071841902377
0 days 00:00:59.200000,-1.732422,-0.620117,0.791016,-238.891586,-227.348312,-119.659416,2.002882271135525
0 days 00:00:59.210000,-1.658691,-1.93335,2.168457,-28.32794,-249.992355,-73.600769,3.345340612976502
0 days 00:00:59.220000,-0.621338,-2.72168,2.260986,168.273911,-249.992355,70.4422,3.592444936925269
0 days 00:00:59.230000,-0.723633,-2.479004,1.772705,214.347824,-168.601974,88.050835,3.132345537728876
0 days 00:00:59.240000,-1.621582,-1.982178,1.361572,249.992355,-55.114742,49.911495,2.900419989862158
0 days 00:00:59.250000,-2.317627,-1.486572,1.214111,249.992355,24.513243,128.128052,3.0092119803420294
0 days 00:00:59.260000,-2.626953,-0.510254,1.518799,249.992355,93.238823,200.332626,3.077010174036803
0 days 00:00:59.270000,-2.037842,0.366943,1.419922,249.992355,120.948784,230.041489,2.51070222613057
0 days 00:00:59.280000,-0.87915,0.946289,0.983643,249.992355,107.284538,249.389633,1.6235520150183056
0 days 00:00:59.290000,-0.1604,1.273438,0.60791,249.992355,71.266174,249.992355,1.4201855751781174
0 days 00:00:59.300000,0.472412,6.361084,-2.005615,40.855404,-226.440414,35.072327,6.686482953019846
0 days 00:00:59.310000,-2.31665,-1.016113,1.304688,-197.936996,-248.16893,-95.062248,2.8463245824418903
0 days 00:00:59.320000,0.141846,3.072998,0.030518,-249.992355,57.640072,-249.290451,3.076421353463144
0 days 00:00:59.330000,0.029541,1.518066,0.552979,249.992355,32.249451,249.992355,1.6159154759695817
0 days 00:00:59.340000,0.422119,2.605469,0.130127,-249.992355,32.470703,-249.992355,2.64264757322103
0 days 00:00:59.350000,0.287842,2.789307,0.087646,-249.992355,40.435787,-249.992355,2.805488973161185
0 days 00:00:59.360000,1.199951,4.319336,-3.338867,-249.992355,-135.536194,97.518913,5.589685029318378
0 days 00:00:59.370000,0.583252,3.390869,-1.341797,-249.992355,-54.977413,165.687546,3.6930467990365354
0 days 00:00:59.380000,0.359131,2.708252,-0.431641,-249.992355,-69.717407,167.922958,2.765848499745783
0 days 00:00:59.390000,0.246094,1.963623,0.346191,-249.992355,-128.349304,114.356987,2.00903602542264
0 days 00:00:59.400000,0.250488,1.453857,0.411377,-249.992355,-173.850998,57.563778,1.531559809711002
0 days 00:00:59.410000,0.209961,1.239014,0.171387,-249.992355,-186.035141,11.871337,1.268311009762984
0 days 00:00:59.420000,0.098877,1.197998,0.079834,-249.992355,-182.022079,-12.001037,1.2047196091576662
0 days 00:00:59.430000,0.052002,1.22583,0.080566,-249.992355,-180.061325,-28.778074,1.229574835973801
0 days 00:00:59.440000,0.073975,1.275879,0.059814,-249.80925,-180.198654,-50.842281,1.2794206649347195
0 days 00:00:59.450000,0.125,1.27002,0.114258,-249.992355,-181.823715,-72.982788,1.281261367155039
0 days 00:00:59.460000,1.020264,6.593262,-6.494873,-249.992355,-249.992355,35.751343,9.311037413546838
0 days 00:00:59.470000,0.139404,1.25708,0.177734,-239.425644,-201.614365,-131.576538,1.2772129722062802
0 days 00:00:59.480000,0.172607,1.310547,0.279297,-221.96196,-213.500961,-159.133911,1.3510490109048598
0 days 00:00:59.490000,0.296631,1.335938,0.327881,-213.157639,-221.611008,-194.084152,1.4072051165931712
0 days 00:00:59.500000,0.435303,1.379395,0.386475,-209.342941,-218.376144,-231.246933,1.4971914351408107
0 days 00:00:59.510000,0.52417,1.495361,0.32666,-209.701523,-198.928818,-249.42778,1.6178892004154672
0 days 00:00:59.520000,0.632568,1.670166,0.199707,-218.261703,-163.49028,-249.992355,1.7970752983748344
0 days 00:00:59.530000,0.74292,1.89209,0.118896,-241.409286,-116.180412,-249.992355,2.0361903038065967
0 days 00:00:59.540000,0.75415,2.099854,0.174316,-249.992355,-65.704346,-249.992355,2.237971204388475
0 days 00:00:59.550000,0.673828,2.278076,0.219482,-249.992355,-20.63751,-249.992355,2.385759162967629
0 days 00:00:59.560000,0.536377,2.461426,0.200195,-249.992355,14.617919,-249.984726,2.52713202615732
0 days 00:00:59.570000,0.163574,1.196777,0.146973,-249.992355,-190.597519,-101.287834,1.2168125179886997
0 days 00:00:59.580000,2.085449,4.236084,-0.185303,249.992355,168.609604,-47.737118,4.725234638456168
0 days 00:00:59.590000,0.30542,1.133545,0.05249,249.832138,121.803276,163.352951,1.1751429034483423
0 days 00:00:59.600000,0.322998,1.063232,0.170166,249.992355,106.170647,189.132675,1.124164783910259
0 days 00:00:59.610000,0.351563,1.070801,0.210449,249.992355,87.417595,213.14238,1.1465165093320722
0 days 00:00:59.620000,0.274902,1.664063,0.169189,249.992355,-142.89093,242.607101,1.6950816190655835
0 days 00:00:59.630000,0.418457,1.412842,0.159424,249.992355,15.708922,238.792404,1.482108224654664
0 days 00:00:59.640000,0.407959,1.517578,0.193848,249.992355,-35.392761,240.028366,1.583366849112675
0 days 00:00:59.650000,0.382813,1.560791,0.199951,249.992355,-82.359306,237.449631,1.6194427254617558
0 days 00:00:59.660000,0.336914,1.60376,0.185303,249.992355,-118.682854,237.647995,1.6492102300207212
0 days 00:00:59.670000,0.394531,1.22583,0.171875,249.992355,58.906551,229.911789,1.2991747051440001
0 days 00:00:59.680000,0.308838,1.237061,-0.06665,249.908432,138.664246,139.602661,1.2767705551370614
0 days 00:00:59.690000,0.605225,1.626953,-0.459717,193.931564,193.35173,56.587215,1.7957207703100726
0 days 00:00:59.700000,0.40625,1.426758,-0.294922,244.316086,165.283188,108.345024,1.5125000625282632
0 days 00:00:59.710000,0.5,1.501709,-0.360352,219.375595,173.049911,91.873161,1.6232632209795799
0 days 00:00:59.720000,0.57373,1.564941,-0.399414,199.760422,181.724533,72.013855,1.713983077447674
0 days 00:00:59.730000,0.648438,1.704834,-0.536133,198.562607,210.594162,42.602535,1.901149494671316
0 days 00:00:59.740000,0.649902,1.857422,-0.587646,218.18541,233.398422,25.825499,2.053708089530739
0 days 00:00:59.750000,0.596436,2.083008,-0.622314,244.155869,244.232162,9.750366,2.2543142959126174
0 days 00:00:59.760000,0.503906,2.390625,-0.614746,249.992355,222.938522,-6.767272,2.5193097848373074
0 days 00:00:59.770000,0.593994,2.657227,-0.496826,249.992355,167.419418,-26.100157,2.76776449067492
0 days 00:00:59.780000,1.315186,3.190918,-0.294922,249.992355,128.799438,-40.176388,3.4639068814568326
0 days 00:00:59.790000,0.204346,1.745361,0.201904,249.992355,-155.799866,248.176559,1.7688435581625075
0 days 00:00:59.800000,0.340088,1.34082,-0.1875,249.992355,154.418945,121.528618,1.3959277811348263
0 days 00:00:59.810000,0.147705,1.806885,0.245361,249.992355,-161.201462,249.992355,1.8294404036674712
0 days 00:00:59.820000,-0.645264,1.145752,0.802246,249.992355,36.827087,243.63707,1.5403609705896861
0 days 00:00:59.830000,0.080322,1.837891,0.287842,249.992355,-158.279419,249.954208,1.862027918300099
0 days 00:00:59.840000,1.354736,4.832031,-0.338867,249.908432,238.929733,-14.343261,5.029777734487479
0 days 00:00:59.850000,-1.143555,-0.16748,1.178955,-249.992355,-62.110897,-218.711838,1.6509701634039302
0 days 00:00:59.860000,-1.204346,-0.537842,1.693359,-238.151535,-129.554749,-205.512985,2.14643611774518
0 days 00:00:59.870000,-1.224121,-0.903564,2.230225,-132.171631,-192.825302,-178.832993,2.6997784493106094
0 days 00:00:59.880000,-1.869873,-1.12793,2.668213,-33.248901,-240.455612,-117.889397,3.447899611995396
0 days 00:00:59.890000,-2.354492,-1.255127,2.952148,51.11694,-249.992355,-48.301693,3.979215271645529
0 days 00:00:59.900000,-1.889404,-1.307617,2.74585,140.975952,-249.992355,9.086609,3.5804192375202377
