t,ax,ay,az,gx,gy,gz,acc_mag
0 days 00:00:47.160000,-0.677979,-0.545654,-0.155029,39.352417,-35.40802,-151.367188,0.8839840513255881
0 days 00:00:47.170000,-0.434814,1.205811,-0.644043,206.20726,-249.992355,-97.793571,1.4345155168787824
0 days 00:00:47.180000,-0.190186,1.254639,-0.62207,161.872849,-211.616501,-57.998653,1.4132447841110187
0 days 00:00:47.190000,-0.272461,0.969482,-0.148926,-10.841369,-26.43585,4.486084,1.0179927791104413
0 days 00:00:47.200000,-0.267822,0.965576,-0.138428,-10.025024,-29.930113,3.112793,1.0115473032162163
0 days 00:00:47.210000,-0.266846,0.962402,-0.126709,-9.025574,-33.714294,1.594543,1.0067172234550277
0 days 00:00:47.220000,-0.26709,0.963867,-0.124268,-7.965087,-37.658691,-0.12207,1.0078785629295823
0 days 00:00:47.230000,-0.265625,0.962402,-0.11792,-6.736755,-41.572567,-2.02179,1.0053255077978476
0 days 00:00:47.240000,-0.259766,0.961914,-0.110107,-5.28717,-45.204159,-3.692627,1.0024372646709618
0 days 00:00:47.250000,-0.25293,0.960938,-0.106445,-3.890991,-48.324581,-5.271911,0.9993527719324141
0 days 00:00:47.260000,-0.253174,0.96582,-0.104248,-2.616882,-50.674435,-6.706237,1.0038789728747186
0 days 00:00:47.270000,-0.253906,0.966553,-0.102295,-1.327515,-52.612301,-7.4234,1.004568178706652
0 days 00:00:47.280000,-0.247314,0.963135,-0.102295,2.182007,-55.152889,-7.575988,0.9996286859859514
0 days 00:00:47.290000,-0.27124,0.971924,-0.1521,-11.489867,-22.644041,5.66101,1.0204615668294421
0 days 00:00:47.300000,-0.240967,0.960938,-0.103027,4.051208,-55.305477,-7.026672,0.9960328798096978
0 days 00:00:47.310000,-0.227539,0.965576,-0.096924,7.904052,-53.482052,-3.036499,0.9967473451547287
0 days 00:00:47.320000,-0.222656,0.969482,-0.094238,9.468079,-51.582333,-0.183105,0.9991755818193316
0 days 00:00:47.330000,-0.218262,0.975342,-0.089355,10.81848,-49.049374,3.089905,1.0034513608705706
0 days 00:00:47.340000,-0.212891,0.980957,-0.085449,11.314391,-45.745846,5.783081,1.0074228235110618
0 days 00:00:47.350000,-0.199463,0.983643,-0.079102,10.94818,-40.740963,8.514404,1.0067751319048361
0 days 00:00:47.360000,-0.195801,0.984619,-0.070313,10.612487,-33.660889,13.458251,1.006358049965816
0 days 00:00:47.370000,-0.187988,0.974854,-0.065918,10.810851,-24.780272,18.470764,0.9949999960723618
0 days 00:00:47.380000,-0.179443,0.96875,-0.0625,11.19995,-15.327453,22.682188,0.9872095029673286
0 days 00:00:47.390000,-0.167969,0.97168,-0.068848,10.498046,-4.890442,24.124144,0.988491605662385
0 days 00:00:47.400000,-0.304199,1.205322,-0.641113,187.30162,-249.992355,-76.782227,1.3987008379399792
0 days 00:00:47.410000,-0.234131,0.962402,-0.100586,5.966186,-54.77142,-5.531311,0.995566410723564
0 days 00:00:47.420000,-0.272217,0.979248,-0.153564,-12.100219,-18.562317,6.988525,1.0279156787835273
0 days 00:00:47.430000,-0.252686,0.96582,-0.101807,0.335693,-54.191586,-7.705688,1.0035054320954122
0 days 00:00:47.440000,-0.270508,0.99292,-0.159912,-12.489318,-12.725829,7.507324,1.0414588576645742
0 days 00:00:47.450000,-0.267822,0.989502,-0.159668,-12.641906,-15.335082,7.308959,1.0374664823077417
0 days 00:00:47.460000,-0.094482,1.346436,-0.550293,99.052422,-103.797905,-25.543211,1.4576141932174644
0 days 00:00:47.470000,-0.04541,1.337891,-0.471924,69.061279,-60.600277,-9.429932,1.4194106726937767
0 days 00:00:47.480000,0.008545,1.289551,-0.428467,44.784542,-28.121946,4.478455,1.3588961581794983
0 days 00:00:47.490000,0.076416,1.202637,-0.36377,27.435301,-10.559081,9.872437,1.2587707383495215
0 days 00:00:47.500000,0.039063,1.119385,-0.313965,15.396117,-3.372192,7.896423,1.1632380312812163
0 days 00:00:47.510000,-0.080322,1.056641,-0.253174,8.529663,2.159119,7.110595,1.0895131485397502
0 days 00:00:47.520000,-0.148193,1.029053,-0.202881,4.608154,6.408691,7.04956,1.0592789728013106
0 days 00:00:47.530000,-0.199951,1.018555,-0.182373,1.396179,10.116576,7.522583,1.0538949670413083
0 days 00:00:47.540000,-0.220947,1.017578,-0.171875,-1.243591,12.802123,7.545471,1.0553784053684252
0 days 00:00:47.550000,-0.22583,1.007324,-0.179199,-3.242492,12.908935,6.408691,1.0477657712852622
0 days 00:00:47.560000,-0.117676,1.314697,-0.605469,131.500244,-154.129028,-42.015072,1.452194392203055
0 days 00:00:47.570000,-0.262451,0.984375,-0.139648,-5.126953,9.712219,5.867004,1.0282880102043395
0 days 00:00:47.580000,-0.246338,0.991211,-0.171143,-4.516602,11.688231,5.844116,1.0356020390159533
0 days 00:00:47.590000,-0.270752,0.992432,-0.165771,-10.307311,-7.942199,7.019042,1.0419731016533007
0 days 00:00:47.600000,-0.267822,0.983643,-0.157227,-9.132385,-5.1651,6.538391,1.0315049707403257
0 days 00:00:47.610000,-0.267578,0.980957,-0.147705,-8.796692,-2.441406,6.370544,1.0274684369643672
0 days 00:00:47.620000,-0.263184,0.980713,-0.139404,-8.850098,0.007629,6.538391,1.0249376963703696
0 days 00:00:47.630000,-0.266846,0.995605,-0.166016,-11.627196,-10.45227,7.278442,1.0440294133773242
0 days 00:00:47.640000,-0.263916,0.993652,-0.132813,-7.980346,3.715515,6.477355,1.036646152324408
0 days 00:00:47.650000,-0.265869,0.996338,-0.131104,-6.820678,5.393981,6.286621,1.039501800970542
0 days 00:00:47.660000,-0.265869,0.990479,-0.131104,-5.92041,7.369995,6.011962,1.0338874374988798
0 days 00:00:47.670000,-0.26416,0.990479,-0.134766,-8.789063,2.059937,6.645202,1.0339202240971013
0 days 00:00:47.680000,-0.345459,-0.683594,-0.550049,200.637802,149.246216,22.766111,0.9429722052733049
0 days 00:00:47.690000,-0.537842,-0.699219,0.131348,183.197006,134.605408,45.043941,0.8918708000764461
0 days 00:00:47.700000,-0.529297,-0.755859,0.091309,192.886337,141.372681,42.686459,0.9272623553078169
0 days 00:00:47.710000,-0.488525,-0.822998,0.053955,203.498825,150.314331,38.963318,0.9585893415086566
0 days 00:00:47.720000,-0.425781,-0.862061,-0.00708,211.37999,162.284836,36.468506,0.9615033822519814
0 days 00:00:47.730000,-0.350098,-0.823486,-0.122559,209.037766,170.181259,36.338806,0.90317136263336
0 days 00:00:47.740000,-0.30835,-0.736084,-0.256104,197.967514,170.196518,37.246704,0.8381459517124686
0 days 00:00:47.750000,-0.518555,-0.677979,0.172119,175.346359,127.624504,44.197079,0.8707351851320814
0 days 00:00:47.760000,-0.315918,-0.672119,-0.364258,190.307602,165.847763,36.621094,0.8271831861498395
0 days 00:00:47.770000,-0.328613,-0.658936,-0.455566,192.443832,159.126282,31.875608,0.8658657726351123
0 days 00:00:47.780000,-0.373535,-0.705811,-0.631104,207.672104,139.503479,14.09912,1.0178358525626812
0 days 00:00:47.790000,-0.491943,-0.461914,-1.025879,168.144211,33.950806,-0.335693,1.227925152965766
0 days 00:00:47.800000,-0.338379,-0.693848,-0.815674,205.352768,120.651237,7.232666,1.123053635861173
0 days 00:00:47.810000,-0.351807,-0.661865,-0.900879,197.662338,102.821342,5.844116,1.1719285029877036
0 days 00:00:47.820000,-0.408936,-0.581787,-0.949951,186.897263,71.891785,3.166198,1.1866388110398212
0 days 00:00:47.830000,-0.527344,-0.404541,-1.124268,141.197205,8.850098,-4.28009,1.3060335565524341
0 days 00:00:47.840000,-0.45459,-0.386475,-1.206543,108.14666,10.513305,-5.149841,1.3460167177914248
0 days 00:00:47.850000,-0.336182,-0.412109,-1.226318,71.022034,28.747557,4.043579,1.336677972485894
0 days 00:00:47.860000,-0.276123,-0.580078,-1.019531,42.495724,44.174191,13.877868,1.2050634245441192
0 days 00:00:47.870000,-0.28418,-0.781494,-0.756104,33.927917,54.298397,16.937256,1.1239147668982734
0 days 00:00:47.880000,-0.347656,-0.822266,-0.691162,31.47888,71.769714,16.426086,1.1290221341213822
0 days 00:00:47.890000,-0.485596,-0.70166,0.24292,170.265182,120.971672,41.755672,0.8872093085715457
0 days 00:00:47.900000,-0.36377,-0.709961,-0.726807,209.251389,130.607605,9.269714,1.0791763756078059
0 days 00:00:47.910000,-0.456787,-0.772949,0.326416,166.587814,115.264885,38.490295,0.95532817661053
0 days 00:00:47.920000,-0.527344,-0.68335,-0.698975,19.615173,75.035095,5.477905,1.110686709860616
0 days 00:00:47.930000,-0.435059,-0.918457,0.414307,153.915405,104.728691,29.182432,1.0974925442020096
0 days 00:00:47.940000,-0.573975,-0.873535,0.949219,-149.169922,-167.861923,-52.864071,1.4119233006119702
0 days 00:00:47.950000,-0.56665,-0.874023,0.915039,-128.005981,-146.896362,-49.942013,1.386472069156101
0 days 00:00:47.960000,-0.576172,-0.879395,0.895752,-108.314507,-123.031609,-44.05212,1.381188395952196
0 days 00:00:47.970000,-0.571289,-0.914795,0.905029,-86.074821,-101.509087,-37.063599,1.407941229024493
0 days 00:00:47.980000,-0.552979,-0.959717,0.922607,-63.140865,-83.618156,-31.921385,1.4415429827025623
0 days 00:00:47.990000,-0.534424,-0.988281,0.883789,-44.822689,-68.305969,-27.44293,1.4294724003134862
0 days 00:00:48,-0.513916,-0.999756,0.804443,-30.838011,-54.870602,-22.666929,1.38229890213405
0 days 00:00:48.010000,-0.508301,-1.0,0.745605,-18.173218,-40.672298,-18.974304,1.3469583225274642
0 days 00:00:48.020000,-0.508789,-0.984131,0.703369,-7.194519,-25.3067,-16.50238,1.312291134559325
0 days 00:00:48.030000,-0.523926,-0.956055,0.65332,2.227783,-7.537841,-13.755797,1.2709707466739744
0 days 00:00:48.040000,-0.43335,-0.853027,0.372559,161.155685,109.199516,34.01947,1.0267655495340695
0 days 00:00:48.050000,-0.515625,-0.945313,0.610107,12.748717,9.925842,-10.185241,1.237625290644547
0 days 00:00:48.060000,-0.463135,-0.978271,0.602539,35.240173,36.689758,-3.005981,1.2387741618983665
0 days 00:00:48.070000,-0.424072,-1.019531,0.61084,47.416683,50.361629,0.709534,1.2619057123038155
0 days 00:00:48.080000,-0.405273,-1.044922,0.603516,56.846615,59.944149,3.227234,1.2729256666706819
0 days 00:00:48.090000,-0.423828,-1.044678,0.574707,64.849854,64.567566,5.348205,1.265413147204106
0 days 00:00:48.100000,-0.460205,-1.032715,0.5354,74.440002,66.772461,7.873535,1.250976447919784
0 days 00:00:48.110000,-0.472412,-1.014404,0.50708,86.883537,68.733215,10.482787,1.2285433241689119
0 days 00:00:48.120000,-0.465332,-0.999023,0.4646,100.685112,73.677063,13.435363,1.196007518685815
0 days 00:00:48.130000,-0.450439,-0.99292,0.442871,116.348259,83.580009,17.196655,1.1768263005907031
0 days 00:00:48.140000,-0.423096,-0.984131,0.456055,132.30896,92.994682,21.003721,1.1642638074774978
0 days 00:00:48.150000,-0.427979,-0.962891,0.449951,144.966125,99.975578,24.79553,1.1457665576909635
0 days 00:00:48.160000,-0.480713,-0.950928,0.595215,23.719786,22.918699,-6.744384,1.220503972045155
0 days 00:00:48.170000,-0.812256,-0.501709,-0.745361,-1.808166,38.825989,-2.777099,1.2112120997323301
0 days 00:00:48.180000,-0.609375,-0.860107,0.973145,-173.553452,-181.610092,-55.02319,1.4346195081271549
0 days 00:00:48.190000,-0.907959,-0.364746,-0.712891,-79.307556,-33.920288,12.21466,1.210637339618269
0 days 00:00:48.200000,-0.509277,-0.806152,0.884277,-9.124756,-91.590874,-79.719543,1.3004575819925845
0 days 00:00:48.210000,-0.485107,-0.818604,0.772949,15.785216,-86.174004,-82.427971,1.2259247394787334
0 days 00:00:48.220000,-0.404785,-0.838867,0.656494,36.773682,-80.444328,-85.037224,1.1395319705694966
0 days 00:00:48.230000,-0.310059,-0.862061,0.583984,53.916927,-73.028564,-90.080254,1.0864267409531116
0 days 00:00:48.240000,-0.324707,-0.864258,0.51416,63.438412,-64.491272,-95.03936,1.0567577925016687
0 days 00:00:48.250000,-0.425537,-0.846436,0.433105,68.130493,-57.182308,-96.54998,1.0416888122131291
0 days 00:00:48.260000,-0.462891,-0.796631,0.333984,69.038391,-47.340389,-99.32708,0.9800175204035895
0 days 00:00:48.270000,-0.42749,-0.758545,0.238525,70.94574,-26.084898,-104.789726,0.9027914447700531
0 days 00:00:48.280000,-0.408447,-0.751709,0.15918,78.857422,-1.76239,-106.765739,0.8701917288103812
0 days 00:00:48.290000,-0.405029,-0.747559,0.111572,84.007256,4.714966,-108.886711,0.8575204140462197
0 days 00:00:48.300000,-0.472168,-0.803467,0.941162,-39.031982,-100.257866,-75.515747,1.3244952814400663
0 days 00:00:48.310000,-0.440186,-0.75708,0.081787,85.517876,-3.051758,-114.768974,0.8795583859898103
0 days 00:00:48.320000,-0.429688,-0.746338,-0.03418,83.991997,-26.100157,-123.794548,0.8618703266663726
0 days 00:00:48.330000,-0.424805,-0.705322,-0.068115,79.116821,-31.295774,-126.838676,0.8261828277893459
0 days 00:00:48.340000,-0.408691,-0.661865,-0.096436,72.425842,-31.486509,-131.080627,0.7838325802121267
0 days 00:00:48.350000,-0.443848,-0.652344,-0.094482,66.520691,-22.682188,-136.352539,0.7946575298605054
0 days 00:00:48.360000,-0.459717,-0.653076,-0.076172,62.690731,-11.375426,-138.916016,0.8022781035582363
0 days 00:00:48.370000,-0.433838,-0.640137,-0.077881,58.41827,-8.750916,-140.090942,0.7772105500918011
0 days 00:00:48.380000,-0.472168,-0.613281,-0.109863,52.680965,-12.939452,-144.050598,0.7817455365744022
0 days 00:00:48.390000,-0.58374,-0.596924,-0.155029,46.82159,-16.235352,-148.963928,0.8491788034430676
0 days 00:00:48.400000,-0.689453,-0.596191,-0.18335,43.975826,-17.379761,-151.695251,0.9297345697509586
0 days 00:00:48.410000,-0.71167,-0.589844,-0.200439,42.320248,-22.384642,-151.84021,0.9458149533375967
0 days 00:00:48.420000,-0.446045,-0.763428,0.019287,86.395256,-15.464782,-119.895927,0.8843926964748182
0 days 00:00:48.430000,-0.422607,-0.805664,0.945801,-72.097778,-112.594597,-71.166992,1.3123378714896556
0 days 00:00:48.440000,-1.057617,-0.384033,-0.763916,-40.90118,-4.890442,3.77655,1.3600009995709563
0 days 00:00:48.450000,-0.341064,-0.782227,0.916504,-133.94165,-143.821716,-67.329407,1.2522712620039638
0 days 00:00:48.460000,-0.459229,-0.621826,-0.685791,-108.848564,-14.564513,22.613523,1.0333770581922168
0 days 00:00:48.470000,-0.142334,-1.351074,-0.449463,-75.805664,28.663633,22.247313,1.430970617937699
0 days 00:00:48.480000,0.125488,-2.067139,0.077881,70.007324,24.032591,-4.142761,2.072408341429362
0 days 00:00:48.490000,0.01001,-2.001221,-0.143799,187.759384,38.269043,-34.057617,2.006405702579117
0 days 00:00:48.500000,-0.152832,-1.390869,-0.712402,170.860275,32.554626,-51.643368,1.5701562995412273
0 days 00:00:48.510000,-0.377441,-0.619873,-1.381104,64.376831,-18.15033,53.833004,1.560177074381623
0 days 00:00:48.520000,-0.183594,-2.62207,-1.993164,176.97905,58.074947,89.561455,3.2987362084034544
0 days 00:00:48.530000,-2.757568,2.326904,-7.450928,112.724297,-139.076233,-175.987228,8.278586326240973
0 days 00:00:48.540000,-2.59668,2.893066,-1.857178,-249.992355,-249.992355,42.152401,4.308327752903672
0 days 00:00:48.550000,-0.056152,0.19165,0.36792,-249.992355,-249.992355,27.404783,0.4186262008092661
0 days 00:00:48.560000,-0.554932,-0.503906,-1.675049,-54.76379,38.497925,249.992355,1.8351185067621654
0 days 00:00:48.570000,-0.163818,-0.101074,-0.079102,-249.992355,-249.992355,-56.739803,0.20810914685327986
0 days 00:00:48.580000,-0.048584,-0.014404,-0.076904,-249.992355,-249.992355,-23.101805,0.09209834682555382
0 days 00:00:48.590000,-0.407959,-0.742188,1.10498,-195.274338,-171.485886,-67.276001,1.3922120432696308
0 days 00:00:48.600000,-0.506592,-0.716797,1.187256,-232.894882,-183.052048,-69.793701,1.4764857612618552
0 days 00:00:48.610000,-0.568115,-0.648682,1.151367,-249.992355,-195.678696,-70.274353,1.4384675731618006
0 days 00:00:48.620000,-0.524902,-0.530762,1.024414,-249.992355,-212.898239,-69.732666,1.2675387385180776
0 days 00:00:48.630000,-0.346436,-0.756836,0.97168,-163.665756,-159.194946,-66.627502,1.2794454483845725
0 days 00:00:48.640000,-0.380371,-0.275635,0.53418,-249.992355,-249.992355,-61.119076,0.7113403006058352
0 days 00:00:48.650000,-0.372314,-0.189209,0.271729,-249.992355,-249.992355,-59.349056,0.49825135194799014
0 days 00:00:48.660000,-0.2854,-0.14917,0.053223,-249.992355,-249.702438,-64.117432,0.3264008833152876
0 days 00:00:48.670000,-0.437256,-0.398438,0.806152,-249.580368,-235.092148,-66.101074,0.999913344487411
0 days 00:00:48.680000,-0.372559,-0.804688,0.923584,-103.591911,-127.79998,-68.260193,1.2803633823571337
0 days 00:00:48.690000,-0.50708,-0.939941,0.535889,24.253843,12.123107,-1.342773,1.1949042765853675
0 days 00:00:48.700000,-0.373047,-0.90918,0.769043,-69.374084,-124.160759,-16.456604,1.2478779878089044
0 days 00:00:48.710000,-0.406006,-0.908447,0.731201,-55.358883,-109.649651,-16.334534,1.2348164747224586
0 days 00:00:48.720000,-0.428223,-0.894287,0.704102,-43.830868,-93.345634,-14.35852,1.216093665184553
0 days 00:00:48.730000,-0.446533,-0.904785,0.671631,-32.691956,-73.738098,-12.794494,1.2120708793115194
0 days 00:00:48.740000,-0.450439,-0.945068,0.657959,-20.668028,-53.344723,-10.375976,1.2365107613870572
0 days 00:00:48.750000,-0.452881,-0.963867,0.638428,-9.895325,-37.315369,-7.5531,1.2416646507950526
0 days 00:00:48.760000,-0.51001,-0.95874,0.600342,-2.26593,-23.269651,-5.973815,1.2408477362932167
0 days 00:00:48.770000,-0.534912,-0.957031,0.584961,5.752563,-10.208129,-4.837036,1.242665906117167
0 days 00:00:48.780000,-0.519287,-0.948975,0.571533,14.549254,0.762939,-3.311157,1.2234633255978702
0 days 00:00:48.790000,-0.501953,-0.93042,0.264404,149.261475,93.498222,24.864195,1.0897466062461494
0 days 00:00:48.800000,-0.512451,-0.956543,0.449707,57.838436,41.305538,1.88446,1.174656087584362
0 days 00:00:48.810000,-0.493164,-0.962158,0.44043,69.541931,51.773067,4.394531,1.1674490707349936
0 days 00:00:48.820000,-0.476563,-0.958984,0.429688,80.398552,62.965389,6.980896,1.1538606426120097
0 days 00:00:48.830000,-0.467529,-0.966797,0.422607,91.63665,74.516296,8.621216,1.1540695306171982
0 days 00:00:48.840000,-0.469971,-0.988525,0.421143,103.446953,85.197441,11.894225,1.1727812425661488
0 days 00:00:48.850000,-0.459473,-1.016113,0.418945,115.859978,90.919487,15.449523,1.1912665442809178
0 days 00:00:48.860000,-0.469971,-1.033447,0.426514,127.113335,92.864983,17.601013,1.2127652843176209
0 days 00:00:48.870000,-0.481689,-1.033936,0.391357,137.367249,93.101494,19.958496,1.2059055710402866
0 days 00:00:48.880000,-0.482178,-0.996826,0.338623,145.263672,92.170708,22.300718,1.15793921865053
0 days 00:00:48.890000,-0.362549,-0.90625,0.836182,-87.028496,-135.597229,-14.427184,1.2852747476804327
0 days 00:00:48.900000,-0.494873,-0.936523,0.49585,34.889221,21.858213,0.534058,1.1695477066618531
0 days 00:00:48.910000,-0.380859,-0.891846,0.92749,-107.574455,-143.501282,-11.978148,1.3418943943906316
0 days 00:00:48.920000,-0.244141,0.113037,0.188232,-249.992355,-249.992355,19.90509,0.32834962627358055
0 days 00:00:48.930000,-0.556641,-0.815674,1.105713,-162.200912,-147.323608,-10.620116,1.4824892969347199
0 days 00:00:48.940000,-1.127686,-0.502686,-0.34668,-39.497375,-189.460739,36.598206,1.2824024140619823
0 days 00:00:48.950000,-1.053955,-0.556641,-0.329834,-68.321228,-209.693893,38.887024,1.2367137148354101
0 days 00:00:48.960000,-0.666748,-0.70874,-0.210449,-81.893913,-174.446091,71.716309,0.9955672075279499
0 days 00:00:48.970000,-0.143799,-1.231934,-0.170654,-62.736507,-122.51281,111.434929,1.2519833547108365
0 days 00:00:48.980000,0.427979,-1.818115,0.051025,47.363277,-113.166801,100.21209,1.8685052122729011
0 days 00:00:48.990000,0.343018,-1.819092,-0.403564,167.877182,-68.489075,40.435787,1.894629503328817
0 days 00:00:49,-0.607422,-1.489258,-1.5625,121.162407,14.86206,27.862547,2.242377561127474
0 days 00:00:49.010000,-0.548584,-0.67627,-2.118896,48.049923,37.361145,94.116203,2.2908526309590496
0 days 00:00:49.020000,-0.127441,-0.089355,-1.864014,-98.472588,156.738281,245.002731,1.8705009266776642
0 days 00:00:49.030000,-0.891846,-2.268799,-1.182861,109.184258,249.992355,236.656174,2.7096122112652945
0 days 00:00:49.040000,-2.91333,0.708496,-6.960938,168.540939,13.229369,-18.974304,7.5791896737553675
0 days 00:00:49.050000,-2.054443,2.706299,-1.901855,-238.021835,-247.573837,51.124569,3.8938210999832803
0 days 00:00:49.060000,-0.138672,0.235107,0.365234,-249.992355,-249.992355,52.093502,0.45596173061891937
0 days 00:00:49.070000,-0.506836,-0.866699,0.198975,151.519775,98.983757,29.022215,1.0235433249853176
0 days 00:00:49.080000,-0.349121,0.005615,0.470703,-249.992355,-249.992355,-12.527465,0.5860702304971649
0 days 00:00:49.090000,-0.523926,-0.095215,0.788574,-249.992355,-249.748215,-24.841307,0.951532082053464
0 days 00:00:49.100000,-0.709473,-0.209473,0.959473,-249.992355,-249.992355,-26.885984,1.211535931446938
0 days 00:00:49.110000,-0.815674,-0.322021,1.115723,-249.992355,-249.992355,-26.016233,1.4191051446055716
0 days 00:00:49.120000,-0.82251,-0.389404,1.187012,-249.587997,-239.486679,-25.466917,1.4957124267251376
0 days 00:00:49.130000,-0.806885,-0.458496,1.151123,-249.992355,-215.248093,-23.933409,1.4786365836032869
0 days 00:00:49.140000,-0.759521,-0.540039,1.137207,-249.992355,-191.413864,-20.271299,1.4702904583146148
0 days 00:00:49.150000,-0.702148,-0.630859,1.126709,-232.109055,-171.714767,-17.51709,1.4698530751289394
0 days 00:00:49.160000,-0.6604,-0.733154,1.14209,-196.121201,-155.334473,-14.663695,1.5093086217921106
0 days 00:00:49.170000,-0.432861,-0.86499,1.025635,-131.843567,-146.949768,-9.819031,1.4097884588284868
0 days 00:00:49.180000,-0.496582,-0.827393,0.163574,157.287598,109.802238,35.011292,0.9787386334711633
0 days 00:00:49.190000,-0.507324,-0.942871,0.459961,45.974728,30.990599,1.068115,1.1653100382035675
0 days 00:00:49.200000,-0.49585,-0.769287,0.126709,168.251022,127.311699,44.090267,0.9239723380870232
0 days 00:00:49.210000,-1.105713,-0.475098,-0.590332,-59.867855,-24.871824,3.875732,1.3404518708991382
0 days 00:00:49.220000,-0.633545,-0.541992,-0.58374,-75.706482,-45.81451,12.519835,1.017785332321605
0 days 00:00:49.230000,-0.158936,-0.776611,-0.626221,-86.60125,-43.05267,51.376339,1.0102168273484657
0 days 00:00:49.240000,0.110107,-1.345947,-0.36084,-50.025936,-48.385616,58.937069,1.3978205835721549
0 days 00:00:49.250000,0.338379,-1.885986,-0.075928,58.349606,-66.055298,12.176513,1.9176049126504136
0 days 00:00:49.260000,0.047607,-1.952881,-0.637207,134.460449,-31.173704,-10.116576,2.0547611509513706
0 days 00:00:49.270000,-0.219238,-1.408447,-1.187256,115.089409,-34.423828,-5.882263,1.8550916586489736
0 days 00:00:49.280000,-0.143799,-0.5,-1.483154,17.585754,-63.903805,88.462822,1.5717582320818302
0 days 00:00:49.290000,-0.402832,-1.433105,-1.054443,2.799988,97.572319,249.992355,1.8242569998489797
0 days 00:00:49.300000,0.880371,-2.17041,-1.60376,249.992355,211.906418,91.934196,2.838622694783687
0 days 00:00:49.310000,-1.215576,-0.443115,-0.561035,-39.802551,13.259887,13.526916,1.4102255799076968
0 days 00:00:49.320000,-3.324463,5.006592,-6.724854,-62.179562,-56.098934,-114.936821,9.01896219163541
0 days 00:00:49.330000,0.029297,0.012939,0.142334,-249.992355,-249.992355,4.753113,0.1458927670791119
0 days 00:00:49.340000,-0.025391,-0.207764,0.170898,-249.992355,-249.992355,-27.832029,0.2702160413095418
0 days 00:00:49.350000,-0.186523,-0.343506,0.264893,-249.992355,-249.984726,-47.058102,0.472181641970545
0 days 00:00:49.360000,-0.315918,-0.438232,0.449707,-249.992355,-249.67955,-57.28912,0.7029138314167677
0 days 00:00:49.370000,-0.453125,-0.523193,0.550537,-249.992355,-249.992355,-66.375732,0.8843891503422009
0 days 00:00:49.380000,-0.516602,-0.572266,0.646729,-249.67955,-249.992355,-69.05365,1.0062924031319127
0 days 00:00:49.390000,-0.505127,-0.619141,0.762451,-249.992355,-232.460007,-69.396973,1.1044547937380689
0 days 00:00:49.400000,-0.526611,-0.678711,0.866699,-249.992355,-212.448105,-68.115234,1.2203011609610965
0 days 00:00:49.410000,-0.56958,-0.747559,0.930908,-236.839279,-200.042709,-64.552307,1.3228210534100975
0 days 00:00:49.420000,-0.608643,-0.816895,0.963135,-203.910812,-191.09343,-59.089657,1.4019246665563025
0 days 00:00:49.430000,-1.35498,1.116455,-0.590088,-249.992355,-249.992355,28.114317,1.8522004252156405
0 days 00:00:49.440000,-1.050293,-0.520508,-0.48584,-10.345458,61.264034,23.727415,1.2688910392594788
0 days 00:00:49.450000,-0.477539,-0.797363,0.143066,164.764389,120.704643,40.519711,0.9403718044720397
0 days 00:00:49.460000,-0.531738,-0.947754,-0.478516,27.397154,95.870964,34.500122,1.1874175792096056
0 days 00:00:49.470000,-0.548096,-0.763672,0.108643,170.913681,130.180359,46.32568,0.9462597160658379
0 days 00:00:49.480000,-0.571533,-0.770264,0.071045,176.864609,128.707886,46.150204,0.9617712783245297
0 days 00:00:49.490000,-0.58252,-0.755859,0.016846,181.610092,126.15966,45.005795,0.9544297595931301
0 days 00:00:49.500000,-0.55835,-0.717773,-0.087646,180.564865,122.589104,44.021603,0.9135833970388254
0 days 00:00:49.510000,-0.519775,-0.680908,-0.189453,175.369247,118.415825,43.739315,0.8773221724645969
0 days 00:00:49.520000,-0.495361,-0.688232,-0.241943,172.096237,116.920464,43.266293,0.8818062266700093
0 days 00:00:49.530000,-0.76709,-0.756836,-0.472412,19.14978,95.054619,32.402039,1.1766056674774263
0 days 00:00:49.540000,-0.374756,-0.759766,-0.333496,182.785019,118.209831,42.579647,0.9104427583917619
0 days 00:00:49.550000,-0.311035,-0.777344,-0.395508,186.225876,116.561882,42.03796,0.9259768051225689
0 days 00:00:49.560000,-0.298828,-0.769775,-0.45874,183.158859,116.21093,41.084286,0.9446132075135303
0 days 00:00:49.570000,-0.288818,-0.739014,-0.553223,176.399216,114.334099,36.224365,0.9672710153049144
0 days 00:00:49.580000,-0.452148,-0.7229,-0.273438,175.483688,118.293755,43.014523,0.8954275871046189
0 days 00:00:49.590000,-0.378174,-0.716797,-0.733154,168.258652,102.897636,23.307798,1.0928532843895378
0 days 00:00:49.600000,-0.319824,-0.712646,-0.656494,170.211777,109.466545,29.541014,1.020360761852395
0 days 00:00:49.610000,-0.39624,-0.703857,-0.732178,5.783081,56.335445,22.125242,1.090185964747758
0 days 00:00:49.620000,-0.300537,-0.488281,-0.96582,21.179197,44.525143,16.349792,1.123187026158155
0 days 00:00:49.630000,-0.318604,-0.333252,-1.2229,52.87933,48.904415,12.992858,1.3069237982070723
0 days 00:00:49.640000,-0.518066,-0.34668,-1.275146,100.158684,46.203609,4.226685,1.419357856240631
0 days 00:00:49.650000,-0.462646,-0.918701,-0.5271,14.991759,78.00293,29.319761,1.1558058914527993
0 days 00:00:49.660000,-0.439697,-0.609863,-1.036621,155.189514,36.254883,-10.276793,1.280566057733454
0 days 00:00:49.670000,-0.327148,-0.660156,-0.966553,166.275009,53.1311,-0.434875,1.2153421164630969
0 days 00:00:49.680000,-0.335205,-0.700684,-0.872803,171.401962,75.256348,9.162903,1.1683773092156489
0 days 00:00:49.690000,-0.376953,-0.723389,-0.799072,170.17363,92.407219,16.418457,1.1418849638707045
0 days 00:00:49.700000,-0.579102,-0.499023,-1.123779,137.702942,35.728455,-8.720398,1.3591402877458971
0 days 00:00:49.710000,-0.74585,0.800781,0.060303,-18.363953,38.406372,145.454407,1.0959830675106252
0 days 00:00:49.720000,-0.7854,0.801025,0.07959,-15.731811,46.813961,146.377563,1.1246460682032369
0 days 00:00:49.730000,-0.799561,0.812988,0.099609,-14.205932,50.437923,146.583557,1.144626241943631
0 days 00:00:49.740000,-0.826416,0.82959,0.120117,-14.282226,49.736019,146.92688,1.17711981838936
0 days 00:00:49.750000,-0.865967,0.839355,0.138672,-14.183043,43.251034,146.751404,1.2139380481301343
0 days 00:00:49.760000,-0.912354,0.841797,0.154297,-12.931823,28.999327,145.03479,1.2509274858016353
0 days 00:00:49.770000,-0.963379,0.83667,0.17334,-10.391234,7.339477,143.066406,1.2876966032963666
0 days 00:00:49.780000,-1.006348,0.833496,0.190918,-8.010864,-19.866943,141.914368,1.3205686509394352
0 days 00:00:49.790000,-1.015869,0.835938,0.211914,-5.271911,-49.369808,141.990662,1.332550077258262
0 days 00:00:49.800000,-1.015137,0.850342,0.239258,-3.059387,-79.338074,143.295288,1.3456704783478755
0 days 00:00:49.810000,-0.872314,0.844971,-0.017334,-8.895874,-141.479492,212.600693,1.2145814805903308
0 days 00:00:49.820000,-1.055664,0.91333,0.2771,0.053406,-132.118225,152.488708,1.4231593655652202
0 days 00:00:49.830000,-1.058594,0.945313,0.266602,-0.595093,-151.000977,158.630371,1.4440618238873986
0 days 00:00:49.840000,-1.062744,0.969482,0.254883,-0.87738,-164.993271,162.536606,1.4609194028244676
0 days 00:00:49.850000,-1.089355,0.97168,0.223389,-1.083374,-175.697311,166.870102,1.4767393079843172
0 days 00:00:49.860000,-1.130371,0.955566,0.18042,-1.228333,-185.050949,174.301132,1.491105748898112
0 days 00:00:49.870000,-1.120361,0.921631,0.153809,0.907898,-191.810593,180.076584,1.458859033273263
0 days 00:00:49.880000,-1.020752,0.87793,0.117432,1.754761,-196.105942,183.1436,1.3514754918340177
0 days 00:00:49.890000,-0.947266,0.870117,0.09082,0.450134,-194.702133,186.233505,1.2894435779998286
0 days 00:00:49.900000,-0.892334,0.871582,0.074463,-4.959106,-189.910873,193.305954,1.2495838861993218
0 days 00:00:49.910000,-0.862549,0.859619,0.033447,-8.621216,-173.355087,202.522263,1.2182176752826237
0 days 00:00:49.920000,-0.706055,0.806885,0.043945,-20.446775,25.146482,144.126892,1.0730835145854214
0 days 00:00:49.930000,-1.031738,0.878174,0.269043,-1.121521,-108.062737,146.461487,1.3813243684120686
0 days 00:00:49.940000,-0.675293,0.804443,0.037354,-22.018431,5.523681,142.791748,1.0509731192632856
0 days 00:00:49.950000,-0.829834,1.020752,0.04834,-15.99121,-140.830994,62.614437,1.3163950275886034
0 days 00:00:49.960000,-0.69165,0.846191,0.015625,-27.481077,-46.936031,137.931824,1.0930064371292605
0 days 00:00:49.970000,-0.871094,0.8125,-0.065918,-5.584716,-103.660576,221.321091,1.193023968560565
0 days 00:00:49.980000,-0.467773,1.006348,-0.126709,-55.885311,96.05407,-6.973266,1.116961524545049
0 days 00:00:49.990000,-0.555664,1.01416,-0.171875,-55.572506,62.370296,-14.045714,1.1691124848024677
0 days 00:00:50,-0.637695,1.038818,-0.177002,-55.374142,27.626036,-16.296387,1.231717280122756
0 days 00:00:50.010000,-0.687988,1.06543,-0.164795,-58.486935,-3.013611,-12.771605,1.2789159335425453
0 days 00:00:50.020000,-0.719238,1.046631,-0.105957,-59.822079,-28.610228,-6.149292,1.2743494954893655
0 days 00:00:50.030000,-0.767334,0.987305,0.002197,-52.093502,-52.101131,-0.259399,1.2504309086830827
0 days 00:00:50.040000,-0.824707,0.934814,0.094482,-39.474487,-76.660156,3.845215,1.2501782667959798
0 days 00:00:50.050000,-0.869629,0.933105,0.126221,-28.877256,-100.234978,12.268065,1.2817454035443232
0 days 00:00:50.060000,-0.884521,0.984863,0.111816,-25.291441,-118.766777,25.482176,1.328471055787818
0 days 00:00:50.070000,-0.65918,0.813477,0.028809,-24.597166,-20.202635,140.708923,1.0474221023111934
0 days 00:00:50.080000,-0.848145,1.028076,0.109619,-22.140501,-130.706787,34.942627,1.3372757860523758
0 days 00:00:50.090000,-0.82251,1.033447,0.057373,-16.189575,-139.10675,51.010128,1.3220541074547592
0 days 00:00:50.100000,-0.848145,1.001709,0.041748,-14.457702,-143.608093,72.395325,1.3132074311433057
0 days 00:00:50.110000,-0.860107,0.981445,0.033691,-13.153075,-147.064209,80.490105,1.3054322743654685
0 days 00:00:50.120000,-0.859375,0.972412,0.025635,-12.916564,-149.543762,88.722221,1.297985994375132
0 days 00:00:50.130000,-0.845703,0.976563,0.016357,-14.572143,-149.787903,98.716728,1.2919583618007973
0 days 00:00:50.140000,-0.820313,0.98877,0.00293,-18.684387,-146.026611,109.352104,1.2847521612237125
0 days 00:00:50.150000,-0.769531,0.989746,-0.006836,-24.902342,-135.4599,120.124809,1.253723189293793
0 days 00:00:50.160000,-0.683594,0.961914,-0.01123,-30.570982,-118.072502,128.814697,1.1801294052484246
0 days 00:00:50.170000,-0.655273,0.915771,-0.009277,-31.425474,-95.970146,132.133484,1.1261018123149436
0 days 00:00:50.180000,-0.70166,0.880615,0.005371,-29.159544,-71.487427,134.338379,1.1259832953760904
0 days 00:00:50.190000,-0.820068,1.035889,0.099365,-17.021179,-137.039185,40.481564,1.324934318436201
0 days 00:00:50.200000,-0.407471,1.009277,-0.072021,-53.482052,121.971123,0.465393,1.0908069045486464
0 days 00:00:50.210000,-1.040527,0.752197,-0.163818,13.999938,-34.622192,238.174423,1.2943465925562596
0 days 00:00:50.220000,-1.071045,0.727783,-0.220703,23.742674,-10.635375,247.405991,1.3135887108691975
0 days 00:00:50.230000,-0.37915,-0.248779,-0.375732,-17.959595,44.631954,155.487061,0.5889144667649114
0 days 00:00:50.240000,-0.26709,-0.279297,-0.442383,-15.396117,42.655941,145.439148,0.5874066742879247
0 days 00:00:50.250000,-0.12207,-0.32373,-0.488037,-14.068603,39.749146,129.127502,0.5982326563879642
0 days 00:00:50.260000,-0.012207,-0.379639,-0.541016,-9.94873,37.284851,113.945,0.661039403837623
0 days 00:00:50.270000,0.059814,-0.438232,-0.568359,-4.333496,36.79657,103.72924,0.7201784176862008
0 days 00:00:50.280000,0.117188,-0.496094,-0.572021,4.798889,36.628723,93.208305,0.7661920833713958
0 days 00:00:50.290000,0.108398,-0.541016,-0.549072,14.488219,33.332825,79.315186,0.7784140927835261
0 days 00:00:50.300000,0.009033,-0.559814,-0.53418,20.89691,27.565001,64.109802,0.7738356298885443
0 days 00:00:50.310000,-0.126709,-0.559326,-0.53418,24.955748,19.325256,51.23901,0.7837404017638748
0 days 00:00:50.320000,-0.269531,-0.545166,-0.533203,28.915403,9.269714,41.999813,0.808800572901627
0 days 00:00:50.330000,-0.478516,-0.2146,-0.360107,-27.6947,43.502804,159.431458,0.6361664669762153
0 days 00:00:50.340000,-0.37793,-0.515869,-0.541992,31.967161,-0.740051,33.966064,0.8382763494963936
0 days 00:00:50.350000,-0.496826,-0.478271,-0.579102,27.236937,-13.153075,15.060424,0.9005211547326359
0 days 00:00:50.360000,-0.597168,-0.515137,-0.581055,19.065857,-7.92694,7.110595,0.9795920896056685
0 days 00:00:50.370000,-0.724854,-0.619873,-0.537842,11.947631,5.325317,4.714966,1.0949565627955293
0 days 00:00:50.380000,-0.802002,-0.776123,-0.44043,12.283324,19.348145,9.407043,1.1998136122052458
0 days 00:00:50.390000,-0.840576,-0.911377,-0.369873,18.943787,35.415649,17.570496,1.29382459554377
0 days 00:00:50.400000,-0.910645,-0.95459,-0.32959,24.604795,45.56274,24.337767,1.3598330604250657
0 days 00:00:50.410000,-1.070557,-0.874023,-0.313721,20.805357,32.279968,30.395506,1.4171906578223694
0 days 00:00:50.420000,-1.345947,-0.702637,-0.29126,4.013062,-0.38147,37.452698,1.545996270428231
0 days 00:00:50.430000,-1.409912,-0.541504,-0.251953,-16.670227,-59.997555,44.639584,1.5311952011317824
0 days 00:00:50.440000,-1.205322,-0.476807,-0.250732,-25.764463,-134.880066,45.112606,1.3202320155021994
0 days 00:00:50.450000,-0.439453,-0.484863,-0.565186,31.906126,-9.277344,25.062559,0.8646654165479268
0 days 00:00:50.460000,-0.623779,-0.156006,-0.44043,-38.948059,37.597656,164.12352,0.7793694231729905
0 days 00:00:50.470000,-0.921143,0.775635,-0.109863,3.059387,-67.260742,228.675827,1.2092079880826954
0 days 00:00:50.480000,-0.606934,0.049561,-0.520508,-45.951839,28.808592,188.232407,0.8010953446007534
0 days 00:00:50.490000,-0.997803,0.703613,-0.267822,29.449461,-1.495361,249.946579,1.249964281194467
0 days 00:00:50.500000,-1.031738,0.699463,-0.302002,31.73065,-0.541687,249.992355,1.2825509724829651
0 days 00:00:50.510000,-1.101074,0.696289,-0.342773,33.01239,-2.113342,249.992355,1.3470989772566826
0 days 00:00:50.520000,-1.096924,0.667969,-0.370361,35.40802,-7.278442,247.047409,1.3366346236193347
0 days 00:00:50.530000,-1.084961,0.625977,-0.370361,37.231445,-15.426635,243.347153,1.3061986243948507
0 days 00:00:50.540000,-1.0271,0.599609,-0.366699,34.78241,-29.151915,238.21257,1.2445615772158483
0 days 00:00:50.550000,-0.648438,-0.050049,-0.53418,-45.417782,28.57971,173.034653,0.8416204694783748
0 days 00:00:50.560000,-1.003906,0.516113,-0.387939,29.121397,-61.180111,225.387558,1.1936065320389295
0 days 00:00:50.570000,-1.027832,0.458008,-0.462891,28.648375,-68.031311,225.082382,1.216748957743133
0 days 00:00:50.580000,-0.902344,0.403564,-0.520752,28.549192,-75.584412,222.930893,1.1172605971464311
0 days 00:00:50.590000,-0.812012,0.380371,-0.54834,27.763365,-84.655754,214.874252,1.0510577250489148
0 days 00:00:50.600000,-0.956787,0.567627,-0.363037,30.982969,-47.515865,230.384811,1.1702297372170132
0 days 00:00:50.610000,-0.874268,0.362305,-0.634033,32.196045,-94.299309,201.16423,1.1391256708274113
0 days 00:00:50.620000,-0.924072,0.393311,-0.688477,32.676697,-92.994682,200.263962,1.217621937809105
0 days 00:00:50.630000,-0.895508,0.438477,-0.737305,24.627684,-81.039421,203.987106,1.240086819790453
0 days 00:00:50.640000,-0.757568,0.474121,-0.753418,8.674622,-57.563778,208.702072,1.1689049063071812
0 days 00:00:50.650000,-0.622314,0.481445,-0.663086,-13.130187,-30.815123,210.945114,1.0289543459342596
0 days 00:00:50.660000,-0.5979,0.455078,-0.415527,-41.41235,-13.870238,206.367477,0.858628606449261
0 days 00:00:50.670000,-0.741699,0.397949,-0.1604,-63.591,-7.011413,194.206223,0.856859949584528
0 days 00:00:50.680000,-0.899658,0.294434,-0.046631,-63.888546,3.799438,190.849289,0.9477607015913879
0 days 00:00:50.690000,-0.928223,0.190674,-0.150879,-51.467892,22.567747,197.418198,0.9595410281202155
0 days 00:00:50.700000,-0.753418,0.122314,-0.37793,-44.403072,32.63855,199.447617,0.8517220686468092
0 days 00:00:50.710000,-0.837646,0.365723,-0.587646,28.572081,-90.385429,206.314072,1.0866149066532265
0 days 00:00:50.720000,-0.366211,1.089111,0.075195,15.281676,-35.186768,24.948118,1.151489276922282
0 days 00:00:50.730000,-0.373291,1.111328,0.100586,14.533996,-35.507202,27.275084,1.1766535758926668
0 days 00:00:50.740000,-0.373535,1.137207,0.123291,12.474059,-35.499573,29.136656,1.2033157639435297
0 days 00:00:50.750000,-0.370361,1.161621,0.127686,12.054442,-34.408569,29.563902,1.225901436722382
0 days 00:00:50.760000,-0.392578,1.012451,0.098633,22.094725,8.621216,7.209777,1.0903682782317174
0 days 00:00:50.770000,-0.396484,1.133301,0.126709,18.264771,-25.695799,22.53723,1.2073217837585801
0 days 00:00:50.780000,-0.409912,1.096436,0.12085,20.782469,-17.463684,16.296387,1.176777154919316
0 days 00:00:50.790000,-0.4104,1.057373,0.108154,21.965025,-5.767822,10.963439,1.1393696102867583
0 days 00:00:50.800000,-0.379395,1.157471,0.128662,14.831542,-31.066893,27.465818,1.2248402312587547
0 days 00:00:50.810000,-0.363525,1.071289,0.063965,14.816283,-33.172607,22.5296,1.13309402450591
0 days 00:00:50.820000,-0.421875,0.927979,0.083008,4.379272,-13.000487,0.793457,1.0227481939020964
0 days 00:00:50.830000,-0.328125,1.019531,0.08667,14.495849,-21.888731,14.991759,1.0745329983234577
0 days 00:00:50.840000,-0.306641,0.98877,0.101318,14.411925,-11.840819,11.299132,1.040173136023518
0 days 00:00:50.850000,-0.284912,0.981201,0.095215,11.642455,-1.174927,9.803772,1.0261560048891203
0 days 00:00:50.860000,-0.282227,0.985107,0.062988,8.056641,6.340026,9.109497,1.0266719871127292
0 days 00:00:50.870000,-0.322998,0.97583,0.044434,6.019592,9.82666,8.560181,1.0288567817048202
0 days 00:00:50.880000,-0.348145,0.960205,0.060547,6.378173,10.009766,6.629943,1.0231639762320601
0 days 00:00:50.890000,-0.361816,0.95459,0.073975,6.278991,8.255005,5.645751,1.0235356303426861
0 days 00:00:50.900000,-0.366699,0.952881,0.081299,5.073547,5.386352,5.195617,1.024236244312317
0 days 00:00:50.910000,-0.374756,0.947754,0.08667,3.715515,0.793457,3.593445,1.0228349783577015
0 days 00:00:50.920000,-0.39917,0.941406,0.0896,3.074646,-5.592346,1.808166,1.0264551162793238
0 days 00:00:50.930000,-0.361084,0.963623,0.090576,21.743773,21.942137,4.562378,1.0330319225275664
0 days 00:00:50.940000,-0.353516,1.049561,0.069824,14.48059,-28.930662,19.432068,1.1096969162582186
0 days 00:00:50.950000,-0.329346,0.915771,0.089844,20.370481,33.279419,2.166748,0.9773317023881912
0 days 00:00:50.960000,-0.206787,0.931152,0.105957,9.620667,57.617184,4.364014,0.9597040149556528
0 days 00:00:50.970000,-0.278564,0.858398,0.078613,13.832091,48.759457,-3.02124,0.9058835644104599
0 days 00:00:50.980000,-0.429443,0.917969,0.074951,6.095886,-20.866392,0.839233,1.0162214461479349
0 days 00:00:50.990000,-0.130615,1.012451,-0.025146,33.821106,28.488157,-5.889892,1.0211511283556416
0 days 00:00:51,-0.146484,1.012939,-0.021484,36.521912,26.641844,-4.493713,1.0237013930990815
0 days 00:00:51.010000,-0.130371,1.029053,-0.016113,37.42218,26.93939,-4.127502,1.0374036356303171
0 days 00:00:51.020000,-0.095459,1.038574,-0.004883,36.483765,31.341551,-6.446838,1.042963191031208
0 days 00:00:51.030000,-0.104492,1.042725,0.018799,32.432556,39.550781,-6.958007,1.0481161224263273
0 days 00:00:51.040000,-0.123535,1.049561,0.036621,25.619505,46.287533,-5.043029,1.0574404411535432
0 days 00:00:51.050000,-0.137695,1.062012,0.044678,18.379211,49.644466,-5.302429,1.0718327877299705
0 days 00:00:51.060000,-0.162598,1.066895,0.052002,12.4588,50.720211,-6.286621,1.0804662228098572
0 days 00:00:51.070000,-0.180908,1.05542,0.058105,8.674622,52.032467,-5.981445,1.0723876500076828
0 days 00:00:51.080000,-0.306885,0.878174,0.086426,17.13562,42.41943,-0.564575,0.9342576898142183
0 days 00:00:51.090000,-0.186035,1.033936,0.070557,6.683349,54.527279,-4.249573,1.0529059614087102
0 days 00:00:51.100000,-0.201172,0.968506,0.093994,7.354736,58.41827,2.532959,0.9936341971047494
0 days 00:00:51.110000,-0.222412,0.910156,0.105225,12.290954,54.649349,3.036499,0.942827313300267
0 days 00:00:51.120000,-0.241699,0.910156,0.083984,13.290404,50.590511,0.617981,0.9454394021792195
0 days 00:00:51.130000,-0.238525,0.915039,0.06958,12.397765,46.989437,-0.679016,0.948172939682419
0 days 00:00:51.140000,-0.217285,0.908691,0.068604,11.283874,45.890804,-2.243042,0.9368236832627578
0 days 00:00:51.150000,-0.195068,0.9021,0.068604,9.849548,46.936031,-3.555298,0.9254957825079485
0 days 00:00:51.160000,-0.190918,0.897217,0.070557,7.652282,50.148006,-4.53186,0.9200143031833798
0 days 00:00:51.170000,-0.213867,0.885498,0.073242,6.813049,53.733822,-4.570007,0.9138983489737794
0 days 00:00:51.180000,-0.24292,0.874512,0.071777,7.446289,54.51965,-4.493713,0.9104577432659904
0 days 00:00:51.190000,-0.255615,0.861084,0.075195,10.108947,52.421566,-4.478455,0.9013650599540676
0 days 00:00:51.200000,-0.191406,1.004883,0.083252,6.271362,57.220455,-1.251221,1.0263318157540473
0 days 00:00:51.210000,-0.118652,1.007813,-0.02417,30.96771,30.517576,-7.286071,1.0150613424680304
0 days 00:00:51.220000,-0.428955,0.920654,0.070313,7.072448,-28.251646,0.991821,1.0181110438994363
0 days 00:00:51.230000,-0.42627,0.935547,0.063965,9.223938,-41.847225,-1.083374,1.0300707855938833
0 days 00:00:51.240000,-0.307129,1.000732,0.186279,-10.879516,37.239075,-5.302429,1.0632462670077898
0 days 00:00:51.250000,-0.330322,1.020264,0.217285,-11.619567,34.309387,-3.730774,1.094195606189771
0 days 00:00:51.260000,-0.331787,1.030762,0.246338,-11.993407,32.226563,-3.128052,1.1105112895675577
0 days 00:00:51.270000,-0.333008,1.020264,0.272461,-10.810851,31.517027,-2.388,1.1072795285206893
0 days 00:00:51.280000,-0.327881,0.997314,0.291992,-7.377624,30.71594,-1.266479,1.0896790779036734
0 days 00:00:51.290000,-0.312012,0.97998,0.286377,-2.433777,30.334471,-0.808716,1.067578603510299
0 days 00:00:51.300000,-0.302246,0.974365,0.268066,1.937866,32.928467,-0.823975,1.0547981693655901
0 days 00:00:51.310000,-0.276367,0.979736,0.250488,5.500793,37.437439,1.060486,1.0483346729594514
0 days 00:00:51.320000,-0.244141,1.001465,0.232666,6.813049,46.096798,5.111694,1.056726285119283
0 days 00:00:51.330000,-0.185547,1.031982,0.202881,-0.839233,75.675964,13.038634,1.067977170961065
0 days 00:00:51.340000,-0.260742,0.971191,0.163818,-10.19287,39.642334,-6.408691,1.0188398726831416
0 days 00:00:51.350000,-0.189453,0.997314,0.234619,-1.800537,89.050285,10.70404,1.0419086951196828
0 days 00:00:51.360000,-0.219727,0.914063,0.208984,-2.716064,114.265434,11.474608,0.9630500686641376
0 days 00:00:51.370000,-0.203613,0.893799,0.180664,-4.188538,123.588554,10.253905,0.9343309836808368
0 days 00:00:51.380000,-0.219238,0.883301,0.155762,-6.034851,130.889893,9.223938,0.9233351276156453
0 days 00:00:51.390000,-0.230225,0.893555,0.133789,-8.827209,138.641357,7.980346,0.9323859636282604
0 days 00:00:51.400000,-0.228271,0.926758,0.085449,-14.533996,145.698547,7.751464,0.9582742674234761
0 days 00:00:51.410000,-0.230225,0.966309,0.040283,-23.323057,150.032043,8.537292,0.9941726983753878
0 days 00:00:51.420000,-0.262207,1.0,0.000732,-33.561707,151.245117,9.284973,1.033805129931652
0 days 00:00:51.430000,-0.299561,1.013184,-0.023682,-42.732235,146.759033,8.666992,1.0568062488938075
0 days 00:00:51.440000,-0.349609,1.008545,-0.037109,-48.942562,137.634277,5.249023,1.068066733770414
0 days 00:00:51.450000,-0.429688,0.932129,0.065674,7.843017,-35.522461,0.747681,1.0284985776660074
0 days 00:00:51.460000,-0.22998,0.951172,0.22583,-1.846313,102.516167,9.933472,1.0042998371422749
0 days 00:00:51.470000,-0.249756,0.940918,0.152588,-10.06317,40.756222,-5.805969,0.9853871523436867
0 days 00:00:51.480000,-0.219238,1.029297,0.213379,3.982544,59.844967,10.467528,1.0738008253368032
0 days 00:00:51.490000,-0.263428,0.912598,0.14502,-12.924193,40.641781,-3.700256,0.9608643094568556
0 days 00:00:51.500000,-0.264404,0.916992,0.154785,-11.024474,41.198727,-4.318237,0.9668206656381524
0 days 00:00:51.510000,-0.43042,0.988037,0.07666,9.475708,-50.201412,-2.960205,1.0804421527175807
0 days 00:00:51.520000,-0.437744,1.013672,0.080078,6.622314,-53.825375,-2.27356,1.107051588320978
0 days 00:00:51.530000,-0.447021,1.023193,0.087402,4.608154,-56.831356,-0.961304,1.1199958925344324
0 days 00:00:51.540000,-0.428223,1.024902,0.086182,2.784729,-59.074398,0.465393,1.1141033993561817
0 days 00:00:51.550000,-0.408691,1.020264,0.074707,1.831055,-60.150143,1.441955,1.1016115917264127
0 days 00:00:51.560000,-0.408203,1.010986,0.070313,1.64032,-60.760494,2.624511,1.092550364685308
0 days 00:00:51.570000,-0.405029,1.004395,0.071289,1.197815,-60.470577,3.074646,1.0853294100811053
0 days 00:00:51.580000,-0.375977,1.00415,0.069336,0.114441,-58.204647,2.578735,1.0744688957457074
0 days 00:00:51.590000,-0.345215,1.001709,0.067139,-0.854492,-53.039547,2.655029,1.061650583867875
0 days 00:00:51.600000,-0.324463,0.986328,0.07666,-1.144409,-45.761105,2.532959,1.041151246242831
0 days 00:00:51.610000,-0.42627,0.953369,0.078613,10.94818,-46.478268,-3.089905,1.0472815126936978
0 days 00:00:51.620000,-0.294434,0.957275,0.095703,-1.228333,-27.580259,-0.167847,1.006094364455939
0 days 00:00:51.630000,-0.313232,0.968018,0.095947,-0.62561,-36.6745,1.441955,1.0219486097436603
0 days 00:00:51.640000,-0.209229,0.945557,0.100586,-14.709472,30.97534,-5.180358,0.9736387205149557
0 days 00:00:51.650000,-0.211914,0.948242,0.084961,-11.413573,24.04022,-5.470275,0.9753403536617359
0 days 00:00:51.660000,-0.224854,0.933594,0.083252,-7.057189,18.52417,-4.936218,0.9638920964796838
0 days 00:00:51.670000,-0.237549,0.92041,0.081787,-4.371643,14.244079,-3.341675,0.9540823910281543
0 days 00:00:51.680000,-0.231445,0.925537,0.121338,-14.770507,37.147522,-4.486084,0.9617216003802764
0 days 00:00:51.690000,-0.226318,0.938232,0.075684,-4.753113,0.694275,-2.342224,0.9681049482385677
0 days 00:00:51.700000,-0.239746,0.94751,0.079102,-3.997802,-8.865356,-2.708435,0.9805664031670674
0 days 00:00:51.710000,-0.264893,0.95166,0.088623,-2.616882,-18.463135,-1.960754,0.9918059755708271
0 days 00:00:51.720000,-0.235352,0.923828,0.073486,-4.501343,8.712769,-2.342224,0.9561636521453846
0 days 00:00:51.730000,0.016357,1.050537,-0.124512,-5.401611,6.942749,-26.664732,1.05801643558217
0 days 00:00:51.740000,-0.160156,1.006104,-0.081055,-0.427246,-2.182007,-8.911133,1.0219907612972832
0 days 00:00:51.750000,-0.171387,0.984863,-0.081543,1.304626,-4.78363,-7.362365,1.0029844930939862
0 days 00:00:51.760000,-0.156982,0.973145,-0.08374,5.203247,-5.111694,-5.126953,0.9892759609679193
0 days 00:00:51.770000,-0.122559,0.992432,-0.091309,5.805969,-3.440857,-7.690429,1.0041311251953104
0 days 00:00:51.780000,-0.103027,1.030273,-0.097168,2.502441,-2.578735,-16.189575,1.039960882669151
0 days 00:00:51.790000,-0.07959,1.060059,-0.107422,-1.670837,-4.508972,-24.772642,1.0684564275930957
0 days 00:00:51.800000,-0.157227,1.004639,-0.06665,1.792908,1.991272,-6.835937,1.0190495926842815
0 days 00:00:51.810000,-0.041748,1.065186,-0.118164,-3.211975,-5.348205,-28.564451,1.072532909050347
0 days 00:00:51.820000,-0.009521,1.056396,-0.127441,-3.952026,-1.441955,-28.823851,1.0640979121951135
0 days 00:00:51.830000,0.025146,1.030762,-0.111816,-6.088256,19.882202,-21.720884,1.037113995574257
0 days 00:00:51.840000,0.016602,0.940674,-0.077393,-3.822326,89.355461,-2.288818,0.9439983459355212
0 days 00:00:51.850000,0.013184,0.962891,-0.083252,-4.302979,49.644466,-7.339477,0.966573220837925
0 days 00:00:51.860000,0.00415,0.934814,-0.073486,-3.364563,63.3316,-3.074646,0.9377071127446992
0 days 00:00:51.870000,0.006592,0.92749,-0.071045,-2.792358,76.072693,-1.63269,0.9302303728587882
0 days 00:00:51.880000,0.021729,0.963379,-0.086914,-6.118774,103.622429,-3.585815,0.9675356791757087
0 days 00:00:51.890000,0.034668,0.994629,-0.0896,-8.430481,115.310661,-5.455017,0.9992581637720054
0 days 00:00:51.900000,0.039063,1.034912,-0.097412,-12.092589,124.061577,-7.011413,1.0402201033709164
0 days 00:00:51.910000,0.023682,1.062744,-0.097412,-14.678954,128.417969,-7.186889,1.067461823394167
0 days 00:00:51.920000,0.006348,1.07666,-0.100342,-14.961242,128.570557,-6.103515,1.0813443344596576
0 days 00:00:51.930000,0.009766,1.091553,-0.097412,-14.335631,125.396721,-5.126953,1.0959344981836279
0 days 00:00:51.940000,-0.170898,0.980469,-0.053711,5.386352,6.988525,-3.784179,0.9966997832276278
0 days 00:00:51.950000,0.021484,0.999756,-0.095703,-5.340576,34.889221,-14.266967,1.00455596459381
0 days 00:00:51.960000,-0.159424,0.927246,-0.047119,8.865356,4.516602,-1.594543,0.9420304434852411
0 days 00:00:51.970000,0.011963,1.091309,-0.099609,-12.634276,125.671379,-3.768921,1.0959107626677458
0 days 00:00:51.980000,-0.189941,0.926025,-0.054443,6.774902,-3.341675,-6.706237,0.9468705953587322
0 days 00:00:51.990000,-0.344971,1.130371,-0.023438,-19.15741,-4.15802,-0.572205,1.182071456522828
0 days 00:00:52,-0.355469,1.123291,-0.009766,-19.836426,-9.07135,1.213074,1.1782343805024533
0 days 00:00:52.010000,-0.34375,1.09082,0.000732,-18.280029,-13.877868,2.082825,1.1437013905403803
0 days 00:00:52.020000,-0.318604,1.059814,0.000977,-17.089844,-16.204834,-0.282288,1.106668504088284
0 days 00:00:52.030000,-0.305664,1.030273,0.003662,-15.73944,-17.26532,-3.929138,1.0746656901888139
0 days 00:00:52.040000,-0.307373,0.994873,0.010254,-12.931823,-18.280029,-5.683898,1.0413239610102132
0 days 00:00:52.050000,-0.290283,0.965576,0.00415,-10.009766,-18.89801,-7.133483,1.0082749894572411
0 days 00:00:52.060000,-0.268555,0.950439,-0.008545,-8.903503,-18.409729,-10.757445,0.9876887656397637
0 days 00:00:52.070000,-0.274902,0.947266,-0.021973,-9.216309,-16.540527,-12.611388,0.9865935318503766
0 days 00:00:52.080000,-0.277588,0.933594,-0.025391,-8.728027,-15.388488,-13.015746,0.9743190224259198
0 days 00:00:52.090000,-0.176514,0.921143,-0.048828,7.987976,-0.091553,-3.723144,0.9391729298851197
0 days 00:00:52.100000,-0.270508,0.913818,-0.026611,-8.094788,-16.044617,-14.48059,0.953386626982464
0 days 00:00:52.110000,-0.245117,0.869629,-0.023926,-4.585266,-16.601563,-18.493652,0.9038304015721091
0 days 00:00:52.120000,-0.238281,0.847168,-0.032471,-2.082825,-16.326904,-20.065308,0.8806394387182532
0 days 00:00:52.130000,-0.23584,0.840088,-0.040283,0.572205,-16.212463,-20.523069,0.8734936023995825
0 days 00:00:52.140000,-0.233398,0.842529,-0.052002,2.937317,-16.456604,-20.477293,0.8758047443631485
0 days 00:00:52.150000,-0.226563,0.855713,-0.057617,4.814148,-16.25061,-19.607544,0.8870711640150412
0 days 00:00:52.160000,-0.220947,0.872559,-0.062988,6.118774,-15.441894,-18.2724,0.902299436680529
0 days 00:00:52.170000,-0.21875,0.886963,-0.059326,7.400512,-13.46588,-16.281128,0.9154640900357588
0 days 00:00:52.180000,-0.212158,0.906494,-0.05835,7.827758,-11.764525,-13.801574,0.9328167620170641
0 days 00:00:52.190000,-0.203613,0.922363,-0.059814,7.56073,-8.743286,-11.405944,0.9464615534367997
0 days 00:00:52.200000,-0.197021,0.931641,-0.057373,7.041931,-6.156921,-9.078979,0.9539726874764288
0 days 00:00:52.210000,-0.259033,0.895508,-0.023438,-6.950378,-16.548157,-16.563416,0.9325138138370926
0 days 00:00:52.220000,0.01123,1.088135,-0.102783,-9.857178,126.785271,-2.76947,1.0930362465234171
0 days 00:00:52.230000,-0.16626,0.949219,-0.046631,8.140564,8.430481,-1.869202,0.9647971536659922
0 days 00:00:52.240000,-0.017822,1.088867,-0.104492,-6.439209,124.305717,-0.88501,1.0940144173807764
0 days 00:00:52.250000,-0.199707,0.950684,-0.137207,-14.900207,133.468628,10.398864,0.9810752848553469
0 days 00:00:52.260000,-0.227295,0.94458,-0.131836,-13.404845,126.899712,8.43811,0.9804463903350351
0 days 00:00:52.270000,-0.237549,0.936035,-0.125,-12.733459,115.173332,6.912231,0.9737638567055156
0 days 00:00:52.280000,-0.248291,0.91748,-0.12085,-10.131835,102.813713,5.050659,0.9581350080134844
0 days 00:00:52.290000,-0.259766,0.907715,-0.119141,-6.034851,88.806145,3.990173,0.9516404120580421
0 days 00:00:52.300000,-0.25293,0.912354,-0.110596,-3.059387,73.654175,3.295898,0.9532024346548849
0 days 00:00:52.310000,-0.24292,0.931152,-0.094238,-1.724243,58.914181,1.487732,0.9669203556384569
0 days 00:00:52.320000,-0.260498,0.959717,-0.077881,-2.006531,44.387814,-0.442505,0.9974875328814893
0 days 00:00:52.330000,-0.275879,0.982178,-0.055176,-2.319336,32.409668,-0.312805,1.0216786369994235
0 days 00:00:52.340000,-0.268311,0.991211,-0.037354,-1.838684,24.940489,0.900268,1.0275628256014326
0 days 00:00:52.350000,-0.260742,0.98999,-0.023193,-0.259399,21.553038,2.388,1.0240139188082358
0 days 00:00:52.360000,-0.253906,0.993652,-0.012451,1.396179,19.592285,2.853393,1.0256547086329786
0 days 00:00:52.370000,-0.251221,0.996094,-0.007568,2.540588,17.723083,2.029419,1.0273132542223915
0 days 00:00:52.380000,-0.231689,1.000244,-0.003906,3.280639,15.754699,0.50354,1.0267341959304752
0 days 00:00:52.390000,-0.220947,0.998291,-0.001465,3.982544,16.807556,-0.762939,1.0224503135678524
0 days 00:00:52.400000,-0.223877,0.983887,0.001709,5.737304,19.241333,-1.953125,1.0090378885745568
0 days 00:00:52.410000,-0.201904,0.962891,0.008789,9.567261,21.52252,-3.631592,0.9838706976112258
0 days 00:00:52.420000,-0.189941,0.954102,0.003174,14.823913,24.116514,-4.814148,0.9728300386814749
0 days 00:00:52.430000,-0.184814,0.960938,0.004395,18.539429,25.093077,-5.981445,0.9785588232012422
0 days 00:00:52.440000,-0.17041,0.968018,0.009521,21.90399,26.451109,-7.713317,0.9829491674878208
0 days 00:00:52.450000,-0.155762,0.979492,0.000488,24.917601,28.251646,-9.69696,0.99179968584992
0 days 00:00:52.460000,-0.131348,0.988281,-0.013184,27.580259,29.418943,-10.147094,0.9970583984506625
0 days 00:00:52.470000,-0.113525,0.998779,-0.021973,29.396055,30.46417,-9.101868,1.0054502619200016
0 days 00:00:52.480000,-0.203125,0.955811,-0.149414,-14.991759,136.459351,11.947631,0.9885135187451914
0 days 00:00:52.490000,-0.204102,0.952393,-0.152344,-13.710021,136.413574,12.802123,0.985859395243054
0 days 00:00:52.500000,0.001709,1.087158,-0.10376,-7.629394,125.793449,-1.556396,1.0920996178211033
0 days 00:00:52.510000,-0.193115,0.942139,-0.155518,-12.474059,135.925293,13.549804,0.9742202763595099
0 days 00:00:52.520000,-0.063477,1.091553,-0.099121,-7.514953,120.521538,-0.549316,1.0978808013527699
0 days 00:00:52.530000,-0.087891,1.073975,-0.093506,-8.979797,118.942253,-0.930786,1.0816147653124932
0 days 00:00:52.540000,-0.100342,1.044922,-0.083496,-8.918762,118.118279,-1.434326,1.0530441990078099
0 days 00:00:52.550000,-0.11377,1.009033,-0.072021,-6.881713,118.003838,0.099182,1.017977520591688
0 days 00:00:52.560000,-0.13501,0.972656,-0.069336,-3.14331,117.546074,2.220154,0.98442616550557
0 days 00:00:52.570000,-0.163574,0.946289,-0.07373,0.62561,114.624016,4.837036,0.9631487101673345
0 days 00:00:52.580000,-0.1875,0.932861,-0.072998,3.936767,108.818047,6.54602,0.9543136818284647
0 days 00:00:52.590000,-0.197998,0.933838,-0.07959,7.04956,102.004997,7.995605,0.9579098007370004
0 days 00:00:52.600000,-0.196045,0.956299,-0.095215,7.797241,96.977226,9.017944,0.9808197161818272
0 days 00:00:52.610000,-0.203125,0.988037,-0.111572,5.699157,95.199577,9.95636,1.0148522996860183
0 days 00:00:52.620000,-0.222168,0.999023,-0.126221,3.486633,92.407219,11.756896,1.031182484138477
0 days 00:00:52.630000,-0.039551,1.091553,-0.102051,-6.248474,122.467033,-0.488281,1.0970262713403904
0 days 00:00:52.640000,-0.202881,0.990967,-0.146729,3.768921,88.706963,13.671874,1.0221084554444309
0 days 00:00:52.650000,-0.218262,0.980713,-0.174316,2.159119,89.820854,14.60266,1.0197168022882628
0 days 00:00:52.660000,-0.218994,0.965332,-0.176025,2.090454,88.165276,16.471863,1.0053899954172012
0 days 00:00:52.670000,-0.204102,0.965332,-0.18335,1.609802,88.23394,17.944336,1.0035640084857567
0 days 00:00:52.680000,-0.21875,0.967529,-0.195068,-1.51062,93.872063,20.057678,1.0109477993274432
0 days 00:00:52.690000,-0.211182,0.954834,-0.1875,-3.051758,99.647514,21.034239,0.99572187616824
0 days 00:00:52.700000,-0.185547,0.953369,-0.181641,-3.822326,105.720512,20.797728,0.9880959428370304
0 days 00:00:52.710000,-0.189941,0.967529,-0.188232,-7.835388,115.936272,19.752502,1.0038033847053913
0 days 00:00:52.720000,-0.191162,0.966309,-0.172607,-11.878966,125.556938,17.814636,1.0000445840931294
0 days 00:00:52.730000,-0.189453,0.94751,-0.160156,-12.794494,132.93457,15.518188,0.9794475910660049
0 days 00:00:52.740000,-0.21875,0.995117,-0.128418,3.723144,88.470451,13.381957,1.0269374805279043
0 days 00:00:52.750000,-0.162598,0.973145,0.074463,-6.690979,19.470215,-1.403808,0.9894412761745894
0 days 00:00:52.760000,-0.177002,0.991455,0.077881,-8.605957,23.925779,0.495911,1.0101377011031714
0 days 00:00:52.770000,-0.185303,1.014404,0.072266,-10.437011,29.983519,3.486633,1.033719039091861
0 days 00:00:52.780000,-0.17627,1.037598,0.053467,-12.023925,35.972595,6.576538,1.0538213523140438
0 days 00:00:52.790000,-0.026611,0.933838,-0.032471,-3.829956,50.621029,22.705076,0.9347812157965092
0 days 00:00:52.800000,-0.139893,1.044922,0.013184,-10.910033,47.691341,12.290954,1.0543272050881547
0 days 00:00:52.810000,-0.119385,1.015381,0.0,-8.682251,52.429195,14.533996,1.0223753485809408
0 days 00:00:52.820000,-0.068604,0.973633,-0.016602,-5.867004,54.077145,17.814636,0.9761881754605513
0 days 00:00:52.830000,-0.147217,0.957764,0.066162,-3.692627,17.166138,-2.166748,0.9712683125836031
0 days 00:00:52.840000,-0.158691,1.053223,0.027832,-12.268065,41.831966,9.45282,1.0654746085355578
0 days 00:00:52.850000,-0.126953,0.952881,0.059082,-0.984192,16.647339,-2.555847,0.9631147112852134
0 days 00:00:52.860000,-0.154785,0.979736,0.108398,-4.203796,66.27655,10.292052,0.9977931410492858
0 days 00:00:52.870000,-0.121582,0.991211,0.087891,0.564575,36.91864,7.400512,1.0025000035541147
0 days 00:00:52.880000,-0.125244,0.99585,0.096436,-1.594543,48.477169,10.307311,1.008317005773482
0 days 00:00:52.890000,-0.14209,0.991211,0.103271,-3.326416,58.403011,10.902404,1.0066547144190008
0 days 00:00:52.900000,-0.161621,0.966553,0.105957,-4.707336,71.540833,8.811951,0.9856839936303116
0 days 00:00:52.910000,-0.165527,0.96167,0.107178,-4.249573,74.310303,7.194519,0.9816799378173112
0 days 00:00:52.920000,-0.18042,0.962158,0.107178,-2.716064,74.806213,5.836486,0.9847773946674445
0 days 00:00:52.930000,-0.2146,0.973633,0.11084,-0.679016,72.357178,5.607605,1.0031449966425592
0 days 00:00:52.940000,-0.240967,1.006836,0.116943,-1.304626,66.246033,6.156921,1.041853872303597
0 days 00:00:52.950000,-0.247559,1.04126,0.114502,-4.745483,58.647152,6.591796,1.0763914502099132
0 days 00:00:52.960000,-0.009033,0.918457,-0.054443,-4.15802,41.183468,25.962828,0.9201135235322867
0 days 00:00:52.970000,-0.120117,0.977539,0.073486,1.63269,26.420591,2.174377,0.9876288687589079
0 days 00:00:52.980000,0.00415,0.943604,-0.090088,-7.125854,26.664732,25.199888,0.9479037815411435
0 days 00:00:52.990000,-0.293213,1.274414,-0.180908,-12.71057,-67.710876,4.295349,1.3201638577195633
0 days 00:00:53,-0.004883,1.024658,-0.163574,-9.82666,-8.605957,20.668028,1.0376436354206584
0 days 00:00:53.010000,-0.13916,0.958496,-0.17334,7.247924,55.625912,15.533446,0.983934369364136
0 days 00:00:53.020000,-0.16748,0.961426,-0.191162,5.836486,48.21777,13.549804,0.9944508103068749
0 days 00:00:53.030000,-0.19751,0.963623,-0.204346,5.241394,37.55188,11.909484,1.0046575406301395
0 days 00:00:53.040000,-0.214844,0.971924,-0.213867,4.997253,23.963926,10.513305,1.0181027943194145
0 days 00:00:53.050000,-0.220459,0.978027,-0.224121,6.477355,8.110046,9.506226,1.0273116401808169
0 days 00:00:53.060000,-0.216553,0.997559,-0.241699,8.68988,-9.307861,7.759094,1.0490174292598766
0 days 00:00:53.070000,-0.228027,1.040771,-0.25293,9.658813,-26.580809,5.027771,1.095068112982019
0 days 00:00:53.080000,-0.248291,1.098145,-0.248535,8.522034,-40.710445,2.700805,1.1529702979396301
0 days 00:00:53.090000,-0.270996,1.161133,-0.22998,5.439758,-51.36108,1.396179,1.214314405788303
0 days 00:00:53.100000,-0.292725,1.217529,-0.20874,0.900268,-58.0368,0.770569,1.2695027290502372
0 days 00:00:53.110000,0.013428,0.988037,-0.127197,-9.605408,9.475708,22.567747,0.9962813364517074
0 days 00:00:53.120000,-0.299072,1.264893,-0.19458,-4.234314,-62.156673,1.976013,1.3142525400519491
0 days 00:00:53.130000,-0.261719,1.047119,0.11084,-7.736206,52.322384,6.149292,1.0850071615994061
0 days 00:00:53.140000,-0.27417,1.237793,-0.172119,-13.71765,-70.266724,4.28009,1.2794239523746616
0 days 00:00:53.150000,-0.251465,1.195557,-0.178955,-12.794494,-72.875977,4.463196,1.23475344846613
0 days 00:00:53.160000,-0.225098,1.159912,-0.189941,-11.550902,-73.852539,4.669189,1.1967215803306133
0 days 00:00:53.170000,-0.190674,1.129883,-0.199951,-9.567261,-72.58606,5.714416,1.163173491086347
0 days 00:00:53.180000,-0.166504,1.105469,-0.202148,-7.133483,-68.93158,8.377075,1.1360673861532158
0 days 00:00:53.190000,-0.133057,1.088867,-0.200684,-5.371093,-62.904354,12.016295,1.1151724426266998
0 days 00:00:53.200000,-0.096436,1.081787,-0.200439,-5.737304,-53.474422,14.907836,1.1044178594110112
0 days 00:00:53.210000,-0.060059,1.074463,-0.199951,-7.476806,-40.855404,16.670227,1.094558460864928
0 days 00:00:53.220000,-0.031006,1.05249,-0.187012,-8.972168,-25.909422,18.65387,1.0694251073731156
0 days 00:00:53.230000,-0.302734,1.284668,-0.188721,-9.262085,-65.093994,3.501892,1.333279925904909
0 days 00:00:53.240000,-0.271484,1.014404,0.117188,-7.034301,46.874996,5.104064,1.056622953004524
0 days 00:00:53.250000,-0.117432,0.961914,0.062988,0.831604,19.294739,-1.655578,0.9711005643927925
0 days 00:00:53.260000,-0.266357,0.95874,0.094727,-1.350403,33.866882,1.800537,0.9995507208631286
0 days 00:00:53.270000,-0.166016,1.040283,-0.011475,11.054992,2.494812,-1.586914,1.0535092348764676
0 days 00:00:53.280000,-0.182373,1.058594,-0.00293,4.837036,7.652282,-2.76947,1.0741926051062725
0 days 00:00:53.290000,-0.229004,1.046631,0.011475,0.534058,7.347106,-5.073547,1.0714527324161343
0 days 00:00:53.300000,-0.276611,1.016113,0.012451,-0.717163,0.976562,-8.132935,1.0531639480588957
0 days 00:00:53.310000,-0.297119,0.994629,0.007813,-0.778198,-9.773254,-12.023925,1.0380884310939025
0 days 00:00:53.320000,-0.294434,0.982422,-0.007324,-1.518249,-22.40753,-15.823363,1.025620791236215
0 days 00:00:53.330000,-0.282471,0.985596,-0.020508,-3.211975,-34.667969,-19.554138,1.025480335804154
0 days 00:00:53.340000,-0.269043,0.996338,-0.030762,-5.340576,-45.097347,-22.811888,1.0324823711507136
0 days 00:00:53.350000,-0.254639,1.004395,-0.040527,-7.408142,-52.925106,-25.436399,1.0369632462508012
0 days 00:00:53.360000,-0.240723,1.010742,-0.046143,-9.185791,-58.135983,-27.06146,1.040036600193474
0 days 00:00:53.370000,-0.1604,1.001221,-0.011963,15.724181,-6.858825,-2.586365,1.014058560542733
0 days 00:00:53.380000,-0.22876,1.006592,-0.053467,-10.414123,-59.509274,-27.313231,1.0336427391284668
0 days 00:00:53.390000,-0.181885,0.995605,-0.050537,-12.4588,-47.554012,-25.657652,1.0133437016229982
0 days 00:00:53.400000,-0.159668,0.996582,-0.050537,-13.114928,-37.956238,-24.772642,1.0105560555045918
0 days 00:00:53.410000,-0.170898,1.002686,-0.049072,-13.412475,-27.603148,-23.246763,1.018328729921728
0 days 00:00:53.420000,-0.192627,1.016846,-0.057617,-14.091491,-18.180847,-21.026609,1.036533003591299
0 days 00:00:53.430000,-0.222412,1.036621,-0.067383,-15.335082,-9.872437,-17.868042,1.0623514785954788
0 days 00:00:53.440000,-0.253418,1.058105,-0.063965,-16.563416,-3.128052,-14.083861,1.0899075167068075
0 days 00:00:53.450000,-0.279053,1.078369,-0.054932,-17.63916,1.228333,-11.085509,1.1152433822238086
0 days 00:00:53.460000,-0.309814,1.09668,-0.040283,-17.974854,3.097534,-7.713317,1.1403133153151375
0 days 00:00:53.470000,-0.328125,1.114014,-0.031982,-18.348694,1.914978,-4.226685,1.161772807456346
0 days 00:00:53.480000,-0.268555,0.976318,0.116211,-3.860473,40.756222,3.387451,1.01922697259737
0 days 00:00:53.490000,-0.211426,1.001465,-0.054932,-11.489867,-55.458065,-26.573179,1.0250124995945171
0 days 00:00:53.500000,-0.163086,0.976807,-0.008545,17.456055,-17.76123,-3.860473,0.9903645670509421
0 days 00:00:53.510000,-0.338867,1.124023,-0.025146,-18.257141,-0.50354,-1.449585,1.1742618402783938
0 days 00:00:53.520000,-0.195068,0.979004,0.000977,15.11383,-33.401489,-6.622314,0.9982491227990135
0 days 00:00:53.530000,-0.181641,0.971436,-0.002441,16.967773,-26.94702,-5.073547,0.9882749179545133
0 days 00:00:53.540000,-0.28125,0.956787,0.052979,-0.701904,21.026609,2.235413,0.9986739709785171
0 days 00:00:53.550000,-0.278076,0.954834,0.055908,-0.007629,16.784668,3.967285,0.996072253300934
0 days 00:00:53.560000,-0.279785,0.946045,0.064453,1.266479,13.72528,5.249023,0.9886531128049919
0 days 00:00:53.570000,-0.286377,0.936035,0.072266,2.967834,11.009215,6.210327,0.9815272192405058
0 days 00:00:53.580000,-0.283447,0.931152,0.074707,5.027771,7.759094,6.935119,0.9762004838976469
0 days 00:00:53.590000,-0.277832,0.929688,0.068359,7.17926,3.837585,7.263183,0.97271956413398
0 days 00:00:53.600000,-0.282471,0.934082,0.061768,9.117126,-0.282288,7.453918,0.9778109911373465
0 days 00:00:53.610000,-0.292969,0.942627,0.065918,11.123656,-4.020691,7.873535,0.9893036332764578
0 days 00:00:53.620000,-0.296387,0.958252,0.071045,12.008666,-7.865905,7.92694,1.0055543452732925
0 days 00:00:53.630000,-0.296631,0.976318,0.077393,12.031554,-11.932372,7.408142,1.023316404507423
0 days 00:00:53.640000,-0.274658,0.958496,0.064453,-0.915527,26.954649,1.365662,0.9991525349960335
0 days 00:00:53.650000,-0.296875,0.99292,0.081543,10.810851,-17.112732,6.088256,1.0395547858934613
0 days 00:00:53.660000,-0.296143,1.004883,0.079102,9.20105,-22.613523,3.479004,1.0505939494124263
0 days 00:00:53.670000,-0.292236,1.011719,0.07373,8.010864,-28.274534,-0.205994,1.0556577700926566
0 days 00:00:53.680000,-0.279541,1.018066,0.055176,7.781982,-34.194946,-4.005432,1.0571877515432158
0 days 00:00:53.690000,-0.273438,1.022217,0.03125,7.881164,-39.993286,-6.698608,1.0586182019184252
0 days 00:00:53.700000,-0.265869,1.019531,0.009277,8.560181,-44.113155,-8.239746,1.0536678071626748
0 days 00:00:53.710000,-0.244873,1.020752,-0.003906,9.689331,-45.783993,-8.758545,1.049720290586497
0 days 00:00:53.720000,-0.2146,1.03125,-0.006348,9.635925,-45.272823,-9.208679,1.0533612958543712
0 days 00:00:53.730000,-0.192139,1.035156,-0.008301,9.216309,-43.243404,-9.735107,1.0528695295515014
0 days 00:00:53.740000,-0.196533,1.023682,-0.006836,10.040282,-40.382381,-9.399414,1.0423995338204062
0 days 00:00:53.750000,-0.200195,0.999756,0.001221,12.252807,-37.399292,-8.224487,1.0196036427955717
0 days 00:00:53.760000,-0.222168,0.95874,-0.015625,50.025936,-152.824402,1.174927,0.9842688395194679
0 days 00:00:53.770000,-0.245361,0.996582,0.008545,46.035763,-150.299072,4.211426,1.0263774744556702
0 days 00:00:53.780000,-0.27002,1.058105,0.016357,43.701168,-145.965576,6.698608,1.0921376025364204
0 days 00:00:53.790000,-0.300781,1.120605,0.016602,46.104427,-140.083313,11.337279,1.1603880395755553
0 days 00:00:53.800000,-0.35083,1.09082,0.050537,70.877075,-124.832146,26.924131,1.146962924278287
0 days 00:00:53.810000,-0.329346,1.184326,0.030029,60.005184,-130.233765,21.255491,1.2296335237919467
0 days 00:00:53.820000,-0.339111,1.169922,0.031982,65.933228,-127.571098,23.315428,1.2184976835140064
0 days 00:00:53.830000,-0.345947,1.133545,0.040283,69.770813,-125.976555,24.940489,1.1858441355941345
0 days 00:00:53.840000,-0.318115,1.168213,0.022949,52.520748,-134.521484,17.127991,1.2109687953019268
0 days 00:00:53.850000,-0.207764,0.949951,-0.059082,50.178524,-153.816223,-5.432128,0.9741988836069357
0 days 00:00:53.860000,-0.129883,0.908203,-0.104736,33.149719,-126.052849,-29.937742,0.9234023568271851
0 days 00:00:53.870000,-0.188965,0.951172,-0.102539,39.932251,-150.245667,-18.844604,0.9751667505252627
0 days 00:00:53.880000,-0.175293,0.947754,-0.103271,36.911011,-145.15686,-22.773741,0.969345232518322
0 days 00:00:53.890000,-0.143555,0.930664,-0.108887,34.645081,-137.390137,-26.573179,0.9479450921282309
0 days 00:00:53.900000,-0.163574,0.969971,-0.033936,18.768311,-67.855835,-12.924193,0.9842519222297714
0 days 00:00:53.910000,-0.121582,0.888672,-0.085449,32.775879,-113.929741,-29.792784,0.901011452706901
0 days 00:00:53.920000,-0.106689,0.882568,-0.069336,32.920837,-102.630608,-28.129576,0.8916929394365529
0 days 00:00:53.930000,-0.099854,0.88623,-0.057861,32.318115,-91.209404,-26.161192,0.8937126660940864
0 days 00:00:53.940000,-0.113281,0.900879,-0.056396,29.510496,-82.038872,-24.436949,0.9097230712793867
0 days 00:00:53.950000,-0.13208,0.922119,-0.05127,26.260374,-77.537537,-20.225523,0.9329400781727625
0 days 00:00:53.960000,-0.146729,0.945801,-0.053467,22.979734,-72.731018,-16.288757,0.9586071411850633
0 days 00:00:53.970000,-0.358154,1.06543,0.048096,67.970276,-124.0158,29.121397,1.1250460425387043
0 days 00:00:53.980000,-0.198242,0.950928,-0.102051,44.479366,-153.533936,-12.741088,0.9767181570693769
0 days 00:00:53.990000,-0.363037,1.060791,0.046387,62.156673,-123.931877,30.403135,1.1221520230427782
0 days 00:00:54,-0.375,0.93335,-0.122803,-11.749267,-61.874386,1.747131,1.0133349886927818
0 days 00:00:54.010000,-0.381348,1.083008,0.012939,48.027035,-123.382561,31.021116,1.1482595712159338
0 days 00:00:54.020000,-0.186035,0.975342,-0.003662,16.00647,-64.620972,-10.086059,0.9929322476548942
0 days 00:00:54.030000,-0.3479,0.887695,-0.07373,1.945495,-19.065857,-6.973266,0.9562807829947227
0 days 00:00:54.040000,-0.338135,0.8396,-0.071777,2.761841,-23.345945,-7.56073,0.9079732242494819
0 days 00:00:54.050000,-0.329834,0.799805,-0.065918,3.65448,-26.145933,-7.514953,0.8676541294231244
0 days 00:00:54.060000,-0.32251,0.787109,-0.068115,3.65448,-28.228758,-7.232666,0.8533422122489898
0 days 00:00:54.070000,-0.325928,0.791016,-0.071777,2.235413,-30.639647,-6.866455,0.858537891516152
0 days 00:00:54.080000,-0.33252,0.803711,-0.082031,-0.564575,-33.729553,-6.301879,0.8736418069678212
0 days 00:00:54.090000,-0.3396,0.824219,-0.087158,-3.959656,-37.597656,-5.699157,0.8956905921829257
0 days 00:00:54.100000,-0.346191,0.840576,-0.091064,-7.316589,-41.374203,-4.676819,0.9136240322764064
0 days 00:00:54.110000,-0.349121,0.86084,-0.096436,-10.177611,-45.242306,-3.501892,0.9339330170504735
0 days 00:00:54.120000,-0.371338,1.072998,0.034424,55.076595,-123.908989,31.272886,1.135958463159635
0 days 00:00:54.130000,-0.353027,0.880127,-0.10083,-12.329101,-49.118038,-2.548218,0.9536342526136528
0 days 00:00:54.140000,-0.366211,0.914551,-0.118652,-13.603209,-57.243343,0.244141,0.99226625722434
0 days 00:00:54.150000,-0.384277,0.956055,-0.126709,-8.605957,-67.016602,3.883362,1.0381546832890558
0 days 00:00:54.160000,-0.389404,0.979492,-0.125488,-5.256652,-73.33374,6.645202,1.0615023746671508
0 days 00:00:54.170000,-0.386963,1.00293,-0.118408,-1.045227,-80.604546,9.864807,1.0814940604242818
0 days 00:00:54.180000,-0.38208,1.022705,-0.109619,4.669189,-88.48571,13.168334,1.0972360587339445
0 days 00:00:54.190000,-0.38208,1.038086,-0.0979,11.688231,-96.443169,16.166687,1.1104918188784643
0 days 00:00:54.200000,-0.388428,1.051025,-0.080078,19.477844,-104.583733,19.447327,1.123362073373051
0 days 00:00:54.210000,-0.39209,1.06543,-0.05957,27.313231,-112.136833,22.598265,1.136848379468432
0 days 00:00:54.220000,-0.390625,1.077637,-0.037109,34.767151,-117.881767,26.000975,1.1468506756657555
0 days 00:00:54.230000,-0.390869,1.084961,-0.012207,41.587826,-121.520988,29.113768,1.1532857224170427
0 days 00:00:54.240000,-0.361572,0.895996,-0.109131,-13.610839,-52.909847,-1.289368,0.9723439300787556
0 days 00:00:54.250000,-0.187744,0.976074,0.020996,15.441894,-64.353943,-7.781982,0.9941876558416927
0 days 00:00:54.260000,-0.210938,0.95459,-0.082031,48.278805,-154.457092,-8.491516,0.9810535117438804
0 days 00:00:54.270000,-0.137939,1.010254,0.017334,7.987976,-57.266232,-8.415222,1.0197748672099152
0 days 00:00:54.280000,-0.197998,0.955566,-0.068848,-27.732847,29.670713,13.832091,0.978289136944697
0 days 00:00:54.290000,-0.204346,0.938721,-0.075195,-25.81024,17.242432,9.94873,0.9636434462922476
0 days 00:00:54.300000,-0.214355,0.928955,-0.080811,-24.124144,4.928589,6.126403,0.9567841322738374
0 days 00:00:54.310000,-0.21582,0.923584,-0.079102,-22.117613,-6.004333,2.914428,0.9517577443131209
0 days 00:00:54.320000,-0.217041,0.916992,-0.068115,-19.40155,-17.097473,-0.961304,0.9447861011731703
0 days 00:00:54.330000,-0.212891,0.905762,-0.060547,-15.686034,-30.746458,-6.050109,0.9324126327619119
0 days 00:00:54.340000,-0.221191,0.894287,-0.056885,-10.650634,-46.791073,-11.230468,0.9229900324895173
0 days 00:00:54.350000,-0.231689,0.884766,-0.055908,-5.180358,-64.025879,-15.190124,0.9163058288262713
0 days 00:00:54.360000,-0.217529,0.879639,-0.063721,0.25177,-80.215454,-17.608643,0.9083743732641294
0 days 00:00:54.370000,-0.206543,0.877441,-0.072754,5.28717,-92.254631,-18.508911,0.904353837746045
0 days 00:00:54.380000,-0.191895,0.983154,-0.058838,-29.487608,42.739864,17.417908,1.003432802426251
0 days 00:00:54.390000,-0.203369,0.874023,-0.081787,10.2005,-100.120537,-18.341064,0.9010905992512629
0 days 00:00:54.400000,-0.183105,0.86792,-0.081787,17.707825,-103.256218,-14.785766,0.8907871130601295
0 days 00:00:54.410000,-0.176758,0.865479,-0.07959,19.470215,-97.549431,-11.909484,0.8869226900384272
0 days 00:00:54.420000,-0.177734,0.867188,-0.080322,20.576475,-86.997978,-8.895874,0.8888509581386521
0 days 00:00:54.430000,-0.166992,0.883545,-0.07959,21.286009,-72.059631,-5.958557,0.9027029761715645
0 days 00:00:54.440000,-0.144043,0.905029,-0.087158,21.202085,-52.558895,-3.608703,0.9205554810297965
0 days 00:00:54.450000,-0.114014,0.932129,-0.100098,18.920898,-28.869627,-1.663208,0.9443957191987901
0 days 00:00:54.460000,-0.08252,0.955811,-0.112061,15.960692,-1.930237,2.082825,0.9658891685084785
0 days 00:00:54.470000,-0.05957,0.971191,-0.123535,12.702941,23.41461,6.256103,0.9808269162324207
0 days 00:00:54.480000,-0.071289,0.97168,-0.130127,10.276793,43.93005,11.749267,0.9829431214724481
0 days 00:00:54.490000,-0.092285,0.962646,-0.140137,9.117126,55.320736,15.502929,0.9771602843495022
0 days 00:00:54.500000,-0.194336,0.868652,-0.084229,14.343261,-104.148857,-16.845703,0.8941013938256667
0 days 00:00:54.510000,-0.174072,1.008789,-0.054199,-30.410765,55.541988,20.736692,1.0251311327366854
0 days 00:00:54.520000,-0.116699,0.957275,-0.156982,8.392334,58.395382,16.769409,0.9770554900055575
0 days 00:00:54.530000,-0.115967,1.01416,-0.060059,-28.785704,71.754456,23.780821,1.0225340748209812
0 days 00:00:54.540000,-0.140381,1.020508,-0.054932,-29.800413,65.635681,23.29254,1.0315817601377992
0 days 00:00:54.550000,-0.109863,1.034424,0.014893,2.555847,-50.018307,-10.025024,1.0403483512718228
0 days 00:00:54.560000,-0.071289,1.048096,0.013916,-1.693725,-42.808529,-9.674072,1.0506098237657022
0 days 00:00:54.570000,-0.029053,1.052979,-0.000977,-5.882263,-33.64563,-9.45282,1.0533801810263
0 days 00:00:54.580000,-0.00415,1.062744,-0.007813,-11.466979,-24.566648,-9.880066,1.0627808217149008
0 days 00:00:54.590000,-0.000977,1.053223,-0.005615,-15.853881,-16.433716,-9.82666,1.0532384205311731
0 days 00:00:54.600000,0.00415,1.024902,0.002686,-16.891479,-10.635375,-9.506226,1.0249139216051266
0 days 00:00:54.610000,0.005859,0.989502,0.00415,-16.166687,-4.310608,-7.751464,0.9895280483063631
0 days 00:00:54.620000,0.001221,0.956055,0.010498,-14.755248,5.256652,-4.684448,0.9561134147526641
0 days 00:00:54.630000,0.010498,0.947266,0.015869,-13.656615,18.348694,-1.052856,0.9474570744477029
0 days 00:00:54.640000,0.020996,0.96167,0.019287,-13.267516,30.891417,1.487732,0.9620925159697481
0 days 00:00:54.650000,-0.16626,0.988281,0.022705,13.046264,-63.407894,-6.378173,1.0024256778365166
0 days 00:00:54.660000,0.006836,1.043945,0.023682,-14.846801,49.705502,6.454467,1.0442359556369432
0 days 00:00:54.670000,-0.095459,1.010742,-0.057373,-28.892515,73.364258,21.850584,1.0168596129132084
0 days 00:00:54.680000,-0.010254,1.090332,0.030029,-17.585754,58.28857,10.032654,1.0907936356529588
0 days 00:00:54.690000,-0.033691,1.123535,0.043213,-22.438047,66.741943,12.863158,1.1248703672312645
0 days 00:00:54.700000,-0.076416,1.11792,0.058594,-26.473997,73.219299,14.579772,1.122059618867019
0 days 00:00:54.710000,-0.111084,1.080078,0.055908,-27.19116,76.316833,15.769958,1.08721379939918
0 days 00:00:54.720000,-0.127197,1.036865,0.039795,-26.702879,75.965881,15.243529,1.045395497914067
0 days 00:00:54.730000,-0.127686,1.009277,0.022705,-25.962828,74.386597,15.747069,1.0175752032896634
0 days 00:00:54.740000,-0.110107,1.0,-0.007324,-26.390074,73.669434,16.975403,1.0060701727141104
0 days 00:00:54.750000,-0.097656,1.004639,-0.037109,-28.114317,73.646545,18.997192,1.0100560838577233
0 days 00:00:54.760000,0.021484,0.998535,0.016357,-13.763427,41.091915,3.547668,0.9989000249924914
0 days 00:00:54.770000,-0.211914,0.999268,-0.124512,15.457152,-7.110595,-14.442443,1.029051659229992
0 days 00:00:54.780000,-0.206543,0.996094,-0.112793,16.624451,-4.905701,-12.451171,1.0235162570931642
0 days 00:00:54.790000,-0.20459,0.991211,-0.10376,18.119812,-0.88501,-9.468079,1.0174096776721755
0 days 00:00:54.800000,-0.1875,0.960938,-0.105225,18.943787,9.796143,2.14386,0.9846981214915563
0 days 00:00:54.810000,-0.191162,0.978271,-0.10376,19.523621,6.805419,-2.89917,1.0021592674245945
0 days 00:00:54.820000,-0.183594,0.970703,-0.104248,19.386292,8.262634,-0.274658,0.9933975621819292
0 days 00:00:54.830000,-0.206787,1.008057,-0.12915,13.84735,-10.375976,-16.189575,1.0371207746053495
0 days 00:00:54.840000,-0.189941,0.952637,-0.106201,17.89856,11.062621,4.058838,0.9771762838152591
0 days 00:00:54.850000,-0.205322,0.984375,-0.10376,19.226074,4.333496,-5.867004,1.0108993035456102
0 days 00:00:54.860000,-0.207275,1.022461,-0.145752,11.795043,-13.366698,-17.829895,1.0533912225047255
0 days 00:00:54.870000,-0.216797,1.053955,-0.186523,2.510071,-23.803709,-18.257141,1.0920681804553232
0 days 00:00:54.880000,-0.211914,1.045898,-0.179688,6.980896,-19.622803,-19.584656,1.0821727898741493
0 days 00:00:54.890000,-0.212891,1.052246,-0.186523,4.66156,-22.140501,-19.317627,1.0896490498899176
0 days 00:00:54.900000,-0.196045,0.946289,-0.110596,16.151428,12.557982,5.53894,0.9726911065502759
0 days 00:00:54.910000,-0.218262,1.047607,-0.183105,0.595093,-25.199888,-16.426086,1.08565471864585
0 days 00:00:54.920000,-0.21582,1.034912,-0.170166,-0.556946,-25.985716,-13.46588,1.0707836325327353
0 days 00:00:54.930000,-0.21875,1.016846,-0.154785,-1.014709,-25.207518,-8.850098,1.0515634771334539
0 days 00:00:54.940000,-0.227783,0.990967,-0.137451,-0.846863,-22.750853,-3.257751,1.026057243811962
0 days 00:00:54.950000,-0.239258,0.971436,-0.115479,-0.770569,-19.180298,2.754211,1.0071085800950164
0 days 00:00:54.960000,-0.251465,0.961182,-0.098145,-0.869751,-14.808654,8.926392,0.9983676298708808
0 days 00:00:54.970000,-0.257568,0.954834,-0.084473,-0.854492,-11.795043,14.129638,0.9925648240336749
0 days 00:00:54.980000,-0.279785,0.963135,-0.076904,-1.358032,-11.970519,17.684937,1.0058940797449798
0 days 00:00:54.990000,-0.210449,1.036621,-0.166504,9.376526,-16.387939,-19.050598,1.0707919785177697
0 days 00:00:55,-0.202637,0.945557,-0.111572,14.274596,14.762877,6.652832,0.9734413722469372
0 days 00:00:55.010000,-0.206543,0.963867,-0.102295,1.976013,17.402649,8.361816,0.991041811208286
0 days 00:00:55.020000,-0.196289,0.944092,-0.111572,9.605408,19.012451,8.522034,0.9707148845922783
0 days 00:00:55.030000,-0.207764,0.986328,-0.132568,2.39563,-4.867554,-6.301879,1.0166528797500156
0 days 00:00:55.040000,-0.303467,0.981445,-0.074951,-3.959656,-16.075134,20.126341,1.0300214369201255
0 days 00:00:55.050000,-0.208252,0.98584,-0.127197,2.349854,-5.180358,-6.721496,1.015592673227313
0 days 00:00:55.060000,-0.21167,0.98584,-0.127197,2.304077,-5.424499,-6.858825,1.016299056040593
0 days 00:00:55.070000,-0.216309,0.985107,-0.126465,2.13623,-5.813598,-6.843566,1.0164736991949177
0 days 00:00:55.080000,-0.218506,0.984131,-0.122559,1.976013,-6.408691,-6.446838,1.0155192788312786
0 days 00:00:55.090000,-0.219482,0.98584,-0.116211,1.472473,-6.652832,-5.989074,1.0166404725590066
0 days 00:00:55.100000,-0.221924,0.98999,-0.113281,0.961304,-6.690979,-5.599975,1.0208638728238941
0 days 00:00:55.110000,-0.224854,0.992188,-0.114746,0.526428,-6.622314,-5.203247,1.0237983166503057
0 days 00:00:55.120000,-0.22583,0.994385,-0.11084,0.068665,-6.431579,-4.928589,1.0257125439054549
0 days 00:00:55.130000,-0.202393,0.944092,-0.115479,12.161254,17.738342,7.80487,0.9724237915404991
0 days 00:00:55.140000,-0.227783,1.002197,-0.110352,-0.968933,-5.760192,-4.371643,1.0336641068558006
0 days 00:00:55.150000,-0.225586,1.008545,-0.110107,-3.433227,-2.403259,-2.914428,1.0393149724073065
0 days 00:00:55.160000,-0.217773,1.002441,-0.108154,-4.272461,0.12207,-2.159119,1.0315087618270626
0 days 00:00:55.170000,-0.212158,0.979492,-0.096924,-4.173279,5.302429,-0.015259,1.0068812525834414
0 days 00:00:55.180000,-0.211426,0.968262,-0.091309,-3.211975,7.095336,1.251221,0.9952736244877586
0 days 00:00:55.190000,-0.214355,0.960693,-0.092041,-2.02179,8.728027,2.845764,0.9886104652263196
0 days 00:00:55.200000,-0.211182,0.961182,-0.096191,-0.892639,10.711669,4.53186,0.9887979483842996
0 days 00:00:55.210000,-0.208984,0.96582,-0.099121,-0.061035,13.09204,5.92041,0.9931301814450108
0 days 00:00:55.220000,-0.208252,0.967285,-0.099609,0.610352,15.426635,7.225036,0.9944501594398786
0 days 00:00:55.230000,-0.201172,0.953613,-0.102539,4.219055,18.707275,8.972168,0.9799807007660917
0 days 00:00:55.240000,-0.19751,0.945801,-0.10791,6.935119,19.126892,8.857727,0.9722110366587081
0 days 00:00:55.250000,-0.230225,1.008545,-0.112793,-2.311707,-4.379272,-3.700256,1.0406194446093155
0 days 00:00:55.260000,-0.212158,0.991455,-0.102539,-4.676819,2.960205,-1.113892,1.0190722646162047
0 days 00:00:55.270000,-0.299316,0.989746,-0.084717,-7.080078,-20.858763,21.39282,1.0374797262891455
0 days 00:00:55.280000,-0.284912,0.994629,-0.109131,-14.251708,-28.099058,20.927427,1.0403707370673207
0 days 00:00:55.290000,-0.086182,0.706787,-0.090576,7.720947,28.762815,-38.635254,0.7177598569640128
0 days 00:00:55.300000,-0.090332,0.67041,-0.098877,8.468628,33.348083,-36.247253,0.6836564191558505
0 days 00:00:55.310000,-0.053223,0.669678,-0.11377,7.652282,33.13446,-39.459229,0.6813552115548834
0 days 00:00:55.320000,-0.056641,0.707031,-0.146484,4.234314,40.115356,-39.459229,0.7242641783893499
0 days 00:00:55.330000,-0.063965,0.744629,-0.15918,0.740051,51.033016,-36.994934,0.7641348972962824
0 days 00:00:55.340000,-0.075195,0.794678,-0.174561,-3.616333,61.378475,-35.072327,0.8170917662233539
0 days 00:00:55.350000,-0.109375,0.848877,-0.191406,-8.087158,69.999695,-31.822203,0.877035522992085
0 days 00:00:55.360000,-0.159668,0.905273,-0.198486,-11.016845,75.85144,-28.091429,0.9404306284617701
0 days 00:00:55.370000,-0.182373,0.969238,-0.206787,-13.153075,75.546265,-26.023863,1.007691954489069
0 days 00:00:55.380000,-0.268799,1.114502,-0.215576,-13.946532,68.153381,-18.547058,1.166550737079618
0 days 00:00:55.390000,-0.074219,0.732178,-0.064453,9.83429,26.855467,-37.773132,0.7387470966805894
0 days 00:00:55.400000,-0.311768,1.187012,-0.205811,-12.504577,59.700008,-13.351439,1.2444094750880836
0 days 00:00:55.410000,-0.398926,1.327637,-0.175537,-9.918213,37.109375,-4.40979,1.3973457680953558
0 days 00:00:55.420000,-0.420166,1.369873,-0.136719,-9.109497,27.351377,-0.762939,1.4393691634344539
0 days 00:00:55.430000,-0.427002,1.381592,-0.114258,-9.315491,18.890381,1.663208,1.450579902325963
0 days 00:00:55.440000,-0.418945,1.347412,-0.096436,-10.06317,11.795043,2.967834,1.4143316134715367
0 days 00:00:55.450000,-0.402344,1.274414,-0.083984,-9.140015,6.225585,2.845764,1.339053789057034
0 days 00:00:55.460000,-0.382568,1.181641,-0.076416,-6.622314,1.220703,0.923157,1.2443766039913318
0 days 00:00:55.470000,-0.365479,1.085938,-0.069336,-3.471374,-3.77655,-1.480102,1.1478866321118126
0 days 00:00:55.480000,-0.356445,1.005371,-0.065918,-0.724792,-8.972168,-3.860473,1.0687231018322754
0 days 00:00:55.490000,-0.355957,0.938965,-0.070557,1.182556,-14.122008,-5.767822,1.0066473798321833
0 days 00:00:55.500000,-0.297607,0.993164,-0.095215,-10.383605,-25.42877,21.415709,1.0411582749851245
0 days 00:00:55.510000,-0.360352,1.263428,-0.201904,-10.902404,48.614498,-8.369446,1.3292362846025534
0 days 00:00:55.520000,-0.106689,0.769287,-0.056152,10.620116,29.350279,-32.745361,0.7786771334731746
0 days 00:00:55.530000,-0.221924,1.041748,-0.218994,-14.076232,73.127747,-22.613523,1.0874040322327299
0 days 00:00:55.540000,-0.13208,0.9104,-0.064209,8.575439,35.018921,-22.727964,0.9221692263793018
0 days 00:00:55.550000,-0.11377,0.828125,-0.044678,9.872437,30.815123,-28.915403,0.8370966205934653
0 days 00:00:55.560000,-0.237305,0.996338,-0.118408,-21.362303,-22.430418,18.035889,1.0310303233819071
0 days 00:00:55.570000,-0.230957,0.996094,-0.109375,-24.604795,-18.539429,16.304016,1.0283517313205632
0 days 00:00:55.580000,-0.204346,0.982422,-0.099365,-26.931761,-15.136718,14.122008,1.0083569194610607
0 days 00:00:55.590000,-0.19458,0.96167,-0.090088,-27.122496,-9.040833,11.772155,0.9852849400269955
0 days 00:00:55.600000,-0.184326,0.947754,-0.077393,-25.505064,-3.463745,10.81848,0.9686090001858335
0 days 00:00:55.610000,-0.171631,0.942871,-0.06665,-23.200987,0.38147,10.749816,0.9606795226827727
0 days 00:00:55.620000,-0.150391,0.946533,-0.060547,-20.675657,2.212524,11.550902,0.9603166728631759
0 days 00:00:55.630000,-0.141113,0.962402,-0.064941,-17.028809,3.067016,13.130187,0.9748578469982174
0 days 00:00:55.640000,-0.122314,0.994141,-0.076172,-13.710021,0.495911,15.060424,1.0045293505224224
0 days 00:00:55.650000,-0.121582,1.022217,-0.090088,-11.596679,-3.196716,17.089844,1.03335648522521
0 days 00:00:55.660000,-0.140869,1.035645,-0.098145,-8.766174,-8.270264,20.576475,1.049779539813479
0 days 00:00:55.670000,-0.251221,0.997559,-0.119873,-18.15033,-27.023314,19.584656,1.0356666864638449
0 days 00:00:55.680000,-0.119141,1.025879,-0.059082,5.981445,35.804749,-16.960144,1.034462654350557
0 days 00:00:55.690000,-0.120117,0.989014,-0.080566,6.095886,-17.295837,26.94702,0.9995337244140389
0 days 00:00:55.700000,-0.141113,0.97998,-0.061768,14.595031,-15.586852,23.986814,0.9920125830819889
0 days 00:00:55.710000,-0.148438,0.989014,-0.032715,22.895811,-16.868591,25.0473,1.0006262055657946
0 days 00:00:55.720000,-0.139404,1.006348,-0.033447,30.525206,-11.260985,22.3999,1.0165079803567703
0 days 00:00:55.730000,-0.126709,1.069336,-0.027344,33.546448,-2.853393,19.874573,1.0771640292513485
0 days 00:00:55.740000,-0.115479,1.140625,-0.039307,30.868528,8.544922,16.304016,1.1471293869110841
0 days 00:00:55.750000,-0.114502,1.195313,-0.04834,22.453306,19.737244,10.147094,1.2017573097647463
0 days 00:00:55.760000,-0.10376,1.197021,-0.048096,12.908935,26.55792,2.410889,1.202471886264706
0 days 00:00:55.770000,-0.104248,1.134033,-0.057617,7.110595,32.791138,-7.873535,1.140271112184291
0 days 00:00:55.780000,-0.134766,1.022461,-0.091309,-3.135681,-15.045165,24.818419,1.035338449376821
0 days 00:00:55.790000,-0.172852,0.978027,-0.074219,3.662109,-5.279541,1.495361,0.9959533556316782
0 days 00:00:55.800000,-0.178467,0.980225,-0.075195,3.112793,-6.912231,1.487732,0.9991725620427134
0 days 00:00:55.810000,-0.182129,0.981445,-0.075928,2.586365,-8.079529,1.815796,1.0010845727759468
0 days 00:00:55.820000,-0.178955,0.983887,-0.078369,2.441406,-8.430481,1.594543,1.0030953199746273
0 days 00:00:55.830000,-0.168701,1.004883,-0.076904,-1.930237,-18.768311,-0.328064,1.0218434793577733
0 days 00:00:55.840000,-0.162598,0.972168,-0.065918,1.64032,-11.123656,1.213074,0.9878734294189716
0 days 00:00:55.850000,-0.165039,0.984863,-0.063721,-0.25177,-13.938903,0.808716,1.0006264868226307
0 days 00:00:55.860000,-0.170898,1.000244,-0.068604,-1.434326,-16.685486,-0.12207,1.017054912360193
0 days 00:00:55.870000,-0.173096,0.979736,-0.078125,3.974914,-3.440857,1.754761,0.9979721291383844
0 days 00:00:55.880000,-0.171875,0.976318,-0.072998,2.380371,-9.025574,1.159668,0.9940153724933031
0 days 00:00:55.890000,-0.168701,0.982178,-0.081543,3.860473,-1.815796,1.365662,0.9998914500754569
0 days 00:00:55.900000,-0.174561,0.998291,-0.099121,3.181457,2.540588,-1.678467,1.0182737529971988
0 days 00:00:55.910000,-0.17627,0.988525,-0.088623,3.349304,-0.144958,0.488281,1.0080212421640726
0 days 00:00:55.920000,-0.17334,0.988525,-0.092041,3.295898,0.38147,0.061035,1.0078194168133496
0 days 00:00:55.930000,-0.169678,0.990723,-0.100098,3.27301,1.235962,-0.38147,1.010119941401515
0 days 00:00:55.940000,-0.169434,0.992676,-0.100586,3.379822,2.204895,-1.052856,1.0120430152557747
0 days 00:00:55.950000,-0.17627,1.003906,-0.101807,2.540588,2.349854,-2.311707,1.0243354113692447
0 days 00:00:55.960000,-0.175537,1.001221,-0.103027,1.76239,2.326965,-2.494812,1.0217001967010675
0 days 00:00:55.970000,-0.179443,0.995361,-0.097168,1.541138,3.082275,-2.075195,1.016063448212758
0 days 00:00:55.980000,-0.175293,0.986572,-0.098633,2.006531,4.730225,-1.914978,1.006866632539782
0 days 00:00:55.990000,-0.178711,0.985352,-0.098389,2.410889,6.42395,-1.968384,1.006248766829555
0 days 00:00:56,-0.185303,0.989502,-0.099121,2.326965,7.43103,-1.945495,1.0115712443787634
0 days 00:00:56.010000,-0.171631,0.987305,-0.089355,3.608703,-0.648498,0.602722,1.0060878088969174
0 days 00:00:56.020000,-0.168945,1.000977,-0.083252,-1.815796,-20.538328,0.442505,1.0185422244845816
0 days 00:00:56.030000,-0.190674,0.994141,-0.099365,2.174377,7.919311,-1.625061,1.0171264942877065
0 days 00:00:56.040000,-0.166016,0.978516,-0.098877,-1.785278,-25.146482,1.739502,0.9974124200354636
0 days 00:00:56.050000,-0.254639,0.939941,-0.133789,10.887145,-30.189512,6.484985,0.9829697860682189
0 days 00:00:56.060000,-0.251709,0.950195,-0.141357,10.986327,-32.218933,6.896972,0.9930809434054205
0 days 00:00:56.070000,-0.253662,0.965088,-0.148682,10.581969,-34.759521,6.965637,1.0088833406851359
0 days 00:00:56.080000,-0.255615,0.979736,-0.154785,9.887695,-37.67395,6.912231,1.0242949058479205
0 days 00:00:56.090000,-0.254639,0.996582,-0.162109,8.934021,-40.740963,7.164001,1.0412953620015792
0 days 00:00:56.100000,-0.252197,1.008545,-0.161865,7.873535,-43.251034,7.102966,1.0521248129661234
0 days 00:00:56.110000,-0.252197,1.019287,-0.161621,6.896972,-45.768734,6.996154,1.0623891296596555
0 days 00:00:56.120000,-0.248535,1.024902,-0.160645,5.989074,-48.103329,7.095336,1.0667710962779222
0 days 00:00:56.130000,-0.24585,1.028076,-0.153809,5.043029,-50.277706,6.401062,1.0681945949858576
0 days 00:00:56.140000,-0.24585,1.024902,-0.149658,4.371643,-53.298946,5.53894,1.0645486597934357
0 days 00:00:56.150000,-0.240723,1.014893,-0.149902,4.074097,-56.289669,4.440308,1.0537675141045106
0 days 00:00:56.160000,-0.230469,1.005127,-0.151367,4.188538,-58.662411,3.196716,1.0422611068148904
0 days 00:00:56.170000,-0.22168,1.000977,-0.153564,4.272461,-60.18829,2.029419,1.0366671978147086
0 days 00:00:56.180000,-0.213623,1.002197,-0.1521,3.456115,-60.981747,1.464844,1.0359382331674027
0 days 00:00:56.190000,-0.204102,0.999512,-0.150635,2.624511,-60.394283,1.029968,1.0311996740559026
0 days 00:00:56.200000,-0.196533,1.001709,-0.151855,1.495361,-58.219906,0.62561,1.032039767545321
0 days 00:00:56.210000,-0.179688,1.0,-0.141113,-0.053406,-55.305477,-0.289917,1.0257683247756288
0 days 00:00:56.220000,-0.174561,0.992188,-0.129639,-1.243591,-50.98724,-0.785828,1.0157336463788131
0 days 00:00:56.230000,-0.168213,0.983398,-0.119873,-2.037048,-46.615597,-1.014709,1.0048565946949843
0 days 00:00:56.240000,-0.161377,0.970947,-0.112305,-2.593994,-42.16766,-0.442505,0.9906528281708986
0 days 00:00:56.250000,-0.157471,0.959717,-0.108398,-2.677917,-37.712097,0.541687,0.9785724103682875
0 days 00:00:56.260000,-0.159912,0.962891,-0.104248,-2.296448,-32.875061,1.312256,0.9816305675400497
0 days 00:00:56.270000,-0.160156,0.968262,-0.104004,-2.189636,-28.755186,1.38092,0.9869134090668745
0 days 00:00:56.280000,-0.169434,0.990234,-0.091553,-1.487732,-22.361753,1.556396,1.008787989084426
0 days 00:00:56.290000,-0.190918,0.998291,-0.10498,2.059937,8.68988,-1.12915,1.0217902934580072
0 days 00:00:56.300000,-0.212646,0.983887,-0.111328,3.494262,0.328064,0.030518,1.0127417606028695
0 days 00:00:56.310000,-0.195801,0.997803,-0.108154,2.410889,11.894225,-0.434875,1.0225684065753253
0 days 00:00:56.320000,-0.213135,0.990967,-0.125488,-2.098083,-4.196167,-1.167297,1.0213664188027722
0 days 00:00:56.330000,-0.211914,0.989258,-0.117676,-1.64032,-3.082275,-1.022339,1.0185217596772294
0 days 00:00:56.340000,-0.210449,0.980713,-0.112549,-0.770569,-1.808166,-0.778198,1.0093334668834675
0 days 00:00:56.350000,-0.212158,0.975342,-0.103271,0.663757,-0.686645,-0.488281,1.0034779187251706
0 days 00:00:56.360000,-0.218994,0.976318,-0.102783,2.029419,-0.62561,-0.511169,1.0058427085031736
0 days 00:00:56.370000,-0.223877,0.984131,-0.112305,2.677917,-1.426697,-0.518799,1.0155033969982572
0 days 00:00:56.380000,-0.224854,0.990234,-0.119629,2.754211,-2.059937,-0.434875,1.0224645684389264
0 days 00:00:56.390000,-0.221436,0.994873,-0.115479,2.6474,-1.838684,-0.366211,1.0257395320772227
0 days 00:00:56.400000,-0.215332,0.990967,-0.111572,2.838135,-0.946045,-0.137329,1.0202116331903885
0 days 00:00:56.410000,-0.194336,0.998291,-0.11084,2.151489,10.482787,-0.892639,1.0230527391962743
0 days 00:00:56.420000,-0.209961,0.98999,-0.128174,-2.27356,-4.989624,-1.266479,1.020094307354472
0 days 00:00:56.430000,-0.2146,0.980713,-0.109619,4.074097,0.869751,0.015259,1.0098848813255894
0 days 00:00:56.440000,-0.212402,0.987305,-0.116699,3.982544,0.137329,-1.274109,1.0166141988138864
0 days 00:00:56.450000,-0.209229,0.987305,-0.120117,3.700256,-0.267029,-1.846313,1.0163542842704998
0 days 00:00:56.460000,-0.205811,0.980713,-0.122559,3.692627,-0.595093,-2.433777,1.0095428988264936
0 days 00:00:56.470000,-0.201416,0.97583,-0.121338,3.814697,-0.785828,-3.105163,1.0037606807401853
0 days 00:00:56.480000,-0.19873,0.973389,-0.123291,3.875732,-0.938415,-3.639221,1.0010896208142406
0 days 00:00:56.490000,-0.195557,0.976074,-0.123779,3.639221,-1.113892,-4.096985,1.0031371962827418
0 days 00:00:56.500000,-0.195801,0.980713,-0.123047,3.196716,-1.106262,-4.486084,1.007609341053863
0 days 00:00:56.510000,-0.202148,0.981934,-0.122803,3.005981,-1.403808,-4.676819,1.0100191934161449
0 days 00:00:56.520000,-0.206055,0.981934,-0.124756,2.952575,-1.907349,-4.859924,1.011047527526278
0 days 00:00:56.530000,-0.205811,0.982666,-0.125732,2.914428,-3.074646,-5.393981,1.0118296156473185
0 days 00:00:56.540000,-0.21582,0.984375,-0.114258,4.173279,0.656128,-0.534058,1.0142126520552777
0 days 00:00:56.550000,-0.209473,0.985107,-0.130371,-2.548218,-5.767822,-1.174927,1.0155350002924566
0 days 00:00:56.560000,-0.207764,0.984863,-0.129883,2.685547,-4.241943,-5.981445,1.014884526512253
0 days 00:00:56.570000,-0.211182,0.981934,-0.135742,-3.326416,-8.003235,-1.083374,1.013517690049858
0 days 00:00:56.580000,-0.198486,0.990723,-0.109375,2.937317,13.702392,-0.488281,1.0163127695498075
0 days 00:00:56.590000,-0.206055,0.990234,-0.109131,3.036499,15.029906,-0.320435,1.0173158865082172
0 days 00:00:56.600000,-0.208008,0.990723,-0.108887,2.830505,15.785216,0.38147,1.0181629386114974
0 days 00:00:56.610000,-0.212402,0.990234,-0.110107,2.731323,16.456604,1.152039,1.0187254467269382
0 days 00:00:56.620000,-0.219238,0.988525,-0.114502,2.540588,16.624451,1.89209,1.0189983730472782
0 days 00:00:56.630000,-0.223633,0.981689,-0.119873,2.250671,16.319275,2.555847,1.0139499728975785
0 days 00:00:56.640000,-0.210205,0.982666,-0.134277,-2.922058,-6.813049,-1.060486,1.0138288427096558
0 days 00:00:56.650000,-0.228271,0.98291,-0.128174,1.846313,13.09204,3.135681,1.017176627639959
0 days 00:00:56.660000,-0.230469,0.990967,-0.137695,1.022339,10.681151,2.792358,1.02668956753003
0 days 00:00:56.670000,-0.234131,0.998779,-0.139404,-0.175476,8.537292,2.6474,1.035282710769382
0 days 00:00:56.680000,-0.234619,1.000732,-0.14209,-1.426697,7.118225,2.906799,1.0376416429023076
0 days 00:00:56.690000,-0.228516,0.97876,-0.12085,2.166748,15.151977,2.967834,1.0123217978271535
0 days 00:00:56.700000,-0.230225,0.98584,-0.145752,-2.372742,5.546569,3.471374,1.022803843231438
0 days 00:00:56.710000,-0.231934,0.97876,-0.145508,-2.105713,4.386902,3.570556,1.016335129777575
0 days 00:00:56.720000,-0.227783,0.979492,-0.149902,-2.01416,2.288818,3.189087,1.0167400271244367
0 days 00:00:56.730000,-0.229004,0.985596,-0.148682,-2.601623,-0.160217,2.624511,1.022716306878892
0 days 00:00:56.740000,-0.232666,0.994141,-0.14624,-3.27301,-2.487183,1.815796,1.031424225543011
0 days 00:00:56.750000,-0.227783,0.98877,-0.142822,-3.746032,-4.432678,0.968933,1.0246703526856822
0 days 00:00:56.760000,-0.226318,0.980957,-0.136963,-3.509521,-6.034851,0.274658,1.015999673396601
0 days 00:00:56.770000,-0.220703,0.976807,-0.135498,-3.120422,-7.575988,-0.289917,1.0105550145647688
0 days 00:00:56.780000,-0.215332,0.973633,-0.137451,-3.097534,-8.674622,-0.808716,1.0065892242190952
0 days 00:00:56.790000,-0.213867,0.978271,-0.138672,-3.227234,-8.796692,-0.961304,1.0109318308936563
0 days 00:00:56.800000,-0.229736,0.994629,-0.144287,-2.01416,6.309509,3.211975,1.0309627615515509
0 days 00:00:56.810000,-0.053223,3.202148,-0.759277,249.900803,-155.792236,-100.059502,3.291365379954344
0 days 00:00:56.820000,-0.199707,3.208984,-0.745117,249.107346,-187.04985,-101.753227,3.300403087774886
0 days 00:00:56.830000,-0.408203,3.180908,-0.656006,249.992355,-209.716782,-98.419182,3.2734002605408645
0 days 00:00:56.840000,-0.5625,2.936523,-0.558105,249.992355,-220.794662,-89.24865,3.04155466341705
0 days 00:00:56.850000,-0.671875,1.344727,-0.304688,249.992355,-146.812439,-37.277222,1.5337996927558697
0 days 00:00:56.860000,-0.761719,2.283447,-0.42334,249.992355,-207.946762,-59.55505,2.4440873127550082
0 days 00:00:56.870000,-0.722168,1.967041,-0.351807,249.992355,-186.68364,-49.545284,2.124745886254166
0 days 00:00:56.880000,-0.678711,1.634521,-0.322754,249.992355,-165.641769,-40.519711,1.7990213076775938
0 days 00:00:56.890000,-0.695801,2.583496,-0.484375,249.977097,-220.19957,-72.853088,2.719045743315474
0 days 00:00:56.900000,-0.069336,3.403809,-0.682129,249.992355,-116.134636,-87.867729,3.4721784461657497
0 days 00:00:56.910000,-0.243896,1.001953,0.532227,-180.480942,-135.032654,38.093567,1.160457087769298
0 days 00:00:56.920000,-0.12085,3.603027,-0.569336,116.523735,-50.262447,-43.487545,3.6497331088896074
0 days 00:00:56.930000,-0.38208,2.814941,-0.343506,93.490593,-21.087645,-39.665222,2.8614461958801534
0 days 00:00:56.940000,-0.693115,2.10376,-0.143066,155.838013,-18.1427,-58.876034,2.2196131242135415
0 days 00:00:56.950000,-1.021973,2.287109,-0.309082,199.40947,-102.828972,-131.759644,2.52404993479408
0 days 00:00:56.960000,-1.730713,3.433594,-0.897217,73.08197,-225.341782,-184.211716,3.9484089948096814
0 days 00:00:56.970000,-2.048828,4.037842,-1.302246,-163.696274,-249.992355,-106.666557,4.71144445314428
0 days 00:00:56.980000,-1.322266,3.226074,-1.659424,-249.992355,-248.756393,27.923582,3.861298854013763
0 days 00:00:56.990000,-0.588135,1.994385,-1.11084,-242.256149,-205.100998,49.926754,2.357422281232194
0 days 00:00:57,-0.327393,1.325195,0.000244,-217.124924,-174.125656,35.575867,1.3650377372109532
0 days 00:00:57.010000,-0.274658,1.127686,0.45874,-198.974594,-150.45929,34.042358,1.2480204802646468
0 days 00:00:57.020000,-0.648193,1.095703,-0.279297,249.992355,-129.356384,-40.954586,1.303351849527594
0 days 00:00:57.030000,-0.119385,3.750244,-0.658447,218.353256,-80.79528,-63.247677,3.8094796612621518
0 days 00:00:57.040000,-0.627197,0.910889,-0.260498,249.992355,-114.463799,-48.072811,1.136201590886934
0 days 00:00:57.050000,-0.748535,1.382324,0.115967,249.992355,-132.553101,-249.992355,1.5762527184084412
0 days 00:00:57.060000,-0.575684,0.710938,-0.210693,249.992355,-94.001762,-71.601868,0.9387419496054279
0 days 00:00:57.070000,-0.305176,0.853271,0.478516,-158.355713,-130.561829,38.368225,1.0247835638187217
0 days 00:00:57.080000,-0.849121,2.327393,0.266113,208.213791,53.855892,-249.992355,2.4917023854904903
0 days 00:00:57.090000,-1.006104,2.541504,0.278076,208.259567,27.610777,-249.992355,2.747510528206944
0 days 00:00:57.100000,-1.226318,2.717285,0.304932,217.498764,-6.027221,-249.992355,2.9967444223645434
0 days 00:00:57.110000,-1.40332,2.776855,0.257813,234.573349,-46.340939,-249.992355,3.121970252323683
0 days 00:00:57.120000,-1.359619,2.662354,0.291992,248.466476,-86.868279,-249.992355,3.0036564341716914
0 days 00:00:57.130000,-1.152588,2.493164,0.337891,249.992355,-111.862175,-249.992355,2.767398806916163
0 days 00:00:57.140000,-0.921875,2.331055,0.390137,249.992355,-115.852348,-249.992355,2.5369031923624914
0 days 00:00:57.150000,-0.822266,2.187012,0.378418,249.992355,-110.168449,-249.992355,2.3669269202119443
0 days 00:00:57.160000,-0.837158,2.01709,0.294189,249.992355,-109.329216,-249.992355,2.2036407948631282
0 days 00:00:57.170000,-0.600342,0.788574,-0.248291,249.992355,-103.218071,-58.212276,1.0217181074645785
0 days 00:00:57.180000,-0.876465,1.809814,0.20874,249.992355,-118.896477,-249.992355,2.0216799940695362
0 days 00:00:57.190000,-0.8396,1.442871,0.05835,249.992355,-135.406494,-249.992355,1.67039205132837
0 days 00:00:57.200000,-0.698242,1.411621,0.196289,249.992355,-128.875732,-238.296494,1.5870554841359517
0 days 00:00:57.210000,-0.737793,1.467773,0.191895,249.992355,-129.249573,-213.867172,1.653940682552733
0 days 00:00:57.220000,-0.803711,1.448242,0.124268,249.992355,-133.811951,-190.971359,1.6609632138939743
0 days 00:00:57.230000,-0.838623,1.303467,0.054688,249.992355,-134.002686,-171.249374,1.55090474677267
0 days 00:00:57.240000,-0.793213,1.081299,-0.004395,249.992355,-125.015251,-150.505066,1.3410494796222099
0 days 00:00:57.250000,-0.657227,0.871826,-0.022949,249.992355,-110.755913,-131.416321,1.0920414646001313
0 days 00:00:57.260000,-0.569336,0.731445,-0.038086,249.992355,-97.106926,-117.34771,0.927688424158133
0 days 00:00:57.270000,-0.563232,0.675049,-0.092773,249.992355,-88.684074,-103.157036,0.8840408744814914
0 days 00:00:57.280000,-0.565674,0.675781,-0.153564,249.992355,-88.020317,-87.242119,0.8945663398166734
0 days 00:00:57.290000,-0.878418,1.603271,0.088623,249.992355,-131.088257,-249.725327,1.8302868950779274
0 days 00:00:57.300000,-0.356201,0.680908,0.402588,-132.980347,-138.153076,31.188963,0.867520578781276
0 days 00:00:57.310000,-0.291748,0.497803,0.408447,-103.515617,-154.251099,22.750853,0.7069325810301856
0 days 00:00:57.320000,-0.21875,0.381104,0.465576,-77.468872,-173.164352,17.333984,0.6401974953809176
0 days 00:00:57.330000,0.000244,1.117188,-0.246826,43.579098,-100.868217,-15.960692,1.144129433742529
0 days 00:00:57.340000,0.012451,1.080566,-0.232422,39.68811,-92.926018,-14.183043,1.105349670394396
0 days 00:00:57.350000,0.006592,1.032471,-0.197998,38.467407,-80.200195,-8.636475,1.0513053925044804
0 days 00:00:57.360000,0.044922,0.996338,-0.2146,37.391663,-65.78064,-4.325867,1.020176727987852
0 days 00:00:57.370000,0.074707,1.010742,-0.216797,32.463074,-49.774166,-2.319336,1.0364272601692799
0 days 00:00:57.380000,0.043945,1.075195,-0.184326,24.452208,-31.265257,0.282288,1.0917653252077573
0 days 00:00:57.390000,-0.051025,1.150635,-0.22876,14.503478,-14.968871,1.708984,1.1742638508657244
0 days 00:00:57.400000,-0.099121,1.18335,-0.307617,5.714416,-4.333496,1.533508,1.2266908387324003
0 days 00:00:57.410000,-0.119385,1.152832,-0.316162,-1.403808,0.335693,0.640869,1.2013462484617
0 days 00:00:57.420000,-0.244141,1.02002,-0.108154,-1.411438,4.241943,2.906799,1.0543922021700463
0 days 00:00:57.430000,-0.03418,1.128662,-0.246826,47.920223,-105.545036,-15.663146,1.1558413632155582
0 days 00:00:57.440000,-0.259033,0.997559,-0.089844,0.205994,4.631042,4.15802,1.0345501427702768
0 days 00:00:57.450000,-0.276367,0.983887,-0.080566,2.456665,4.867554,5.92041,1.0251357119006244
0 days 00:00:57.460000,-0.285645,0.983154,-0.092041,3.211975,2.525329,6.385803,1.0279379355885256
0 days 00:00:57.470000,-0.289551,0.983154,-0.101318,3.65448,-1.541138,6.149292,1.0299014061748824
0 days 00:00:57.480000,-0.288818,0.97583,-0.109619,4.043579,-7.148742,5.256652,1.0235606240887736
0 days 00:00:57.490000,-0.290771,0.962646,-0.120117,4.943848,-12.96997,4.089355,1.0127503095264894
0 days 00:00:57.500000,-0.283203,0.953125,-0.119629,6.362915,-18.127441,3.15094,1.0014800559546855
0 days 00:00:57.510000,-0.279541,0.947021,-0.119629,7.720947,-22.02606,3.440857,0.9946371412545381
0 days 00:00:57.520000,-0.271484,0.938232,-0.123291,9.010315,-25.352476,4.104614,0.9844711873696456
0 days 00:00:57.530000,-0.260742,0.933594,-0.12793,9.902954,-27.542112,5.043029,0.9777270745458572
0 days 00:00:57.540000,-0.255859,0.934814,-0.132568,10.398864,-28.800962,5.683898,0.9782204849117606
0 days 00:00:57.550000,-0.267578,0.986816,-0.080078,1.304626,5.119323,5.088806,1.0255809524479285
0 days 00:00:57.560000,-0.062988,1.115967,-0.231689,52.131649,-109.382622,-16.25061,1.1415032308118973
0 days 00:00:57.570000,-0.194824,1.078125,-0.215332,-3.662109,3.089905,1.411438,1.1165472568704828
0 days 00:00:57.580000,-0.012451,1.080322,-0.18457,56.701656,-122.589104,-19.386292,1.096045955234086
0 days 00:00:57.590000,-0.056885,1.0979,-0.205078,55.152889,-114.997856,-18.409729,1.1183368451897668
0 days 00:00:57.600000,-0.365479,0.318604,0.4646,-42.121883,-206.817612,22.78137,0.6715181071698663
0 days 00:00:57.610000,-0.361328,0.313965,0.412354,-27.626036,-222.015366,25.131224,0.631797250805193
0 days 00:00:57.620000,-0.313477,0.305176,0.419189,-9.872437,-228.26384,18.737793,0.6059039843292005
0 days 00:00:57.630000,-0.200439,0.313965,0.478271,4.15802,-232.261642,14.030456,0.6062119789207402
0 days 00:00:57.640000,-0.144043,0.345215,0.495605,11.688231,-224.288925,15.678405,0.6209235847501687
0 days 00:00:57.650000,-0.175049,0.396973,0.51709,15.319823,-207.176193,18.875122,0.6749902097290005
0 days 00:00:57.660000,-0.127197,0.443604,0.467041,20.1416,-200.584396,17.158508,0.6565751147477339
0 days 00:00:57.670000,-0.17749,0.494873,0.371826,29.33502,-195.213303,18.554688,0.6439383204197433
0 days 00:00:57.680000,-0.27002,0.579834,0.329102,37.994385,-194.015488,21.766661,0.7193235672213165
0 days 00:00:57.690000,-0.097412,0.699707,0.238525,35.705566,-211.769089,17.364502,0.7456360769289533
0 days 00:00:57.700000,-0.282715,0.327637,0.46875,-57.586666,-189.102158,17.501831,0.6379657808174354
0 days 00:00:57.710000,-0.351807,0.824707,0.199463,39.268494,-202.545151,23.117064,0.918528872418826
0 days 00:00:57.720000,-0.188477,0.766602,0.150146,35.133362,-210.922226,20.149229,0.8035832422649193
0 days 00:00:57.730000,-0.005615,1.004639,-0.14209,60.142513,-139.160156,-12.992858,1.014652953795533
0 days 00:00:57.740000,-0.037109,0.950195,-0.113525,59.341427,-144.14978,-8.010864,0.9576719383645947
0 days 00:00:57.750000,-0.17334,0.961182,-0.133301,49.964901,-159.744263,-11.085509,0.9857417254661588
0 days 00:00:57.760000,0.377686,0.978516,-0.16748,29.624937,-237.518295,-74.867249,1.0621628063776287
0 days 00:00:57.770000,0.010498,1.052734,-0.171387,58.158871,-131.568909,-17.524719,1.0666454830584529
0 days 00:00:57.780000,-0.690918,0.696777,0.186768,60.722347,-207.694992,15.182494,0.9988734435738092
0 days 00:00:57.790000,-0.181885,0.838623,0.04834,29.136656,-220.718369,-3.089905,0.8594809159917397
0 days 00:00:57.800000,-0.019043,0.933594,0.158203,27.656553,-224.990829,2.5177,0.9470948114597608
0 days 00:00:57.810000,-0.054443,0.814453,0.1521,60.340878,-249.084457,-22.308348,0.8303205040573188
0 days 00:00:57.820000,-0.640625,1.337891,-0.559814,229.77446,-147.445679,14.083861,1.5854792439833452
0 days 00:00:57.830000,-0.634033,0.649658,0.01709,249.80162,-58.837887,-137.779236,0.9079347058863869
0 days 00:00:57.840000,-0.686768,0.70166,-0.087402,249.992355,-55.465694,-115.280144,0.9857059150821811
0 days 00:00:57.850000,-0.766113,0.783203,-0.205322,248.825058,-59.04388,-93.696587,1.1146717865192426
0 days 00:00:57.860000,-0.881104,0.851318,-0.339355,233.406052,-69.908142,-74.279785,1.2713175889466015
0 days 00:00:57.870000,-0.966553,0.906494,-0.463623,221.717819,-84.228508,-54.031368,1.4038883003907399
0 days 00:00:57.880000,-0.904297,0.976318,-0.515137,216.232285,-97.892754,-30.799864,1.4269954555295543
0 days 00:00:57.890000,-0.662598,0.646729,0.087646,249.93895,-62.07275,-159.736633,0.9300410369231027
0 days 00:00:57.900000,-0.727783,1.068848,-0.549072,212.63121,-111.244194,-9.376526,1.4048431241163548
0 days 00:00:57.910000,-0.640869,1.188477,-0.588379,213.401779,-126.800529,5.271911,1.4728817000462053
0 days 00:00:57.920000,-0.593506,1.530029,-0.517334,248.107895,-165.962204,17.318726,1.7207186232597704
0 days 00:00:57.930000,-0.666992,2.839844,-0.457275,249.992355,-34.881592,-33.828735,2.9527432495943495
0 days 00:00:57.940000,-0.740967,2.189941,-0.404297,249.992355,-167.175278,13.679503,2.3469831151456972
0 days 00:00:57.950000,-0.754883,2.622314,-0.332764,249.992355,-143.463135,7.621765,2.749019995922365
0 days 00:00:57.960000,-0.673584,2.851318,-0.335205,249.992355,-91.323845,-7.629394,2.948913721051364
0 days 00:00:57.970000,-0.868164,3.161621,-0.552246,249.992355,-15.525817,-57.060238,3.324835593386987
0 days 00:00:57.980000,-0.951904,4.179199,-0.603516,249.992355,-26.93939,-67.03186,4.328516728519482
0 days 00:00:57.990000,-0.757568,4.443359,-0.724365,249.893173,-36.209106,-65.963745,4.565309751893074
0 days 00:00:58,-0.701416,3.446289,-0.550781,249.992355,-32.341003,-83.854668,3.5598106672318965
0 days 00:00:58.010000,-0.153809,2.530029,-0.242676,249.992355,-19.78302,-145.027161,2.546290554963828
0 days 00:00:58.020000,0.04541,1.824219,-0.035156,245.506271,9.635925,-153.541565,1.8251227280369395
0 days 00:00:58.030000,-0.816162,0.72583,0.091797,249.992355,-61.546322,-181.304916,1.0960731218093982
0 days 00:00:58.040000,-0.632813,1.799561,-0.484619,249.992355,-172.721848,16.647339,1.9681787675033484
0 days 00:00:58.050000,-0.888428,0.887695,0.104736,249.992355,-58.433529,-204.772934,1.2602683658272948
0 days 00:00:58.060000,2.463135,-1.04248,2.3125,249.992355,151.832581,-206.932053,3.5357396437838857
0 days 00:00:58.070000,-0.723389,1.263428,0.205078,249.992355,-40.313717,-247.489914,1.4702377163537195
0 days 00:00:58.080000,-0.035889,1.553467,-0.256104,249.992355,55.313107,-118.812553,1.5748450714994155
0 days 00:00:58.090000,2.094727,-0.474121,1.585449,249.992355,146.652222,-198.570236,2.6695168961388873
0 days 00:00:58.100000,1.929688,-0.118896,1.294189,249.992355,164.115891,-199.78331,2.326533301691811
0 days 00:00:58.110000,2.147949,0.189453,1.160645,249.992355,155.670166,-237.609848,2.4488107648070727
0 days 00:00:58.120000,1.797607,0.541992,0.915771,249.992355,144.203186,-249.992355,2.088966916672928
0 days 00:00:58.130000,0.73999,0.81958,0.30249,249.992355,149.085999,-249.992355,1.1449003347890157
0 days 00:00:58.140000,-0.066162,0.926514,-0.366211,249.992355,154.10614,-249.992355,0.9984568588381773
0 days 00:00:58.150000,-0.280518,1.116943,-0.527588,249.992355,159.080505,-249.992355,1.2667285073436219
0 days 00:00:58.160000,-0.562744,1.45166,-0.413574,249.93132,169.395432,-249.992355,1.6109131008878161
0 days 00:00:58.170000,-0.841064,1.725098,-0.337402,249.816879,176.47551,-249.992355,1.9486384660331428
0 days 00:00:58.180000,-0.943604,1.907715,-0.262451,249.992355,181.076035,-249.992355,2.144445279656723
0 days 00:00:58.190000,-1.086182,1.982422,-0.220947,248.352036,183.174118,-249.992355,2.271256458442551
0 days 00:00:58.200000,-1.16748,1.927246,-0.198486,232.322678,170.41777,-249.992355,2.262008706241424
0 days 00:00:58.210000,-1.123779,1.810791,-0.055908,222.450241,140.266418,-249.992355,2.1318932878983414
0 days 00:00:58.220000,-0.969727,1.696777,0.023682,218.292221,104.698174,-249.992355,1.9544778022228853
0 days 00:00:58.230000,-0.835938,1.577637,0.076416,220.413193,67.619324,-249.992355,1.787056308197646
0 days 00:00:58.240000,-0.874756,1.44751,0.09082,240.249619,23.582457,-249.992355,1.69373301675205
0 days 00:00:58.250000,-0.91748,1.312256,0.093506,249.992355,-26.954649,-249.992355,1.6039104501099806
0 days 00:00:58.260000,-0.787109,1.314941,0.119629,249.992355,-63.789364,-249.992355,1.5371797256674313
0 days 00:00:58.270000,-0.626465,1.426514,0.175537,249.992355,-72.20459,-249.992355,1.5678691995156993
0 days 00:00:58.280000,-0.63623,1.515381,0.244141,249.992355,-58.998104,-249.916061,1.6615574067548795
0 days 00:00:58.290000,-0.706299,1.51709,0.230713,249.992355,-43.907162,-249.847397,1.6892746472584026
0 days 00:00:58.300000,-0.716064,1.419922,0.216309,249.992355,-37.384033,-249.992355,1.6049036487157102
0 days 00:00:58.310000,-0.793213,1.080078,0.158203,249.992355,-50.10223,-228.752121,1.3493641238235141
0 days 00:00:58.320000,0.882568,2.310791,-0.408203,249.992355,74.180603,-156.898499,2.507052255042563
0 days 00:00:58.330000,-0.588379,2.11084,0.307129,204.223618,76.187134,-249.992355,2.212727632557157
0 days 00:00:58.340000,-0.670654,7.999756,-6.303955,-240.844711,167.312607,118.888847,10.207140710761118
0 days 00:00:58.350000,-0.944824,2.36792,0.447021,-249.992355,-249.992355,249.992355,2.588351848535473
0 days 00:00:58.360000,-0.590576,2.124268,0.779785,-249.992355,-249.992355,249.992355,2.338666114225158
0 days 00:00:58.370000,-0.590576,1.800293,0.675537,-249.992355,-249.259933,249.992355,2.0115131458665636
0 days 00:00:58.380000,-0.229004,1.411621,0.537842,-249.992355,-249.992355,249.992355,1.5278712958299205
0 days 00:00:58.390000,0.14917,1.033936,0.369141,-249.992355,-249.992355,249.992355,1.1079442309417022
0 days 00:00:58.400000,0.508301,0.735352,0.302979,-249.610886,-216.468796,249.992355,0.9438796241820246
0 days 00:00:58.410000,0.900879,0.470215,0.42627,-249.595627,-147.666931,249.450668,1.1019942067751536
0 days 00:00:58.420000,1.26709,0.269287,0.728271,-249.992355,-69.519043,249.992355,1.4860724093764746
0 days 00:00:58.430000,1.689941,0.155273,1.183105,-237.800583,6.286621,249.992355,2.0687551157725266
0 days 00:00:58.440000,2.742188,-0.201416,2.346436,-121.986382,196.876511,154.998779,3.6146819133218346
0 days 00:00:58.450000,-1.34082,2.621338,-0.082031,-249.992355,-248.451218,249.992355,2.9454949104700554
0 days 00:00:58.460000,3.60791,-0.601807,2.680908,-57.228085,249.992355,85.250847,4.535025241143979
0 days 00:00:58.470000,3.523682,-1.347656,3.27124,189.048752,249.984726,-136.985779,4.993347841785108
0 days 00:00:58.480000,2.980713,-0.935059,2.411133,246.307358,249.992355,-245.605453,3.946206743892038
0 days 00:00:58.490000,2.61499,-0.483398,1.472168,245.89537,249.80925,-249.992355,3.0395928916103223
0 days 00:00:58.500000,2.405029,-0.156982,1.001709,249.992355,249.114975,-249.992355,2.610024666520606
0 days 00:00:58.510000,2.498535,0.171875,0.781006,241.203293,249.992355,-249.992355,2.6233925619102454
0 days 00:00:58.520000,2.616455,0.587402,0.89917,224.273666,246.971115,-249.992355,2.828318328181784
0 days 00:00:58.530000,1.865479,1.164307,0.73584,200.988754,184.165939,-249.992355,2.3188538538014853
0 days 00:00:58.540000,0.730469,1.6521,0.493896,195.640549,133.529663,-249.992355,1.8726859397071896
0 days 00:00:58.550000,-0.130615,1.912109,0.400879,199.501022,102.104179,-249.992355,1.9580411330579857
0 days 00:00:58.560000,-0.703613,5.520996,-1.845215,77.575684,89.553825,-71.342468,5.863555788257668
0 days 00:00:58.570000,4.074951,-1.157959,3.109131,43.846127,249.992355,13.572692,5.254787367081851
0 days 00:00:58.580000,-1.46167,2.838135,-0.364502,-249.992355,-236.633286,249.992355,3.2131528403001623
0 days 00:00:58.590000,2.152832,0.021729,1.781738,-175.84227,85.678093,220.870956,2.7945926483673786
0 days 00:00:58.600000,-1.473633,2.868408,-0.169189,-249.992355,-225.791916,249.992355,3.2292388562746486
0 days 00:00:58.610000,-1.469238,2.925537,-0.291992,-249.992355,-232.284531,249.992355,3.286744037353228
0 days 00:00:58.620000,-2.304199,4.130371,-4.095703,-249.992355,202.17131,152.22168,6.256523051460052
0 days 00:00:58.630000,-1.659668,2.282715,-2.480957,-249.992355,129.646301,158.737183,3.7577164977281083
0 days 00:00:58.640000,-0.887939,1.646973,-0.466553,-249.992355,128.417969,168.495163,1.9283742977593847
0 days 00:00:58.650000,-0.471924,1.445068,0.159424,-249.992355,156.196594,162.666306,1.5285122826382522
0 days 00:00:58.660000,-0.47998,1.447021,-0.097412,-249.992355,182.929977,167.594894,1.5276582316031944
0 days 00:00:58.670000,-0.611816,1.495605,-0.512939,-249.992355,201.827988,179.328903,1.695364135400416
0 days 00:00:58.680000,-0.72876,1.510254,-0.687988,-249.992355,214.302048,196.121201,1.8125357293747342
0 days 00:00:58.690000,-0.888916,1.512695,-0.497314,-249.992355,228.416428,235.725388,1.823660887521855
0 days 00:00:58.700000,-0.905273,1.554443,-0.017822,-249.992355,245.697006,249.992355,1.798924642241025
0 days 00:00:58.710000,-0.847412,1.618408,0.225342,-249.992355,249.488815,249.992355,1.84068752621731
0 days 00:00:58.720000,-1.446533,6.767334,-5.234863,-249.992355,249.992355,175.445541,8.677157242807924
0 days 00:00:58.730000,-0.91333,1.756836,0.140137,-249.992355,249.992355,249.992355,1.9850145587791037
0 days 00:00:58.740000,-0.854736,1.679688,0.230469,-249.992355,249.992355,249.992355,1.8986946481730547
0 days 00:00:58.750000,-1.317627,2.371338,0.330566,-249.992355,-181.968674,249.992355,2.732884685040516
0 days 00:00:58.760000,-1.250488,2.31958,0.422119,-249.992355,-158.218384,249.992355,2.6687742625979065
0 days 00:00:58.770000,-1.196289,2.317383,0.477051,-249.992355,-126.892082,249.992355,2.6512165126241576
0 days 00:00:58.780000,-1.207764,2.286865,0.383057,-249.992355,-78.239441,249.992355,2.614417348697411
0 days 00:00:58.790000,-1.423096,2.601563,0.114502,-249.992355,-204.513535,249.992355,2.9675651595523562
0 days 00:00:58.800000,-1.289551,2.113037,0.065186,-249.992355,82.290642,249.992355,2.4763110385341336
0 days 00:00:58.810000,-1.211182,1.987549,0.019775,-249.992355,164.573654,249.992355,2.327596166681411
0 days 00:00:58.820000,-1.057129,1.865723,0.037354,-249.992355,228.370651,249.992355,2.144723608460074
0 days 00:00:58.830000,-1.268311,2.21875,0.200439,-249.992355,-4.150391,249.992355,2.5635210449578913
0 days 00:00:58.840000,-0.862305,0.651367,-0.192383,249.992355,-94.490044,-192.413315,1.0976611956350648
0 days 00:00:58.850000,-1.056641,2.154297,0.154541,249.992355,1.441955,-249.992355,2.4044476887158517
0 days 00:00:58.860000,-1.1521,1.94165,-0.04126,249.992355,-31.524656,-249.992355,2.2581057371389854
0 days 00:00:58.870000,-1.085693,1.584961,-0.108887,249.992355,-59.463497,-249.969467,1.9242367423316187
0 days 00:00:58.880000,-0.925781,1.249268,-0.000977,249.671921,-78.468323,-249.732956,1.5549089845756245
0 days 00:00:58.890000,-0.797607,0.981445,0.096191,249.694809,-89.637749,-249.992355,1.2683311566601996
0 days 00:00:58.900000,-0.75415,0.767334,0.146729,249.992355,-91.804497,-249.946579,1.0858513201617428
0 days 00:00:58.910000,-0.905762,2.163818,0.365723,249.992355,28.350828,-249.992355,2.374082233305536
0 days 00:00:58.920000,-0.744873,0.635254,0.119873,249.992355,-89.942924,-232.482895,0.9862823970719542
0 days 00:00:58.930000,-0.793701,0.607666,-0.012207,249.992355,-89.668266,-212.814316,0.9996840779996449
0 days 00:00:58.940000,-0.877441,0.752686,-0.334961,249.954208,-104.667656,-170.249924,1.2035936999660641
0 days 00:00:58.950000,-1.02417,1.279541,-0.695801,249.992355,-240.028366,-66.986084,1.7805303679471463
0 days 00:00:58.960000,-0.896973,1.001709,-0.428467,249.992355,-130.256653,-127.105705,1.4112283491692619
0 days 00:00:58.970000,-0.916504,1.103271,-0.510498,247.573837,-152.313232,-107.528679,1.5224305204051185
0 days 00:00:58.980000,-0.95874,1.185547,-0.642822,248.863205,-193.061813,-89.767448,1.6546673987520875
0 days 00:00:58.990000,-1.0,1.442139,-0.616455,249.992355,-249.992355,-42.808529,1.860048833322932
0 days 00:00:59,-0.889893,1.652344,-0.5,249.992355,-249.93895,-24.887083,1.942202421423936
0 days 00:00:59.010000,-0.824219,1.959229,-0.546631,249.992355,-248.748764,-16.555786,2.1947028693112425
0 days 00:00:59.020000,-0.836426,2.376953,-0.572266,249.992355,-249.992355,-13.389586,2.583989626999497
0 days 00:00:59.030000,-0.891846,2.840088,-0.563721,249.992355,-249.992355,-5.561828,3.029731093892823
