t,ax,ay,az,gx,gy,gz,acc_mag
0 days 00:00:39.970000,-0.311768,0.991455,0.241211,0.480652,-2.975464,-0.457764,1.066941914712324
0 days 00:00:39.980000,-0.310791,0.99292,0.241943,0.541687,-3.204345,-0.473022,1.0681842478383587
0 days 00:00:39.990000,-0.308105,0.993408,0.243652,0.587463,-3.265381,-0.358582,1.068248305682251
0 days 00:00:40,-0.306641,0.989014,0.229492,0.1297,-0.991821,-0.480652,1.0605866174627134
0 days 00:00:40.010000,-0.3125,0.991455,0.239502,0.717163,-2.998352,-0.312805,1.0667710508956456
0 days 00:00:40.020000,-0.316406,0.989258,0.240967,0.778198,-2.487183,-0.12207,1.0662125690916422
0 days 00:00:40.030000,-0.315918,0.990967,0.241211,0.778198,-2.471924,-0.007629,1.067709007330181
0 days 00:00:40.040000,-0.318115,0.990723,0.239258,0.75531,-2.624511,0.137329,1.0676954652512112
0 days 00:00:40.050000,-0.318604,0.990234,0.236572,0.770569,-2.799988,-0.015259,1.0667887301410715
0 days 00:00:40.060000,-0.314697,0.98999,0.235596,0.686645,-2.777099,-0.091553,1.0651853721888036
0 days 00:00:40.070000,-0.310303,0.989258,0.234863,0.740051,-2.502441,-0.221252,1.0630521958690458
0 days 00:00:40.080000,-0.305908,0.988525,0.237061,0.823975,-1.983642,-0.335693,1.0615833918303357
0 days 00:00:40.090000,-0.305664,0.990967,0.238037,0.785828,-1.724243,-0.419617,1.0640054931033016
0 days 00:00:40.100000,-0.307373,0.993896,0.241943,0.801086,-1.869202,-0.587463,1.0681029141398313
0 days 00:00:40.110000,-0.307373,0.992432,0.243408,0.846863,-2.159119,-0.762939,1.067073985352937
0 days 00:00:40.120000,-0.313477,0.989502,0.240723,0.724792,-2.632141,-0.175476,1.065518465472091
0 days 00:00:40.130000,-0.305908,0.991211,0.228027,0.106812,-0.709534,-0.396728,1.062108875640346
0 days 00:00:40.140000,-0.308594,0.99292,0.244141,0.686645,-2.540588,-0.671387,1.0680473824306673
0 days 00:00:40.150000,-0.308838,0.991699,0.230957,0.25177,-0.198364,-0.297546,1.064043679880671
0 days 00:00:40.160000,-0.315918,0.992432,0.236084,0.305176,0.587463,-0.015259,1.0679237390394503
0 days 00:00:40.170000,-0.313965,0.994873,0.234619,0.190735,0.701904,0.12207,1.0692952737738066
0 days 00:00:40.180000,-0.313232,0.990479,0.234375,0.328064,0.938415,0.114441,1.0649387662631125
0 days 00:00:40.190000,-0.315674,0.990967,0.231201,0.259399,0.968933,0.12207,1.0654199039655678
0 days 00:00:40.200000,-0.317871,0.995117,0.233154,-0.038147,0.900268,0.038147,1.0703553634405725
0 days 00:00:40.210000,-0.313965,0.994629,0.233887,-0.198364,0.701904,0.190735,1.0689078527333402
0 days 00:00:40.220000,-0.306396,0.990234,0.231689,0.221252,-0.37384,-0.213623,1.0621307246723446
0 days 00:00:40.230000,-0.310791,0.991699,0.234619,-0.305176,0.915527,-0.038147,1.0654126090125835
0 days 00:00:40.240000,-0.308594,0.990479,0.234375,-0.343323,0.915527,-0.312805,1.0635838222265324
0 days 00:00:40.250000,-0.307861,0.987305,0.235352,-0.480652,0.961304,-0.473022,1.0606319447621781
0 days 00:00:40.260000,-0.310791,0.989746,0.23877,-0.38147,1.075745,-0.442505,1.064518343241205
0 days 00:00:40.270000,-0.312988,0.99292,0.23584,-0.343323,0.88501,0.045776,1.0674605941879074
0 days 00:00:40.280000,-0.313232,0.988525,0.243408,-0.244141,1.182556,-0.389099,1.0651494805486224
0 days 00:00:40.290000,-0.313477,0.991455,0.244141,-0.152588,1.205444,-0.205994,1.0681084563072234
0 days 00:00:40.300000,-0.318604,0.993408,0.244141,-0.144958,1.083374,-0.091553,1.071434921570601
0 days 00:00:40.310000,-0.317139,0.994141,0.242676,0.0,0.984192,0.022888,1.071347335917722
0 days 00:00:40.320000,-0.315918,0.997559,0.241211,0.068665,0.747681,0.091553,1.0738300087658195
0 days 00:00:40.330000,-0.314697,0.996338,0.237793,0.091553,0.572205,-0.061035,1.071573199973758
0 days 00:00:40.340000,-0.313477,0.99585,0.237305,0.038147,0.564575,-0.106812,1.0706534056612345
0 days 00:00:40.350000,-0.312012,0.995117,0.234375,0.068665,0.335693,-0.190735,1.0688970822572208
0 days 00:00:40.360000,-0.310303,0.993652,0.230713,0.198364,0.076294,-0.228882,1.0662367172827991
0 days 00:00:40.370000,-0.310303,0.993408,0.229736,0.183105,-0.068665,-0.259399,1.0657983092353824
0 days 00:00:40.380000,-0.314453,0.989258,0.243896,-0.25177,1.106262,-0.450134,1.0663007730415466
0 days 00:00:40.390000,-0.322021,0.990479,0.241211,0.488281,0.259399,-0.267029,1.069078537995689
0 days 00:00:40.400000,-0.320557,0.987061,0.241455,0.595093,0.389099,-0.328064,1.0655265013105024
0 days 00:00:40.410000,-0.321777,0.988037,0.241455,0.518799,0.25177,-0.282288,1.0667980446752796
0 days 00:00:40.420000,-0.320068,0.990234,0.23877,0.465393,0.083923,-0.297546,1.0677162601927537
0 days 00:00:40.430000,-0.320313,0.989746,0.238525,0.62561,-0.312805,-0.50354,1.0672824078518302
0 days 00:00:40.440000,-0.319824,0.989746,0.23999,0.488281,-0.236511,-0.511169,1.0674641612681899
0 days 00:00:40.450000,-0.321777,0.98999,0.240723,0.488281,-0.183105,-0.572205,1.0684419500178755
0 days 00:00:40.460000,-0.320068,0.98877,0.235596,0.534058,-0.175476,-0.564575,1.0656524352433114
0 days 00:00:40.470000,-0.31958,0.98877,0.23877,0.480652,-0.106812,-0.358582,1.0662122688283042
0 days 00:00:40.480000,-0.320557,0.989502,0.241455,0.343323,0.091553,-0.25177,1.0677881415702273
0 days 00:00:40.490000,-0.316406,0.989746,0.234375,-0.419617,2.250671,-0.259399,1.065195541662187
0 days 00:00:40.500000,-0.320313,0.987305,0.243164,0.37384,-0.038147,-0.205994,1.0660676863548582
0 days 00:00:40.510000,-0.320313,0.98877,0.244385,0.335693,0.167847,-0.190735,1.0677034040846738
0 days 00:00:40.520000,-0.320068,0.986328,0.240479,0.236511,0.572205,-0.190735,1.0644794961148853
0 days 00:00:40.530000,-0.321045,0.986816,0.239258,0.244141,1.174927,-0.038147,1.0649507502438786
0 days 00:00:40.540000,-0.323975,0.985107,0.239014,0.213623,1.571655,0.022888,1.064200777236138
0 days 00:00:40.550000,-0.322998,0.984375,0.239258,0.152588,1.731872,0.045776,1.0632808844294155
0 days 00:00:40.560000,-0.323486,0.98877,0.239258,0.076294,1.777649,0.0,1.0674988035871515
0 days 00:00:40.570000,-0.325195,0.990479,0.234863,-0.099182,1.731872,0.0,1.0686257840025197
0 days 00:00:40.580000,-0.321533,0.988037,0.235107,-0.175476,1.770019,-0.053406,1.0653055359412154
0 days 00:00:40.590000,-0.321289,0.989258,0.234131,-0.320435,1.960754,-0.091553,1.0661497724269324
0 days 00:00:40.600000,-0.320068,0.987793,0.239258,0.724792,-0.518799,-0.526428,1.0655622581703053
0 days 00:00:40.610000,-0.31958,0.98877,0.240967,0.366211,-0.007629,-0.228882,1.066706419024935
0 days 00:00:40.620000,-0.319824,0.987793,0.239502,0.694275,-0.610352,-0.526428,1.0655438094367589
0 days 00:00:40.630000,-0.317871,0.98999,0.241211,0.38147,-1.335144,-0.579834,1.0673822741932715
0 days 00:00:40.640000,-0.319824,0.989502,0.239258,0.671387,-0.915527,-0.411987,1.0670735633235415
0 days 00:00:40.650000,-0.315918,0.989502,0.238281,-0.366211,2.426147,-0.404358,1.0656904924456256
0 days 00:00:40.660000,-0.32373,0.943848,0.408203,-6.782531,16.220093,-4.180908,1.078090835325577
0 days 00:00:40.670000,-0.308838,0.988037,0.30835,-2.6474,10.32257,-4.127502,1.0801285785095218
0 days 00:00:40.680000,-0.319336,0.998779,0.279297,-1.655578,6.256103,-3.39508,1.0851459744873038
0 days 00:00:40.690000,-0.32666,0.993652,0.279785,-0.999451,2.632141,-2.296448,1.0827422125921755
0 days 00:00:40.700000,-0.324219,0.986084,0.272949,-0.320435,0.396728,-1.220703,1.073303671668927
0 days 00:00:40.710000,-0.321289,0.991455,0.251221,0.015259,-0.259399,-0.732422,1.0720641908892397
0 days 00:00:40.720000,-0.31665,0.993652,0.238281,0.198364,-0.419617,-0.648498,1.0697613540248123
0 days 00:00:40.730000,-0.314209,0.98999,0.231689,0.152588,-0.465393,-0.831604,1.0641838602901286
0 days 00:00:40.740000,-0.315186,0.989502,0.233887,0.099182,-0.709534,-0.801086,1.0644996718501138
0 days 00:00:40.750000,-0.319092,0.988037,0.239258,0.663757,-0.740051,-0.366211,1.0654957570994827
0 days 00:00:40.760000,-0.314209,0.990479,0.236084,0.114441,-0.87738,-0.839233,1.0656038664428729
0 days 00:00:40.770000,-0.31543,0.988281,0.239502,0.305176,-1.251221,-0.62561,1.0646861640244039
0 days 00:00:40.780000,-0.317139,0.989014,0.241943,0.38147,-1.525879,-0.488281,1.0664249869381344
0 days 00:00:40.790000,-0.318359,0.989746,0.241943,0.465393,-1.617432,-0.389099,1.067467101434981
0 days 00:00:40.800000,-0.318604,0.990723,0.24292,0.411987,-1.701355,-0.419617,1.068667721017623
0 days 00:00:40.810000,-0.320801,0.990967,0.241943,0.579834,-1.670837,-0.404358,1.0693293655085883
0 days 00:00:40.820000,-0.319824,0.990479,0.23877,0.564575,-1.701355,-0.37384,1.0678703822641584
0 days 00:00:40.830000,-0.320068,0.98999,0.238281,0.663757,-1.647949,-0.305176,1.0673807004461904
0 days 00:00:40.840000,-0.318848,0.988525,0.239502,0.724792,-1.518249,-0.144958,1.0659300777879381
0 days 00:00:40.850000,-0.317871,0.988281,0.237549,0.732422,-1.312256,-0.167847,1.0649745701203386
0 days 00:00:40.860000,-0.319336,0.988525,0.23999,0.778198,-1.106262,-0.328064,1.0661858921506138
0 days 00:00:40.870000,-0.313477,0.990479,0.238281,0.228882,-1.106262,-0.808716,1.0658772508741332
0 days 00:00:40.880000,-0.31665,0.987793,0.237793,-0.404358,2.311707,-0.534058,1.0642122646342693
0 days 00:00:40.890000,-0.316406,0.988281,0.242676,-0.411987,1.953125,-0.648498,1.06569401460879
0 days 00:00:40.900000,-0.315674,0.987793,0.242188,-0.442505,1.625061,-0.610352,1.0649131948046282
0 days 00:00:40.910000,-0.315674,0.99707,0.243896,-0.045776,0.25177,-0.831604,1.0739105726232516
0 days 00:00:40.920000,-0.313232,0.994629,0.24292,-0.190735,0.518799,-0.747681,1.070705963308788
0 days 00:00:40.930000,-0.315186,0.993408,0.238525,-0.099182,0.717163,-0.793457,1.0691566043779555
0 days 00:00:40.940000,-0.315918,0.994629,0.236816,-0.213623,0.968933,-0.770569,1.0701274915733172
0 days 00:00:40.950000,-0.315918,0.995361,0.236084,-0.38147,1.144409,-0.701904,1.07064623387046
0 days 00:00:40.960000,-0.313477,0.992432,0.239746,-0.404358,0.87738,-0.793457,1.0680202473122875
0 days 00:00:40.970000,-0.313232,0.993164,0.238037,-0.305176,0.75531,-0.923157,1.068246521215492
0 days 00:00:40.980000,-0.312744,0.992188,0.238037,-0.183105,0.656128,-0.984192,1.067196069262345
0 days 00:00:40.990000,-0.307617,0.990723,0.23877,-0.396728,0.495911,-0.976562,1.064505234518835
0 days 00:00:41,-0.30542,0.98999,0.240479,-0.495911,0.205994,-1.174927,1.0635749742923628
0 days 00:00:41.010000,-0.312744,0.992676,0.246582,-0.160217,0.25177,-1.045227,1.0695873658734008
0 days 00:00:41.020000,-0.30542,0.989746,0.244385,-0.457764,0.091553,-1.304626,1.0642380133884526
0 days 00:00:41.030000,-0.303955,0.989014,0.245605,-0.205994,0.0,-1.052856,1.0634186147731286
0 days 00:00:41.040000,-0.304932,0.990234,0.247559,-0.061035,-0.144958,-1.068115,1.0652851063734066
0 days 00:00:41.050000,-0.30835,0.991211,0.245361,0.045776,-0.473022,-0.991821,1.0666681720863336
0 days 00:00:41.060000,-0.309326,0.992676,0.244385,0.167847,-0.556946,-0.953674,1.0680881253328305
0 days 00:00:41.070000,-0.308105,0.993408,0.240479,0.152588,-0.762939,-0.816345,1.0675290604615877
0 days 00:00:41.080000,-0.30957,0.991943,0.240479,0.061035,-0.938415,-0.839233,1.0665901975876209
0 days 00:00:41.090000,-0.309814,0.993896,0.239746,0.190735,-1.014709,-0.816345,1.0683127435016395
0 days 00:00:41.100000,-0.311523,0.993652,0.239258,0.106812,-1.060486,-0.701904,1.068473334808595
0 days 00:00:41.110000,-0.313477,0.99292,0.236816,0.236511,-1.335144,-0.617981,1.067820103662129
0 days 00:00:41.120000,-0.3125,0.993896,0.237061,0.221252,-1.548767,-0.617981,1.068495871090291
0 days 00:00:41.130000,-0.303955,0.98877,0.243652,-0.350952,0.053406,-1.190186,1.062742232165919
0 days 00:00:41.140000,-0.30957,0.985352,0.24585,-0.160217,0.312805,-1.144409,1.0616941043935395
0 days 00:00:41.150000,-0.310059,0.989746,0.236572,0.160217,-1.800537,-0.762939,1.0638139119136392
0 days 00:00:41.160000,-0.30542,0.988037,0.249756,-0.396728,0.289917,-1.083374,1.063896869675346
0 days 00:00:41.170000,-0.313721,0.98877,0.243408,-0.312805,1.358032,-0.526428,1.0655207333529462
0 days 00:00:41.180000,-0.313721,0.988281,0.241943,-0.297546,1.38855,-0.617981,1.0647331196365595
0 days 00:00:41.190000,-0.315674,0.991699,0.241211,-0.244141,1.747131,-0.465393,1.0683163049387574
0 days 00:00:41.200000,-0.315674,0.996338,0.242188,-0.350952,2.01416,-0.38147,1.072844122817476
0 days 00:00:41.210000,-0.317627,0.996338,0.239746,-0.465393,1.716614,-0.37384,1.0728720640826659
0 days 00:00:41.220000,-0.318848,0.992676,0.241211,-0.434875,1.441955,-0.267029,1.0701646763937782
0 days 00:00:41.230000,-0.306885,0.987061,0.248047,-0.244141,0.213623,-1.091003,1.0630122930403956
0 days 00:00:41.240000,-0.316406,0.990723,0.237061,-0.366211,1.113892,-0.213623,1.0666971160015386
0 days 00:00:41.250000,-0.317139,0.98999,0.235596,-0.640869,1.197815,-0.144958,1.0659093866914766
0 days 00:00:41.260000,-0.314209,0.98999,0.233398,-0.701904,1.266479,-0.244141,1.0645572423242444
0 days 00:00:41.270000,-0.3125,0.986572,0.233887,-0.801086,1.541138,-0.495911,1.0609824173627949
0 days 00:00:41.280000,-0.317139,0.990723,0.242676,-0.328064,1.13678,-0.289917,1.0681764128766373
0 days 00:00:41.290000,-0.311523,0.98877,0.236084,-0.679016,1.968384,-0.740051,1.063225445277247
0 days 00:00:41.300000,-0.313232,0.990479,0.237061,-0.709534,1.953125,-0.778198,1.0655331308720533
0 days 00:00:41.310000,-0.317871,0.990479,0.236816,-0.770569,1.815796,-0.770569,1.0668516485144504
0 days 00:00:41.320000,-0.320313,0.992188,0.23584,-0.862122,1.785278,-0.724792,1.06895180008876
0 days 00:00:41.330000,-0.318359,0.993896,0.234131,-0.862122,1.991272,-0.602722,1.0695789063262233
0 days 00:00:41.340000,-0.313965,0.993896,0.237793,-0.869751,2.326965,-0.450134,1.0690878312327758
0 days 00:00:41.350000,-0.311279,0.99292,0.236572,-0.816345,2.494812,-0.335693,1.067122792102671
0 days 00:00:41.360000,-0.312988,0.989258,0.240479,-0.770569,2.120972,-0.572205,1.0650929669042979
0 days 00:00:41.370000,-0.309082,0.990967,0.243408,-0.694275,1.426697,-0.930786,1.066205764511241
0 days 00:00:41.380000,-0.306396,0.98877,0.247559,-0.534058,0.801086,-1.037598,1.0643449065960715
0 days 00:00:41.390000,-0.309814,0.987793,0.23584,-0.740051,1.838684,-0.602722,1.0617627941517822
0 days 00:00:41.400000,-1.48291,0.260254,1.514893,249.992355,54.962154,-19.432068,2.1358031309240557
0 days 00:00:41.410000,-3.247559,1.567139,7.338867,93.597404,74.523926,83.000175,8.17689017582424
0 days 00:00:41.420000,-0.852051,3.933105,0.154297,-154.006958,-31.10504,142.601013,4.027296042239135
0 days 00:00:41.430000,-0.706787,0.499756,-1.675537,-28.419493,15.541076,-205.657944,1.8859289915778907
0 days 00:00:41.440000,-1.299316,1.044189,0.881836,62.644955,-57.922359,79.849243,1.885785636405421
0 days 00:00:41.450000,0.110107,-2.647217,0.00293,121.414177,131.698608,-179.595932,2.6495074979018267
0 days 00:00:41.460000,0.451416,-1.118652,0.569092,42.625423,32.585144,37.841797,1.3338007372257672
0 days 00:00:41.470000,-0.905273,0.615723,0.790527,15.258788,-38.81073,164.932236,1.3503951106942738
0 days 00:00:41.480000,-1.386719,-1.679688,-1.093994,111.198418,131.92749,-249.992355,2.4374503552566975
0 days 00:00:41.490000,-0.932861,0.177002,-0.547607,249.839767,39.009094,-19.599915,1.0960988914208425
0 days 00:00:41.500000,-0.886963,-0.05542,-0.257568,129.928589,23.490904,-112.586967,0.9252653751184035
0 days 00:00:41.510000,-0.858398,0.10791,-0.873535,249.992355,33.836365,-32.806396,1.2294531673589686
0 days 00:00:41.520000,-0.797852,0.048828,-1.009033,245.063766,45.730587,-38.139343,1.2872838003241553
0 days 00:00:41.530000,-0.77124,-0.001709,-0.988037,214.752182,59.715267,-43.785091,1.2534078233559898
0 days 00:00:41.540000,-0.799072,-0.031494,-0.883789,184.692368,62.431332,-50.521847,1.1918854516022084
0 days 00:00:41.550000,-0.86084,-0.095703,-0.7229,167.762741,54.176327,-60.302731,1.1281794980449698
0 days 00:00:41.560000,-0.90332,-0.102783,-0.629883,158.149719,45.227047,-71.372986,1.1060307234331241
0 days 00:00:41.570000,-0.857178,-0.10083,-0.591797,148.994446,41.648861,-83.015434,1.0464915201725238
0 days 00:00:41.580000,-0.797607,-0.098389,-0.509033,142.448425,48.004147,-93.231194,0.9513001192363006
0 days 00:00:41.590000,-0.803955,-0.063721,-0.446045,136.825562,52.62756,-101.570122,0.9216073729582462
0 days 00:00:41.600000,-0.893066,-0.044434,-0.351318,132.377625,42.6712,-108.894341,0.9607109855914004
0 days 00:00:41.610000,-0.96167,0.212402,0.989746,84.350578,-41.90826,-11.978148,1.3962524639262055
0 days 00:00:41.620000,-0.887695,0.15625,-0.703857,249.786362,33.493042,-25.634764,1.1436044560834835
0 days 00:00:41.630000,-0.529785,-0.754395,0.95166,49.034115,-10.82611,-23.28491,1.3249304577410845
0 days 00:00:41.640000,-1.463379,-0.440918,0.559082,-148.590088,-65.90271,-45.623775,1.6274088186712643
0 days 00:00:41.650000,-0.726074,-0.365723,0.616943,-26.390074,-31.776426,28.83148,1.0205662308022934
0 days 00:00:41.660000,-0.752197,-0.063477,-0.180908,130.432129,9.45282,-117.256157,0.7762456832743098
0 days 00:00:41.670000,-0.748779,-0.50415,-0.479248,-155.601501,-99.937431,-71.365356,1.0220155864002272
0 days 00:00:41.680000,-0.753174,-0.481934,-0.397949,-170.883163,-104.423515,-75.027466,0.9787210334068641
0 days 00:00:41.690000,-0.787354,-0.461182,-0.31543,-183.868393,-106.018059,-79.986572,0.9654590842392027
0 days 00:00:41.700000,-0.821777,-0.453125,-0.229492,-193.145737,-100.875847,-85.197441,0.9660777822815304
0 days 00:00:41.710000,-0.837402,-0.451416,-0.156738,-200.530991,-89.668266,-88.74511,0.9641500481273649
0 days 00:00:41.720000,-0.867188,-0.431152,-0.097168,-206.367477,-76.515198,-91.644279,0.9733183932670747
0 days 00:00:41.730000,-0.970947,-0.412109,-0.022705,-209.579453,-64.750671,-93.727104,1.0550295833364105
0 days 00:00:41.740000,-1.14502,-0.407471,0.099365,-210.609421,-57.685848,-90.736382,1.2194165897944802
0 days 00:00:41.750000,-1.237061,-0.43042,0.283936,-206.954941,-60.150143,-83.923332,1.34022421490473
0 days 00:00:41.760000,-0.563721,-0.852295,0.843018,4.074097,-0.75531,-2.89917,1.324714113003255
0 days 00:00:41.770000,-1.281738,-0.45166,0.450928,-196.823105,-67.29126,-78.269958,1.431846750678298
0 days 00:00:41.780000,-1.4646,-0.438232,0.64209,-167.6483,-73.410034,-57.373043,1.65812545180514
0 days 00:00:41.790000,-1.547607,-0.457764,0.381348,-129.852295,-57.014462,-34.942627,1.658330969152117
0 days 00:00:41.800000,-1.688232,-0.437988,0.302979,-112.716667,-52.734371,-14.457702,1.7702420875148686
0 days 00:00:41.810000,-1.556396,-0.327393,0.217529,-99.784843,-55.77087,4.905701,1.6052643243734035
0 days 00:00:41.820000,-1.31543,-0.248535,0.159912,-89.591972,-51.696774,12.428283,1.3482201522262602
0 days 00:00:41.830000,-1.205078,-0.252197,0.262939,-78.384399,-30.34973,8.911133,1.2589492565683496
0 days 00:00:41.840000,-1.221191,-0.302246,0.382813,-67.512512,-16.921997,6.759643,1.3149927360886826
0 days 00:00:41.850000,-1.262939,-0.365967,0.593018,-50.018307,-31.555174,22.872923,1.4424344391111854
0 days 00:00:41.860000,-1.11084,-0.341553,0.685059,-29.411314,-60.531612,51.589962,1.3490477348448422
0 days 00:00:41.870000,-0.899902,-0.233643,0.646729,-24.749754,-64.102173,59.616085,1.132550687825494
0 days 00:00:41.880000,-1.380371,-0.44458,0.571777,-183.77684,-72.677612,-70.556641,1.5588471418872345
0 days 00:00:41.890000,-0.653564,-0.05835,-0.157715,134.231567,8.766174,-126.205437,0.6748515731781323
0 days 00:00:41.900000,-0.65918,-0.037842,-0.201416,137.336731,16.63208,-135.83374,0.6903033350781379
0 days 00:00:41.910000,-0.720215,-0.013672,-0.236572,138.725281,16.609192,-146.652222,0.7581971254185813
0 days 00:00:41.920000,-1.197266,1.056641,0.01416,-17.532349,168.693527,-222.83934,1.5969147075648717
0 days 00:00:41.930000,-1.204834,1.083008,0.006592,-26.924131,193.35173,-212.341293,1.6200539343132994
0 days 00:00:41.940000,-1.196777,1.098877,0.045166,-36.6745,211.547836,-201.538071,1.6253755924136426
0 days 00:00:41.950000,-1.142578,1.113281,0.120117,-44.830318,224.815353,-190.635666,1.599783474328323
0 days 00:00:41.960000,-1.057373,1.133301,0.195068,-50.994869,236.473068,-178.939804,1.5621972802287167
0 days 00:00:41.970000,-0.957764,1.153809,0.294922,-55.862423,245.52153,-166.450485,1.5282558929253307
0 days 00:00:41.980000,-0.887451,1.157227,0.380615,-57.968136,249.68718,-151.611328,1.507186579410459
0 days 00:00:41.990000,-0.824463,1.154541,0.455811,-57.716366,249.992355,-135.467529,1.490123426690219
0 days 00:00:42,-0.725586,1.170166,0.496826,-57.731625,249.824509,-123.077385,1.4637621341010294
0 days 00:00:42.010000,-0.685547,1.173828,0.475342,-58.639523,249.778732,-111.282341,1.440068359404164
0 days 00:00:42.020000,-1.215576,1.023926,0.046143,-9.95636,141.983032,-232.559189,1.5900247299023371
0 days 00:00:42.030000,-0.735352,1.150146,0.489258,-57.464596,249.992355,-92.857353,1.4501557763854198
0 days 00:00:42.040000,-0.733398,1.131348,0.531982,-53.398129,212.76091,-60.455318,1.4494225649657866
0 days 00:00:42.050000,-0.712646,1.096191,0.510254,-51.498409,183.65477,-48.431393,1.4035163605434031
0 days 00:00:42.060000,-0.731201,1.0271,0.4646,-48.530575,168.205246,-28.236387,1.3436675453403644
0 days 00:00:42.070000,-0.615479,0.978516,0.396729,-42.343136,162.788376,-12.153625,1.2221709623199204
0 days 00:00:42.080000,-0.411133,1.001953,0.332764,-40.367123,157.539368,-2.632141,1.132992514359208
0 days 00:00:42.090000,-0.354736,1.006348,0.22583,-46.089169,152.175903,1.754761,1.0906755318150307
0 days 00:00:42.100000,-0.319824,0.956055,0.168945,-49.064632,144.485474,2.822876,1.0221893009741394
0 days 00:00:42.110000,-0.304932,0.916504,0.251953,-44.380184,130.348206,1.487732,0.9982201264495723
0 days 00:00:42.120000,-0.327393,0.907471,0.395996,-35.02655,101.013176,-1.487732,1.0428339389883703
0 days 00:00:42.130000,-0.400391,0.902344,0.46875,-25.527952,63.896175,-2.578735,1.0928239609914308
0 days 00:00:42.140000,-0.770996,1.139404,0.522949,-55.007931,244.552597,-72.570801,1.4717852981440602
0 days 00:00:42.150000,-1.236816,0.998535,0.058838,-3.723144,119.285576,-241.203293,1.5906752887767508
0 days 00:00:42.160000,-0.396484,0.907471,0.477295,-16.113281,32.981873,-2.89154,1.0993241992797211
0 days 00:00:42.170000,-1.150391,0.92041,0.041748,6.462097,88.767998,-249.992355,1.4738714043243393
0 days 00:00:42.180000,-0.819336,0.016113,-0.281494,137.329102,1.983642,-157.531738,0.866492920744884
0 days 00:00:42.190000,-0.846924,0.033936,-0.304443,133.026123,-23.712156,-166.053757,0.900620593880131
0 days 00:00:42.200000,-0.800049,0.036377,-0.295166,129.371643,-48.027035,-172.195419,0.8535365581426493
0 days 00:00:42.210000,-0.711914,0.03418,-0.313721,125.991814,-57.693478,-179.359421,0.778723751812541
0 days 00:00:42.220000,-0.563477,0.044434,-0.306396,124.168388,-52.330013,-189.82695,0.6429301818245897
0 days 00:00:42.230000,-0.54834,0.09668,-0.312256,122.718803,-32.859802,-200.599655,0.6383788746003427
0 days 00:00:42.240000,-1.215088,0.970459,0.052246,1.861572,102.386467,-248.451218,1.5559431747146166
0 days 00:00:42.250000,-0.669678,0.234375,-0.294678,115.570061,1.319885,-218.170151,0.7682677840395236
0 days 00:00:42.260000,-0.77124,0.281738,-0.312012,111.915581,9.643555,-226.097092,0.8783728857313391
0 days 00:00:42.270000,-0.879639,0.34375,-0.36084,106.101982,14.373778,-232.994064,1.011006596625858
0 days 00:00:42.280000,-0.99292,0.384521,-0.401123,97.030632,11.512755,-237.342819,1.1378252005338958
0 days 00:00:42.290000,-0.57959,0.171387,-0.305664,119.392387,-12.687682,-210.144028,0.6772950263843667
0 days 00:00:42.300000,-1.037109,0.404785,-0.39209,78.330994,-11.352538,-244.01091,1.1803306918851175
0 days 00:00:42.310000,-1.004639,0.451172,-0.394043,70.030212,-13.404845,-248.268112,1.1696690043572155
0 days 00:00:42.320000,-1.007568,0.489014,-0.402588,62.187191,-6.195068,-249.992355,1.190128171485744
0 days 00:00:42.330000,-0.964355,0.522705,-0.376465,54.115292,6.454467,-249.992355,1.1597098685770506
0 days 00:00:42.340000,-0.952148,0.577637,-0.319824,46.607967,20.904539,-249.992355,1.1586792949945208
0 days 00:00:42.350000,-1.013916,0.648438,-0.281738,38.291931,33.935547,-249.992355,1.236071921671227
0 days 00:00:42.360000,-1.043701,0.707031,-0.230957,29.663084,43.746944,-249.992355,1.2816184097503436
0 days 00:00:42.370000,-1.064453,0.764648,-0.156982,22.201536,54.550167,-249.992355,1.319996250538993
0 days 00:00:42.380000,-1.09668,0.818115,-0.086426,15.296935,67.321777,-249.954208,1.3709444296181375
0 days 00:00:42.390000,-1.111572,0.861572,-0.000244,10.169982,78.239441,-249.977097,1.406377858864395
0 days 00:00:42.400000,-1.064697,0.386719,-0.409668,87.387077,-0.007629,-240.150436,1.2045576603027353
0 days 00:00:42.410000,-0.560791,-0.585449,-0.532959,-0.106812,10.19287,-10.848998,0.9701970794446868
0 days 00:00:42.420000,-0.53418,-0.583496,-0.522705,10.810851,12.924193,-3.570556,0.9481752851878179
0 days 00:00:42.430000,-0.53833,-0.591309,-0.55249,21.812437,15.586852,3.570556,0.971952016552772
0 days 00:00:42.440000,-0.589844,-0.609863,-0.623047,33.920288,21.263121,10.375976,1.0526330734467735
0 days 00:00:42.450000,-0.611084,-0.600586,-1.227295,142.112732,80.398552,41.641232,1.4967899703956464
0 days 00:00:42.460000,-0.65918,-0.627686,-0.828125,65.193176,45.974728,21.110533,1.2305685688416554
0 days 00:00:42.470000,-0.639648,-0.64624,-0.970215,84.915154,56.724545,27.122496,1.3296965246735812
0 days 00:00:42.480000,-0.632568,-0.647949,-1.115479,110.519402,67.230225,33.309937,1.436758010475668
0 days 00:00:42.490000,-0.653564,-0.623291,-0.715332,48.393246,32.943726,15.884398,1.1521013162916707
0 days 00:00:42.500000,-0.57959,-0.599365,-0.540283,-12.062072,8.598328,-16.914368,0.993513307114706
0 days 00:00:42.510000,-0.750244,-0.46582,-0.156006,-139.671326,-37.414551,-51.788326,0.8967676421303348
0 days 00:00:42.520000,-0.640137,-0.595947,-0.52124,-37.559509,0.396728,-25.588987,1.0181450501662324
0 days 00:00:42.530000,-0.69751,-0.601318,-0.482666,-49.629208,-10.742187,-29.342649,1.0397451633837975
0 days 00:00:42.540000,-0.710693,-0.61084,-0.415771,-60.615536,-24.871824,-32.806396,1.0252197668256304
0 days 00:00:42.550000,-0.713379,-0.603516,-0.372803,-70.976257,-39.138794,-35.751343,1.006043357269457
0 days 00:00:42.560000,-0.710205,-0.59082,-0.331543,-80.619804,-52.078243,-39.31427,0.9815193198679281
0 days 00:00:42.570000,-0.717285,-0.570557,-0.286133,-90.49987,-60.44006,-41.603085,0.960158921826486
0 days 00:00:42.580000,-0.708496,-0.54541,-0.271973,-101.036064,-60.661312,-40.977474,0.9345629796033009
0 days 00:00:42.590000,-0.662598,-0.519043,-0.237793,-111.068718,-54.077145,-41.725155,0.8746354991092005
0 days 00:00:42.600000,-0.659424,-0.484131,-0.210449,-121.513359,-45.089718,-44.631954,0.8446961693638726
0 days 00:00:42.610000,-0.711182,-0.461914,-0.187012,-131.782532,-39.215088,-47.615047,0.8683996019483197
0 days 00:00:42.620000,-0.634033,-0.493896,-1.325928,178.115829,95.252983,52.635189,1.5504890083741323
0 days 00:00:42.630000,-0.588867,-0.604736,-0.529541,-24.80316,6.469726,-21.636961,0.9964354690927056
0 days 00:00:42.640000,-0.70166,-0.34668,-1.348633,219.802841,109.53521,63.575741,1.5592705816146857
0 days 00:00:42.650000,-1.480225,0.365479,0.808594,56.999203,26.924131,33.676147,1.7258230520253228
0 days 00:00:42.660000,-0.920898,-0.015869,-1.080322,249.992355,146.392822,79.734802,1.4196480462597059
0 days 00:00:42.670000,-0.77832,-0.480225,-0.12207,-144.91272,-33.294678,-57.304379,0.9226587440245716
0 days 00:00:42.680000,-0.767822,-0.395996,0.183594,-30.929564,50.964352,35.858154,0.8832158357593007
0 days 00:00:42.690000,-0.880371,-0.406982,0.1875,-28.656004,22.438047,41.137691,0.9878480125834136
0 days 00:00:42.700000,-0.830811,-0.510986,0.183838,-22.491453,-0.488281,40.679928,0.9925472382516614
0 days 00:00:42.710000,-0.831787,-0.526123,0.127441,-19.615173,-7.484436,25.749205,0.9924294599511847
0 days 00:00:42.720000,-0.81958,-0.515869,0.096924,-20.675657,-7.575988,18.768311,0.9732556002083933
0 days 00:00:42.730000,-0.630127,-0.702148,0.090332,-6.729125,6.011962,31.753538,0.9477508745746427
0 days 00:00:42.740000,-0.490479,-0.772217,-0.013184,6.248474,37.445068,37.017822,0.9149112319706213
0 days 00:00:42.750000,-0.716797,-0.608887,-0.038818,-3.509521,58.616634,17.486572,0.9413013094126662
0 days 00:00:42.760000,-0.876465,-0.543213,0.158691,-6.790161,39.031982,3.204345,1.0432900330564843
0 days 00:00:42.770000,-0.807129,-0.171631,-1.267578,249.992355,126.754753,72.715759,1.5125040194611055
0 days 00:00:42.780000,-0.724365,-0.565918,0.429443,15.884398,-2.288818,27.709959,1.0145881559519607
0 days 00:00:42.790000,-1.075684,-0.276123,0.811035,90.026848,-5.027771,-36.880493,1.3751791702211027
0 days 00:00:42.800000,-0.84668,0.10791,0.99707,32.592773,77.453613,151.260376,1.3125014953896244
0 days 00:00:42.810000,-0.134766,-0.284424,0.666748,118.865959,161.338791,88.127129,0.7373003336741413
0 days 00:00:42.820000,-0.338623,-0.337891,-1.263184,123.26812,55.793758,-46.32568,1.3507293148021924
0 days 00:00:42.830000,-2.921387,-1.51001,-1.100586,-54.191586,-71.640015,-178.688034,3.4678410787210248
0 days 00:00:42.840000,-0.980225,-3.510986,-0.931885,-17.875671,43.586727,-219.253525,3.7624823449480793
0 days 00:00:42.850000,-0.342041,-0.354736,1.459717,56.213375,-171.012863,136.940002,1.5406503157647422
0 days 00:00:42.860000,-4.48291,3.646729,6.617676,12.535094,65.353394,156.410217,8.7857128400897
0 days 00:00:42.870000,-1.14209,0.240234,0.134277,249.992355,176.025375,87.875359,1.174781790625391
0 days 00:00:42.880000,-0.973633,0.085693,-0.789551,249.420151,162.216171,84.167473,1.256461416255589
0 days 00:00:42.890000,-0.591797,-0.539063,0.630859,47.012325,-22.117613,17.14325,1.019213267701613
0 days 00:00:42.900000,-0.840332,-0.47998,-0.066895,-149.887085,-23.254393,-59.852596,0.9700585609379466
0 days 00:00:42.910000,-0.905762,-0.482422,0.03418,-153.48053,-11.337279,-56.549068,1.0267930946047503
0 days 00:00:42.920000,-0.980225,-0.491943,0.174072,-153.488159,-1.197815,-50.003048,1.1104728844316731
0 days 00:00:42.930000,-1.443115,0.139404,-0.80249,249.992355,180.366501,66.955566,1.6571072924047496
0 days 00:00:42.940000,-1.329346,0.056641,-0.950928,249.633774,160.705551,70.503235,1.635430540188424
0 days 00:00:42.950000,-1.133057,-0.027588,-1.046143,249.992355,148.231506,70.823669,1.5423989235739242
0 days 00:00:42.960000,-0.991943,-0.127686,-1.080078,249.992355,141.426086,67.466736,1.472013286600702
0 days 00:00:42.970000,-0.86792,-0.249023,-1.059082,233.581528,135.627747,61.485287,1.391744324095845
0 days 00:00:42.980000,-0.753418,-0.374512,-1.028809,202.369675,129.013062,53.291317,1.3290394574086204
0 days 00:00:42.990000,-0.685059,-0.462402,-1.014404,174.217209,118.812553,43.380733,1.3084864990900746
0 days 00:00:43,-0.702393,-0.529785,-0.973389,149.421692,102.569572,32.974243,1.3120648680591216
0 days 00:00:43.010000,-0.692871,-0.562988,-0.920166,125.930779,80.406181,24.024961,1.2820808002388149
0 days 00:00:43.020000,-0.655273,-0.57373,-0.8396,104.835503,57.79266,16.571045,1.2097425252627105
0 days 00:00:43.030000,-1.412109,0.217041,-0.517578,249.992355,202.789291,64.537048,1.5195544115450423
0 days 00:00:43.040000,-0.634521,-0.568359,-0.775391,86.372368,37.528992,9.83429,1.1519027976365888
0 days 00:00:43.050000,-0.535889,-0.533447,-0.728516,48.881527,0.045776,-4.920959,1.0499896591805085
0 days 00:00:43.060000,-0.466553,-0.522949,-0.732422,30.319212,-13.031005,-13.603209,1.0137008160665553
0 days 00:00:43.070000,-0.444336,-0.511719,-0.773926,10.498046,-23.857115,-20.446775,1.0287138909011582
0 days 00:00:43.080000,-0.438721,-0.520752,-0.831543,-10.19287,-32.989502,-27.168272,1.074766263982081
0 days 00:00:43.090000,-0.42334,-0.54541,-0.872314,-29.449461,-36.697388,-36.987305,1.112483949680174
0 days 00:00:43.100000,-0.423584,-0.557129,-0.901367,-48.904415,-33.52356,-46.478268,1.1411742182445237
0 days 00:00:43.110000,-0.463623,-0.542236,-0.905518,-69.42749,-31.463621,-53.794857,1.1527918346991362
0 days 00:00:43.120000,-0.557129,-0.533691,-0.852295,-89.019768,-38.856506,-59.974667,1.1496197515470061
0 days 00:00:43.130000,-0.655762,-0.519531,-0.768311,-107.917778,-55.541988,-63.652035,1.1358864614590667
0 days 00:00:43.140000,-0.727051,-0.506104,-0.674561,-125.53405,-75.942993,-66.322327,1.1134527193096257
0 days 00:00:43.150000,-0.597168,-0.550781,-0.738525,67.855835,17.372131,2.952575,1.0979018652912473
0 days 00:00:43.160000,-1.428467,0.611084,1.122803,249.992355,217.3004,63.980099,1.9169319763502302
0 days 00:00:43.170000,-0.748047,-0.505371,-0.568359,-140.869141,-92.170708,-68.79425,1.0667736942440043
0 days 00:00:43.180000,1.007568,-0.893066,0.50415,98.037712,-220.817551,139.053345,1.437681250305505
0 days 00:00:43.190000,-1.108154,-0.495361,0.333984,-150.779724,-0.358582,-43.235775,1.2589412695964017
0 days 00:00:43.200000,-1.262939,-0.51416,0.471436,-146.026611,-15.876769,-32.493591,1.4427845734609863
0 days 00:00:43.210000,-1.356934,-0.568848,0.527832,-134.20105,-36.712646,-22.453306,1.5631585164928092
0 days 00:00:43.220000,-1.336426,-0.596436,0.414795,-119.400017,-52.917477,-20.156858,1.521126308889896
0 days 00:00:43.230000,-1.380615,-0.583496,0.177002,-111.457817,-64.163208,-15.541076,1.5092697135518884
0 days 00:00:43.240000,-1.392578,-0.555908,-0.046387,-109.65728,-78.544617,-9.178162,1.5001529736386887
0 days 00:00:43.250000,-4.05127,4.462158,6.704102,-25.146482,56.396481,172.06572,9.014911328253207
0 days 00:00:43.260000,-1.192383,-0.416992,-0.008789,-112.152092,-89.11895,-19.256592,1.2632247596029773
0 days 00:00:43.270000,-1.194092,-0.436035,0.067627,-109.359734,-71.815491,1.708984,1.2730104621793177
0 days 00:00:43.280000,-1.162842,-0.543701,0.265869,-92.994682,-59.17358,28.633116,1.31091518395585
0 days 00:00:43.290000,-0.860596,-0.539307,0.50293,-80.764763,-35.522461,25.764463,1.133320828523415
0 days 00:00:43.300000,-1.267578,-0.491699,-0.117676,-112.30468,-92.689507,-15.663146,1.3646866063902732
0 days 00:00:43.310000,-0.913574,-0.453857,1.141846,-64.89563,0.083923,-9.590149,1.531148561584081
0 days 00:00:43.320000,-1.103027,-0.384033,1.309814,-17.959595,-47.874447,43.968197,1.7549252469589696
0 days 00:00:43.330000,-0.954834,-0.289063,1.31543,29.525755,-62.644955,53.50494,1.6509456291546978
0 days 00:00:43.340000,-0.889893,-0.013184,1.272217,59.272762,-22.895811,16.853333,1.5526169728538974
0 days 00:00:43.350000,-0.862549,0.24707,1.134766,35.217285,9.971619,64.582825,1.4466265022655296
0 days 00:00:43.360000,-0.574219,-0.185791,1.042236,58.067318,80.589287,156.295776,1.2043677326041244
0 days 00:00:43.370000,0.168701,-0.244629,0.476563,121.948235,198.883041,96.908562,0.5616187924304171
0 days 00:00:43.380000,0.131592,-0.22998,-1.160645,79.582214,112.42675,-82.298271,1.1905058046431356
0 days 00:00:43.390000,-3.567627,-1.602051,-0.536621,-78.88031,-61.180111,-249.80925,3.9474665185877127
0 days 00:00:43.400000,-2.067627,-3.513428,-0.033936,-39.451599,-46.783443,-240.760788,4.07681363008036
0 days 00:00:43.410000,-0.75,-0.498535,0.826172,-81.352226,2.815246,-7.637023,1.2221281928705352
0 days 00:00:43.420000,-0.470459,1.042236,0.115234,-14.076232,82.656853,23.101805,1.14928953059401
0 days 00:00:43.430000,-0.47583,1.041504,0.093994,-14.556884,82.519524,22.064207,1.1489036700054536
0 days 00:00:43.440000,-0.474121,1.03833,0.070313,-14.831542,81.04705,22.239683,1.143618743073932
0 days 00:00:43.450000,-0.469971,1.030273,0.048584,-14.900207,78.437805,23.773191,1.133444132026806
0 days 00:00:43.460000,-0.521729,0.977051,-0.002197,-8.651733,41.885372,40.054321,1.1076256736149628
0 days 00:00:43.470000,-0.482422,1.010986,-0.003662,-13.610839,68.855286,30.174253,1.120195111810438
0 days 00:00:43.480000,-0.491943,0.994629,-0.012939,-12.107848,61.111446,33.843994,1.1097126567769695
0 days 00:00:43.490000,-0.506348,0.982422,-0.009766,-10.330199,51.841732,37.391663,1.1052767336481846
0 days 00:00:43.500000,-0.475342,1.020996,0.018799,-14.617919,74.59259,26.657103,1.1263819296228967
0 days 00:00:43.510000,-0.461426,1.031006,0.126221,-13.916015,82.18383,25.726316,1.1365821863609338
0 days 00:00:43.520000,-0.513672,1.388428,0.391602,-18.043518,70.716858,196.395859,1.5313207897667949
0 days 00:00:43.530000,-0.456299,1.019531,0.153076,-16.00647,84.70153,35.598755,1.127423832965225
0 days 00:00:43.540000,-0.437744,1.025635,0.192627,-15.792846,87.394707,41.53442,1.1316590139657794
0 days 00:00:43.550000,-0.474854,1.04126,0.229736,-13.236999,83.618156,49.705502,1.1672563294375407
0 days 00:00:43.560000,-0.570068,1.064209,0.234863,-12.96997,69.198608,66.940308,1.229910138617452
0 days 00:00:43.570000,-0.614746,1.063721,0.244629,-13.069152,47.103878,85.937492,1.252700426278366
0 days 00:00:43.580000,-0.607422,1.087891,0.221191,-11.169433,30.59387,91.239922,1.2654618810718874
0 days 00:00:43.590000,-0.550537,1.207764,0.146729,-18.386841,35.171509,98.617546,1.3354079030416137
0 days 00:00:43.600000,-0.551514,1.311523,0.154053,-30.532835,62.614437,125.724785,1.4310809196317307
0 days 00:00:43.610000,-0.667236,1.340576,0.26123,-31.127928,90.88134,153.991699,1.520062171219322
0 days 00:00:43.620000,-0.626953,1.362549,0.352783,-23.963926,90.034477,175.430283,1.540800339660853
0 days 00:00:43.630000,-0.527588,0.981689,0.003418,-7.064819,31.34918,41.15295,1.114483769818565
0 days 00:00:43.640000,-0.461914,1.024658,0.136963,-14.595031,82.366936,30.09796,1.132275330354327
0 days 00:00:43.650000,-0.520996,0.986084,0.006348,-5.0354,20.721434,40.756222,1.1152752055775292
0 days 00:00:43.660000,-0.363525,1.021973,0.165771,36.941528,-82.290642,-36.354065,1.0972963422863489
0 days 00:00:43.670000,-0.495361,0.969238,0.025635,1.739502,-2.166748,38.444519,1.088789223950164
0 days 00:00:43.680000,-0.478516,1.416992,0.376953,-15.61737,56.800838,214.614853,1.5423804506440686
0 days 00:00:43.690000,0.098145,0.987305,0.495117,-9.086609,-145.606995,12.535094,1.1088482528006256
0 days 00:00:43.700000,0.117676,0.993164,0.594971,-6.355285,-206.504807,-6.446838,1.16370651915034
0 days 00:00:43.710000,0.208496,0.990723,0.6875,-5.691528,-247.253403,-23.834227,1.2237887459627173
0 days 00:00:43.720000,0.335938,0.96582,0.743408,3.486633,-249.992355,-36.872864,1.2642460467440664
0 days 00:00:43.730000,0.376465,0.972412,0.618896,23.506163,-238.0905,-51.033016,1.212577112098443
0 days 00:00:43.740000,0.204346,0.993896,0.38916,38.528442,-205.780014,-64.956665,1.08675298579392
0 days 00:00:43.750000,-0.00708,0.993896,0.263916,42.984005,-175.804123,-73.745728,1.0283632822461137
0 days 00:00:43.760000,-0.178467,1.010742,0.225586,44.761654,-146.957397,-76.99585,1.0508753037582528
0 days 00:00:43.770000,-0.299561,1.04126,0.169678,45.127865,-124.580376,-70.808411,1.096699504880439
0 days 00:00:43.780000,-0.512207,0.98291,0.014404,-1.937866,9.57489,39.916992,1.1084563835194419
0 days 00:00:43.790000,-0.367432,1.0354,0.161621,44.364925,-110.740654,-61.271664,1.1104867321427123
0 days 00:00:43.800000,-0.355713,1.034912,0.17749,39.741516,-91.13311,-44.380184,1.1086375810935691
0 days 00:00:43.810000,-0.389648,1.010742,0.150879,33.958435,-75.378418,-27.633665,1.0937044514442646
0 days 00:00:43.820000,-0.420898,1.014893,0.137207,30.441282,-69.831848,-18.478394,1.1072437350023707
0 days 00:00:43.830000,-0.444824,1.028809,0.131348,25.993345,-64.27002,-9.162903,1.1285249871230145
0 days 00:00:43.840000,-0.46582,1.0354,0.127441,21.39282,-58.082577,0.991821,1.1424896677348992
0 days 00:00:43.850000,-0.489746,1.010986,0.125488,17.76886,-50.86517,11.245727,1.1303499789251115
0 days 00:00:43.860000,-0.499756,0.975098,0.115479,14.999389,-42.778011,20.019531,1.1017747358607384
0 days 00:00:43.870000,-0.493896,0.957031,0.087402,11.489867,-34.324646,26.710508,1.0805002098014604
0 days 00:00:43.880000,-0.487793,0.951904,0.060547,8.010864,-25.062559,31.906126,1.071321228798347
0 days 00:00:43.890000,-0.486816,0.955322,0.045654,5.020141,-14.10675,35.903931,1.0731794953576033
0 days 00:00:43.900000,-0.361572,1.03833,0.17334,42.510983,-100.746147,-52.421566,1.1130634553717051
0 days 00:00:43.910000,-0.41626,1.422852,0.398193,-13.504027,49.278255,226.951584,1.5350367639744007
0 days 00:00:43.920000,0.057129,0.980957,0.41748,-11.215209,-108.825676,22.872923,1.0676281697716672
0 days 00:00:43.930000,-0.496582,1.443848,0.281494,-20.668028,56.137081,248.077377,1.5525880335311102
0 days 00:00:43.940000,-0.506592,0.304443,-0.019775,-81.954948,52.787777,228.599533,0.5913645621255978
0 days 00:00:43.950000,-0.534424,0.192383,-0.031494,-77.735901,94.520561,220.169052,0.568869143565548
0 days 00:00:43.960000,-0.781006,0.116211,-0.012207,-71.601868,102.264397,206.405624,0.7896989169335361
0 days 00:00:43.970000,-1.008545,0.097656,0.025635,-68.199158,82.847588,196.441635,1.013586140683662
0 days 00:00:43.980000,-1.169434,0.110352,0.027588,-66.673279,51.078793,191.322311,1.1749529956572733
0 days 00:00:43.990000,-1.250732,0.135498,0.022217,-67.481995,19.393921,191.017136,1.2582463347520627
0 days 00:00:44,-1.222656,0.128418,0.025879,-70.480347,-4.470825,197.113022,1.229653853611251
0 days 00:00:44.010000,-1.064941,0.055908,0.051025,-72.875977,-13.885497,200.546249,1.0676275514288678
0 days 00:00:44.020000,-0.766846,-0.05249,0.130127,-72.380066,-9.056091,191.116318,0.7795774650058838
0 days 00:00:44.030000,-0.528809,-0.138428,0.165039,-67.573547,10.70404,173.32457,0.5709983723146678
0 days 00:00:44.040000,-0.653564,0.362793,0.02124,-84.411613,-6.843566,225.181564,0.7478073284911028
0 days 00:00:44.050000,-0.530518,-0.148193,0.177734,-58.814999,40.489193,155.570984,0.5787917486704522
0 days 00:00:44.060000,-1.025635,-0.032715,0.145264,-46.501156,48.507687,135.734558,1.036387501924835
0 days 00:00:44.070000,-1.031738,-0.067871,0.207764,-43.601986,28.976439,130.767822,1.0546353175297136
0 days 00:00:44.080000,-0.859863,-0.132568,0.271484,-40.618893,15.579223,120.254509,0.9113957513884954
0 days 00:00:44.090000,-0.690186,-0.179199,0.309326,-37.780762,10.276793,106.63604,0.7772718768056645
0 days 00:00:44.100000,-0.591309,-0.229736,0.320068,-33.01239,12.748717,94.215385,0.7105409824922134
0 days 00:00:44.110000,-0.537598,-0.265625,0.307617,-28.343199,21.804808,80.436699,0.6739409980984983
0 days 00:00:44.120000,-0.588623,-0.266846,0.262207,-28.045652,33.035278,67.741394,0.6974498797003266
0 days 00:00:44.130000,-0.63623,-0.299561,0.226318,-29.777525,40.946957,61.218258,0.7387457226576679
0 days 00:00:44.140000,-0.595703,-0.377441,0.185303,-30.128477,50.918575,55.076595,0.7291508585327181
0 days 00:00:44.150000,-0.599365,-0.416748,0.166504,-30.654905,60.203548,42.655941,0.748759561371339
0 days 00:00:44.160000,-0.757813,-0.082275,0.147461,-50.598141,56.190487,142.425537,0.7763983932975389
0 days 00:00:44.170000,-0.878662,0.450928,-0.030762,-88.775627,-43.876644,219.543442,0.9880937567214966
0 days 00:00:44.180000,-0.42749,1.444092,0.339355,-14.053344,50.422665,237.892136,1.543797661803191
0 days 00:00:44.190000,-1.309082,0.653076,-0.366699,-68.725586,-23.735044,200.706467,1.5082016115562933
0 days 00:00:44.200000,-0.606201,1.407959,0.249756,-27.633665,59.844967,249.992355,1.5531278948039018
0 days 00:00:44.210000,-0.703857,1.366943,0.196289,-33.51593,56.945797,249.992355,1.5499926494080545
0 days 00:00:44.220000,-0.757324,1.334717,0.128906,-40.832516,45.951839,249.992355,1.540008398646254
0 days 00:00:44.230000,-0.806396,1.299561,0.068359,-50.697323,25.100706,249.992355,1.530949461745227
0 days 00:00:44.240000,-0.886719,1.270264,-0.01001,-62.286373,-2.929687,249.969467,1.5491744300617023
0 days 00:00:44.250000,-0.91748,1.250977,-0.099609,-76.202393,-33.737183,249.862656,1.554552976842539
0 days 00:00:44.260000,-1.223145,0.556885,-0.240723,-84.930412,-44.570919,213.912949,1.365339575702323
0 days 00:00:44.270000,-0.843994,1.151123,-0.132813,-103.034966,-84.007256,249.641403,1.433544323044809
0 days 00:00:44.280000,-0.828613,1.061523,-0.117432,-111.015312,-97.43499,239.967331,1.351747335089661
0 days 00:00:44.290000,-0.817871,0.970215,-0.061523,-113.899223,-104.988091,229.927048,1.2704389786192016
0 days 00:00:44.300000,-0.835693,0.894775,0.002441,-113.44146,-106.674187,220.626816,1.2243410674134065
0 days 00:00:44.310000,-0.875732,1.211182,-0.130371,-90.576164,-62.629696,249.992355,1.5002882958248391
0 days 00:00:44.320000,-0.8479,0.757324,0.118408,-105.171196,-94.017021,208.282455,1.1430199059683956
0 days 00:00:44.330000,-0.90625,0.708496,0.130615,-93.826286,-77.400208,208.580002,1.1577201400774715
0 days 00:00:44.340000,-0.936279,0.696289,0.105957,-81.359856,-58.845516,214.340195,1.171607281989575
0 days 00:00:44.350000,-0.885498,0.696777,0.060059,-71.662903,-37.109375,217.163071,1.1283669523758662
0 days 00:00:44.360000,-0.762695,0.697998,-0.01001,-66.833496,-7.4234,214.660629,1.0339270144110753
0 days 00:00:44.370000,-0.680664,0.681885,-0.090088,-62.789913,31.394957,215.057358,0.9676706474131578
0 days 00:00:44.380000,-0.780273,0.653076,-0.125488,-55.229183,69.915771,219.017014,1.0252226365277934
0 days 00:00:44.390000,-0.876953,0.651611,-0.184326,-47.08099,80.451958,218.05571,1.1079799338462768
0 days 00:00:44.400000,-1.041992,0.674316,-0.273438,-44.372555,60.531612,206.199631,1.2709121668172039
0 days 00:00:44.410000,-1.172363,0.682861,-0.34668,-50.910946,16.197205,194.168076,1.4003289511718309
0 days 00:00:44.420000,-0.82251,0.825439,0.05249,-111.320488,-104.095451,213.203415,1.1664593618815016
0 days 00:00:44.430000,-0.342773,0.956299,0.210693,-18.791199,62.034603,24.391172,1.0374934444029031
0 days 00:00:44.440000,-0.339355,0.971924,0.203857,-21.186827,53.37524,24.765013,1.0494549796203743
0 days 00:00:44.450000,-0.364258,0.978271,0.191406,-22.6593,42.747494,25.184629,1.0612889789501254
0 days 00:00:44.460000,-0.384766,0.980957,0.184814,-23.612974,34.187317,25.611876,1.0698026571293417
0 days 00:00:44.470000,-0.393799,0.979004,0.176758,-21.347044,23.178099,29.983519,1.0699391921885093
0 days 00:00:44.480000,-0.402344,0.980469,0.176025,-23.498533,25.848387,26.222227,1.074330002802677
0 days 00:00:44.490000,-0.394775,0.977539,0.177734,-22.933958,24.116514,27.122496,1.069120747110447
0 days 00:00:44.500000,-0.395508,0.980469,0.176025,-22.476194,23.03314,28.747557,1.0717886165891108
0 days 00:00:44.510000,-0.400635,0.982178,0.179443,-23.880003,28.663633,25.93231,1.0758168139409237
0 days 00:00:44.520000,-0.367432,0.946777,0.220215,-16.021729,66.070557,23.345945,1.0391764087863042
0 days 00:00:44.530000,-0.324707,0.921631,0.266357,19.104004,-2.113342,-24.261473,1.0128101438369386
0 days 00:00:44.540000,-0.416504,0.953857,0.263184,-13.031005,59.43298,20.111082,1.0735849180763484
0 days 00:00:44.550000,-0.423096,0.952881,0.302246,-10.231017,51.11694,17.723083,1.0855160385240745
0 days 00:00:44.560000,-0.431152,0.956787,0.331787,-6.706237,39.375305,15.907287,1.1006434590011427
0 days 00:00:44.570000,-0.426025,0.949951,0.345703,-3.471374,24.459837,14.007567,1.097002628636322
0 days 00:00:44.580000,-0.409424,0.94165,0.344727,-0.541687,8.934021,10.44464,1.0831294653941421
0 days 00:00:44.590000,-0.386963,0.934082,0.325684,1.998901,-4.28772,5.393981,1.062223900102516
0 days 00:00:44.600000,-0.363281,0.925537,0.30957,5.012512,-12.145995,0.274658,1.0413574833984727
0 days 00:00:44.610000,-0.341553,0.92334,0.302979,8.750916,-13.366698,-5.134582,1.0300541159812915
0 days 00:00:44.620000,-0.318115,0.921143,0.303955,12.893676,-10.169982,-11.528014,1.020828203812473
0 days 00:00:44.630000,-0.309326,0.918213,0.293213,16.532898,-5.41687,-17.883301,1.0123100073663205
0 days 00:00:44.640000,-0.394287,0.983643,0.172363,-20.042419,23.750303,30.838011,1.0736502193857178
0 days 00:00:44.650000,-0.398193,0.952393,0.23584,-14.305114,64.849854,22.010801,1.0588817673838757
0 days 00:00:44.660000,-0.391602,0.987061,0.168213,-18.821716,24.475096,31.814573,1.0751451797287657
0 days 00:00:44.670000,-0.448242,1.019287,0.161865,-9.277344,21.133421,24.559019,1.1251964971319455
0 days 00:00:44.680000,-0.391357,0.991699,0.152832,-16.304016,26.390074,34.004211,1.0770259181068949
0 days 00:00:44.690000,-0.336914,0.927246,0.245361,20.820616,-1.800537,-30.517576,1.0166111391446584
0 days 00:00:44.700000,-0.428955,0.972168,0.18335,-10.177611,45.349117,-5.447387,1.0782996961647537
0 days 00:00:44.710000,-0.449951,0.960938,0.179443,-11.390685,43.594357,-2.433777,1.0761308156976084
0 days 00:00:44.720000,-0.452148,0.937256,0.185059,-10.398864,40.809628,-3.14331,1.0569453424472808
0 days 00:00:44.730000,-0.441895,0.953857,0.182129,-9.07135,39.604187,-3.318786,1.0669045599841627
0 days 00:00:44.740000,-0.443115,0.970703,0.180176,-9.078979,38.536072,-0.854492,1.0821638546957664
0 days 00:00:44.750000,-0.440186,0.979736,0.183838,-9.346008,36.956787,1.831055,1.0896984695483427
0 days 00:00:44.760000,-0.444336,0.983887,0.187256,-9.475708,34.858704,5.241394,1.095688331233385
0 days 00:00:44.770000,-0.45166,0.990234,0.190186,-9.33075,31.806944,8.758545,1.1048668901510261
0 days 00:00:44.780000,-0.452881,0.995117,0.189697,-9.185791,28.030394,11.650084,1.109659405249647
0 days 00:00:44.790000,-0.391113,0.990234,0.161621,-17.669678,25.337217,33.004761,1.0768723699519827
0 days 00:00:44.800000,-0.451172,1.001709,0.184814,-9.45282,24.42169,14.953612,1.1140616270480732
0 days 00:00:44.810000,-0.450684,1.014648,0.168701,-9.208679,21.095274,21.606443,1.1229811481770298
0 days 00:00:44.820000,-0.443359,1.023682,0.155762,-9.422302,21.331785,27.656553,1.1263897374572445
0 days 00:00:44.830000,-0.442383,1.028564,0.150146,-9.483337,21.530149,30.387877,1.1296859926992988
0 days 00:00:44.840000,-0.437744,1.030762,0.144287,-9.82666,21.972654,32.234192,1.1291186158012805
0 days 00:00:44.850000,-0.424805,1.031494,0.141602,-10.482787,22.323606,33.39386,1.1244955697845145
0 days 00:00:44.860000,-0.412109,1.024658,0.137207,-11.192321,23.315428,34.515381,1.1129167110318723
0 days 00:00:44.870000,-0.39917,1.015869,0.13916,-11.566161,24.940489,35.293579,1.100314509429463
0 days 00:00:44.880000,-0.387695,1.008789,0.141602,-12.321471,26.664732,35.171509,1.0899604515531744
0 days 00:00:44.890000,-0.384033,1.002197,0.140869,-13.587951,27.57263,34.683228,1.0824621226902122
0 days 00:00:44.900000,-0.387939,0.997314,0.141602,-15.060424,27.404783,34.40094,1.0794364310699356
0 days 00:00:44.910000,-0.453857,1.009521,0.178711,-9.506226,21.980284,18.4021,1.1211852868330907
0 days 00:00:44.920000,-0.332764,0.93335,0.23877,22.02606,-1.602173,-35.446167,1.0192571879049959
0 days 00:00:44.930000,-0.326904,0.934082,0.237061,22.880552,-0.701904,-40.458675,1.0176312326481531
0 days 00:00:44.940000,-0.31665,0.936279,0.235596,24.246214,-0.892639,-46.813961,1.0160664661118386
0 days 00:00:44.950000,-0.364014,1.009277,0.106934,-5.935668,-32.691956,-57.495113,1.0782305575715243
0 days 00:00:44.960000,-0.328857,0.979248,0.119141,-7.331848,-46.943661,-60.8139,1.0398404444115452
0 days 00:00:44.970000,-0.252197,0.991455,0.06665,-7.713317,-53.428646,-68.687439,1.0251968427253373
0 days 00:00:44.980000,-0.216553,1.015137,0.032715,-9.361267,-46.562191,-63.323971,1.0384934288684737
0 days 00:00:44.990000,-0.26123,1.003174,0.062988,-10.780334,-40.306087,-53.733822,1.0385406469272158
0 days 00:00:45,-0.269287,0.983643,0.081787,-9.658813,-43.586727,-52.413937,1.0231119944497769
0 days 00:00:45.010000,-0.223877,0.992432,0.026367,-8.666992,-42.92297,-54.084774,1.0177118474509372
0 days 00:00:45.020000,-0.208252,1.010742,-0.004395,-9.590149,-30.143736,-53.733822,1.031982365204464
0 days 00:00:45.030000,-0.245605,1.025635,-0.007813,-9.986877,-11.20758,-49.964901,1.0546610887953534
0 days 00:00:45.040000,-0.31958,1.038818,-0.001221,-9.140015,4.165649,-42.755123,1.0868650810312197
0 days 00:00:45.050000,-0.31665,1.029541,0.099365,-4.089355,-28.297422,-66.543579,1.0817094325215069
0 days 00:00:45.060000,-0.374512,1.05127,0.014648,-8.850098,7.484436,-35.40802,1.1160835161169615
0 days 00:00:45.070000,-0.422607,1.058838,0.074707,-8.651733,-13.427733,-26.527403,1.142504145525083
0 days 00:00:45.080000,-0.44873,1.06665,0.0896,-7.507324,-28.045652,-22.53723,1.160658862629326
0 days 00:00:45.090000,-0.479736,1.075684,0.124023,-7.476806,-44.456478,-16.525269,1.1843244496678265
0 days 00:00:45.100000,-0.517334,1.075195,0.172607,-8.209229,-65.086365,-8.605957,1.2056002372386958
0 days 00:00:45.110000,-0.533691,1.065674,0.224609,-7.705688,-90.782158,-0.75531,1.2128216524444144
0 days 00:00:45.120000,-0.516602,1.05835,0.268311,-6.683349,-116.043083,5.889892,1.2078796056002434
0 days 00:00:45.130000,-0.449463,1.058105,0.289795,-6.851196,-132.316589,12.573241,1.1855734146053547
0 days 00:00:45.140000,-0.327637,1.053955,0.312744,-8.071899,-135.063171,18.341064,1.147159951937828
0 days 00:00:45.150000,-0.181396,1.026367,0.326904,-9.170532,-126.457207,22.354124,1.0923369227124935
0 days 00:00:45.160000,-0.077881,0.992676,0.343018,-9.529114,-111.778252,24.559019,1.0531535687927949
0 days 00:00:45.170000,-0.413574,1.057129,0.05127,-9.239197,0.068665,-30.509947,1.1363070839421006
0 days 00:00:45.180000,-0.237305,1.039063,0.094727,-3.791809,-38.925171,-72.212219,1.0700181239226747
0 days 00:00:45.190000,-0.014404,0.978516,0.365234,-10.330199,-101.203911,25.138853,1.044555844475536
0 days 00:00:45.200000,-0.273438,1.023682,0.151123,0.114441,-61.431881,-65.261841,1.0702949771427501
0 days 00:00:45.210000,-0.308105,0.946045,0.22876,25.489805,-5.104064,-51.74255,1.0209118329464109
0 days 00:00:45.220000,-0.321777,0.950684,0.224609,25.115965,-13.648986,-54.38995,1.0284890414904768
0 days 00:00:45.230000,-0.334961,0.945068,0.223877,24.42169,-24.284361,-59.249874,1.0273623057490477
0 days 00:00:45.240000,-0.323486,0.952148,0.213867,25.276182,-33.180237,-67.337036,1.0280895387995153
0 days 00:00:45.250000,-0.289551,0.976807,0.208252,24.604795,-34.225464,-71.151733,1.0398848938002705
0 days 00:00:45.260000,-0.27002,0.979492,0.245117,23.91815,-30.006407,-70.251465,1.0451783207438814
0 days 00:00:45.270000,-0.228516,1.032471,0.107178,-2.13623,-55.343624,-70.56427,1.0628748994030295
0 days 00:00:45.280000,-0.287598,1.016113,0.24292,25.955198,-26.641844,-71.548462,1.0836089538080609
0 days 00:00:45.290000,-0.288818,1.035645,0.246338,25.253294,-28.861998,-70.655823,1.1030225806360447
0 days 00:00:45.300000,-0.296875,1.042725,0.249268,25.238035,-32.234192,-71.128845,1.112449876207463
0 days 00:00:45.310000,-0.283203,1.056152,0.241943,24.574278,-36.560059,-71.662903,1.1199095506164771
0 days 00:00:45.320000,-0.288086,0.986572,0.254883,25.344847,-26.840208,-71.014404,1.0589066050738376
0 days 00:00:45.330000,-0.293945,1.059082,0.222412,22.087095,-42.724606,-67.398071,1.1213944192357121
0 days 00:00:45.340000,-0.273682,1.055908,0.222656,19.523621,-44.250484,-65.1474,1.1132920712571344
0 days 00:00:45.350000,-0.234863,1.055664,0.215576,17.295837,-43.17474,-66.497803,1.1027511602537536
0 days 00:00:45.360000,-0.202881,1.058838,0.201904,15.86914,-40.100098,-65.093994,1.0968426667580906
0 days 00:00:45.370000,-0.212646,1.053467,0.198486,14.289855,-38.146973,-60.859676,1.0928896255345275
0 days 00:00:45.380000,-0.207031,1.047607,0.186279,10.681151,-39.512634,-61.370846,1.0839936011116487
0 days 00:00:45.390000,-0.160889,1.046875,0.17749,7.072448,-39.657593,-65.498352,1.073934465433529
0 days 00:00:45.400000,-0.170898,1.05249,0.171631,5.325317,-35.758972,-65.765381,1.0799993179002476
0 days 00:00:45.410000,-0.238037,1.049805,0.166992,2.937317,-37.483215,-61.126705,1.089329371429046
0 days 00:00:45.420000,-0.29541,1.030029,0.181152,1.296997,-50.521847,-60.333248,1.0867579565133167
0 days 00:00:45.430000,-0.287598,1.061523,0.236816,23.818968,-40.016174,-70.922852,1.125000225328422
0 days 00:00:45.440000,-0.448242,0.956055,0.135986,2.708435,-1.472473,4.074097,1.0646380820659196
0 days 00:00:45.450000,-0.442871,0.953613,0.135742,2.853393,-3.982544,2.784729,1.0601595950487832
0 days 00:00:45.460000,-0.438965,0.951172,0.13623,2.388,-6.446838,1.518249,1.0563981530223348
0 days 00:00:45.470000,-0.438965,0.953125,0.131104,2.26593,-8.415222,0.823975,1.0575092414092655
0 days 00:00:45.480000,-0.435303,0.954102,0.124268,2.220154,-11.95526,2.14386,1.0560501238279365
0 days 00:00:45.490000,-0.433594,0.955322,0.133057,2.510071,-10.734557,1.00708,1.057519761408268
0 days 00:00:45.500000,-0.431885,0.955811,0.128174,2.189636,-11.535644,1.251221,1.0566588357752942
0 days 00:00:45.510000,-0.430908,0.954834,0.127441,2.197266,-12.130736,1.64032,1.055287108090021
0 days 00:00:45.520000,-0.436035,0.955078,0.130615,2.494812,-9.719849,0.839233,1.0579984808750909
0 days 00:00:45.530000,-0.448975,0.957275,0.137451,2.13623,0.62561,5.531311,1.0662301597924342
0 days 00:00:45.540000,-0.492676,0.998291,0.148193,4.608154,24.841307,16.75415,1.1230653261970116
0 days 00:00:45.550000,-0.454102,0.960449,0.143311,1.617432,3.456115,9.155273,1.0720116374023185
0 days 00:00:45.560000,-0.458252,0.965332,0.150635,1.037598,4.676819,10.345458,1.0791439519142012
0 days 00:00:45.570000,-0.461426,0.968018,0.156982,0.564575,6.660461,11.83319,1.0837970982264162
0 days 00:00:45.580000,-0.467773,0.973389,0.161377,0.602722,9.307861,13.618468,1.0919433414692357
0 days 00:00:45.590000,-0.476563,0.984619,0.164551,1.12915,12.451171,15.213012,1.106193427810435
0 days 00:00:45.600000,-0.486084,0.994873,0.165527,1.274109,15.296935,16.334534,1.1195754235039281
0 days 00:00:45.610000,-0.492432,1.000977,0.163818,1.800537,17.379761,17.173767,1.1275107832198323
0 days 00:00:45.620000,-0.494873,1.006104,0.158691,2.433777,19.065857,17.753601,1.1323989484391093
0 days 00:00:45.630000,-0.499512,1.003418,0.156006,3.189087,20.950315,17.494202,1.1316791916899416
0 days 00:00:45.640000,-0.496094,1.000977,0.150635,4.051208,23.056028,17.01355,1.1272777450965668
0 days 00:00:45.650000,-0.439453,0.955078,0.122803,2.243042,-10.993957,2.861023,1.058476972872816
0 days 00:00:45.660000,-0.451904,0.956299,0.139404,1.899719,2.296448,7.568359,1.066845104892458
0 days 00:00:45.670000,-0.436768,0.956543,0.12085,2.456665,-9.70459,3.562927,1.0584637543029047
0 days 00:00:45.680000,-0.440674,0.988281,0.144775,5.943298,-9.033203,5.523681,1.0917200693685172
0 days 00:00:45.690000,-0.428467,0.971191,0.117432,2.197266,-8.232117,4.455566,1.0679823047195116
0 days 00:00:45.700000,-0.49292,0.989014,0.148682,5.310058,25.253294,16.174316,1.115000069829594
0 days 00:00:45.710000,-0.368408,0.999512,0.153809,0.083923,-22.6593,-5.058288,1.0762926651654745
0 days 00:00:45.720000,-0.380127,1.00293,0.153809,0.297546,-19.371033,-4.737854,1.0835231098181526
0 days 00:00:45.730000,-0.390381,1.00415,0.15918,0.656128,-16.242981,-4.486084,1.0890605217622207
0 days 00:00:45.740000,-0.398193,1.004395,0.160645,1.365662,-13.229369,-4.379272,1.0923249504149393
0 days 00:00:45.750000,-0.410889,1.004883,0.158936,1.815796,-10.345458,-3.547668,1.09721477665314
0 days 00:00:45.760000,-0.424561,1.003906,0.160645,2.571106,-8.323669,-2.555847,1.1017650001620127
0 days 00:00:45.770000,-0.433594,1.006104,0.161133,3.364563,-7.194519,-1.617432,1.1073449595049414
0 days 00:00:45.780000,-0.434082,1.005127,0.156006,3.982544,-6.340026,-0.411987,1.1059138035529714
0 days 00:00:45.790000,-0.437744,1.003174,0.155273,4.524231,-5.828857,0.976562,1.1054807046443642
0 days 00:00:45.800000,-0.433838,0.961426,0.117676,2.418518,-8.598328,4.005432,1.0613213484595512
0 days 00:00:45.810000,-0.438721,0.998047,0.153076,5.050659,-6.057739,2.296448,1.1009115277014772
0 days 00:00:45.820000,-0.445557,0.98877,0.146729,5.622863,-8.155823,4.615784,1.0944023723430063
0 days 00:00:45.830000,-0.436768,0.995361,0.138916,5.91278,-9.490967,6.256103,1.0958136069610562
0 days 00:00:45.840000,-0.432373,1.000977,0.130859,5.599975,-9.384155,6.713867,1.0981918974109215
0 days 00:00:45.850000,-0.428223,1.000977,0.123535,5.279541,-8.979797,6.973266,1.0957147386445982
0 days 00:00:45.860000,-0.429199,1.002197,0.115967,4.66156,-8.651733,6.851196,1.0963844916355758
0 days 00:00:45.870000,-0.428711,0.998779,0.109863,4.051208,-8.361816,6.538391,1.092438781411114
0 days 00:00:45.880000,-0.428955,0.991211,0.109131,3.593445,-8.110046,6.29425,1.0855465046265866
0 days 00:00:45.890000,-0.42749,0.985596,0.111816,3.051758,-8.087158,5.973815,1.0801157313788186
0 days 00:00:45.900000,-0.424805,0.980469,0.110107,2.685547,-8.110046,5.577087,1.0741984450905708
0 days 00:00:45.910000,-0.425049,0.974854,0.112305,2.418518,-8.140564,5.012512,1.0694014151580313
0 days 00:00:45.920000,-0.445068,0.993896,0.151123,5.401611,-6.942749,3.540039,1.0994330104963195
0 days 00:00:45.930000,-0.494629,0.974609,0.147461,5.676269,23.681639,15.510558,1.102844185296817
0 days 00:00:45.940000,-0.491943,0.962646,0.149414,5.867004,19.90509,14.160155,1.0913385267463986
0 days 00:00:45.950000,-0.486816,0.952393,0.157959,6.362915,14.671325,12.130736,1.081199930626154
0 days 00:00:45.960000,-0.401611,0.978516,0.173096,-1.296997,-5.294799,-1.13678,1.0717962412665012
0 days 00:00:45.970000,-0.403564,0.974609,0.175049,-1.800537,-4.722595,-1.228333,1.069284226657253
0 days 00:00:45.980000,-0.405518,0.976318,0.177979,-2.502441,-3.921509,-1.228333,1.0720625960684385
0 days 00:00:45.990000,-0.40625,0.9729,0.178223,-2.89154,-2.807617,-1.449585,1.0692693347463957
0 days 00:00:46,-0.402832,0.96875,0.181641,-2.63977,-0.694275,-2.166748,1.0647739833434136
0 days 00:00:46.010000,-0.400146,0.964844,0.185059,-3.288269,1.838684,-2.02179,1.0607957386476436
0 days 00:00:46.020000,-0.400635,0.952148,0.192383,-3.280639,4.814148,-2.326965,1.0507642151396286
0 days 00:00:46.030000,-0.394775,0.956299,0.194092,-3.837585,9.010315,-1.739502,1.0526285111519638
0 days 00:00:46.040000,-0.398193,0.949463,0.19165,-4.776001,13.313293,-0.984192,1.0472666213137893
0 days 00:00:46.050000,-0.392334,0.942383,0.192627,-5.584716,18.15033,-0.63324,1.0388054906352777
0 days 00:00:46.060000,-0.403564,0.973633,0.17041,-0.648498,-5.485534,-1.190186,1.0676444580875226
0 days 00:00:46.070000,-0.392578,0.935059,0.197021,-6.17218,23.094175,-0.595093,1.0330876506889433
0 days 00:00:46.080000,-0.401367,0.931396,0.19751,-7.278442,30.72357,-1.25885,1.0332493298352532
0 days 00:00:46.090000,-0.405029,0.937256,0.198242,-7.995605,33.004761,-1.174927,1.0400947990164167
0 days 00:00:46.100000,-0.407715,0.939453,0.197021,-8.598328,34.873962,-1.594543,1.0428905670658835
0 days 00:00:46.110000,-0.403076,0.936035,0.196777,-9.063721,37.521362,-2.632141,1.0379561506778596
0 days 00:00:46.120000,-0.400391,0.936279,0.190674,-9.44519,41.320797,-3.868103,1.0359960873468586
0 days 00:00:46.130000,-0.400146,0.945313,0.190186,-9.529114,45.349117,-4.699707,1.0439847718625976
0 days 00:00:46.140000,-0.418457,0.951904,0.190186,-9.536743,46.623226,-4.776001,1.0570705750615708
0 days 00:00:46.150000,-0.437988,0.955566,0.183838,-10.017395,44.81506,-4.79126,1.0671158694087537
0 days 00:00:46.160000,-0.437012,0.947266,0.184814,-10.32257,42.312618,-6.04248,1.0594567369628645
0 days 00:00:46.170000,-0.421875,0.943848,0.18457,-9.887695,42.129513,-8.377075,1.0501874345225237
0 days 00:00:46.180000,-0.397461,0.932861,0.197021,-6.881713,27.381895,-0.778198,1.0329676501628695
0 days 00:00:46.190000,-0.405518,0.971191,0.169678,-0.099182,-5.020141,-0.846863,1.0660428839821596
0 days 00:00:46.200000,-0.411865,0.959717,0.182861,-9.712219,44.197079,-8.232117,1.060248859294364
0 days 00:00:46.210000,-0.397461,0.977539,0.168945,1.022339,-2.677917,-0.297546,1.0686908608512566
0 days 00:00:46.220000,-0.48291,0.948242,0.159424,6.454467,9.162903,10.398864,1.076002309681536
0 days 00:00:46.230000,-0.482422,0.945068,0.162354,6.477355,5.096435,9.284973,1.0734259788285356
0 days 00:00:46.240000,-0.467285,0.945068,0.158936,6.134033,3.684997,9.246826,1.066193907291258
0 days 00:00:46.250000,-0.462158,0.945068,0.153564,6.019592,2.174377,9.567261,1.0631676460859782
0 days 00:00:46.260000,-0.463135,0.939697,0.150635,6.469726,-0.350952,9.95636,1.0584022785590552
0 days 00:00:46.270000,-0.457275,0.943115,0.153564,6.469726,-2.845764,11.024474,1.0593149819321919
0 days 00:00:46.280000,-0.398682,0.975098,0.169678,0.343323,-3.814697,-0.38147,1.0670304917911204
0 days 00:00:46.290000,-0.423096,0.957031,0.147705,7.202148,-4.631042,10.31494,1.056756985878021
0 days 00:00:46.300000,-0.419189,0.96582,0.148926,7.011413,-2.548218,11.428832,1.063346906515931
0 days 00:00:46.310000,-0.43457,0.970703,0.152344,7.446289,-1.678467,11.672973,1.0743947568026382
0 days 00:00:46.320000,-0.437744,0.977783,0.153076,7.820129,-1.205444,11.116027,1.0821791286108784
0 days 00:00:46.330000,-0.440674,0.947021,0.157227,6.835937,-4.959106,10.742187,1.0562966809784076
0 days 00:00:46.340000,-0.434814,0.980957,0.155762,7.957458,-1.441955,9.307861,1.0842516548703074
0 days 00:00:46.350000,-0.427002,0.985352,0.155029,7.980346,-1.182556,8.399963,1.0850268488608934
0 days 00:00:46.360000,-0.419434,0.993896,0.153076,7.537841,-0.724792,7.240295,1.0895808372709206
0 days 00:00:46.370000,-0.413574,1.003174,0.147705,6.881713,-0.015259,5.455017,1.095088258898341
0 days 00:00:46.380000,-0.410889,1.002441,0.145508,6.019592,0.205994,3.456115,1.093110381830673
0 days 00:00:46.390000,-0.407227,0.998779,0.148682,5.050659,-0.442505,1.846313,1.0888065289545246
0 days 00:00:46.400000,-0.403076,0.992676,0.156738,4.219055,-1.464844,0.907898,1.082793933948653
0 days 00:00:46.410000,-0.396973,0.989502,0.157227,3.334045,-2.220154,0.312805,1.0776929526827204
0 days 00:00:46.420000,-0.394287,0.984375,0.15918,2.746582,-2.288818,-0.457764,1.0722847809206284
0 days 00:00:46.430000,-0.391846,0.983887,0.165527,1.853943,-2.204895,-0.595093,1.0719030292960274
0 days 00:00:46.440000,-0.435303,0.97998,0.154541,7.751464,-1.235962,10.383605,1.0833893219383326
0 days 00:00:46.450000,-0.342773,0.98999,0.180908,-3.128052,5.744934,1.960754,1.0631562604307045
0 days 00:00:46.460000,-0.342773,0.989502,0.187988,-2.838135,5.508422,1.998901,1.063929990966041
0 days 00:00:46.470000,-0.343262,0.989014,0.187744,-2.525329,5.363464,1.976013,1.063590758880501
0 days 00:00:46.480000,-0.34082,0.987793,0.187012,-2.02179,5.630493,1.861572,1.0615398114969594
0 days 00:00:46.490000,-0.336426,0.984131,0.208496,0.75531,4.585266,1.64032,1.0607388277295218
0 days 00:00:46.500000,-0.337891,0.983398,0.191895,-0.732422,6.019592,1.564026,1.057386232797647
0 days 00:00:46.510000,-0.336182,0.979004,0.19751,-0.1297,5.676269,1.350403,1.053791900348451
0 days 00:00:46.520000,-0.333984,0.97998,0.20166,0.434875,5.180358,1.472473,1.0547856977869958
0 days 00:00:46.530000,-0.340332,0.98584,0.188232,-1.441955,5.950927,1.831055,1.059781893432795
0 days 00:00:46.540000,-0.347656,0.990234,0.180908,-3.555298,5.554199,1.823425,1.064967498826138
0 days 00:00:46.550000,-0.374268,0.985107,0.177246,-4.135132,0.228882,2.807617,1.0686105379365298
0 days 00:00:46.560000,-0.354492,0.981689,0.179199,-3.967285,4.15802,1.861572,1.0590043212310325
0 days 00:00:46.570000,-0.352539,0.981689,0.179688,-3.952026,3.425598,1.838684,1.0584350790605912
0 days 00:00:46.580000,-0.353516,0.97876,0.180664,-3.90625,2.76947,1.853943,1.0562121854778992
0 days 00:00:46.590000,-0.354492,0.976563,0.178223,-3.997802,2.27356,1.754761,1.0540888524038188
0 days 00:00:46.600000,-0.358154,0.976074,0.177002,-4.096985,1.716614,1.678467,1.0546679331410433
0 days 00:00:46.610000,-0.361572,0.974609,0.174072,-4.02832,1.281738,1.594543,1.0539914967631379
0 days 00:00:46.620000,-0.366943,0.973389,0.173828,-4.03595,0.991821,1.876831,1.0546798017189862
0 days 00:00:46.630000,-0.369141,0.97583,0.175049,-3.982544,0.839233,2.044678,1.0578995317051616
0 days 00:00:46.640000,-0.369385,0.979248,0.172119,-4.112244,0.610352,2.075195,1.060658698116411
0 days 00:00:46.650000,-0.375244,0.982178,0.175049,-4.112244,0.602722,2.372742,1.0658910993253485
0 days 00:00:46.660000,-0.334717,0.993408,0.218506,1.098633,4.119873,1.876831,1.0708126804390206
0 days 00:00:46.670000,-0.354248,0.986328,0.180908,-3.784179,4.974365,1.76239,1.0635141153515546
0 days 00:00:46.680000,-0.333496,0.996582,0.22583,1.296997,3.807068,2.037048,1.07489276378623
0 days 00:00:46.690000,-0.371338,0.99292,0.253418,-1.228333,2.189636,5.760192,1.0899553749433966
0 days 00:00:46.700000,-0.331299,0.998291,0.22583,1.88446,3.013611,2.822876,1.0757988366706854
0 days 00:00:46.710000,-0.378662,0.983887,0.176514,-4.096985,-0.305176,3.135681,1.068913341299939
0 days 00:00:46.720000,-0.335693,0.982178,0.244385,-0.999451,-5.401611,-1.914978,1.0663430227454953
0 days 00:00:46.730000,-0.341797,0.989746,0.244385,-1.068115,-5.271911,-1.823425,1.0752424665860254
0 days 00:00:46.740000,-0.347656,0.998291,0.241211,-1.25885,-5.210876,-1.663208,1.0842658168262984
0 days 00:00:46.750000,-0.350586,1.003418,0.241211,-1.434326,-4.79126,-1.289368,1.0899270492289839
0 days 00:00:46.760000,-0.354004,1.008301,0.242676,-1.586914,-3.791809,-0.701904,1.0958473340721324
0 days 00:00:46.770000,-0.361816,1.015137,0.245361,-1.800537,-2.502441,0.167847,1.1052673735101384
0 days 00:00:46.780000,-0.366943,1.020752,0.243652,-2.02179,-1.220703,1.235962,1.1117320305977516
0 days 00:00:46.790000,-0.371582,1.022949,0.241211,-2.26593,-0.25177,2.304077,1.114755841359892
0 days 00:00:46.800000,-0.37207,1.021729,0.242188,-2.342224,0.511169,3.196716,1.1140113382210255
0 days 00:00:46.810000,-0.332275,0.997314,0.227295,1.502991,3.425598,2.357483,1.0755021651517025
0 days 00:00:46.820000,-0.373535,1.018799,0.24707,-2.220154,1.38092,4.058838,1.1128896546944804
0 days 00:00:46.830000,-0.371094,1.003662,0.25,-1.701355,2.471924,5.485534,1.0988849653535169
0 days 00:00:46.840000,-0.371826,0.985352,0.258789,-0.640869,1.159668,6.16455,1.084502136789504
0 days 00:00:46.850000,-0.36792,0.976074,0.261719,0.183105,-0.221252,6.332397,1.0754452170319975
0 days 00:00:46.860000,-0.360596,0.971924,0.263428,1.029968,-1.533508,6.202697,1.0696074271320297
0 days 00:00:46.870000,-0.353027,0.972412,0.258057,1.823425,-2.380371,5.928039,1.0662113185114854
0 days 00:00:46.880000,-0.344482,0.972168,0.254395,2.5177,-2.357483,5.271911,1.0623065869008814
0 days 00:00:46.890000,-0.335938,0.974609,0.24585,2.784729,-1.411438,4.524231,1.0597920858475025
0 days 00:00:46.900000,-0.334229,0.977539,0.23584,2.845764,-0.015259,3.921509,1.059675434537387
0 days 00:00:46.910000,-0.32959,0.984375,0.232422,2.784729,1.434326,3.433227,1.0637874293339813
0 days 00:00:46.920000,-0.328613,0.991943,0.227783,2.357483,2.502441,3.15094,1.0694963834006173
0 days 00:00:46.930000,-0.371094,1.012939,0.25,-2.120972,2.105713,4.859924,1.1073645174724538
0 days 00:00:46.940000,-0.381592,0.985352,0.176758,-4.165649,-0.991821,3.585815,1.0713423397457975
0 days 00:00:46.950000,-0.380615,0.986328,0.177979,-4.142761,-1.579285,3.936767,1.0720947841725563
0 days 00:00:46.960000,-0.37915,0.983154,0.179199,-3.967285,-1.655578,4.264832,1.0688586397728186
0 days 00:00:46.970000,-0.394775,1.017822,0.107422,-4.882813,-4.341125,-8.613586,1.0969723836054397
0 days 00:00:46.980000,-0.397217,1.019287,0.107422,-5.180358,-5.401611,-8.491516,1.0992119083880052
0 days 00:00:46.990000,-0.397217,1.017822,0.107422,-5.386352,-6.690979,-8.552551,1.0978535671286038
0 days 00:00:47,-0.395508,1.012451,0.106201,-5.355834,-7.835388,-8.789063,1.0921365564186558
0 days 00:00:47.010000,-0.395264,1.006348,0.106934,-5.28717,-8.354187,-9.292603,1.0864643607389983
0 days 00:00:47.020000,-0.391602,1.003174,0.106689,-5.012512,-8.613586,-9.529114,1.08217038556828
0 days 00:00:47.030000,-0.393799,0.999023,0.107666,-4.768372,-8.956909,-9.407043,1.0792203549257213
0 days 00:00:47.040000,-0.397949,0.990234,0.109863,-4.333496,-9.83429,-9.124756,1.0728451240165096
0 days 00:00:47.050000,-0.395508,0.981445,0.11377,-3.89862,-11.337279,-8.872986,1.0642389200687032
0 days 00:00:47.060000,-0.394531,0.977051,0.116943,-3.295898,-12.96997,-8.720398,1.0601693411012223
0 days 00:00:47.070000,-0.388184,1.017578,0.104004,-4.547119,-3.65448,-8.735657,1.0940606180445396
0 days 00:00:47.080000,-0.395996,0.974854,0.119141,-2.738952,-14.251708,-8.354187,1.0589370761348382
0 days 00:00:47.090000,-0.399414,0.979736,0.120117,-1.609802,-16.822815,-7.698059,1.06482029788176
0 days 00:00:47.100000,-0.400146,0.980713,0.125977,-1.144409,-18.737793,-7.476806,1.0666700587407523
0 days 00:00:47.110000,-0.40332,0.982422,0.131348,-0.869751,-21.308897,-7.057189,1.070080513600729
0 days 00:00:47.120000,-0.400635,0.982178,0.135986,-0.770569,-24.002073,-6.584167,1.0694270517922202
0 days 00:00:47.130000,-0.392578,0.979248,0.143555,-0.564575,-26.100157,-6.439209,1.0647310315816854
0 days 00:00:47.140000,-0.391357,0.980713,0.142334,-0.343323,-27.091978,-5.882263,1.0654657466920276
0 days 00:00:47.150000,-0.387939,0.979004,0.144531,-0.389099,-27.526854,-5.256652,1.0629368324119735
0 days 00:00:47.160000,-0.385254,0.982422,0.145264,-0.343323,-27.732847,-4.905701,1.0652113688353124
0 days 00:00:47.170000,-0.383545,0.987061,0.149902,-0.297546,-27.740477,-4.699707,1.0695170846461501
0 days 00:00:47.180000,-0.380127,0.991943,0.149414,-0.450134,-27.091978,-4.470825,1.0727404135083194
0 days 00:00:47.190000,-0.398193,0.976807,0.118164,-2.220154,-15.472411,-8.010864,1.0614482141838104
0 days 00:00:47.200000,-0.383789,1.009521,0.103271,-3.90625,-3.15094,-8.705139,1.0849384984426536
0 days 00:00:47.210000,-0.373291,0.99292,0.149658,-0.267029,-25.268553,-4.753113,1.0712767215080332
0 days 00:00:47.220000,-0.371826,0.985107,0.109375,-2.388,-2.922058,-9.216309,1.0586091187733082
0 days 00:00:47.230000,-0.376709,0.984375,0.181152,-3.791809,-0.892639,4.867554,1.0694483897832565
0 days 00:00:47.240000,-0.375977,0.985107,0.183838,-3.65448,0.1297,5.41687,1.0703228093533277
0 days 00:00:47.250000,-0.375,0.985596,0.188232,-3.40271,1.045227,5.91278,1.0711936151041976
0 days 00:00:47.260000,-0.372559,0.985107,0.193359,-3.189087,1.861572,6.347656,1.0708051703325865
0 days 00:00:47.270000,-0.366455,0.983154,0.199219,-2.937317,3.005981,6.805419,1.06797437455306
0 days 00:00:47.280000,-0.354004,0.984863,0.202637,-2.6474,4.829407,7.04956,1.065990485208006
0 days 00:00:47.290000,-0.377686,0.996094,0.108154,-3.028869,-2.799988,-8.773804,1.070769470590192
0 days 00:00:47.300000,-0.348633,0.980957,0.210693,-1.495361,7.408142,6.29425,1.06217378276203
0 days 00:00:47.310000,-0.361572,0.980225,0.216797,-1.121521,5.577087,5.737304,1.067040908783726
0 days 00:00:47.320000,-0.373779,0.979248,0.216553,-0.740051,0.946045,5.134582,1.0702955611203853
0 days 00:00:47.330000,-0.373535,0.979492,0.216553,-0.427246,-5.012512,4.013062,1.0704336392780265
0 days 00:00:47.340000,-0.345703,0.981934,0.208496,-2.113342,6.767272,6.782531,1.0616852295200305
0 days 00:00:47.350000,-0.349365,0.977539,0.201172,0.587463,-14.244079,0.846863,1.0574065317227808
0 days 00:00:47.360000,-0.3396,0.97583,0.19165,0.999451,-16.456604,-1.091003,1.0508577788644855
0 days 00:00:47.370000,-0.331299,0.974365,0.180908,1.312256,-17.616272,-3.013611,1.0449276937137804
0 days 00:00:47.380000,-0.331543,0.974121,0.165039,1.678467,-17.562866,-4.806519,1.0421469929961895
0 days 00:00:47.390000,-0.329102,0.976318,0.148438,1.564026,-16.456604,-6.378173,1.040931699667178
0 days 00:00:47.400000,-0.324463,0.97583,0.137695,1.25885,-14.060973,-7.980346,1.03753570555138
0 days 00:00:47.410000,-0.327393,0.972656,0.128662,0.907898,-10.231017,-9.002686,1.0343112592585464
0 days 00:00:47.420000,-0.337646,0.975342,0.119141,0.1297,-6.645202,-9.361267,1.0389857632138182
0 days 00:00:47.430000,-0.351318,0.975342,0.116211,-1.014709,-4.692078,-9.674072,1.0431784845408767
0 days 00:00:47.440000,-0.361328,0.974854,0.110107,-1.76239,-3.65448,-9.651184,1.045476827265435
0 days 00:00:47.450000,-0.361328,0.980957,0.211426,0.015259,-10.330199,2.548218,1.066553098963666
0 days 00:00:47.460000,-0.31958,0.993896,0.193115,-1.274109,1.182556,-2.319336,1.061722203987936
0 days 00:00:47.470000,-0.318359,0.992432,0.199707,-0.915527,1.358032,-2.311707,1.0612052644771415
0 days 00:00:47.480000,-0.317627,0.992188,0.207764,-0.640869,1.441955,-2.243042,1.062304014003995
0 days 00:00:47.490000,-0.312988,0.995361,0.209961,-0.595093,1.815796,-2.082825,1.0643254342474393
0 days 00:00:47.500000,-0.320557,0.989258,0.242676,-0.396728,3.479004,-0.480652,1.067838855721686
0 days 00:00:47.510000,-0.308838,0.996826,0.2229,-0.068665,2.403259,-1.411438,1.0671117066736735
0 days 00:00:47.520000,-0.312012,0.993164,0.230469,-0.061035,2.426147,-1.022339,1.0662280145452003
0 days 00:00:47.530000,-0.316406,0.994629,0.236572,-0.236511,2.754211,-0.671387,1.0702176954531262
0 days 00:00:47.540000,-0.308105,0.996094,0.213867,-0.343323,2.27356,-1.739502,1.0643641489405777
0 days 00:00:47.550000,-0.32666,0.994141,0.185059,-1.564026,0.938415,-2.288818,1.0626711236135102
0 days 00:00:47.560000,-0.343506,0.986572,0.192627,-2.830505,-2.754211,-3.341675,1.0622739026960044
0 days 00:00:47.570000,-0.33374,0.992188,0.178467,-2.319336,-0.305176,-2.464294,1.061918021804414
0 days 00:00:47.580000,-0.335205,0.993408,0.175049,-2.624511,-1.205444,-2.723694,1.062950609807436
0 days 00:00:47.590000,-0.337891,0.989502,0.171143,-2.89917,-2.189636,-2.983093,1.0595161453861852
0 days 00:00:47.600000,-0.338135,0.985352,0.17334,-3.112793,-2.975464,-3.234863,1.0560779316551407
0 days 00:00:47.610000,-0.337646,0.982422,0.172607,-3.181457,-3.204345,-3.517151,1.053067416573602
0 days 00:00:47.620000,-0.339111,0.979736,0.172119,-3.288269,-3.27301,-3.662109,1.050953781180695
0 days 00:00:47.630000,-0.340332,0.979736,0.172607,-3.417969,-3.211975,-3.829956,1.051428398118008
0 days 00:00:47.640000,-0.341797,0.982666,0.175537,-3.349304,-3.303528,-3.997802,1.0551165315423696
0 days 00:00:47.650000,-0.343994,0.986816,0.183838,-3.265381,-3.417969,-3.730774,1.0611004194401208
0 days 00:00:47.660000,-0.343018,0.986328,0.188965,-3.089905,-2.967834,-3.494262,1.0612313805824816
0 days 00:00:47.670000,-0.323242,0.988281,0.244385,-0.686645,4.341125,-0.350952,1.0681333033615232
0 days 00:00:47.680000,-0.332031,0.994385,0.181396,-1.907349,0.465393,-2.288818,1.0639316810782542
0 days 00:00:47.690000,-0.327148,0.986084,0.246094,-1.13678,5.332946,-0.144958,1.0676842818904846
0 days 00:00:47.700000,-0.358154,0.980713,0.197021,-3.028869,7.720947,-0.221252,1.0624921413949375
0 days 00:00:47.710000,-0.334473,0.987061,0.243896,-1.823425,6.835937,0.305176,1.0703489450950097
0 days 00:00:47.720000,-0.348145,0.991699,0.202148,-2.63977,-3.326416,-3.112793,1.0702969968798381
0 days 00:00:47.730000,-0.340332,0.98877,0.224609,-1.922607,4.402161,0.144958,1.069551862232496
0 days 00:00:47.740000,-0.341064,0.989014,0.223389,-1.937866,4.730225,0.022888,1.0697551073086775
0 days 00:00:47.750000,-0.342041,0.986816,0.221191,-1.968384,4.920959,-0.091553,1.067578251004581
0 days 00:00:47.760000,-0.344482,0.986084,0.218018,-1.998901,4.959106,-0.205994,1.0670339037275245
0 days 00:00:47.770000,-0.347412,0.981934,0.217041,-1.831055,4.692078,-0.320435,1.0639531351431792
0 days 00:00:47.780000,-0.348389,0.980225,0.214844,-1.976013,4.440308,-0.419617,1.0622494482380305
0 days 00:00:47.790000,-0.350098,0.977783,0.20874,-2.090454,4.058838,-0.495911,1.059339696364202
0 days 00:00:47.800000,-0.350586,0.976318,0.205811,-2.128601,3.883362,-0.595093,1.0575753156352508
0 days 00:00:47.810000,-0.349609,0.974121,0.202637,-2.243042,4.119873,-0.686645,1.0546088987349764
0 days 00:00:47.820000,-0.331543,0.986084,0.247803,-1.403808,6.141662,0.091553,1.0694338421398493
0 days 00:00:47.830000,-0.354004,0.976807,0.202148,-2.502441,4.722595,-0.595093,1.0584585779183804
0 days 00:00:47.840000,-0.354248,0.976563,0.19751,-2.693176,6.752014,-0.404358,1.057438952645967
0 days 00:00:47.850000,-0.361328,0.984863,0.201172,-3.257751,8.43811,-0.053406,1.068168163697552
0 days 00:00:47.860000,-0.360107,0.984375,0.20459,-3.311157,8.743286,0.167847,1.0679551770434936
0 days 00:00:47.870000,-0.362305,0.986084,0.207275,-3.372192,8.903503,0.282288,1.0707891920009278
0 days 00:00:47.880000,-0.363037,0.989014,0.21582,-3.288269,8.94928,0.480652,1.075417513324476
0 days 00:00:47.890000,-0.359131,0.98877,0.218018,-3.288269,8.842468,0.62561,1.0743244558256133
0 days 00:00:47.900000,-0.355713,0.989502,0.222168,-3.250122,8.598328,0.717163,1.0747113875813357
0 days 00:00:47.910000,-0.354492,0.990234,0.228271,-3.036499,8.338928,0.709534,1.0762600068110864
0 days 00:00:47.920000,-0.347168,0.991455,0.233398,-2.853393,7.93457,0.534058,1.0760963077963792
0 days 00:00:47.930000,-0.340088,0.987793,0.237305,-2.372742,7.385253,0.419617,1.0713115894164498
0 days 00:00:47.940000,-0.35376,0.978027,0.199951,-2.510071,5.645751,-0.534058,1.059086093162402
0 days 00:00:47.950000,-0.350098,0.992188,0.211426,-2.838135,-4.249573,-2.433777,1.0731759363794922
0 days 00:00:47.960000,-0.342041,0.988525,0.22583,-1.88446,4.150391,0.099182,1.0701275205348193
0 days 00:00:47.970000,-0.3396,0.990967,0.229004,-3.044128,-4.112244,-0.350952,1.0722810205841564
0 days 00:00:47.980000,-0.337646,0.988037,0.17627,2.76947,-15.274047,1.678467,1.058911255764618
0 days 00:00:47.990000,-0.328369,0.991211,0.180176,3.540039,-17.166138,2.326965,1.059617307171792
0 days 00:00:48,-0.318848,0.991943,0.195557,3.356933,-17.929077,2.388,1.0601214565331654
0 days 00:00:48.010000,-0.323242,0.994141,0.203369,2.532959,-18.081665,2.525329,1.064969797039334
0 days 00:00:48.020000,-0.330566,0.994385,0.210938,2.029419,-18.096924,3.059387,1.068910776643682
0 days 00:00:48.030000,-0.33667,0.991943,0.221191,1.792908,-18.15033,3.677368,1.0706180750529108
0 days 00:00:48.040000,-0.338867,0.991699,0.22168,1.754761,-18.15033,4.219055,1.07118615221165
0 days 00:00:48.050000,-0.340332,0.98999,0.220947,1.625061,-17.982483,4.600525,1.0699175889445878
0 days 00:00:48.060000,-0.338379,0.98877,0.217773,1.403808,-17.448425,4.966736,1.0675165291788227
0 days 00:00:48.070000,-0.335938,0.986084,0.21582,1.274109,-16.365051,5.088806,1.0638581988686273
0 days 00:00:48.080000,-0.338379,0.994629,0.161621,2.525329,-12.367248,1.243591,1.0629715626125658
0 days 00:00:48.090000,-0.332764,0.977539,0.219482,1.266479,-15.083312,5.058288,1.0556925331463702
0 days 00:00:48.100000,-0.337402,0.971436,0.219238,1.159668,-13.656615,4.196167,1.0514719741124818
0 days 00:00:48.110000,-0.336914,0.967529,0.2229,1.00708,-13.305663,3.578186,1.0484788120114779
0 days 00:00:48.120000,-0.335449,0.965576,0.22168,0.915527,-12.817382,2.799988,1.0459469708245253
0 days 00:00:48.130000,-0.329346,0.965088,0.225342,0.679016,-11.863708,1.907349,1.0443383802312352
0 days 00:00:48.140000,-0.322998,0.964355,0.223633,0.37384,-10.627746,0.87738,1.0413068676994308
0 days 00:00:48.150000,-0.325684,0.965332,0.227539,-0.030518,-9.475708,-0.183105,1.0438917255161093
0 days 00:00:48.160000,-0.330078,0.967041,0.229736,-0.411987,-8.422852,-0.770569,1.0473291800866622
0 days 00:00:48.170000,-0.32959,0.971191,0.234131,-0.785828,-7.598876,-1.113892,1.0519785414836178
0 days 00:00:48.180000,-0.328369,0.973877,0.240723,-0.946045,-6.79779,-1.403808,1.0555615444013675
0 days 00:00:48.190000,-0.330811,0.976807,0.243164,-0.999451,-6.04248,-1.64032,1.0595832028991399
0 days 00:00:48.200000,-0.334473,0.973389,0.221191,1.25885,-14.137267,4.684448,1.0527505837238942
0 days 00:00:48.210000,-0.327393,1.003174,0.144531,5.149841,-10.223388,-0.259399,1.0650978643702185
0 days 00:00:48.220000,-0.34668,0.992188,0.220215,-2.929687,-4.867554,-1.373291,1.0738336444575574
0 days 00:00:48.230000,-0.330078,0.994141,0.150146,4.53949,-12.306212,-1.571655,1.0582115267190204
0 days 00:00:48.240000,-0.326416,0.993164,0.234619,-3.158569,-3.013611,0.350952,1.0714327842254034
0 days 00:00:48.250000,-0.320068,0.995361,0.244141,-3.173828,-3.013611,1.091003,1.0736814578011489
0 days 00:00:48.260000,-0.309326,0.994385,0.256348,-3.173828,-5.41687,1.930237,1.0724730297797702
0 days 00:00:48.270000,-0.289551,0.984863,0.27002,-2.159119,-9.078979,0.862122,1.0614639469949039
0 days 00:00:48.280000,-0.275635,0.981445,0.259521,-0.343323,-10.711669,-1.457214,1.0519315998157865
0 days 00:00:48.290000,-0.279785,0.980957,0.233643,0.968933,-8.598328,-3.242492,1.046491917562195
0 days 00:00:48.300000,-0.320557,0.992188,0.141113,6.195068,-9.414673,-1.487732,1.0521913782017034
0 days 00:00:48.310000,-0.291016,0.986084,0.21875,3.372192,2.113342,-6.111145,1.0511439148908204
0 days 00:00:48.320000,-0.30542,0.98584,0.233154,3.814697,4.402161,-6.240844,1.058074983030976
0 days 00:00:48.330000,-0.320313,0.987549,0.249023,4.180908,3.593445,-6.622314,1.0676450252302963
0 days 00:00:48.340000,-0.324951,0.986572,0.260254,4.058838,1.403808,-7.461547,1.0708172617683187
0 days 00:00:48.350000,-0.2854,0.981689,0.221191,2.426147,-3.341675,-4.997253,1.045988485214823
0 days 00:00:48.360000,-0.328369,0.986572,0.274414,4.348755,-1.861572,-7.087707,1.0753853052469147
0 days 00:00:48.370000,-0.327393,0.983887,0.272705,4.829407,-1.533508,-6.851196,1.0721883333831794
0 days 00:00:48.380000,-0.333496,0.987793,0.260986,5.325317,-1.335144,-7.087707,1.0747410316262238
0 days 00:00:48.390000,-0.347168,0.993896,0.249756,5.523681,-3.517151,-5.905151,1.0820041305725223
0 days 00:00:48.400000,-0.360596,0.998779,0.248779,5.256652,-10.124206,-4.905701,1.0906328240512477
0 days 00:00:48.410000,-0.359131,1.000732,0.242188,4.760742,-18.745422,-5.126953,1.0904561606635088
0 days 00:00:48.420000,-0.343018,1.001221,0.227539,4.699707,-24.391172,-4.981995,1.0825335263565743
0 days 00:00:48.430000,-0.325684,1.006104,0.20459,4.638672,-25.993345,-4.302979,1.0771129907173156
0 days 00:00:48.440000,-0.322266,1.004883,0.189453,4.53186,-24.314878,-3.64685,1.0721649395750639
0 days 00:00:48.450000,-0.325928,1.001953,0.171875,4.074097,-19.096375,-2.441406,1.0675579099130876
0 days 00:00:48.460000,-0.330078,0.987061,0.272461,4.241943,-0.701904,-7.896423,1.07586053944087
0 days 00:00:48.470000,-0.357422,0.978516,0.236084,1.083374,-1.312256,-1.182556,1.0681665148262232
0 days 00:00:48.480000,-0.355469,0.980469,0.235596,1.037598,-1.64032,-1.197815,1.0691974303831824
0 days 00:00:48.490000,-0.354248,0.979736,0.235352,1.022339,-1.846313,-1.235962,1.068065933874871
0 days 00:00:48.500000,-0.354248,0.982178,0.231689,0.984192,-2.01416,-1.144409,1.069506924666222
0 days 00:00:48.510000,-0.354492,0.980713,0.223145,1.113892,-3.27301,-0.50354,1.0664221759969172
0 days 00:00:48.520000,-0.351074,0.979004,0.228271,0.984192,-2.349854,-1.014709,1.0648048811556978
0 days 00:00:48.530000,-0.354004,0.980225,0.226563,0.900268,-2.761841,-0.801086,1.0665320790346626
0 days 00:00:48.540000,-0.35498,0.981934,0.223389,0.961304,-3.112793,-0.564575,1.067758318196117
0 days 00:00:48.550000,-0.351807,0.982422,0.22998,1.060486,-2.113342,-1.098633,1.0685560124453
0 days 00:00:48.560000,-0.362305,0.981689,0.238525,1.144409,-0.915527,-1.12915,1.0732531767346418
0 days 00:00:48.570000,-0.352783,0.980225,0.215332,-0.228882,3.631592,-0.396728,1.0637973331128445
0 days 00:00:48.580000,-0.367188,0.985596,0.237061,1.159668,-1.068115,-1.014709,1.0781578828172615
0 days 00:00:48.590000,-0.367432,0.988525,0.23291,1.266479,-1.205444,-0.991821,1.0800162120769299
0 days 00:00:48.600000,-0.365723,0.987549,0.232178,1.289368,-0.869751,-0.900268,1.0783844230208446
0 days 00:00:48.610000,-0.362549,0.98584,0.227295,1.213074,0.076294,-0.816345,1.0747024239416232
0 days 00:00:48.620000,-0.360352,0.987793,0.223389,1.159668,1.296997,-0.900268,1.0749377749776963
0 days 00:00:48.630000,-0.362549,0.984619,0.218262,0.923157,2.052307,-0.740051,1.0717064211835254
0 days 00:00:48.640000,-0.368164,0.984131,0.215088,0.511169,2.27356,-0.511169,1.0725303743022851
0 days 00:00:48.650000,-0.365967,0.981445,0.214355,0.282288,2.388,-0.366211,1.0691651879569406
0 days 00:00:48.660000,-0.36084,0.981445,0.216309,0.106812,2.571106,-0.25177,1.0678152354719423
0 days 00:00:48.670000,-0.356201,0.979004,0.216309,-0.114441,3.204345,-0.274658,1.0640101352421414
0 days 00:00:48.680000,-0.354492,0.980469,0.220459,1.220703,-3.517151,-0.411987,1.0656388734960827
0 days 00:00:48.690000,-0.364014,0.984131,0.237061,1.091003,-0.854492,-1.091003,1.0757406448944837
0 days 00:00:48.700000,-0.358154,0.980713,0.219238,1.243591,-3.631592,-0.335693,1.0668353090936762
0 days 00:00:48.710000,-0.352295,0.981934,0.217529,1.174927,-2.876281,0.12207,1.06565708050104
0 days 00:00:48.720000,-0.356934,0.981689,0.220947,1.266479,-3.715515,-0.061035,1.0676763319873679
0 days 00:00:48.730000,-0.349854,0.981934,0.217041,-0.343323,3.967285,-0.564575,1.0647530217627936
0 days 00:00:48.740000,-0.35376,0.987305,0.213867,1.251221,-1.991272,-0.12207,1.0703533969273886
0 days 00:00:48.750000,-0.352051,0.987793,0.216064,1.312256,-2.13623,0.205994,1.070681357615794
0 days 00:00:48.760000,-0.353516,0.986816,0.216064,1.335144,-1.831055,0.457764,1.0702630668242272
0 days 00:00:48.770000,-0.355713,0.987305,0.21582,1.335144,-1.686096,0.640869,1.07139216619966
0 days 00:00:48.780000,-0.355957,0.989258,0.2146,1.197815,-1.922607,0.679016,1.0730283949705153
0 days 00:00:48.790000,-0.354004,0.987793,0.215332,1.12915,-2.243042,0.854492,1.0711777224573895
0 days 00:00:48.800000,-0.35083,0.983643,0.217285,1.13678,-2.464294,0.823975,1.0666995882506
0 days 00:00:48.810000,-0.350586,0.977539,0.218018,1.319885,-2.426147,0.63324,1.0611431987441657
0 days 00:00:48.820000,-0.348145,0.976074,0.213135,1.235962,-2.388,0.556946,1.0579942923881962
0 days 00:00:48.830000,-0.358643,0.981445,0.218994,1.220703,-3.639221,-0.160217,1.067622340301101
0 days 00:00:48.840000,-0.350098,0.97998,0.216797,1.190186,-2.479553,0.50354,1.0629818197942051
0 days 00:00:48.850000,-0.349365,0.97998,0.21582,1.13678,-2.655029,0.343323,1.0625417526031622
0 days 00:00:48.860000,-0.350586,0.984131,0.216309,0.991821,-3.097534,-0.045776,1.066871103759962
0 days 00:00:48.870000,-0.352783,0.984375,0.220459,0.801086,-3.227234,-0.190735,1.0686684033857277
0 days 00:00:48.880000,-0.354248,0.985596,0.220459,0.75531,-3.364563,-0.1297,1.0702772030651686
0 days 00:00:48.890000,-0.353516,0.986816,0.219727,0.770569,-3.425598,-0.015259,1.0710085595554315
0 days 00:00:48.900000,-0.355225,0.987305,0.223877,0.938415,-3.52478,0.022888,1.0728825074438486
0 days 00:00:48.910000,-0.357178,0.986328,0.222656,1.045227,-3.601074,0.038147,1.0723780777337812
0 days 00:00:48.920000,-0.358398,0.984375,0.223877,1.228333,-3.746032,-0.038147,1.0712442196614178
0 days 00:00:48.930000,-0.358398,0.983643,0.220947,1.304626,-3.845215,-0.030518,1.0699627351744547
0 days 00:00:48.940000,-0.358398,0.98291,0.222168,1.296997,-3.799438,-0.015259,1.0695418714234612
0 days 00:00:48.950000,-0.349121,0.981201,0.218018,1.197815,-2.578735,0.442505,1.0640360536025084
0 days 00:00:48.960000,-0.349121,0.97876,0.216064,-0.450134,3.860473,-0.75531,1.061386010053364
0 days 00:00:48.970000,-0.35083,0.982422,0.21875,-0.442505,3.425598,-0.999451,1.0658734622289834
0 days 00:00:48.980000,-0.351807,0.982666,0.219238,-0.473022,2.89917,-1.075745,1.0665204796200587
0 days 00:00:48.990000,-0.352783,0.985352,0.22168,-2.204895,2.922058,-2.334595,1.069820747318447
0 days 00:00:49,-0.355957,0.985352,0.220947,-2.235413,3.40271,-2.380371,1.0707200972065483
0 days 00:00:49.010000,-0.356689,0.985352,0.220947,-2.197266,3.730774,-2.349854,1.0709636704547918
0 days 00:00:49.020000,-0.358643,0.985352,0.220215,-2.319336,4.196167,-2.258301,1.0714653571525306
0 days 00:00:49.030000,-0.356445,0.98291,0.220703,-2.342224,4.79126,-2.250671,1.0685854763817444
0 days 00:00:49.040000,-0.351807,0.980225,0.219238,-2.243042,5.516052,-2.311707,1.0642718245438991
0 days 00:00:49.050000,-0.355225,0.980957,0.21875,-2.235413,6.065368,-2.235413,1.0659798304724157
0 days 00:00:49.060000,-0.360352,0.982422,0.217773,-2.433777,6.187438,-2.067566,1.068845933480125
0 days 00:00:49.070000,-0.363281,0.982178,0.216553,-2.525329,5.844116,-2.113342,1.0693651904069068
0 days 00:00:49.080000,-0.358643,0.981445,0.216553,-2.494812,5.439758,-2.090454,1.0671243091987925
0 days 00:00:49.090000,-0.352539,0.985596,0.225342,-2.182007,2.708435,-2.372742,1.0707297692233086
0 days 00:00:49.100000,-0.356445,0.983887,0.217529,-2.441406,5.187988,-2.120972,1.0688337254386202
0 days 00:00:49.110000,-0.353516,0.983643,0.213867,-2.632141,4.669189,-2.105713,1.0668955934832611
0 days 00:00:49.120000,-0.353271,0.984131,0.219238,-2.540588,4.356384,-1.846313,1.0683536517679901
0 days 00:00:49.130000,-0.35498,0.981689,0.218262,-2.426147,4.226685,-1.594543,1.0664719376359606
0 days 00:00:49.140000,-0.355469,0.982666,0.220947,-2.113342,4.180908,-1.25885,1.0680862579052313
0 days 00:00:49.150000,-0.354248,0.983398,0.222656,-2.082825,4.135132,-0.923157,1.0687090185097157
0 days 00:00:49.160000,-0.357422,0.986328,0.2229,-1.953125,4.03595,-0.564575,1.072510055742136
0 days 00:00:49.170000,-0.355225,0.98999,0.223145,-1.777649,3.77655,-0.152588,1.0752016981710921
0 days 00:00:49.180000,-0.350098,0.991455,0.223877,-1.678467,3.578186,0.022888,1.0750221103577358
0 days 00:00:49.190000,-0.346191,0.990723,0.22583,-1.731872,3.509521,0.12207,1.07348938518739
0 days 00:00:49.200000,-0.344238,0.98999,0.225098,-1.808166,3.723144,0.12207,1.0720303682023191
0 days 00:00:49.210000,-0.357666,0.984375,0.212402,-2.655029,5.004883,-2.189636,1.0686597764419694
0 days 00:00:49.220000,-0.351807,0.982422,0.223633,-2.128601,2.586365,-2.311707,1.0672079788035693
0 days 00:00:49.230000,-0.342773,0.990234,0.224854,-1.823425,3.90625,0.076294,1.0717350538267374
0 days 00:00:49.240000,-0.351807,0.984863,0.220215,-2.166748,3.074646,-1.88446,1.0687459661879433
0 days 00:00:49.250000,-0.350098,0.982422,0.221436,-0.419617,2.418518,-0.999451,1.0661873652337097
0 days 00:00:49.260000,-0.348877,0.985596,0.221191,-0.389099,2.02179,-0.816345,1.0686627601006784
0 days 00:00:49.270000,-0.349121,0.988037,0.220215,-0.335693,1.861572,-0.610352,1.0707928054647173
0 days 00:00:49.280000,-0.345947,0.985596,0.218018,-0.289917,1.792908,-0.442505,1.0670570042640646
0 days 00:00:49.290000,-0.3479,0.987305,0.215088,-0.305176,1.739502,-0.244141,1.0686760130034734
0 days 00:00:49.300000,-0.348877,0.98584,0.211182,-0.473022,1.182556,-0.228882,1.0668615204669254
0 days 00:00:49.310000,-0.352051,0.983643,0.222168,-2.204895,2.861023,-2.159119,1.0681067728808764
0 days 00:00:49.320000,-0.343262,0.976074,0.212158,-0.38147,0.579834,-0.335693,1.056200866826003
0 days 00:00:49.330000,-0.343018,0.977539,0.211426,-0.480652,0.785828,-0.534058,1.0573290870495335
0 days 00:00:49.340000,-0.34375,0.977295,0.207031,-0.694275,1.113892,-0.740051,1.0564712085456944
0 days 00:00:49.350000,-0.345459,0.981201,0.206787,-0.923157,1.495361,-0.747681,1.0605933181248126
0 days 00:00:49.360000,-0.346924,0.979736,0.213379,-0.465393,0.770569,-0.221252,1.0610228504198203
0 days 00:00:49.370000,-0.3479,0.982178,0.20459,-1.51062,2.105713,-1.022339,1.0618686838700913
0 days 00:00:49.380000,-0.35083,0.981934,0.20459,-1.785278,2.426147,-1.144409,1.06260676515633
0 days 00:00:49.390000,-0.349854,0.984375,0.207275,-2.037048,2.63977,-0.953674,1.0650609783322267
0 days 00:00:49.400000,-0.349609,0.987061,0.208252,-2.365112,2.861023,-1.113892,1.067653860624313
0 days 00:00:49.410000,-0.350586,0.983398,0.212158,-2.670288,2.990722,-1.304626,1.0653605900182341
0 days 00:00:49.420000,-0.352295,0.978027,0.219971,-2.876281,3.02124,-1.197815,1.0625609726481582
0 days 00:00:49.430000,-0.349854,0.975342,0.221436,-2.586365,2.853393,-1.113892,1.0595865893715342
0 days 00:00:49.440000,-0.3479,0.977051,0.220947,-2.27356,2.76947,-1.266479,1.0604153164727488
0 days 00:00:49.450000,-0.349121,0.980469,0.22168,-2.159119,3.028869,-1.441955,1.064117923447397
0 days 00:00:49.460000,-0.349609,0.982666,0.220703,-2.151489,3.173828,-1.571655,1.066099777059352
0 days 00:00:49.470000,-0.345215,0.981201,0.206543,-1.205444,1.754761,-0.846863,1.0604663169921995
0 days 00:00:49.480000,-0.354736,0.983398,0.214355,0.12207,0.320435,-0.511169,1.0671725831021897
0 days 00:00:49.490000,-0.355469,0.981445,0.213623,0.061035,0.511169,-0.389099,1.0654704520140388
0 days 00:00:49.500000,-0.356201,0.983643,0.212402,0.053406,0.656128,-0.106812,1.0674958142559623
0 days 00:00:49.510000,-0.356934,0.983398,0.211182,-0.007629,0.778198,-0.022888,1.0672728535309046
0 days 00:00:49.520000,-0.362061,0.98877,0.213135,0.236511,0.167847,-0.297546,1.0743280731908667
0 days 00:00:49.530000,-0.363281,0.986572,0.210938,0.045776,1.014709,-0.106812,1.072283654631087
0 days 00:00:49.540000,-0.36084,0.986572,0.210449,0.137329,0.686645,-0.106812,1.0713629629518653
0 days 00:00:49.550000,-0.359375,0.984619,0.212891,0.305176,0.396728,-0.305176,1.0695548343432422
0 days 00:00:49.560000,-0.359619,0.985596,0.211182,0.091553,0.900268,-0.091553,1.070197709538289
0 days 00:00:49.570000,-0.355225,0.982178,0.219238,0.190735,-0.053406,-0.457764,1.0672036942182126
0 days 00:00:49.580000,-0.355225,0.981201,0.207764,-0.099182,-0.343323,-0.595093,1.064004738110691
0 days 00:00:49.590000,-0.353516,0.982178,0.221924,0.564575,-0.198364,-0.25177,1.067191382890623
0 days 00:00:49.600000,-0.356201,0.982422,0.222412,0.488281,-0.305176,-0.228882,1.0684096762146063
0 days 00:00:49.610000,-0.356445,0.983398,0.221436,0.610352,-0.427246,-0.083923,1.06918593636701
0 days 00:00:49.620000,-0.357666,0.98584,0.218018,0.511169,-0.495911,-0.076294,1.0711383297595134
0 days 00:00:49.630000,-0.358154,0.988037,0.214111,0.526428,-0.656128,-0.114441,1.0725366760190533
0 days 00:00:49.640000,-0.355225,0.990234,0.213135,0.411987,-0.801086,-0.099182,1.0733940113518428
0 days 00:00:49.650000,-0.355957,0.989502,0.211426,0.488281,-0.915527,-0.160217,1.0726232084609209
0 days 00:00:49.660000,-0.352539,0.984863,0.207764,0.358582,-0.770569,-0.328064,1.0664917978990744
0 days 00:00:49.670000,-0.352539,0.983154,0.206299,0.167847,-0.488281,-0.480652,1.0646289549124615
0 days 00:00:49.680000,-0.354492,0.983887,0.20752,-0.053406,-0.244141,-0.564575,1.0661907696247421
0 days 00:00:49.690000,-0.36084,0.989014,0.211914,0.404358,-0.167847,-0.396728,1.0739002473190886
0 days 00:00:49.700000,-0.353516,0.980469,0.2229,0.328064,-0.152588,-0.343323,1.06582242058281
0 days 00:00:49.710000,-0.355957,0.984375,0.215332,0.534058,-0.465393,-0.686645,1.068675533872653
0 days 00:00:49.720000,-0.360107,0.97876,0.208984,-0.030518,0.282288,-0.450134,1.0636364516624088
0 days 00:00:49.730000,-0.351563,0.97876,0.221924,0.457764,-1.38092,-0.831604,1.0633992393945935
0 days 00:00:49.740000,-0.355225,0.979248,0.208984,-0.106812,-0.511169,-0.831604,1.0624432965504558
0 days 00:00:49.750000,-0.35376,0.986084,0.215088,-0.312805,0.915527,-0.534058,1.0694721316612228
0 days 00:00:49.760000,-0.351563,0.986328,0.2146,-0.442505,0.88501,-0.62561,1.068874467163006
0 days 00:00:49.770000,-0.352051,0.981689,0.217773,-0.305176,0.595093,-0.770569,1.0654005250848153
0 days 00:00:49.780000,-0.354004,0.980469,0.219727,-0.152588,0.259399,-0.816345,1.0653254181263114
0 days 00:00:49.790000,-0.356934,0.985352,0.216797,-0.144958,0.144958,-0.747681,1.0701968900482752
0 days 00:00:49.800000,-0.359375,0.987061,0.214111,-0.183105,0.068665,-0.556946,1.0720463276682588
0 days 00:00:49.810000,-0.359863,0.987061,0.213379,-0.289917,0.030518,-0.450134,1.072064081168192
0 days 00:00:49.820000,-0.358154,0.98584,0.213379,-0.366211,0.205994,-0.38147,1.0703669422011315
0 days 00:00:49.830000,-0.357666,0.983398,0.208984,-0.267029,0.434875,-0.305176,1.0670852384959695
0 days 00:00:49.840000,-0.353027,0.979004,0.219238,0.602722,-0.938415,-0.808716,1.0635516891007226
0 days 00:00:49.850000,-0.358398,0.980957,0.208984,-0.427246,0.579834,-0.37384,1.0650821914336002
0 days 00:00:49.860000,-0.356934,0.979736,0.210449,-0.076294,0.427246,-0.50354,1.063754338018417
0 days 00:00:49.870000,-0.359619,0.980469,0.208008,-0.152588,0.343323,-0.404358,1.0648533294242921
0 days 00:00:49.880000,-0.357422,0.982422,0.209717,-0.068665,0.62561,-0.259399,1.0662479506460962
0 days 00:00:49.890000,-0.355713,0.983643,0.208984,-0.167847,1.091003,-0.175476,1.0666581467714948
0 days 00:00:49.900000,-0.352295,0.986084,0.208496,-0.198364,1.480102,-0.1297,1.067681602396988
0 days 00:00:49.910000,-0.35376,0.985596,0.212402,-0.137329,1.716614,-0.083923,1.0684850127259624
0 days 00:00:49.920000,-0.355957,0.98291,0.216553,-0.076294,1.319885,-0.221252,1.0675732554527582
0 days 00:00:49.930000,-0.355957,0.981201,0.216064,0.053406,0.366211,-0.488281,1.0659007647740948
0 days 00:00:49.940000,-0.35498,0.979736,0.216064,0.083923,-0.656128,-0.732422,1.0642260484464756
0 days 00:00:49.950000,-0.352295,0.978516,0.219727,0.167847,-1.312256,-0.839233,1.0629606219470222
0 days 00:00:49.960000,-0.356201,0.980957,0.208984,-0.305176,0.526428,-0.389099,1.0643449161366816
0 days 00:00:49.970000,-0.354736,0.977783,0.212158,-0.190735,-0.770569,-0.892639,1.0615593444311062
0 days 00:00:49.980000,-0.353516,0.983398,0.215088,-0.282288,0.518799,-0.579834,1.0669151964444035
0 days 00:00:49.990000,-0.354004,0.978271,0.216553,-0.083923,-0.709534,-1.113892,1.0626514872082944
0 days 00:00:50,-0.355225,0.979004,0.216797,0.167847,0.579834,-0.717163,1.0637831413638779
0 days 00:00:50.010000,-0.356445,0.980225,0.215576,0.106812,0.75531,-0.770569,1.0650667117256083
0 days 00:00:50.020000,-0.359619,0.983398,0.212891,-0.091553,0.579834,-0.724792,1.0685129991937394
0 days 00:00:50.030000,-0.36084,0.983398,0.213623,-0.183105,0.320435,-0.686645,1.0690705861321788
0 days 00:00:50.040000,-0.359619,0.97998,0.217529,0.1297,0.061035,-0.640869,1.0663045959771533
0 days 00:00:50.050000,-0.359863,0.981201,0.218262,0.160217,-0.045776,-0.343323,1.0676586916304291
0 days 00:00:50.060000,-0.364746,0.984131,0.216309,0.190735,-0.144958,-0.022888,1.0716076955481422
0 days 00:00:50.070000,-0.367676,0.983887,0.218262,0.267029,-0.190735,0.175476,1.0727802992174118
0 days 00:00:50.080000,-0.368164,0.985107,0.220215,0.38147,-0.297546,0.274658,1.0744650662399406
0 days 00:00:50.090000,-0.367676,0.985352,0.217529,0.511169,-0.694275,0.389099,1.0739753585259766
0 days 00:00:50.100000,-0.355225,0.977295,0.217041,0.289917,0.37384,-0.770569,1.0622603792531282
0 days 00:00:50.110000,-0.366943,0.984131,0.215576,0.549316,-0.816345,0.488281,1.0722098685360062
0 days 00:00:50.120000,-0.362549,0.979004,0.217285,0.785828,-0.953674,0.457764,1.066350496151242
0 days 00:00:50.130000,-0.358643,0.976318,0.215332,0.991821,-0.846863,0.404358,1.0621626564688669
0 days 00:00:50.140000,-0.356445,0.977051,0.218018,1.083374,-0.38147,0.411987,1.0626445986076436
0 days 00:00:50.150000,-0.35376,0.977539,0.2146,1.213074,-0.022888,0.419617,1.0614997852665822
0 days 00:00:50.160000,-0.352051,0.978271,0.214111,1.235962,0.221252,0.457764,1.061507219176111
0 days 00:00:50.170000,-0.352295,0.981201,0.214111,1.190186,0.389099,0.411987,1.0642888187644366
0 days 00:00:50.180000,-0.35376,0.982422,0.210693,1.045227,0.289917,0.419617,1.0652185991302443
0 days 00:00:50.190000,-0.354492,0.986328,0.21167,1.113892,-0.091553,0.358582,1.0692575417307095
0 days 00:00:50.200000,-0.355957,0.988037,0.211182,1.220703,-0.709534,0.015259,1.0712237564309335
0 days 00:00:50.210000,-0.356689,0.984619,0.211914,1.197815,-1.51062,-0.25177,1.0684611182808665
0 days 00:00:50.220000,-0.365479,0.979248,0.21875,0.63324,-0.968933,0.50354,1.0678731701119755
0 days 00:00:50.230000,-0.35376,0.977783,0.217773,0.480652,0.076294,-0.88501,1.0623703743130264
0 days 00:00:50.240000,-0.352783,0.979004,0.214844,-0.137329,-0.823975,-1.022339,1.0625735840124202
0 days 00:00:50.250000,-0.358398,0.977783,0.217041,0.312805,-0.007629,-0.801086,1.0637741852357576
0 days 00:00:50.260000,-0.354492,0.978516,0.21582,0.022888,-0.663757,-1.167297,1.0628905930151042
0 days 00:00:50.270000,-0.356689,0.982178,0.216309,0.083923,-0.617981,-1.083374,1.0670943022460573
0 days 00:00:50.280000,-0.361572,0.982422,0.217773,-0.007629,-0.732422,-1.037598,1.069257862630432
0 days 00:00:50.290000,-0.362549,0.981934,0.220703,0.061035,-0.892639,-1.037598,1.0697410770677174
0 days 00:00:50.300000,-0.364258,0.980957,0.222168,0.190735,-1.144409,-1.075745,1.0697285387597173
0 days 00:00:50.310000,-0.36499,0.981689,0.220215,0.198364,-1.441955,-0.991821,1.0702455975363785
0 days 00:00:50.320000,-0.356689,0.976563,0.217773,0.457764,-0.053406,-0.862122,1.0622275722362886
0 days 00:00:50.330000,-0.363281,0.980957,0.218994,0.236511,-1.213074,-0.839233,1.0687413591912684
0 days 00:00:50.340000,-0.362061,0.981934,0.218262,0.267029,-0.869751,-0.694275,1.0690747629239967
0 days 00:00:50.350000,-0.362305,0.980957,0.220215,0.305176,-0.663757,-0.610352,1.0686609355164995
0 days 00:00:50.360000,-0.364502,0.981445,0.220215,0.328064,-0.465393,-0.556946,1.0698554305390986
0 days 00:00:50.370000,-0.366699,0.983154,0.221191,0.259399,-1.457214,-0.953674,1.0723737234742372
0 days 00:00:50.380000,-0.361084,0.981689,0.219482,0.366211,-0.411987,-0.694275,1.068769056485544
0 days 00:00:50.390000,-0.361572,0.980469,0.221924,0.297546,-0.320435,-0.640869,1.0683183200343427
0 days 00:00:50.400000,-0.36084,0.979004,0.219971,0.396728,-0.205994,-0.648498,1.0663215173937926
0 days 00:00:50.410000,-0.362549,0.979736,0.219238,0.37384,-0.244141,-0.595093,1.0674219914078031
0 days 00:00:50.420000,-0.36084,0.980957,0.217529,0.350952,-0.183105,-0.541687,1.0676146342618202
0 days 00:00:50.430000,-0.362061,0.981445,0.218018,0.244141,0.022888,-0.457764,1.0685758298174257
0 days 00:00:50.440000,-0.359375,0.981445,0.217773,0.305176,0.221252,-0.50354,1.0676187325909001
0 days 00:00:50.450000,-0.359131,0.980469,0.216064,0.289917,0.396728,-0.556946,1.0662917927181097
0 days 00:00:50.460000,-0.360596,0.979004,0.215576,0.236511,0.38147,-0.572205,1.065340940266542
0 days 00:00:50.470000,-0.359863,0.979492,0.21582,0.267029,0.152588,-0.785828,1.065591023438636
0 days 00:00:50.480000,-0.362793,0.979492,0.218994,0.419617,-0.389099,-0.663757,1.0672308611303367
0 days 00:00:50.490000,-0.357422,0.97998,0.212646,0.358582,-0.175476,-0.183105,1.0645795450787132
0 days 00:00:50.500000,-0.357422,0.980713,0.21582,0.343323,-0.190735,-0.106812,1.0658924649574177
0 days 00:00:50.510000,-0.354248,0.978027,0.214844,0.160217,0.007629,-0.015259,1.0621611942492533
0 days 00:00:50.520000,-0.356934,0.977783,0.217529,0.137329,0.12207,0.144958,1.0633815595946734
0 days 00:00:50.530000,-0.356445,0.983398,0.220703,-0.236511,-1.266479,-0.236511,1.069034367379272
0 days 00:00:50.540000,-0.357178,0.981934,0.216553,0.038147,-0.396728,0.152588,1.0670828017773504
0 days 00:00:50.550000,-0.358154,0.982178,0.219482,0.0,-0.793457,0.099182,1.0682323060664285
0 days 00:00:50.560000,-0.358887,0.984131,0.221436,-0.114441,-1.182556,-0.038147,1.0706762377236172
0 days 00:00:50.570000,-0.358398,0.978516,0.219971,0.091553,-0.038147,0.167847,1.0650492615372305
0 days 00:00:50.580000,-0.356201,0.983154,0.211426,0.274658,-0.205994,-0.1297,1.066851392459606
0 days 00:00:50.590000,-0.361084,0.984131,0.220703,0.335693,-0.915527,0.457764,1.0712634103832726
0 days 00:00:50.600000,-0.356934,0.985107,0.20752,-0.007629,0.25177,0.236511,1.0681302505804242
0 days 00:00:50.610000,-0.359131,0.983887,0.211182,-0.152588,0.50354,0.495911,1.068459892112942
0 days 00:00:50.620000,-0.358643,0.982178,0.212891,-0.091553,0.358582,0.465393,1.067061855289561
0 days 00:00:50.630000,-0.356934,0.979492,0.215088,0.015259,-0.198364,0.335693,1.0644572824514846
0 days 00:00:50.640000,-0.355469,0.97876,0.220459,0.289917,-1.014709,0.167847,1.0643925583364438
0 days 00:00:50.650000,-0.355469,0.976318,0.225342,0.37384,-1.602173,0.137329,1.0631717001731187
0 days 00:00:50.660000,-0.35498,0.97583,0.225342,0.473022,-1.76239,0.114441,1.062560118893985
0 days 00:00:50.670000,-0.354248,0.974609,0.22583,0.518799,-1.579285,0.228882,1.0612980435697599
0 days 00:00:50.680000,-0.355957,0.979004,0.219727,0.488281,-1.159668,0.335693,1.064628654693269
0 days 00:00:50.690000,-0.358643,0.984375,0.218018,0.358582,-0.923157,0.366211,1.0701171853577531
0 days 00:00:50.700000,-0.357178,0.985107,0.221924,-0.12207,-1.167297,-0.320435,1.0711032568846945
0 days 00:00:50.710000,-0.358154,0.98584,0.210693,0.091553,0.0,0.0,1.0698347225459641
0 days 00:00:50.720000,-0.355713,0.985107,0.224365,-0.289917,-0.999451,-0.350952,1.0711242659201592
0 days 00:00:50.730000,-0.344238,0.98584,0.212402,-1.464844,3.990173,-0.137329,1.0655960378342255
0 days 00:00:50.740000,-0.353516,0.98999,0.217285,-0.63324,-0.320435,-0.335693,1.0734367860200247
0 days 00:00:50.750000,-0.361328,0.981201,0.224121,0.328064,-0.602722,0.50354,1.069365956361993
0 days 00:00:50.760000,-0.316406,0.961426,0.22583,-2.13623,11.466979,0.534058,1.037039969920157
0 days 00:00:50.770000,-0.3125,0.964111,0.214111,-1.518249,12.741088,0.25177,1.0358618588605335
0 days 00:00:50.780000,-0.323486,0.975098,0.207764,-1.472473,13.549804,0.457764,1.0481532242453868
0 days 00:00:50.790000,-0.324219,0.988281,0.206299,-1.739502,13.565063,0.091553,1.0603662444283106
0 days 00:00:50.800000,-0.320068,0.996826,0.204346,-2.288818,13.59558,0.030518,1.0667065606885522
0 days 00:00:50.810000,-0.323486,1.001465,0.208008,-2.792358,13.008117,0.091553,1.0727733528033776
0 days 00:00:50.820000,-0.328369,0.998291,0.210205,-3.02124,11.161803,-0.518799,1.0717263003523803
0 days 00:00:50.830000,-0.334961,0.988281,0.217773,-2.853393,8.605957,-0.900268,1.0659846556170496
0 days 00:00:50.840000,-0.338867,0.979492,0.225098,-2.296448,6.248474,-0.442505,1.060615166475098
0 days 00:00:50.850000,-0.354248,0.984619,0.222168,-0.495911,-0.694275,-0.495911,1.0697312002970651
0 days 00:00:50.860000,-0.341309,0.978271,0.224609,-1.800537,4.821777,-0.152588,1.060167527234729
0 days 00:00:50.870000,-0.340088,0.982422,0.214111,-1.281738,4.135132,-0.144958,1.0614406974244959
0 days 00:00:50.880000,-0.345459,0.985596,0.211182,-1.403808,3.425598,-0.297546,1.0655229856840254
0 days 00:00:50.890000,-0.350098,0.986816,0.213623,-1.319885,2.525329,-0.328064,1.068648311461259
0 days 00:00:50.900000,-0.353027,0.987549,0.213379,-1.068115,1.419067,-0.579834,1.07023907972518
0 days 00:00:50.910000,-0.354004,0.987549,0.213867,-0.900268,0.259399,-0.717163,1.0706591208718115
0 days 00:00:50.920000,-0.354248,0.989746,0.214111,-0.839233,-0.366211,-0.648498,1.072815133348239
0 days 00:00:50.930000,-0.354248,0.990234,0.215088,-0.732422,-0.62561,-0.534058,1.0734606970001277
0 days 00:00:50.940000,-0.353027,0.988037,0.216553,-0.579834,-0.556946,-0.358582,1.0713264572048056
0 days 00:00:50.950000,-0.350586,0.987061,0.215332,-0.434875,-0.434875,-0.396728,1.0693773100926538
0 days 00:00:50.960000,-0.350342,0.991211,0.2146,-0.511169,-0.221252,-0.267029,1.072982722826887
0 days 00:00:50.970000,-0.339844,0.979248,0.220947,-1.396179,4.219055,-0.099182,1.0598293101481011
0 days 00:00:50.980000,-0.362305,0.977783,0.223633,0.434875,-0.221252,0.595093,1.0664596695623327
0 days 00:00:50.990000,-0.344482,0.976807,0.235352,-3.288269,11.695861,0.984192,1.0621724565610802
0 days 00:00:51,-0.364746,0.984863,0.21582,0.396728,0.541687,0.762939,1.0721814425203413
0 days 00:00:51.010000,-0.354004,0.982178,0.213623,-0.579834,0.305176,-0.328064,1.0656581261497517
0 days 00:00:51.020000,-0.35498,0.983398,0.217285,-0.572205,0.419617,-0.411987,1.0678460553979678
0 days 00:00:51.030000,-0.354248,0.981445,0.218262,-0.541687,0.335693,-0.549316,1.0660038621754613
0 days 00:00:51.040000,-0.35376,0.981689,0.220215,-0.404358,0.205994,-0.541687,1.0664680382205554
0 days 00:00:51.050000,-0.353271,0.983398,0.222168,-0.534058,0.167847,-0.579834,1.0682839725789206
0 days 00:00:51.060000,-0.35376,0.984131,0.223145,-0.457764,0.007629,-0.648498,1.0693239236947802
0 days 00:00:51.070000,-0.354004,0.984619,0.221924,-0.144958,-0.068665,-0.778198,1.0695997704529485
0 days 00:00:51.080000,-0.355469,0.984619,0.218262,-0.114441,-0.144958,-0.740051,1.069332074598906
0 days 00:00:51.090000,-0.355957,0.984863,0.222168,-0.160217,-0.068665,-0.602722,1.070522832471125
0 days 00:00:51.100000,-0.358643,0.983154,0.220947,-0.091553,-0.022888,-0.579834,1.0695953281377026
0 days 00:00:51.110000,-0.354736,0.980957,0.215088,-0.62561,0.213623,-0.312805,1.0650714122954383
0 days 00:00:51.120000,-0.361084,0.983887,0.217529,-0.114441,0.160217,-0.526428,1.0703897185913176
0 days 00:00:51.130000,-0.362549,0.986328,0.214355,-0.267029,0.663757,-0.167847,1.0724890521632378
0 days 00:00:51.140000,-0.360107,0.984375,0.210205,-0.175476,0.862122,-0.045776,1.0690450570948822
0 days 00:00:51.150000,-0.356445,0.98291,0.210693,-0.228882,0.999451,-0.221252,1.0665630062842044
0 days 00:00:51.160000,-0.35376,0.982178,0.211182,-0.396728,1.121521,-0.427246,1.0650904179495748
0 days 00:00:51.170000,-0.354004,0.982178,0.210205,-0.450134,0.991821,-0.579834,1.0649782146715492
0 days 00:00:51.180000,-0.354492,0.978516,0.210449,-0.411987,0.831604,-0.793457,1.0618130352943498
0 days 00:00:51.190000,-0.354004,0.981201,0.211914,-0.411987,0.701904,-0.961304,1.0644161675834316
0 days 00:00:51.200000,-0.354492,0.980713,0.214844,-0.427246,0.434875,-0.946045,1.064716164416132
0 days 00:00:51.210000,-0.356934,0.978516,0.215088,-0.480652,0.175476,-0.770569,1.0635592556863016
0 days 00:00:51.220000,-0.352783,0.981445,0.214355,-0.335693,0.167847,-0.648498,1.0647244709966048
0 days 00:00:51.230000,-0.361084,0.986572,0.216064,-0.213623,0.411987,-0.259399,1.0725621745782385
0 days 00:00:51.240000,-0.355957,0.98291,0.21582,-0.556946,0.061035,-0.267029,1.0674248106302382
0 days 00:00:51.250000,-0.365234,0.981445,0.219238,0.442505,0.320435,0.724792,1.0699044178920845
0 days 00:00:51.260000,-0.354736,0.980713,0.213135,-0.419617,-0.221252,-0.343323,1.0644539192891347
0 days 00:00:51.270000,-0.364746,0.983398,0.217773,0.244141,0.648498,0.747681,1.0712312310836536
0 days 00:00:51.280000,-0.361572,0.983154,0.215576,0.015259,0.923157,0.679016,1.0694854420121855
0 days 00:00:51.290000,-0.359375,0.981689,0.215576,-0.183105,1.00708,0.434875,1.0673971590378157
0 days 00:00:51.300000,-0.357666,0.982422,0.213623,-0.137329,1.083374,0.350952,1.067104840101946
0 days 00:00:51.310000,-0.353516,0.980957,0.216553,-0.38147,1.159668,0.305176,1.0649626284119083
0 days 00:00:51.320000,-0.351807,0.980225,0.21875,-0.335693,1.213074,0.244141,1.0641714046026607
0 days 00:00:51.330000,-0.354004,0.982666,0.215332,-0.534058,-0.076294,-0.282288,1.066451672508417
0 days 00:00:51.340000,-0.351318,0.980713,0.21875,-0.259399,1.098633,-0.144958,1.0644594346394793
0 days 00:00:51.350000,-0.352539,0.979492,0.222168,-0.167847,0.778198,-0.175476,1.064446778758337
0 days 00:00:51.360000,-0.351318,0.980957,0.224609,-0.274658,0.62561,-0.190735,1.0659034552219069
0 days 00:00:51.370000,-0.350586,0.980469,0.216553,-0.267029,0.793457,-0.137329,1.0635437015778901
0 days 00:00:51.380000,-0.349121,0.97876,0.221191,-0.282288,1.197815,0.114441,1.0624415601443684
0 days 00:00:51.390000,-0.353271,0.988281,0.2146,-0.50354,0.938415,0.0,1.0712389529894812
0 days 00:00:51.400000,-0.356445,0.990479,0.215576,-0.587463,0.946045,-0.106812,1.0745113769718775
0 days 00:00:51.410000,-0.356689,0.989746,0.217285,-0.572205,0.656128,-0.106812,1.0742611221030016
0 days 00:00:51.420000,-0.356445,0.985596,0.217529,-0.518799,0.335693,0.0,1.0704071090393599
0 days 00:00:51.430000,-0.357422,0.988281,0.21582,-0.358582,0.175476,-0.045776,1.0728597734303398
0 days 00:00:51.440000,-0.35376,0.98584,0.2146,-0.37384,0.289917,-0.038147,1.0691491024174318
0 days 00:00:51.450000,-0.353516,0.985352,0.217041,-0.457764,0.366211,-0.106812,1.069111276641024
0 days 00:00:51.460000,-0.356689,0.986084,0.213135,-0.450134,0.213623,-0.259399,1.0700538425714847
0 days 00:00:51.470000,-0.359131,0.983887,0.213135,-0.457764,-0.190735,-0.236511,1.068847618772199
0 days 00:00:51.480000,-0.356201,0.981689,0.212646,-0.465393,-0.335693,-0.25177,1.065744231247817
0 days 00:00:51.490000,-0.351807,0.98584,0.217041,-0.328064,0.831604,-0.076294,1.0689974118443881
0 days 00:00:51.500000,-3.368164,1.906006,0.061279,-56.617733,-69.641113,-249.992355,3.8705481160648296
0 days 00:00:51.510000,-3.2771,1.888428,0.078369,-63.84277,-30.128477,-249.992355,3.7830789604956703
0 days 00:00:51.520000,-2.974121,1.844482,-0.006592,-65.39917,4.219055,-249.992355,3.499650414745593
0 days 00:00:51.530000,-2.478516,1.660645,-0.025391,-58.906551,12.023925,-249.992355,2.9835261153812613
0 days 00:00:51.540000,-0.762451,0.312012,-0.251465,-31.09741,-118.194572,-249.992355,0.8613464237866202
0 days 00:00:51.550000,-1.596436,0.976074,0.01416,-41.618343,-43.098446,-249.992355,1.871237254110766
0 days 00:00:51.560000,-1.259277,0.695557,-0.053223,-37.757874,-73.730469,-249.992355,1.4395870208872403
0 days 00:00:51.570000,-0.978271,0.477051,-0.1521,-34.698486,-98.617546,-249.992355,1.098965975834557
0 days 00:00:51.580000,-2.014648,1.325684,0.012207,-49.102779,-8.69751,-249.992355,2.41172005892247
0 days 00:00:51.590000,-3.332031,1.924561,-0.055664,-57.395931,-92.971794,-249.992355,3.8483066546960627
0 days 00:00:51.600000,-1.378906,0.86377,0.404785,-133.323669,154.754639,-218.528732,1.6767024977499736
0 days 00:00:51.610000,-2.992676,1.726563,0.137207,-83.82415,-76.438904,-249.992355,3.457738450894457
0 days 00:00:51.620000,-2.836426,1.66333,0.508057,-90.370171,-44.929501,-249.992355,3.3271761386534675
0 days 00:00:51.630000,-2.797607,1.637695,0.782715,-92.918388,-12.763976,-249.992355,3.3348602085693186
0 days 00:00:51.640000,-2.762451,1.588135,0.908936,-93.65844,3.410339,-249.992355,3.31352877725877
0 days 00:00:51.650000,-2.63916,1.537354,0.954834,-92.247002,5.195617,-249.992355,3.2000516862188335
0 days 00:00:51.660000,-2.501953,1.501709,0.946045,-88.813774,10.810851,-249.992355,3.067556010395735
0 days 00:00:51.670000,-2.30835,1.475586,0.851074,-85.365288,27.931211,-249.740585,2.8688256690450884
0 days 00:00:51.680000,-2.081787,1.439209,0.692139,-88.767998,55.107113,-249.992355,2.6237789644653757
0 days 00:00:51.690000,-1.851563,1.332031,0.507324,-101.699821,88.874809,-249.992355,2.336657820243692
0 days 00:00:51.700000,-1.607666,1.125488,0.395996,-118.812553,123.863213,-236.038193,2.002030478718044
0 days 00:00:51.710000,-0.613525,0.2229,-0.34375,-26.458738,-131.988525,-249.992355,0.7377407390980926
0 days 00:00:51.720000,-3.195313,1.85498,-0.09375,-70.404053,-94.345085,-249.992355,3.6959119349450145
0 days 00:00:51.730000,-0.511963,0.202637,-0.405518,-21.850584,-139.915466,-249.992355,0.6838221373003364
0 days 00:00:51.740000,0.068115,0.433838,-0.311035,34.53064,-0.595093,-249.992355,0.5381429500550946
0 days 00:00:51.750000,-0.445068,0.313232,-0.466309,-17.326355,-115.432732,-249.992355,0.7166895380351244
0 days 00:00:51.760000,-1.218262,0.673096,0.474609,-143.455505,177.886948,-201.332077,1.470535354468229
0 days 00:00:51.770000,0.820313,0.902588,0.681396,88.49334,-15.144347,-117.889397,1.397096641084288
0 days 00:00:51.780000,0.52124,0.97583,0.53125,93.429558,-28.800962,-139.36615,1.2272578738798134
0 days 00:00:51.790000,0.291504,0.960449,0.435547,94.810478,-33.51593,-154.586792,1.0941380410286445
0 days 00:00:51.800000,0.158203,0.890869,0.397705,95.352165,-32.142639,-166.030869,0.9883547092997533
0 days 00:00:51.810000,0.061035,0.855713,0.383789,92.338554,-29.121397,-180.595383,0.9398212628553367
0 days 00:00:51.820000,0.018311,0.856445,0.352783,83.580009,-25.825499,-197.76152,0.9264389757749832
0 days 00:00:51.830000,-0.062012,0.79541,0.383789,82.969658,-19.165039,-208.98436,0.8853341475200196
0 days 00:00:51.840000,-0.209717,0.75708,0.330566,87.280266,-17.50946,-213.096603,0.8523058294092561
0 days 00:00:51.850000,-0.29834,0.720459,0.168457,83.206169,-22.819517,-211.227402,0.797775461599315
0 days 00:00:51.860000,-0.455322,0.236328,-0.444336,-18.943787,-137.619019,-249.992355,0.6786777793356726
0 days 00:00:51.870000,-0.206299,0.631348,0.020996,77.194214,-25.924681,-212.409958,0.6645302149044843
0 days 00:00:51.880000,0.087891,0.512939,-0.26123,52.963253,-10.536193,-247.550949,0.5822992001557276
0 days 00:00:51.890000,0.121094,0.351318,-0.210449,24.528502,11.032104,-249.992355,0.42705605669630775
0 days 00:00:51.900000,0.193604,0.328857,-0.118164,24.665831,32.272339,-249.992355,0.39948988242632627
0 days 00:00:51.910000,0.2146,0.378906,-0.131104,25.268553,54.901119,-249.992355,0.4547649674854034
0 days 00:00:51.920000,0.091553,0.415771,-0.204102,20.523069,66.070557,-249.992355,0.4721282692807115
0 days 00:00:51.930000,-0.028076,0.418213,-0.260986,14.381408,59.967037,-249.992355,0.49376519454189965
0 days 00:00:51.940000,-0.076172,0.436768,-0.295654,8.636475,41.496273,-249.992355,0.532897501517881
0 days 00:00:51.950000,-0.137451,0.462891,-0.340332,2.616882,13.351439,-249.992355,0.5907509843461963
0 days 00:00:51.960000,-0.291016,0.45752,-0.415039,-4.79126,-25.718687,-249.992355,0.6828412950144418
0 days 00:00:51.970000,-0.415039,0.397461,-0.459473,-12.779235,-73.120117,-249.992355,0.7357635868748874
0 days 00:00:51.980000,-0.013916,0.564941,-0.11792,68.778992,-20.240782,-228.370651,0.5772842583485194
0 days 00:00:51.990000,1.134521,0.775391,0.812256,81.481926,-2.876281,-86.936943,1.5962859743347995
0 days 00:00:52,-1.139404,0.61792,0.551758,-149.772644,193.023666,-182.403549,1.408724065308746
0 days 00:00:52.010000,-1.053711,0.737305,0.670898,-154.22821,202.461227,-145.439148,1.4505273733887272
0 days 00:00:52.020000,-0.16626,1.091309,0.356445,-53.741451,177.299484,37.567139,1.1600218787186733
0 days 00:00:52.030000,-0.191162,1.075195,0.33667,-53.37524,176.193222,38.169861,1.1427746440873632
0 days 00:00:52.040000,-0.203857,1.041016,0.353027,-51.826473,169.822678,36.315918,1.1179892894987857
