t,ax,ay,az,gx,gy,gz,acc_mag
0 days 00:00:41.970000,0.259277,-0.948242,-0.068359,-0.259399,0.518799,-0.068665,0.9854239728025699
0 days 00:00:41.980000,0.259033,-0.949951,-0.068359,-0.190735,0.450134,0.068665,0.9870045341187648
0 days 00:00:41.990000,0.259033,-0.952637,-0.06665,-0.114441,0.694275,0.076294,0.9894733808233549
0 days 00:00:42,0.258057,-0.953369,-0.067139,-0.213623,1.075745,0.12207,0.9899563175872964
0 days 00:00:42.010000,0.258057,-0.952881,-0.067139,-0.114441,1.243591,0.106812,0.9894863620742834
0 days 00:00:42.020000,0.255127,-0.956299,-0.068359,-0.068665,1.38092,0.167847,0.9921040854723863
0 days 00:00:42.030000,0.253662,-0.955566,-0.068115,-0.114441,1.205444,0.022888,0.9910047647842063
0 days 00:00:42.040000,0.256592,-0.955566,-0.067383,-0.167847,0.854492,-0.175476,0.9917087795865276
0 days 00:00:42.050000,0.254883,-0.957275,-0.066895,-0.114441,0.602722,-0.236511,0.9928825259510815
0 days 00:00:42.060000,0.25415,-0.956299,-0.066162,-0.076294,0.488281,-0.350952,0.9917042957177306
0 days 00:00:42.070000,0.259766,-0.950195,-0.06665,-0.213623,0.656128,-0.106812,0.9873151144801745
0 days 00:00:42.080000,0.255371,-0.955811,-0.071289,1.312256,-3.982544,-0.747681,0.9919027860042535
0 days 00:00:42.090000,0.253418,-0.95459,-0.068359,1.426697,-3.944397,-0.686645,0.9900180320100236
0 days 00:00:42.100000,0.252441,-0.953857,-0.068359,1.419067,-4.096985,-0.411987,0.98906146816616
0 days 00:00:42.110000,0.256836,-0.952148,-0.067627,0.640869,-1.403808,-0.228882,0.9884958047098632
0 days 00:00:42.120000,0.256104,-0.952148,-0.072266,0.572205,-1.251221,-0.358582,0.9886341322632958
0 days 00:00:42.130000,0.254639,-0.950684,-0.069092,0.549316,-1.174927,-0.488281,0.9866178554237705
0 days 00:00:42.140000,0.253906,-0.95166,-0.068115,0.480652,-1.106262,-0.564575,0.9873017095401992
0 days 00:00:42.150000,0.256348,-0.950439,-0.069092,0.312805,-1.091003,-0.587463,0.9868243482449144
0 days 00:00:42.160000,0.255127,-0.951172,-0.071777,0.328064,-1.091003,-0.732422,0.98740563976615
0 days 00:00:42.170000,0.257813,-0.954102,-0.070313,0.305176,-1.213074,-0.63324,0.9908188973480472
0 days 00:00:42.180000,0.260254,-0.953369,-0.068359,0.312805,-1.106262,-0.617981,0.9906147321527174
0 days 00:00:42.190000,0.262695,-0.952881,-0.068848,0.274658,-0.770569,-0.579834,0.9908233496895398
0 days 00:00:42.200000,0.260986,-0.952393,-0.067627,0.205994,-0.541687,-0.465393,0.9898179275876953
0 days 00:00:42.210000,0.257568,-0.954346,-0.068848,0.984192,-1.411438,-0.083923,0.990887283924867
0 days 00:00:42.220000,0.262939,-0.954102,-0.065918,0.221252,-0.25177,-0.450134,0.9918632601568624
0 days 00:00:42.230000,0.259277,-0.954102,-0.064941,0.114441,0.183105,-0.427246,0.9908342558743112
0 days 00:00:42.240000,0.259521,-0.954102,-0.067383,0.068665,0.228882,-0.442505,0.9910611709344685
0 days 00:00:42.250000,0.259277,-0.952881,-0.064697,-0.022888,0.213623,-0.564575,0.989642594424371
0 days 00:00:42.260000,0.258301,-0.952393,-0.064209,-0.106812,0.259399,-0.663757,0.9888855488533544
0 days 00:00:42.270000,0.258057,-0.953125,-0.067627,-0.175476,0.480652,-0.63324,0.9897545614964348
0 days 00:00:42.280000,0.258545,-0.955322,-0.065674,-0.198364,0.640869,-0.709534,0.9918662787820746
0 days 00:00:42.290000,0.257568,-0.955322,-0.061279,-0.350952,0.892639,-0.778198,0.9913306785069248
0 days 00:00:42.300000,0.26001,-0.953857,-0.064453,-0.343323,1.213074,-0.793457,0.9907585809661201
0 days 00:00:42.310000,0.258789,-0.951904,-0.065186,-0.350952,1.419067,-0.694275,0.9886061836408874
0 days 00:00:42.320000,0.258301,-0.952148,-0.065186,-0.213623,1.449585,-0.610352,0.9887135252948651
0 days 00:00:42.330000,0.260986,-0.951904,-0.062988,0.091553,-0.053406,-0.450134,0.9890411546321013
0 days 00:00:42.340000,0.259521,-0.957275,-0.067627,1.037598,-1.495361,-0.015259,0.9941327809679147
0 days 00:00:42.350000,0.25708,-0.952393,-0.065674,-0.160217,1.281738,-0.595093,0.9886635560821487
0 days 00:00:42.360000,0.260498,-0.957275,-0.071289,1.091003,-1.770019,0.076294,0.9946440343911986
0 days 00:00:42.370000,0.254395,-0.95459,-0.067383,1.419067,-4.417419,-0.259399,0.9902016727990315
0 days 00:00:42.380000,0.255371,-0.956543,-0.066895,1.487732,-4.577637,-0.267029,0.9923022722512531
0 days 00:00:42.390000,0.256836,-0.959717,-0.066162,1.197815,-4.447937,-0.389099,0.9956901431816024
0 days 00:00:42.400000,0.260742,-0.962158,-0.062256,1.052856,-4.249573,-0.541687,0.9988043937949012
0 days 00:00:42.410000,0.258545,-0.962891,-0.05835,0.862122,-3.952026,-0.740051,0.9987038186599669
0 days 00:00:42.420000,0.259277,-0.960205,-0.061768,0.839233,-3.639221,-0.88501,0.996510657533576
0 days 00:00:42.430000,0.261475,-0.956787,-0.071045,1.022339,-1.586914,0.106812,0.9944133602375825
0 days 00:00:42.440000,0.255371,-0.949707,-0.070557,0.816345,-3.372192,-0.846863,0.9859695856054587
0 days 00:00:42.450000,0.253906,-0.944824,-0.07251,0.846863,-3.639221,-0.717163,0.981029228877509
0 days 00:00:42.460000,0.256104,-0.946045,-0.075195,1.052856,-3.723144,-0.640869,0.9829774610162738
0 days 00:00:42.470000,0.255615,-0.947754,-0.072021,1.197815,-3.77655,-0.648498,0.9842579424022952
0 days 00:00:42.480000,0.256348,-0.957275,-0.065674,0.823975,-3.334045,-0.923157,0.9931781295442424
0 days 00:00:42.490000,0.256348,-0.950439,-0.072754,1.197815,-3.753662,-0.709534,0.9870875008533945
0 days 00:00:42.500000,0.257813,-0.952637,-0.073242,1.342773,-3.974914,-0.747681,0.9896207290179404
0 days 00:00:42.510000,0.255859,-0.950684,-0.072998,1.327515,-4.188538,-0.862122,0.9872145682378274
0 days 00:00:42.520000,0.259277,-0.949951,-0.074707,1.350403,-4.173279,-0.869751,0.9875285317290837
0 days 00:00:42.530000,0.262207,-0.953369,-0.074951,1.38855,-3.875732,-0.839233,0.9916060777400469
0 days 00:00:42.540000,0.262695,-0.953857,-0.07373,1.220703,-3.532409,-0.701904,0.9921128727992596
0 days 00:00:42.550000,0.263672,-0.954102,-0.073242,1.235962,-3.265381,-0.442505,0.9925713780640665
0 days 00:00:42.560000,0.265137,-0.952881,-0.072754,1.205444,-2.952575,-0.267029,0.9917524758960776
0 days 00:00:42.570000,0.264893,-0.956299,-0.072754,1.182556,-2.571106,-0.076294,0.9949719711459213
0 days 00:00:42.580000,0.260742,-0.959229,-0.072021,1.213074,-2.113342,-0.030518,0.9966412039676064
0 days 00:00:42.590000,0.256836,-0.945801,-0.071777,1.274109,-3.715515,-0.747681,0.9826780755801973
0 days 00:00:42.600000,0.250488,-0.953857,-0.070557,1.068115,-1.518249,0.160217,0.9887192244727518
0 days 00:00:42.610000,0.253174,-0.951904,-0.069824,0.930786,-1.144409,0.213623,0.9874683237795528
0 days 00:00:42.620000,0.252686,-0.953613,-0.069092,0.976562,-1.00708,0.099182,0.9889396709754342
0 days 00:00:42.630000,0.253174,-0.95459,-0.070557,0.869751,-0.938415,0.091553,0.9901098083672336
0 days 00:00:42.640000,0.253906,-0.956787,-0.074951,0.480652,0.083923,-0.114441,0.9927372626259175
0 days 00:00:42.650000,0.252441,-0.954346,-0.072266,0.663757,-0.602722,0.061035,0.989810649040007
0 days 00:00:42.660000,0.253906,-0.955322,-0.07373,0.617981,-0.366211,0.091553,0.991233823787304
0 days 00:00:42.670000,0.25293,-0.955811,-0.072266,0.534058,-0.183105,-0.022888,0.9913478841340208
0 days 00:00:42.680000,0.251465,-0.955811,-0.06958,0.747681,-0.75531,0.061035,0.9907828674063758
0 days 00:00:42.690000,0.251953,-0.956299,-0.06958,1.159668,-1.861572,0.091553,0.9913775607759134
0 days 00:00:42.700000,0.248535,-0.951904,-0.073486,1.121521,-3.067016,-0.442505,0.986555149820323
0 days 00:00:42.710000,0.250488,-0.953857,-0.068359,1.037598,-2.365112,0.213623,0.988564801858735
0 days 00:00:42.720000,0.253662,-0.953857,-0.067627,1.037598,-2.433777,0.160217,0.9893235051397494
0 days 00:00:42.730000,0.253662,-0.952148,-0.066162,1.00708,-2.27356,0.076294,0.9875766473504727
0 days 00:00:42.740000,0.254639,-0.954346,-0.067871,0.961304,-2.13623,0.152588,0.9900625135202322
0 days 00:00:42.750000,0.252197,-0.953857,-0.068359,0.946045,-2.090454,0.1297,0.988999219483514
0 days 00:00:42.760000,0.253174,-0.952881,-0.066406,0.930786,-2.098083,0.030518,0.9881745955411928
0 days 00:00:42.770000,0.252686,-0.953613,-0.070313,0.915527,-2.14386,0.061035,0.9890257258201124
0 days 00:00:42.780000,0.252441,-0.955566,-0.074219,0.938415,-2.182007,0.1297,0.9911313226802996
0 days 00:00:42.790000,0.250732,-0.95459,-0.075439,0.984192,-2.349854,-0.091553,0.9898482947628895
0 days 00:00:42.800000,0.250732,-0.953613,-0.075195,1.121521,-2.738952,-0.350952,0.988887545486341
0 days 00:00:42.810000,0.255371,-0.955811,-0.076416,0.350952,0.221252,-0.213623,0.9922844453169665
0 days 00:00:42.820000,0.250732,-0.953369,-0.067139,1.205444,-2.204895,0.198364,0.9880721791984632
0 days 00:00:42.830000,0.256836,-0.954346,-0.074463,0.404358,0.236511,-0.160217,0.9911033028806836
0 days 00:00:42.840000,0.256104,-0.951416,-0.071289,0.106812,-1.144409,-0.419617,0.9878581808098772
0 days 00:00:42.850000,0.254639,-0.954346,-0.073242,0.099182,0.205994,-0.152588,0.9904452022201935
0 days 00:00:42.860000,0.250488,-0.952148,-0.075928,1.144409,-3.311157,-0.556946,0.9874690441892343
0 days 00:00:42.870000,0.351318,-0.981689,-0.103516,-13.72528,88.119499,-17.76886,1.0477848978206357
0 days 00:00:42.880000,0.17627,-0.981201,-0.092529,-8.201599,67.550659,-15.647887,1.0011933535246826
0 days 00:00:42.890000,0.089111,-0.975342,-0.085938,-3.509521,33.927917,-14.22119,0.9831673952735619
0 days 00:00:42.900000,0.124512,-0.971191,-0.104736,-1.655578,7.354736,-11.848449,0.9847257619870621
0 days 00:00:42.910000,0.215576,-0.959717,-0.129883,-1.304626,-1.014709,-8.834839,0.9921690005004188
0 days 00:00:42.920000,0.277832,-0.960938,-0.101563,-0.968933,1.853943,-7.667541,1.0054389603735274
0 days 00:00:42.930000,0.260742,-0.964355,-0.077637,-0.083923,2.89917,-6.904602,1.0019952396882932
0 days 00:00:42.940000,0.260986,-0.963135,-0.064697,-0.572205,0.389099,-5.210876,0.9999642104745549
0 days 00:00:42.950000,0.277588,-0.969238,-0.070313,-0.511169,-0.282288,-3.372192,1.0106539053291193
0 days 00:00:42.960000,0.256592,-0.953857,-0.073975,0.297546,0.167847,-0.099182,0.9905326504149169
0 days 00:00:42.970000,0.283936,-0.967041,-0.072021,0.12207,-0.656128,-1.853943,1.0104330617205675
0 days 00:00:42.980000,0.259521,-0.952881,-0.068848,0.183105,-1.243591,-0.442505,0.9899865639017531
0 days 00:00:42.990000,0.26001,-0.952393,-0.070313,0.030518,-0.907898,-0.366211,0.9897482227910288
0 days 00:00:43,0.261475,-0.951172,-0.070068,0.083923,-0.816345,-0.350952,0.9889423005580255
0 days 00:00:43.010000,0.259766,-0.952393,-0.071045,0.061035,-0.778198,-0.411987,0.9897364261408186
0 days 00:00:43.020000,0.26123,-0.952637,-0.073486,0.038147,-0.686645,-0.434875,0.9905344814114246
0 days 00:00:43.030000,0.26001,-0.952393,-0.072266,0.137329,-0.495911,-0.366211,0.9898888833121625
0 days 00:00:43.040000,0.259277,-0.952148,-0.072266,0.091553,-0.076294,-0.274658,0.9894608387344089
0 days 00:00:43.050000,0.260498,-0.953125,-0.073975,0.015259,0.274658,-0.289917,0.9908475030265758
0 days 00:00:43.060000,0.259766,-0.955322,-0.073486,-0.022888,0.427246,-0.358582,0.9927329402392165
0 days 00:00:43.070000,0.258545,-0.955566,-0.073486,-0.007629,0.320435,-0.38147,0.9926490263819332
0 days 00:00:43.080000,0.271484,-0.955811,-0.06665,0.190735,-0.930786,-0.656128,0.9958516217173119
0 days 00:00:43.090000,0.253662,-0.952637,-0.075439,1.296997,-3.295898,-0.63324,0.9887126512460533
0 days 00:00:43.100000,0.458008,-0.99585,-0.098633,-17.631531,87.242119,-24.528502,1.100553051539543
0 days 00:00:43.110000,0.256104,-0.952881,-0.077393,1.365662,-2.876281,-0.495911,0.9897278087565287
0 days 00:00:43.120000,0.261963,-0.955811,-0.070801,0.213623,-2.304077,-0.328064,0.9935854581720689
0 days 00:00:43.130000,0.266602,-0.958984,-0.068604,0.1297,-2.006531,-0.518799,0.9977141110939546
0 days 00:00:43.140000,0.268555,-0.961426,-0.067627,-0.083923,-1.281738,-0.915527,1.0005174424416596
0 days 00:00:43.150000,0.265869,-0.960449,-0.064453,-0.068665,-0.694275,-1.167297,0.9986504873933623
0 days 00:00:43.160000,0.263428,-0.955078,-0.067139,-0.259399,-0.686645,-1.190186,0.9930135661656391
0 days 00:00:43.170000,0.260254,-0.948242,-0.068604,-0.488281,-1.00708,-1.045227,0.9856985055766291
0 days 00:00:43.180000,0.262695,-0.947754,-0.070557,-0.450134,-1.480102,-0.747681,0.9860145018152623
0 days 00:00:43.190000,0.264648,-0.95166,-0.073975,-0.221252,-1.579285,-0.465393,0.9905390553274515
0 days 00:00:43.200000,0.266357,-0.951416,-0.071533,-0.198364,-1.449585,-0.37384,0.9905833769017125
0 days 00:00:43.210000,0.270264,-0.948975,-0.072998,-0.305176,-0.968933,-0.267029,0.9894063312537473
0 days 00:00:43.220000,0.26001,-0.950195,-0.072266,0.389099,-2.166748,-0.328064,0.9877743228496072
0 days 00:00:43.230000,0.264648,-0.950195,-0.068359,-0.358582,-0.488281,-0.236511,0.988727492694524
0 days 00:00:43.240000,0.263672,-0.948242,-0.071289,-0.534058,-0.091553,-0.305176,0.986796805664165
0 days 00:00:43.250000,0.264404,-0.947754,-0.072266,-0.526428,-0.038147,-0.343323,0.9865948988759267
0 days 00:00:43.260000,0.26416,-0.949219,-0.072021,-0.541687,0.015259,-0.602722,0.9879191464902379
0 days 00:00:43.270000,0.262207,-0.950195,-0.070557,-0.617981,0.259399,-0.724792,0.9882314198217946
0 days 00:00:43.280000,0.262451,-0.950928,-0.070557,-0.587463,0.556946,-0.747681,0.9890009498650646
0 days 00:00:43.290000,0.263916,-0.951172,-0.070557,-0.679016,0.946045,-0.793457,0.9896252416389751
0 days 00:00:43.300000,0.263672,-0.951172,-0.071289,-0.617981,1.144409,-0.808716,0.9896126609381066
0 days 00:00:43.310000,0.262939,-0.952148,-0.070557,-0.564575,1.274109,-0.709534,0.9903034998797086
0 days 00:00:43.320000,0.26123,-0.953613,-0.07251,-0.617981,1.213074,-0.701904,0.9914013146899696
0 days 00:00:43.330000,0.260254,-0.953857,-0.071045,-0.450134,1.068115,-0.50354,0.9912732786623475
0 days 00:00:43.340000,0.264404,-0.950928,-0.067383,-0.465393,-0.190735,-0.320435,0.9892997549221368
0 days 00:00:43.350000,0.260254,-0.950439,-0.072266,0.495911,-1.739502,-0.427246,0.9880732827037679
0 days 00:00:43.360000,0.253662,-0.954102,-0.07666,1.358032,-3.028869,-0.595093,0.9902180528792636
0 days 00:00:43.370000,0.268799,-0.949463,-0.070801,0.579834,-1.739502,-0.87738,0.9893157596899991
0 days 00:00:43.380000,0.257813,-0.951172,-0.074219,1.251221,-2.838135,-0.396728,0.9882834494789439
0 days 00:00:43.390000,0.256104,-0.952148,-0.072998,1.083374,-2.738952,-0.488281,0.9886879086567206
0 days 00:00:43.400000,0.258545,-0.952637,-0.074707,1.060486,-2.89917,-0.389099,0.9899211618320926
0 days 00:00:43.410000,0.261719,-0.956299,-0.06958,1.029968,-2.929687,-0.274658,0.9939044163107437
0 days 00:00:43.420000,0.262939,-0.955322,-0.068604,1.113892,-2.937317,-0.465393,0.9932187826561678
0 days 00:00:43.430000,0.26123,-0.954346,-0.070557,1.060486,-2.845764,-0.518799,0.9919655693949262
0 days 00:00:43.440000,0.266602,-0.950195,-0.07251,0.549316,-1.38092,-0.679016,0.9895478081068141
0 days 00:00:43.450000,0.259033,-0.953613,-0.067627,1.083374,-2.372742,-0.480652,0.9904793082073952
0 days 00:00:43.460000,0.26001,-0.953613,-0.070068,1.045227,-2.288818,-0.518799,0.9909048786301338
0 days 00:00:43.470000,0.257568,-0.950684,-0.071045,0.88501,-2.494812,-0.366211,0.9875164477136571
0 days 00:00:43.480000,0.254639,-0.949951,-0.071045,0.656128,-2.685547,-0.328064,0.9860503611616397
0 days 00:00:43.490000,0.259277,-0.955078,-0.067871,1.045227,-2.708435,-0.50354,0.9919702724648557
0 days 00:00:43.500000,0.256592,-0.953857,-0.069336,0.526428,-2.593994,-0.480652,0.9901970065643503
0 days 00:00:43.510000,0.253174,-0.950439,-0.070801,0.610352,-2.876281,-0.320435,0.9861258279743007
0 days 00:00:43.520000,0.259277,-0.950439,-0.073975,0.343323,-3.051758,-1.274109,0.9879428910999867
0 days 00:00:43.530000,0.256836,-0.950684,-0.070801,0.358582,-3.105163,-1.38092,0.9873082499164079
0 days 00:00:43.540000,0.25415,-0.949707,-0.075195,0.411987,-3.02124,-1.51062,0.9859969048501115
0 days 00:00:43.550000,0.253906,-0.949951,-0.076172,0.610352,-2.876281,-1.419067,0.9862440533767491
0 days 00:00:43.560000,0.263184,-0.949463,-0.07251,0.434875,-2.418518,-1.182556,0.9879288974035529
0 days 00:00:43.570000,0.252686,-0.950684,-0.074463,0.717163,-2.311707,-1.296997,0.9865064727719732
0 days 00:00:43.580000,0.253174,-0.950439,-0.072754,0.63324,-2.189636,-1.029968,0.9862679714524851
0 days 00:00:43.590000,0.253418,-0.952637,-0.068604,0.595093,-2.212524,-0.869751,0.9881520355233803
0 days 00:00:43.600000,0.256104,-0.956055,-0.067627,0.701904,-2.258301,-0.587463,0.9920704778240304
0 days 00:00:43.610000,0.25415,-0.952393,-0.072754,0.694275,-2.609253,-1.365662,0.9884016357053442
0 days 00:00:43.620000,0.422119,0.520264,-0.874023,18.867493,-44.982906,34.515381,1.1012607703836543
0 days 00:00:43.630000,0.281494,0.567139,-0.8479,31.044004,-47.752377,25.80261,1.0582154446789178
0 days 00:00:43.640000,0.243896,0.448975,-0.691162,39.932251,-50.308224,18.737793,0.8595165616118169
0 days 00:00:43.650000,0.324951,0.311279,-0.533691,38.726807,-23.803709,5.729675,0.6980786859108363
0 days 00:00:43.660000,0.230469,0.486084,-0.352783,36.376953,14.572143,-15.48767,0.6433113244036669
0 days 00:00:43.670000,0.462646,0.814697,-0.203369,22.918699,70.251465,-29.869078,0.9587134469099722
0 days 00:00:43.680000,0.562744,0.925293,-0.079102,-14.625548,118.286125,-25.070189,1.085866046890223
0 days 00:00:43.690000,0.934326,1.02417,0.111816,-45.402523,108.551018,-33.439636,1.3908242451985082
0 days 00:00:43.700000,-0.322266,1.974609,0.122314,-102.714531,-40.122986,-49.591061,2.004469204610787
0 days 00:00:43.710000,0.247559,1.171387,-0.002686,-88.699333,-206.100449,-5.096435,1.1972636204470593
0 days 00:00:43.720000,0.70166,0.36792,0.165527,93.826286,9.994507,-140.50293,0.8093769639228682
0 days 00:00:43.730000,-0.393066,-5.178223,-7.532715,56.999203,8.781433,-89.653008,9.149332740113346
0 days 00:00:43.740000,0.066162,-0.739258,-0.720215,241.340622,103.912346,-148.849487,1.0342095759723946
0 days 00:00:43.750000,0.485596,0.214355,0.39917,249.55748,76.049805,-155.456543,0.664144735837754
0 days 00:00:43.760000,0.512695,0.186035,0.246338,249.992355,64.102173,-162.406906,0.5984543378521038
0 days 00:00:43.770000,0.787842,0.198242,0.331543,249.992355,50.651546,-155.158997,0.8774483850215921
0 days 00:00:43.780000,0.978027,0.213135,0.303955,230.27037,48.995968,-145.629883,1.0461127964894608
0 days 00:00:43.790000,0.980957,0.199951,0.175293,194.671616,53.298946,-143.821716,1.016358536196258
0 days 00:00:43.800000,0.871826,0.221924,0.101318,168.334946,53.466793,-143.836975,0.9053155102924063
0 days 00:00:43.810000,0.798828,0.328613,0.154053,141.433716,43.411251,-140.861511,0.8774081172191194
0 days 00:00:43.820000,0.790771,0.365234,0.251221,115.737907,26.512144,-139.533997,0.9065465459853675
0 days 00:00:43.830000,0.452148,0.422363,-0.963867,3.204345,-34.042358,39.733887,1.1453680244192257
0 days 00:00:43.840000,1.998047,-2.621094,-2.823975,-12.886046,-182.861313,47.309872,4.340179762598549
0 days 00:00:43.850000,0.416016,0.40625,-0.993408,-18.623352,-7.736206,37.475586,1.1510724691434504
0 days 00:00:43.860000,0.645508,0.461182,-0.596436,-170.822128,-137.329102,34.851074,0.9925247187269443
0 days 00:00:43.870000,0.664795,0.382324,-0.873291,-52.665707,54.618832,34.477234,1.1622225276090634
0 days 00:00:43.880000,0.663818,0.353271,0.096191,74.760437,-2.288818,-142.723083,0.7580946148377523
0 days 00:00:43.890000,0.588135,0.783203,0.277344,-88.279716,-29.922483,7.438659,1.0179535410665852
0 days 00:00:43.900000,0.54541,0.755859,0.186035,-100.471489,-28.70941,8.911133,0.9504756268342708
0 days 00:00:43.910000,0.543213,0.745361,0.109131,-110.908501,-26.718138,10.910033,0.9287372926996095
0 days 00:00:43.920000,0.587158,0.752441,0.067383,-120.719902,-20.324705,12.939452,0.9567980163723167
0 days 00:00:43.930000,0.660156,0.741943,0.02124,-130.661011,-6.332397,15.731811,0.9933461114762568
0 days 00:00:43.940000,0.723633,0.712646,-0.032715,-140.510559,8.247375,20.820616,1.016159097400599
0 days 00:00:43.950000,0.696777,0.694092,-0.110596,-150.024414,10.543822,28.427122,0.9896935724803916
0 days 00:00:43.960000,0.65625,0.679199,-0.192871,-157.920837,-5.767822,34.90448,0.9639370138873182
0 days 00:00:43.970000,0.665771,0.655273,-0.24585,-163.642868,-33.26416,37.139893,0.9659585661248623
0 days 00:00:43.980000,0.463135,0.380859,-0.977783,-38.42926,29.739378,36.125183,1.1469992158650328
0 days 00:00:43.990000,0.691895,0.62793,-0.295654,-167.678818,-62.20245,38.375854,0.9800132976858018
0 days 00:00:44,0.661377,0.541016,-0.456055,-173.400864,-116.516106,37.67395,0.9685576964796676
0 days 00:00:44.010000,0.64917,0.382813,-0.769531,-162.467941,-145.736694,30.021666,1.0771004789851317
0 days 00:00:44.020000,0.695313,0.340088,-0.938232,-149.673462,-134.750366,21.850584,1.2163055954557636
0 days 00:00:44.030000,0.751221,0.334473,-1.023438,-133.529663,-101.287834,13.877868,1.3128710974097952
0 days 00:00:44.040000,0.790283,0.311279,-0.929199,-112.541191,-56.442257,7.545471,1.2589092967847206
0 days 00:00:44.050000,0.806641,0.244629,-0.630859,-90.209953,-21.293638,-0.259399,1.0528514275067493
0 days 00:00:44.060000,0.939697,0.216797,-0.380859,-73.410034,-1.930237,-4.814148,1.0368630424983811
0 days 00:00:44.070000,1.106445,0.286865,-0.318359,-63.262936,13.542174,1.792908,1.1865346683224218
0 days 00:00:44.080000,1.096436,0.39209,-0.414307,-60.111996,33.874512,13.145446,1.2359436720356636
0 days 00:00:44.090000,0.875977,0.418457,-0.656006,-59.020992,53.855892,26.344297,1.171659437470633
0 days 00:00:44.100000,0.688965,0.597168,-0.36792,-171.646103,-90.408318,39.016724,0.983182342116151
0 days 00:00:44.110000,0.619141,0.789063,0.343994,-73.173523,-29.678343,4.638672,1.0603244163396408
0 days 00:00:44.120000,0.689697,0.17749,-0.073975,51.521297,2.655029,-153.892517,0.7160006651770653
0 days 00:00:44.130000,0.659668,0.161621,-0.087158,44.288631,3.005981,-157.951355,0.6847479352498991
0 days 00:00:44.140000,0.952393,-0.652832,-0.18457,-98.907463,-54.397579,-239.028915,1.1693195164594663
0 days 00:00:44.150000,0.967041,-0.721191,-0.186035,-98.449699,-49.087521,-237.71666,1.2206120495009871
0 days 00:00:44.160000,1.006348,-0.78125,-0.177734,-96.244804,-34.53064,-237.030014,1.2863425804815762
0 days 00:00:44.170000,1.070801,-0.824707,-0.171875,-93.124382,-10.375976,-235.961899,1.3624600665982836
0 days 00:00:44.180000,1.142578,-0.875,-0.167969,-90.415947,20.782469,-234.17662,1.448904093114862
0 days 00:00:44.190000,1.161377,-0.92627,-0.166504,-89.385979,51.658627,-230.117783,1.4948231437347363
0 days 00:00:44.200000,1.088379,-0.962891,-0.172119,-90.362541,71.075439,-223.251328,1.4633362141637172
0 days 00:00:44.210000,1.034912,-1.001465,-0.194336,-90.62957,77.23999,-214.218124,1.4531832213678357
0 days 00:00:44.220000,0.999023,-1.044189,-0.216797,-90.62957,77.102661,-205.604538,1.4612934549429146
0 days 00:00:44.230000,0.955078,-1.09668,-0.241455,-83.930962,83.679192,-189.20134,1.4741714708638884
0 days 00:00:44.240000,0.980469,-0.5979,-0.168945,-98.480217,-55.969234,-241.62291,1.1607524641309188
0 days 00:00:44.250000,0.928955,-1.115479,-0.253174,-77.941895,94.055168,-177.116379,1.4735494106890341
0 days 00:00:44.260000,0.871826,-1.09668,-0.21582,-62.866207,123.802177,-146.842957,1.4175210295004446
0 days 00:00:44.270000,0.898193,-1.071045,-0.173096,-58.868404,152.450562,-131.164551,1.4084922017852992
0 days 00:00:44.280000,0.831543,-1.063232,-0.14624,-55.915829,182.090744,-117.172234,1.357686335010042
0 days 00:00:44.290000,0.697266,-1.070068,-0.1604,-51.643368,199.722275,-101.821892,1.2872270815128153
0 days 00:00:44.300000,0.521973,-1.069824,-0.155762,-45.372005,191.863998,-86.128227,1.2005169737862935
0 days 00:00:44.310000,0.341553,-1.041016,-0.145996,-38.734436,158.782959,-72.883606,1.1052997765678774
0 days 00:00:44.320000,0.297607,-1.037354,-0.147705,-31.85272,119.926445,-59.310909,1.0892612243121484
0 days 00:00:44.330000,0.376709,-1.056396,-0.140625,-24.80316,93.40667,-46.234127,1.1303351583145593
0 days 00:00:44.340000,0.447266,-1.038086,-0.115234,-20.416258,83.679192,-34.851074,1.1361990551430678
0 days 00:00:44.350000,0.671387,0.263672,-0.005615,60.653683,-3.097534,-148.445129,0.721328604436286
0 days 00:00:44.360000,0.883301,-1.114502,-0.23291,-70.053101,105.293266,-162.849411,1.4410351948182947
0 days 00:00:44.370000,1.000732,-0.55249,-0.137451,-96.80938,-57.006832,-244.26268,1.1513481286409424
0 days 00:00:44.380000,0.979492,-1.076904,-0.230225,-88.584892,77.377319,-198.318466,1.4738148981147532
0 days 00:00:44.390000,0.97583,-0.457275,-0.023193,-87.768547,-52.917477,-247.497543,1.0779065496479738
0 days 00:00:44.400000,1.005127,-0.501709,-0.076904,-93.261711,-56.503292,-245.697006,1.1260135132519502
0 days 00:00:44.410000,0.631104,0.156006,-0.003662,29.731749,-13.175963,-170.501694,0.650110406851021
0 days 00:00:44.420000,0.69458,0.125,0.033691,23.757933,-20.286558,-177.444443,0.7065419024240529
0 days 00:00:44.430000,0.744141,0.113281,0.044678,16.815186,-23.727415,-181.198105,0.7540388163257912
0 days 00:00:44.440000,0.771484,0.083008,0.042725,9.078979,-24.414061,-185.585007,0.7771121643270036
0 days 00:00:44.450000,0.778076,0.033203,0.032471,2.342224,-23.29254,-191.650375,0.7794607538715468
0 days 00:00:44.460000,0.78125,0.037842,0.012939,-3.639221,-23.971556,-195.434555,0.7822729684611376
0 days 00:00:44.470000,0.743652,0.056885,0.016357,-10.017395,-29.380796,-201.148972,0.7460038550691277
0 days 00:00:44.480000,0.740234,0.035156,0.052734,-15.190124,-37.353516,-208.442673,0.7429422547197057
0 days 00:00:44.490000,0.811279,-0.015381,0.063721,-20.606993,-45.906063,-214.576706,0.813922942816456
0 days 00:00:44.500000,0.863281,-0.06958,0.054199,-26.931761,-55.412289,-217.117294,0.8677747363008443
0 days 00:00:44.510000,0.615234,0.180176,-0.056885,36.567688,-4.226685,-163.726791,0.6435931703778404
0 days 00:00:44.520000,0.832031,-0.120117,-0.000244,-39.306641,-72.151184,-222.198471,0.8406567302924541
0 days 00:00:44.530000,0.85498,-0.087891,0.026611,-33.309937,-66.314697,-218.513474,0.8598975366879476
0 days 00:00:44.540000,0.921143,-0.356934,-0.035645,-75.012207,-60.56213,-247.047409,0.9885225707236026
0 days 00:00:44.550000,0.867188,-0.322754,-0.064697,-69.229126,-73.295593,-244.255051,0.9275617896771082
0 days 00:00:44.560000,0.8479,-0.330078,-0.073975,-64.109802,-79.307556,-242.24852,0.9128845473054081
0 days 00:00:44.570000,0.811768,-0.329102,-0.039063,-60.371395,-76.065063,-242.431625,0.8768131672123772
0 days 00:00:44.580000,0.967529,-0.40918,-0.016846,-81.230156,-52.078243,-248.474106,1.0506304897331888
0 days 00:00:44.590000,0.782471,-0.177979,-0.019531,-52.803036,-63.415524,-233.886703,0.8026947428773905
0 days 00:00:44.600000,0.809814,-0.139404,-0.028809,-48.202511,-64.445496,-230.163559,0.8222299850364252
0 days 00:00:44.610000,0.842773,-0.141846,-0.017578,-43.464657,-69.755554,-226.36412,0.8548073486634284
0 days 00:00:44.620000,0.765137,-0.262451,-0.015381,-56.991573,-69.076538,-239.85289,0.8090437141038795
0 days 00:00:44.630000,0.725098,0.852295,0.229736,63.369747,55.030819,-11.116027,1.142345178273625
0 days 00:00:44.640000,0.668213,0.580811,0.12207,249.603256,16.357422,-65.643311,0.8937287709310917
0 days 00:00:44.650000,0.79248,0.632813,0.29541,249.992355,39.756775,-56.098934,1.0562877976522307
0 days 00:00:44.660000,0.843018,0.645752,0.324951,247.009262,74.09668,-53.108212,1.1105260673343063
0 days 00:00:44.670000,0.801514,0.668213,0.302979,213.821396,101.417534,-53.283688,1.08661381364586
0 days 00:00:44.680000,0.718262,0.719238,0.304688,177.291855,106.651299,-47.431942,1.0611495552616512
0 days 00:00:44.690000,0.723633,0.78833,0.362061,142.997742,93.688957,-38.101196,1.1296889285595393
0 days 00:00:44.700000,0.544189,0.473877,-0.151367,249.870285,9.971619,-72.9599,0.7373011918741215
0 days 00:00:44.710000,0.788086,0.844971,0.38208,111.572258,80.841057,-27.656553,1.2169801397874167
0 days 00:00:44.720000,0.794189,0.845703,0.323242,84.686272,69.549561,-18.638611,1.2043401191083853
0 days 00:00:44.730000,0.6604,0.870117,0.171387,45.608517,38.101196,-4.058838,1.1057148174181262
0 days 00:00:44.740000,0.550781,0.682373,-0.035645,-19.676208,12.71057,5.981445,0.877646390703568
0 days 00:00:44.750000,0.595459,0.79126,0.059082,17.38739,16.700745,1.472473,0.9920456093370909
0 days 00:00:44.760000,0.59082,0.734375,0.005859,4.798889,13.97705,2.410889,0.9425546355018366
0 days 00:00:44.770000,0.579834,0.692627,-0.026367,-7.438659,13.47351,4.524231,0.9036785088592071
0 days 00:00:44.780000,0.524658,0.694092,-0.029053,-31.303404,11.276244,6.454467,0.870559474267554
0 days 00:00:44.790000,0.515869,0.712646,-0.018799,-42.282101,9.490967,6.332397,0.8799650838970828
0 days 00:00:44.800000,0.529297,0.727539,0.004883,-53.314205,6.752014,7.003784,0.8997178193294829
0 days 00:00:44.810000,0.552979,0.723145,0.009766,-64.414978,1.998901,8.964539,0.9103954306904225
0 days 00:00:44.820000,0.566406,0.697021,-0.011719,-74.523926,-4.066467,11.062621,0.8982156568653209
0 days 00:00:44.830000,0.587402,0.681641,-0.043701,-82.984917,-8.644104,13.732909,0.9008803138519567
0 days 00:00:44.840000,0.747803,0.521484,0.510742,249.992355,6.29425,-73.753357,1.044993913680362
0 days 00:00:44.850000,0.621826,0.845947,0.123291,31.044004,24.139402,0.221252,1.0571161581236
0 days 00:00:44.860000,0.372314,-0.578613,-0.761963,239.288315,26.771544,-89.012138,1.0266442089321888
0 days 00:00:44.870000,0.596191,0.677002,-0.081299,-89.767448,-9.643555,16.418457,0.9057510385784826
0 days 00:00:44.880000,1.221191,-4.087646,-2.708252,13.587951,-130.477905,139.923096,5.053195639919457
0 days 00:00:44.890000,0.311279,0.186768,-0.533936,18.936157,30.418394,68.634033,0.6456504888567808
0 days 00:00:44.900000,0.313965,0.227051,-0.508545,17.753601,24.093626,57.006832,0.6393310526253203
0 days 00:00:44.910000,0.345703,0.282471,-0.471436,16.189575,19.363403,47.569271,0.6492706154955729
0 days 00:00:44.920000,0.408203,0.338867,-0.428711,13.97705,22.079466,39.993286,0.6820950479361363
0 days 00:00:44.930000,0.480713,0.385254,-0.397949,11.894225,33.180237,34.065247,0.7333955545856546
0 days 00:00:44.940000,0.510498,0.425781,-0.393066,9.811401,45.341488,30.677794,0.7722684431730977
0 days 00:00:44.950000,0.463379,0.429199,-0.416748,8.613586,45.593258,29.060362,0.7567104959930184
0 days 00:00:44.960000,0.383545,0.428711,-0.455322,9.155273,26.847837,28.900145,0.7336334317832034
0 days 00:00:44.970000,0.336426,0.449707,-0.490723,11.299132,-5.500793,28.717039,0.7458068798650225
0 days 00:00:44.980000,0.331787,0.456299,-0.529297,15.876769,-37.750244,27.854918,0.7735933718556539
0 days 00:00:44.990000,-0.487793,-6.22998,-6.506104,98.228447,-30.586241,-57.090755,9.021085415295932
0 days 00:00:45,0.351318,0.444092,-0.544922,22.117613,-60.997005,27.465818,0.7858638734997303
0 days 00:00:45.010000,0.269043,0.465576,-0.599365,35.247803,-78.00293,22.3999,0.8052226715946341
0 days 00:00:45.020000,0.176758,0.508301,-0.595215,41.267391,-89.973442,13.534545,0.8024301797602083
0 days 00:00:45.030000,0.250977,0.488037,-0.52417,47.5769,-88.706963,8.010864,0.7588964071584474
0 days 00:00:45.040000,0.613037,0.564697,-0.395996,43.533321,-35.041809,-6.263732,0.9227729391318322
0 days 00:00:45.050000,0.674072,0.673584,-0.120117,23.025511,48.59161,-31.440733,0.9604772563309346
0 days 00:00:45.060000,0.83252,0.774658,0.064697,2.006531,103.767387,-20.507811,1.1390216280532164
0 days 00:00:45.070000,0.82666,1.277344,-0.210938,-40.733334,97.282402,37.338257,1.5360564083978165
0 days 00:00:45.080000,1.392334,1.638672,-0.554932,-75.805664,50.567623,34.133911,2.2207632507234982
0 days 00:00:45.090000,0.724121,2.015381,-0.998291,-93.727104,-19.767761,-13.97705,2.3627730992380545
0 days 00:00:45.100000,0.354492,1.259033,-0.753418,-60.295101,-152.09198,74.890137,1.509459292553794
0 days 00:00:45.110000,0.345703,0.419434,-0.584473,29.121397,-69.923401,27.343748,0.7981504446493781
0 days 00:00:45.120000,0.575195,0.668213,-0.106445,-95.451347,-10.276793,17.341614,0.888081324777748
0 days 00:00:45.130000,0.338867,0.155273,-0.555176,19.882202,34.881592,80.696098,0.6687009340460054
0 days 00:00:45.140000,0.560059,0.668945,-0.163574,-103.622429,-21.224974,15.937804,0.8876429180599594
0 days 00:00:45.150000,0.489258,-5.443604,-5.724854,84.213249,-131.736755,-5.088806,7.914932167788678
0 days 00:00:45.160000,0.970947,-4.297607,-4.779541,185.684189,-9.750366,-61.752316,6.5004750729419
0 days 00:00:45.170000,0.733887,0.998291,2.247803,249.992355,26.077269,-56.137081,2.566669705330041
0 days 00:00:45.180000,0.406738,0.319336,-0.33667,249.992355,51.551815,-64.620972,0.617055889235327
0 days 00:00:45.190000,0.457764,0.366211,-0.178955,249.992355,78.536987,-72.70813,0.6129300679865527
0 days 00:00:45.200000,0.527344,0.415039,0.007813,249.786362,97.511284,-77.758789,0.6711260007077658
0 days 00:00:45.210000,0.605957,0.467773,0.14624,249.93132,106.63604,-83.053581,0.7793469079800086
0 days 00:00:45.220000,0.649902,0.508789,0.231934,249.992355,107.055656,-83.602898,0.8573402104654838
0 days 00:00:45.230000,0.665039,0.544189,0.319336,242.759689,97.534172,-75.942993,0.916730069397748
0 days 00:00:45.240000,0.674072,0.614258,0.392578,213.531479,82.19146,-67.687988,0.9928763456906403
0 days 00:00:45.250000,1.013184,-1.196045,-1.513184,54.367062,-179.901108,118.064873,2.1787132160376226
0 days 00:00:45.260000,0.73877,0.701416,0.464844,182.556137,69.381714,-61.340328,1.1197524111570378
0 days 00:00:45.270000,0.803467,0.786133,0.470459,121.299736,63.377377,-51.62048,1.218563081854608
0 days 00:00:45.280000,0.777832,0.793945,0.427002,97.549431,61.164852,-46.31805,1.190672915310078
0 days 00:00:45.290000,0.770752,0.796387,0.375732,78.00293,55.488583,-41.061398,1.1702416139827707
0 days 00:00:45.300000,0.760986,0.777832,0.335693,60.043331,46.524044,-35.766602,1.1387765815422268
0 days 00:00:45.310000,0.770752,0.769531,0.345459,42.465206,34.439087,-29.197691,1.1426191518375666
0 days 00:00:45.320000,0.766602,0.791748,0.378174,23.635862,19.187927,-21.77429,1.1651433800970592
0 days 00:00:45.330000,0.743896,0.793701,0.406494,3.639221,4.226685,-15.998839,1.1612837328805565
0 days 00:00:45.340000,0.726318,0.773682,0.406982,-17.036438,-7.881164,-10.246276,1.1365544520928155
0 days 00:00:45.350000,0.711182,0.77417,0.4021,-36.735535,-18.196106,-3.326416,1.1255236274836704
0 days 00:00:45.360000,0.6604,0.787354,0.379639,-55.641171,-26.31378,0.968933,1.0955273851606815
0 days 00:00:45.370000,0.79541,0.762939,0.493164,150.848389,63.957211,-56.335445,1.20746168333285
0 days 00:00:45.380000,-0.226074,2.12793,-1.12915,-90.476982,-128.227234,24.742125,2.4195402994941007
0 days 00:00:45.390000,0.553223,0.664795,-0.135742,-99.884026,-14.793395,17.372131,0.875462146707669
0 days 00:00:45.400000,0.925781,0.75,-0.742432,-82.672112,73.783875,57.609554,1.4038432015666849
0 days 00:00:45.410000,0.612305,0.668945,-0.186768,-107.406609,-23.574827,15.220641,0.925898002953889
0 days 00:00:45.420000,0.653809,0.650391,-0.224121,-111.701958,-20.980833,16.326904,0.9490547318268847
0 days 00:00:45.430000,0.640625,0.616211,-0.298584,-116.378777,-20.88928,18.562317,0.9376933359057213
0 days 00:00:45.440000,0.606201,0.568848,-0.412842,-120.559685,-29.327391,21.743773,0.9281735917752669
0 days 00:00:45.450000,0.585693,0.505127,-0.55957,-121.360771,-43.05267,24.719236,0.9546246179928528
0 days 00:00:45.460000,0.582275,0.462402,-0.697021,-118.22509,-54.458614,22.766111,1.0191653740536912
0 days 00:00:45.470000,0.796875,1.023926,-0.928711,-69.68689,17.601013,-10.742187,1.5955996805658992
0 days 00:00:45.480000,0.697021,0.462646,-0.77417,-107.604973,-43.525692,6.866455,1.1398327880250683
0 days 00:00:45.490000,0.804932,0.392334,-0.678467,-99.182121,-18.02063,8.651733,1.1234584826636898
0 days 00:00:45.500000,0.873779,0.302246,-0.495605,-88.386528,-0.709534,6.759643,1.0490313157298976
0 days 00:00:45.510000,0.923584,0.282715,-0.311279,-78.865051,-2.197266,5.714416,1.0148052976418678
0 days 00:00:45.520000,0.614746,0.464844,-0.770508,-113.418571,-56.823727,13.72528,1.0898051050146536
0 days 00:00:45.530000,0.951172,0.440186,-0.404297,-75.737,-11.978148,36.491394,1.1233645678892494
0 days 00:00:45.540000,1.007324,0.336914,-0.291748,-74.432373,-8.964539,21.598814,1.1015124056841121
0 days 00:00:45.550000,0.512939,1.062256,-0.479004,-44.746395,98.129265,-5.798339,1.273161050014098
0 days 00:00:45.560000,0.282227,0.977295,-0.491455,-29.58679,72.463989,0.228882,1.1297281148926939
0 days 00:00:45.570000,0.40332,0.776855,-0.625732,-16.433716,13.09204,16.777039,1.075969910940357
0 days 00:00:45.580000,0.258301,0.682617,-0.783691,-20.698545,-44.898983,32.333374,1.0709140762782978
0 days 00:00:45.590000,0.632568,0.974365,-0.732666,-65.734863,101.303093,33.920288,1.3734368916717652
0 days 00:00:45.600000,0.418945,0.394775,-0.997559,-48.622128,-110.847466,46.684261,1.1517318143261477
0 days 00:00:45.610000,0.422363,0.40332,-1.044434,-60.302731,-103.149406,50.422665,1.196620201452825
0 days 00:00:45.620000,0.475586,0.438965,-0.903809,-67.863464,-68.626404,45.532223,1.1116397901757564
0 days 00:00:45.630000,0.669678,0.452637,-0.655029,-74.981689,-28.137205,39.375305,1.0403902480771337
0 days 00:00:45.640000,0.363525,0.533447,-0.885498,-32.272339,-88.35601,40.06958,1.09582062192587
0 days 00:00:45.650000,0.403076,-0.799316,-0.021484,8.880615,-18.081665,16.494751,0.8954540143904656
0 days 00:00:45.660000,0.437744,-0.806396,0.005127,8.155823,0.205994,11.436461,0.9175623164019978
0 days 00:00:45.670000,0.475586,-0.824463,0.029541,8.102417,23.262022,5.256652,0.9522572931965394
0 days 00:00:45.680000,0.517578,-0.841064,0.061279,7.751464,47.790524,-0.602722,0.9894598294124931
0 days 00:00:45.690000,0.541992,-0.862793,0.090088,6.54602,68.527222,-5.607605,1.0228797273663215
0 days 00:00:45.700000,0.545898,-0.886719,0.102783,4.745483,81.764214,-9.857178,1.04634581112269
0 days 00:00:45.710000,0.552979,-0.902832,0.108398,2.13623,86.265556,-11.932372,1.0642563230110498
0 days 00:00:45.720000,0.566406,-0.919189,0.104736,-0.411987,85.021965,-11.436461,1.0847551817129062
0 days 00:00:45.730000,0.587646,-0.943359,0.088867,-1.617432,83.152763,-11.215209,1.1149669806258837
0 days 00:00:45.740000,0.613525,-0.95752,0.067871,-2.105713,83.923332,-11.863708,1.1392383195214248
0 days 00:00:45.750000,0.063232,-1.192871,-0.234619,20.278929,94.520561,70.251465,1.2173683023744293
0 days 00:00:45.760000,0.449463,-0.931396,0.011719,-5.050659,75.065613,1.754761,1.034240219748778
0 days 00:00:45.770000,0.319824,-0.947998,-0.0271,-6.690979,57.456966,10.459899,1.0008606341444346
0 days 00:00:45.780000,0.214844,-0.987793,-0.070557,-6.408691,38.841248,17.074585,1.0133465574195237
0 days 00:00:45.790000,0.15918,-1.021729,-0.102051,-3.585815,21.408079,21.553038,1.0390778740989532
0 days 00:00:45.800000,0.123779,-1.054443,-0.13501,0.328064,11.154174,22.65167,1.0702331433804506
0 days 00:00:45.810000,0.086426,-1.088867,-0.195557,3.059387,14.86206,23.674009,1.109659108651842
0 days 00:00:45.820000,0.05957,-1.141602,-0.247559,4.730225,31.135557,29.342649,1.169653440034697
0 days 00:00:45.830000,-0.010254,-1.227783,-0.302979,8.712769,54.252621,36.590576,1.2646550968726613
0 days 00:00:45.840000,-0.085449,-1.308594,-0.342529,15.48767,76.271057,42.396542,1.3553766650927705
0 days 00:00:45.850000,-0.070557,-1.292969,-0.298096,20.805357,89.820854,50.392147,1.328761961536377
0 days 00:00:45.860000,0.37793,-0.802979,-0.045654,9.979248,-30.685423,20.439146,0.8886454000651779
0 days 00:00:45.870000,0.570801,-0.947021,0.044189,-3.295898,84.045403,-7.881164,1.1066233432216221
0 days 00:00:45.880000,0.358398,-0.811035,-0.063965,10.437011,-38.444519,23.979185,0.8889985482856538
0 days 00:00:45.890000,0.246582,-1.021729,-0.050781,9.063721,-6.187438,-28.96118,1.0522887161449561
0 days 00:00:45.900000,0.342529,-0.854248,-0.107422,10.841369,-44.174191,27.877806,0.9266095442142823
0 days 00:00:45.910000,0.328125,-1.120605,-0.218262,13.46588,96.122734,106.582634,1.1878804158222325
0 days 00:00:45.920000,0.250488,-1.032959,-0.032959,9.025574,-25.436399,-90.843193,1.0634071795441293
0 days 00:00:45.930000,0.247314,-1.035156,-0.024414,9.124756,-27.175901,-90.75927,1.0645694915448216
0 days 00:00:45.940000,0.248535,-1.03418,-0.017822,9.178162,-28.068541,-89.614861,1.0637741970498251
0 days 00:00:45.950000,0.256348,-1.032471,-0.013428,9.19342,-27.122496,-87.295525,1.0639036488935452
0 days 00:00:45.960000,0.266113,-1.031494,-0.008789,9.117126,-23.834227,-84.014885,1.065304297994709
0 days 00:00:45.970000,0.263428,-1.025635,-0.007324,9.025574,-18.920898,-79.933167,1.0589500013621984
0 days 00:00:45.980000,0.256348,-1.021484,-0.009277,8.872986,-13.771056,-74.653625,1.0531998490737644
0 days 00:00:45.990000,0.245117,-1.019775,-0.011475,8.865356,-9.963989,-68.260193,1.048882772257701
0 days 00:00:46,0.233887,-1.022949,-0.01123,8.911133,-7.919311,-60.989376,1.0494064504614027
0 days 00:00:46.010000,0.351318,-0.830566,-0.087646,10.69641,-42.503353,26.657103,0.9060607257772517
0 days 00:00:46.020000,0.231201,-1.028809,-0.018555,8.720398,-7.4234,-53.245541,1.0546308116620717
0 days 00:00:46.030000,0.237061,-1.02832,-0.038818,8.865356,-7.324218,-37.155151,1.0560051028498867
0 days 00:00:46.040000,0.256104,-1.007324,-0.065674,9.246826,-4.501343,-20.76721,1.0414432169196746
0 days 00:00:46.050000,0.261475,-0.991211,-0.082275,9.45282,-3.730774,-12.786864,1.0284150902096876
0 days 00:00:46.060000,0.259277,-0.976807,-0.094482,9.635925,-5.676269,-4.989624,1.0150385836518727
0 days 00:00:46.070000,0.260498,-0.960449,-0.098877,9.628296,-10.864257,2.685547,1.0000490741628634
0 days 00:00:46.080000,0.265381,-0.949463,-0.106934,9.628296,-18.539429,9.750366,0.9916359936418201
0 days 00:00:46.090000,0.27832,-0.936035,-0.115234,9.69696,-27.214048,15.968322,0.9833119639163351
0 days 00:00:46.100000,0.29126,-0.914795,-0.123291,9.727478,-34.90448,21.52252,0.9679271410111404
0 days 00:00:46.110000,0.312256,-0.89624,-0.123291,9.933472,-40.641781,25.436399,0.9570530903857947
0 days 00:00:46.120000,0.32959,-0.875977,-0.118652,10.44464,-43.701168,27.503965,0.9434212048353589
0 days 00:00:46.130000,0.22998,-1.028809,-0.025879,8.705139,-7.492065,-45.288082,1.0545181276402982
0 days 00:00:46.140000,0.609131,-1.190918,-0.267822,8.979797,101.997368,156.929016,1.3642048532273297
0 days 00:00:46.150000,0.255859,-1.02832,-0.044434,8.850098,-24.017332,-90.179436,1.0606037104578694
0 days 00:00:46.160000,0.851807,-1.545166,-0.316895,20.004272,122.467033,247.192368,1.7926336976164428
0 days 00:00:46.170000,0.791016,-0.174561,-0.399658,33.325195,111.381523,146.232605,0.9032742506797147
0 days 00:00:46.180000,0.64917,-0.120117,-0.419922,34.011841,91.651909,145.225525,0.7824220527777831
0 days 00:00:46.190000,0.653076,-0.098877,-0.431396,33.317566,66.070557,141.143799,0.7889153514294166
0 days 00:00:46.200000,0.713623,-0.100342,-0.452881,31.768797,44.30389,138.320923,0.851133070238726
0 days 00:00:46.210000,0.785889,-0.099609,-0.497559,30.204771,28.839109,139.862061,0.935472304070516
0 days 00:00:46.220000,0.862549,-0.083008,-0.553711,29.20532,23.368834,142.974854,1.0283369958267572
0 days 00:00:46.230000,0.901855,-0.069824,-0.602783,30.479429,31.074522,145.080566,1.0869982415303163
0 days 00:00:46.240000,0.959961,-0.051025,-0.625488,32.814026,51.925655,144.935608,1.146893155568556
0 days 00:00:46.250000,0.986816,-0.039551,-0.628906,34.088135,85.731499,145.271301,1.170851338254776
0 days 00:00:46.260000,0.95459,-0.072021,-0.618896,36.575317,120.132439,145.645142,1.1399391875696703
0 days 00:00:46.270000,0.9646,-0.220947,-0.382568,32.615662,109.497063,144.584656,1.0609566491770528
0 days 00:00:46.280000,0.802002,-0.079346,-0.582764,40.512081,135.696411,144.477844,0.9945435512917471
0 days 00:00:46.290000,0.582275,0.042725,-0.58374,45.928951,107.299797,142.723083,0.8256040145554042
0 days 00:00:46.300000,0.577637,0.061768,-0.577148,46.600338,91.651909,137.886047,0.8188892498360202
0 days 00:00:46.310000,0.587158,0.06958,-0.55127,46.234127,80.703728,132.217407,0.808390070611954
0 days 00:00:46.320000,0.62085,0.095215,-0.528809,44.219967,70.831299,127.120964,0.8210722119314475
0 days 00:00:46.330000,0.638428,0.130371,-0.525879,40.90881,63.171383,122.169487,0.8373384211094103
0 days 00:00:46.340000,0.621094,0.166504,-0.525635,36.315918,57.586666,116.989128,0.8305260333529588
0 days 00:00:46.350000,0.56543,0.167236,-0.528809,30.532835,52.993771,111.907951,0.7920340416150053
0 days 00:00:46.360000,0.501953,0.130615,-0.541992,25.924681,47.851559,106.613152,0.7501815916816408
0 days 00:00:46.370000,0.427979,0.111084,-0.545898,22.811888,42.015072,99.914543,0.7025028867563463
0 days 00:00:46.380000,0.372559,0.128662,-0.558105,20.866392,37.765503,91.438286,0.6832534740123901
0 days 00:00:46.390000,0.634033,-0.02417,-0.575928,44.265743,127.197258,143.981934,0.856898532600564
0 days 00:00:46.400000,1.022461,-0.235596,-0.375977,31.799314,81.108086,145.088196,1.1145809419983819
0 days 00:00:46.410000,0.794189,-1.360596,-0.324707,12.351989,111.053459,212.76091,1.6085373103493743
0 days 00:00:46.420000,0.823242,-0.224121,-0.377686,30.937193,10.375976,153.35083,0.9330618027767507
0 days 00:00:46.430000,0.944824,-0.224365,-0.380127,31.028746,42.79327,148.68927,1.0428463838600581
0 days 00:00:46.440000,0.828369,-1.707764,-0.280029,29.800413,134.979248,249.992355,1.918611300054808
0 days 00:00:46.450000,0.775146,-1.83374,-0.251709,41.168209,143.135071,249.992355,2.0066915880615532
0 days 00:00:46.460000,0.687988,-1.878906,-0.23584,53.909298,142.356873,249.992355,2.014754513726176
0 days 00:00:46.470000,0.590576,-1.840332,-0.210693,68.458557,131.698608,249.992355,1.944220517906598
0 days 00:00:46.480000,0.511475,-1.730957,-0.17749,80.902092,114.311211,249.992355,1.8136486736890363
0 days 00:00:46.490000,0.460449,-1.589844,-0.149414,88.813774,97.000114,249.992355,1.661909073726057
0 days 00:00:46.500000,0.38916,-1.331543,-0.108154,100.387566,72.45636,249.992355,1.3914559116856702
0 days 00:00:46.510000,0.348389,-1.194824,-0.087646,103.576653,62.637325,249.992355,1.2476622570283196
0 days 00:00:46.520000,0.308838,-1.049316,-0.073975,103.424065,52.238461,249.992355,1.0963198797454143
0 days 00:00:46.530000,0.292236,-0.912354,-0.059814,100.440971,41.191097,249.778732,0.9598798964495506
0 days 00:00:46.540000,0.427002,-1.459229,-0.133545,94.894402,83.168022,249.992355,1.5262746310772517
0 days 00:00:46.550000,0.318848,-0.709717,-0.049316,89.431755,22.28546,249.992355,0.779611656563061
0 days 00:00:46.560000,0.352783,-0.63208,-0.058105,82.679741,16.609192,238.288864,0.7261936122784336
0 days 00:00:46.570000,0.375244,-0.548584,-0.075684,74.432373,10.169982,223.34288,0.6689398571231946
0 days 00:00:46.580000,0.729004,-0.246582,-0.352051,32.478333,-8.155823,158.859253,0.8462797535927467
0 days 00:00:46.590000,0.380615,-0.462891,-0.099365,64.849854,2.319336,213.14238,0.6074613233210819
0 days 00:00:46.600000,0.367432,-0.401855,-0.130371,56.602474,-6.683349,208.290085,0.5599020568724498
0 days 00:00:46.610000,0.36792,-0.354248,-0.174805,50.056454,-18.638611,199.233994,0.5398273427022755
0 days 00:00:46.620000,0.398682,-0.3125,-0.210205,42.938229,-25.215147,185.150131,0.5484430044671916
0 days 00:00:46.630000,0.505127,-0.285645,-0.26709,37.010193,-23.071287,173.362717,0.6388140733061538
0 days 00:00:46.640000,0.632324,-0.270264,-0.317139,33.958435,-17.303467,165.039047,0.7572670704533507
0 days 00:00:46.650000,0.297852,-0.801514,-0.050781,95.520012,30.502317,249.992355,0.8565741159181731
0 days 00:00:46.660000,0.341064,-0.957764,-0.093994,-1.167297,-1.976013,14.205932,1.0210148891313975
0 days 00:00:46.670000,0.341064,-0.944824,-0.096191,-2.052307,-4.318237,13.801574,1.0090935296358807
0 days 00:00:46.680000,0.336426,-0.938232,-0.092529,-2.838135,-5.676269,13.290404,1.0010111663418144
0 days 00:00:46.690000,0.328369,-0.930664,-0.093018,-5.439758,-10.505675,8.44574,0.9912688986248888
0 days 00:00:46.700000,0.335205,-0.929932,-0.09082,-3.852844,-6.523132,11.642455,0.9926651948411408
0 days 00:00:46.710000,0.33252,-0.927979,-0.092041,-4.40979,-7.484436,10.673522,0.9900434942577018
0 days 00:00:46.720000,0.329346,-0.926758,-0.095215,-4.905701,-8.888245,9.552002,0.9881371739313322
0 days 00:00:46.730000,0.335449,-0.969482,-0.087402,-0.320435,1.106262,14.533996,1.029592389991787
0 days 00:00:46.740000,0.336914,-0.935547,-0.093018,-3.40271,-6.126403,12.504577,0.998704951889696
0 days 00:00:46.750000,0.326904,-0.980957,-0.081299,0.526428,3.608703,15.350341,1.0371848381392779
0 days 00:00:46.760000,0.277832,-0.97583,-0.058594,6.866455,-11.543273,39.108276,1.016301168925826
0 days 00:00:46.770000,0.296143,-0.981445,-0.073242,1.083374,3.14331,17.578125,1.0277642507102491
0 days 00:00:46.780000,0.293213,-0.977783,-0.071045,1.029968,1.022339,19.073486,1.0232696860959969
0 days 00:00:46.790000,0.296631,-0.979248,-0.077881,1.304626,-0.724792,21.240232,1.026149134300663
0 days 00:00:46.800000,0.303711,-0.985596,-0.080566,1.88446,-1.76239,23.429869,1.0344712306743964
0 days 00:00:46.810000,0.311035,-0.98999,-0.077637,2.777099,-1.823425,25.672911,1.0406010162853006
0 days 00:00:46.820000,0.309082,-0.992188,-0.069336,3.631592,-1.594543,28.259275,1.041525895484121
0 days 00:00:46.830000,0.298096,-0.993408,-0.061523,4.425049,-2.502441,31.112669,1.0389926656184825
0 days 00:00:46.840000,0.281006,-0.990723,-0.054932,5.325317,-5.256652,33.309937,1.0312681316655723
0 days 00:00:46.850000,0.273926,-0.984131,-0.050781,5.775451,-7.881164,34.988403,1.0228039834679956
0 days 00:00:46.860000,0.278564,-0.979492,-0.054443,6.233215,-9.712219,37.010193,1.0197874878664672
0 days 00:00:46.870000,0.324463,-0.928223,-0.091064,-6.17218,-12.069701,7.225036,0.9875053560330699
0 days 00:00:46.880000,0.311768,-0.982178,-0.073975,0.915527,4.318237,16.50238,1.0331240052060546
0 days 00:00:46.890000,0.319336,-0.928955,-0.084961,-6.744384,-12.947082,5.844116,0.9859773042225668
0 days 00:00:46.900000,0.261963,-0.932861,-0.045898,-7.255554,-17.150879,-17.372131,0.9700313835613774
0 days 00:00:46.910000,0.319824,-0.933838,-0.078369,-7.5531,-13.671874,2.426147,0.9901931636711091
0 days 00:00:46.920000,0.230957,-0.963379,-0.055664,-7.057189,-4.776001,-28.32794,0.9922392425146266
0 days 00:00:46.930000,0.27124,-0.9729,-0.055908,7.43103,-14.213561,40.985104,1.0115489370584103
0 days 00:00:46.940000,0.239746,-0.967529,-0.049316,-6.912231,-7.080078,-28.930662,0.9980093076785407
0 days 00:00:46.950000,0.242188,-0.960938,-0.051025,-6.843566,-8.293152,-28.984068,0.9923005682821107
0 days 00:00:46.960000,0.244629,-0.956299,-0.051514,-6.866455,-9.643555,-28.892515,0.9884355402543961
0 days 00:00:46.970000,0.246582,-0.952148,-0.050293,-6.843566,-10.887145,-28.511045,0.984844090441223
0 days 00:00:46.980000,0.246582,-0.946777,-0.04834,-6.774902,-11.96289,-27.992247,0.9795540444778941
0 days 00:00:46.990000,0.250488,-0.939453,-0.047852,-6.790161,-12.474059,-27.397154,0.9734505592257883
0 days 00:00:47,0.258057,-0.935791,-0.04834,-6.820678,-12.374877,-26.664732,0.9719233336688651
0 days 00:00:47.010000,0.265625,-0.931152,-0.047119,-7.003784,-12.191772,-25.596617,0.9694435970648319
0 days 00:00:47.020000,0.264648,-0.927734,-0.043945,-6.980896,-12.626647,-24.063108,0.9657432897437082
0 days 00:00:47.030000,0.256836,-0.925049,-0.044434,-7.095336,-13.824462,-22.163389,0.9610695935534533
0 days 00:00:47.040000,0.25,-0.924316,-0.04248,-7.278442,-15.502929,-20.149229,0.958469936020948
0 days 00:00:47.050000,0.249268,-0.931396,-0.046143,-7.217407,-16.792297,-18.585205,0.9652783127621795
0 days 00:00:47.060000,0.276123,-0.933594,-0.046143,-7.461547,-16.265869,-15.678405,0.9746644778661013
0 days 00:00:47.070000,0.2854,-0.938721,-0.042969,-7.873535,-15.289306,-13.458251,0.9820878834411918
0 days 00:00:47.080000,0.287109,-0.94458,-0.042725,-8.125305,-15.129088,-11.222838,0.9881742659602101
0 days 00:00:47.090000,0.289551,-0.949463,-0.046875,-8.377075,-15.48767,-9.155273,0.9937389172187029
0 days 00:00:47.100000,0.295166,-0.94873,-0.049805,-8.384705,-15.846251,-7.278442,0.9948327087912822
0 days 00:00:47.110000,0.300781,-0.948242,-0.056396,-8.506775,-15.678405,-5.317688,0.9963998240370178
0 days 00:00:47.120000,0.309082,-0.948975,-0.063477,-8.331299,-15.289306,-3.356933,1.0000572797985123
0 days 00:00:47.130000,0.315186,-0.947754,-0.068115,-8.163452,-14.877318,-1.350403,1.0011091410715416
0 days 00:00:47.140000,0.317383,-0.942627,-0.073975,-7.865905,-14.297484,0.473022,0.9973715107436146
0 days 00:00:47.150000,0.322021,-0.930176,-0.08374,-7.293701,-13.252257,4.188538,0.9878953907256578
0 days 00:00:47.160000,0.234375,-0.965332,-0.050537,-7.04956,-5.973815,-28.694151,0.9946614998168974
0 days 00:00:47.170000,0.267822,-0.968018,-0.053223,7.858276,-17.532349,42.724606,1.005793298713508
0 days 00:00:47.180000,0.265137,-0.954346,-0.056152,8.56781,-24.703978,46.432491,0.9920821355054228
0 days 00:00:47.190000,0.233154,-0.941895,-0.043701,16.075134,-39.878845,-18.302917,0.9713067260870791
0 days 00:00:47.200000,0.236328,-0.943848,-0.044434,15.708922,-38.665771,-21.01898,0.9739991535129792
0 days 00:00:47.210000,0.241943,-0.947754,-0.041992,15.296935,-37.162781,-23.689268,0.9790492264585066
0 days 00:00:47.220000,0.247803,-0.952393,-0.039795,14.793395,-35.316467,-26.771544,0.9849073028884496
0 days 00:00:47.230000,0.249512,-0.953857,-0.039063,14.373778,-33.454895,-30.136106,0.9867245474609416
0 days 00:00:47.240000,0.247314,-0.94751,-0.035645,13.778686,-31.845091,-33.714294,0.9799030465923656
0 days 00:00:47.250000,0.248535,-0.946777,-0.0354,13.252257,-29.876707,-37.536621,0.9794945094047235
0 days 00:00:47.260000,0.249756,-0.944824,-0.031006,12.725829,-27.732847,-41.557308,0.9777687981051553
0 days 00:00:47.270000,0.246582,-0.942139,-0.031494,12.069701,-25.444029,-45.661922,0.9743820862890491
0 days 00:00:47.280000,0.250488,-0.9375,-0.032959,10.57434,-20.88928,-53.779598,0.9709463341632224
0 days 00:00:47.290000,0.231445,-0.941895,-0.048096,16.441345,-40.740963,-15.785216,0.9711056607115418
0 days 00:00:47.300000,0.254883,-0.936523,-0.037109,9.803772,-18.966675,-57.678219,0.9712969428032809
0 days 00:00:47.310000,0.257568,-0.942139,-0.04834,8.392334,-16.685486,-64.964294,0.9779079330616967
0 days 00:00:47.320000,0.259766,-0.953369,-0.054688,7.93457,-16.50238,-68.557739,0.9896371063480796
0 days 00:00:47.330000,0.262451,-0.964355,-0.058838,7.659912,-16.960144,-71.968079,1.0011608280740911
0 days 00:00:47.340000,0.262939,-0.978027,-0.061523,7.591247,-17.967224,-75.431824,1.0146224962906154
0 days 00:00:47.350000,0.262451,-0.990967,-0.0625,7.637023,-19.248962,-78.666687,1.0270357211363195
0 days 00:00:47.360000,0.263672,-0.998291,-0.061279,7.667541,-20.606993,-81.68029,1.034341800424792
0 days 00:00:47.370000,0.262451,-1.006348,-0.061035,7.850646,-21.820066,-84.480278,1.0417975310634982
0 days 00:00:47.380000,0.261719,-1.013672,-0.057373,8.163452,-22.476194,-86.830132,1.0484843440290368
0 days 00:00:47.390000,0.260498,-1.022949,-0.048584,8.621216,-23.017881,-88.752739,1.056713901517814
0 days 00:00:47.400000,0.265869,-0.960449,-0.054932,8.155823,-21.156309,44.631954,0.9980812248439502
0 days 00:00:47.410000,0.25708,-0.937256,-0.039307,9.056091,-17.547607,-61.416622,0.9726684821587466
0 days 00:00:47.420000,0.232178,-0.945557,-0.049316,16.952515,-41.290279,-13.549804,0.9748931899387748
0 days 00:00:47.430000,0.247803,-0.938477,-0.030518,11.337279,-23.017881,-49.758907,0.9711213902813592
0 days 00:00:47.440000,0.232422,-0.954102,-0.049072,17.585754,-42.091366,-8.804321,0.9832286985600044
0 days 00:00:47.450000,0.232178,-0.950439,-0.050293,17.349243,-41.755672,-11.344909,0.9796786729606806
0 days 00:00:47.460000,0.26709,-0.950439,-0.060059,10.246276,-30.616758,48.858639,0.9890795945231102
0 days 00:00:47.470000,0.263428,-0.94751,-0.05957,11.100768,-33.447266,49.606319,0.9852502708368062
0 days 00:00:47.480000,0.26416,-0.940918,-0.056885,11.672973,-36.521912,49.774166,0.9789499944067623
0 days 00:00:47.490000,0.27002,-0.937012,-0.057373,12.046813,-39.1922,49.636837,0.9768285160011454
0 days 00:00:47.500000,0.274414,-0.935547,-0.054932,12.298583,-41.175838,49.21722,0.976508452205612
0 days 00:00:47.510000,0.278809,-0.936768,-0.054199,12.634276,-42.724606,47.996517,0.9788801131425646
0 days 00:00:47.520000,0.283203,-0.934814,-0.057861,12.977599,-43.67828,45.623775,0.9784830346643727
0 days 00:00:47.530000,0.28833,-0.931885,-0.059326,13.389586,-43.579098,42.480465,0.977273460399391
0 days 00:00:47.540000,0.29126,-0.936768,-0.061768,13.771056,-42.144772,38.970947,0.982945552534829
0 days 00:00:47.550000,0.293213,-0.949951,-0.057373,14.411925,-39.588928,34.751892,0.9958275086072889
0 days 00:00:47.560000,0.268311,-0.949707,-0.060547,9.315491,-27.793882,47.790524,0.9887366271050143
0 days 00:00:47.570000,0.286133,-0.971924,-0.040771,14.717101,-34.744263,25.222776,1.0139874900145465
0 days 00:00:47.580000,0.294678,-0.964844,-0.04834,14.778136,-36.628723,30.006407,1.0099979324830324
0 days 00:00:47.590000,0.234375,-0.962891,-0.054688,17.440796,-42.221066,-3.723144,0.9925127182308547
0 days 00:00:47.600000,0.235352,-0.967041,-0.056396,17.112732,-41.831966,-0.839233,0.9968647693649325
0 days 00:00:47.610000,0.239014,-0.968506,-0.058105,16.616821,-41.297909,2.304077,0.9992535990713268
0 days 00:00:47.620000,0.240479,-0.969727,-0.056885,16.021729,-40.39764,5.485534,1.000717995838488
0 days 00:00:47.630000,0.234375,-0.958496,-0.054688,17.692566,-42.320248,-6.393432,0.9882494624258593
0 days 00:00:47.640000,0.250488,-0.974609,-0.054443,14.663695,-37.414551,12.413024,1.0077554173875722
0 days 00:00:47.650000,0.258301,-0.972168,-0.047119,14.411925,-35.751343,16.273499,1.0070006092282169
0 days 00:00:47.660000,0.271484,-0.97168,-0.040771,14.35852,-34.538269,20.599363,1.0097167222033119
0 days 00:00:47.670000,0.245605,-0.972412,-0.054199,15.266418,-39.0625,8.895874,1.0044124876613194
0 days 00:00:47.680000,0.266602,-0.912598,-0.156982,-11.230468,10.017395,6.446838,0.963615631012698
0 days 00:00:47.690000,0.305664,-0.9104,-0.168213,-9.117126,8.926392,7.17926,0.9749637194608833
0 days 00:00:47.700000,0.302246,-0.912842,-0.166504,-9.048462,10.490417,7.591247,0.9758876695071006
0 days 00:00:47.710000,0.296631,-0.911621,-0.164063,-9.498596,11.32965,7.621765,0.9726044755043028
0 days 00:00:47.720000,0.29126,-0.904785,-0.164551,-10.650634,11.634826,7.5531,0.9646477675431587
0 days 00:00:47.730000,0.287598,-0.906494,-0.161621,-11.344909,12.046813,7.514953,0.964658141146904
0 days 00:00:47.740000,0.285645,-0.912842,-0.155273,-11.215209,12.290954,7.575988,0.969011500199043
0 days 00:00:47.750000,0.304443,-0.912354,-0.167725,-9.078979,7.530212,6.523132,0.9763232237276751
0 days 00:00:47.760000,0.27832,-0.917725,-0.15332,-11.070251,12.092589,7.461547,0.971178778817268
0 days 00:00:47.770000,0.272461,-0.915771,-0.153809,-11.177062,11.230468,6.996154,0.9677441446182973
0 days 00:00:47.780000,0.263428,-0.910889,-0.169189,-10.726928,8.728027,5.699157,0.9631915693287602
0 days 00:00:47.790000,0.259033,-0.912354,-0.215088,-6.698608,-1.88446,3.623962,0.9724971795069639
0 days 00:00:47.800000,0.259766,-0.913818,-0.183105,-8.872986,5.210876,4.653931,0.9675066681449798
0 days 00:00:47.810000,0.254639,-0.913574,-0.194824,-7.713317,2.89154,4.165649,0.9682018719115348
0 days 00:00:47.820000,0.256104,-0.913818,-0.205322,-6.973266,0.358582,3.814697,0.9709838925667099
0 days 00:00:47.830000,0.265869,-0.908203,-0.220947,-6.759643,-3.448486,3.440857,0.9717698241759722
0 days 00:00:47.840000,0.276123,-0.90918,-0.22998,-7.186889,-4.333496,3.570556,0.977621084024378
0 days 00:00:47.850000,0.284912,-0.917236,-0.239258,-7.408142,-4.592896,3.799438,0.989818729871283
0 days 00:00:47.860000,0.290039,-0.926025,-0.244141,-7.064819,-4.470825,3.982544,1.0006246799010108
0 days 00:00:47.870000,0.293457,-0.935303,-0.245117,-6.584167,-4.806519,4.096985,1.0104410207166967
0 days 00:00:47.880000,0.295898,-0.945557,-0.238037,-5.805969,-5.355834,3.753662,1.018967752199254
0 days 00:00:47.890000,0.303223,-0.912354,-0.169678,-9.361267,6.42395,6.233215,0.976281021391382
0 days 00:00:47.900000,0.262695,-0.910889,-0.176758,-9.742737,7.194519,5.187988,0.9643499488826657
0 days 00:00:47.910000,0.301758,-0.913086,-0.170654,-9.933472,5.455017,6.286621,0.9766814842495991
0 days 00:00:47.920000,0.302979,-0.955811,-0.225586,-4.905701,-5.66101,3.219604,1.0277450975597013
0 days 00:00:47.930000,0.29126,-0.912109,-0.166748,-10.177611,4.615784,6.29425,0.9718951131603657
0 days 00:00:47.940000,0.286621,-0.938232,-0.177002,6.225585,12.306212,9.597778,0.9968754142163403
0 days 00:00:47.950000,0.282959,-0.939697,-0.17627,5.859375,13.236999,9.712219,0.9970794152874685
0 days 00:00:47.960000,0.280273,-0.941895,-0.174316,6.469726,13.664245,10.406493,0.9980507068330747
0 days 00:00:47.970000,0.286377,-0.93457,-0.177002,6.202697,14.808654,10.978698,0.9933592396676039
0 days 00:00:47.980000,0.289551,-0.93457,-0.176025,5.531311,17.066956,10.780334,0.9941054607666131
0 days 00:00:47.990000,0.283691,-0.935791,-0.170898,5.958557,18.356323,10.81848,0.9926688801236796
0 days 00:00:48,0.280273,-0.933838,-0.168701,5.691528,18.722534,10.536193,0.989477838141916
0 days 00:00:48.010000,0.272705,-0.936768,-0.164063,5.653381,18.173218,10.208129,0.989352804017859
0 days 00:00:48.020000,0.269531,-0.929932,-0.164795,5.332946,16.76178,9.880066,0.9821292565696228
0 days 00:00:48.030000,0.269531,-0.924072,-0.167969,4.173279,15.792846,9.559631,0.9771231274030925
0 days 00:00:48.040000,0.297607,-0.913574,-0.169922,-10.337829,4.684448,6.286621,0.9757360637021674
0 days 00:00:48.050000,0.269043,-0.927734,-0.163818,4.15802,15.975951,9.20105,0.9797504007291856
0 days 00:00:48.060000,0.251221,-0.912109,-0.156006,4.005432,15.548705,8.81958,0.9588496705730257
0 days 00:00:48.070000,0.243408,-0.909424,-0.152344,3.944397,13.496398,9.101868,0.9536813726690903
0 days 00:00:48.080000,0.238525,-0.909912,-0.1521,3.570556,10.162353,8.850098,0.9528737761996602
0 days 00:00:48.090000,0.240479,-0.911865,-0.152588,3.204345,6.256103,8.491516,0.9553067703151694
0 days 00:00:48.100000,0.253906,-0.902344,-0.164551,0.846863,4.333496,8.94928,0.9517194874399705
0 days 00:00:48.110000,0.272217,-0.902344,-0.169678,-1.525879,4.943848,9.19342,0.9576624734785216
0 days 00:00:48.120000,0.282715,-0.911621,-0.167236,-2.26593,6.309509,8.674622,0.9689935492881261
0 days 00:00:48.130000,0.281982,-0.922363,-0.164795,-2.662658,6.790161,7.965087,0.9784808348240654
0 days 00:00:48.140000,0.284668,-0.921875,-0.162598,-5.310058,6.126403,7.148742,0.9784311398626885
0 days 00:00:48.150000,0.286133,-0.916016,-0.163574,-8.659363,5.271911,6.629943,0.9735059627043895
0 days 00:00:48.160000,0.265137,-0.923828,-0.160645,4.760742,16.220093,8.857727,0.9744550366117464
0 days 00:00:48.170000,0.308838,-0.960693,-0.212891,-4.417419,-5.401611,2.563476,1.031326586670779
0 days 00:00:48.180000,0.283203,-0.938232,-0.175293,6.774902,10.520934,9.521484,0.9955957316511557
0 days 00:00:48.190000,0.299805,-0.960693,-0.198486,-4.333496,-5.332946,1.159668,1.0257732549009064
0 days 00:00:48.200000,0.231445,-0.92749,-0.078369,2.922058,-1.838684,-6.965637,0.9591382529573097
0 days 00:00:48.210000,0.22998,-0.930664,-0.078369,2.510071,-0.740051,-8.94928,0.9618565285202363
0 days 00:00:48.220000,0.22583,-0.931396,-0.077637,2.14386,-0.862122,-11.001586,0.9615223354062036
0 days 00:00:48.230000,0.220459,-0.936768,-0.070801,1.853943,-2.449036,-12.916564,0.9649607443341932
0 days 00:00:48.240000,0.218994,-0.943359,-0.070801,1.609802,-4.928589,-14.755248,0.9710290194005532
0 days 00:00:48.250000,0.220215,-0.94165,-0.071045,0.976562,-7.293701,-16.433716,0.9696632202728945
0 days 00:00:48.260000,0.216309,-0.939697,-0.069092,0.50354,-8.81958,-18.005371,0.9667438852943421
0 days 00:00:48.270000,0.219727,-0.943115,-0.068604,-0.137329,-9.33075,-19.821167,0.970799859172837
0 days 00:00:48.280000,0.223145,-0.945068,-0.065674,-0.770569,-9.19342,-21.629332,0.9732729781130266
0 days 00:00:48.290000,0.22583,-0.947266,-0.064697,-1.342773,-8.644104,-23.277281,0.9759599200095258
0 days 00:00:48.300000,0.226563,-0.929199,-0.081543,3.280639,-2.914428,-4.920959,0.9598910539321637
0 days 00:00:48.310000,0.225586,-0.947998,-0.061279,-1.945495,-8.125305,-24.635313,0.976393551413056
0 days 00:00:48.320000,0.240234,-0.940186,-0.053955,-3.448486,-4.325867,-26.214598,0.971891573879
0 days 00:00:48.330000,0.25,-0.944092,-0.05542,-4.112244,0.12207,-27.000425,0.9782029855116984
0 days 00:00:48.340000,0.249268,-0.945313,-0.053711,-4.53186,4.592896,-27.732847,0.9790996248155751
0 days 00:00:48.350000,0.244141,-0.942871,-0.049072,-5.027771,7.354736,-28.045652,0.9752018312667383
0 days 00:00:48.360000,0.239014,-0.947021,-0.04541,-5.638122,7.843017,-27.8244,0.977772230500028
0 days 00:00:48.370000,0.233887,-0.952881,-0.047852,-6.126403,6.507873,-27.633665,0.9823314831735771
0 days 00:00:48.380000,0.226318,-0.954834,-0.052246,-6.42395,4.203796,-27.610777,0.9826787110729528
0 days 00:00:48.390000,0.222412,-0.955811,-0.056885,-6.690979,1.495361,-27.603148,0.9829942363462768
0 days 00:00:48.400000,0.224121,-0.958252,-0.055908,-6.965637,-1.045227,-27.725218,0.9856991542093357
0 days 00:00:48.410000,0.228516,-0.961426,-0.055176,-6.996154,-3.219604,-28.030394,0.9897494161190498
0 days 00:00:48.420000,0.22998,-0.944092,-0.053223,-2.700805,-7.011413,-25.581358,0.9731563042970025
0 days 00:00:48.430000,0.22583,-0.931885,-0.086182,3.532409,-3.27301,-2.792358,0.9627233139635707
0 days 00:00:48.440000,0.303223,-0.960938,-0.205811,-4.310608,-5.111694,1.914978,1.0284474684173228
0 days 00:00:48.450000,0.228516,-0.94458,-0.095215,4.241943,-1.800537,1.487732,0.9764818661301397
0 days 00:00:48.460000,0.286377,-0.957275,-0.193848,-4.348755,-6.187438,-0.083923,1.01782329451531
0 days 00:00:48.470000,0.272217,-0.951904,-0.186768,-4.371643,-7.545471,-1.594543,1.0075244940590775
0 days 00:00:48.480000,0.273438,-0.947998,-0.181641,-4.554749,-8.18634,-2.922058,1.0032257974798096
0 days 00:00:48.490000,0.280029,-0.945313,-0.185547,-4.951477,-7.93457,-3.959656,1.0032250983797206
0 days 00:00:48.500000,0.287842,-0.939209,-0.189209,-5.844116,-6.820678,-4.623413,1.0003832307301037
0 days 00:00:48.510000,0.292236,-0.932373,-0.193848,-7.369995,-4.905701,-5.386352,0.9961417258246941
0 days 00:00:48.520000,0.32666,-0.924316,-0.206543,-9.796143,1.373291,-4.905701,1.0018616842184354
0 days 00:00:48.530000,0.349854,-0.922852,-0.217041,-10.604857,6.988525,-3.730774,1.010524829433201
0 days 00:00:48.540000,0.368164,-0.932861,-0.226318,-10.002136,13.290404,-2.159119,1.0281022387588699
0 days 00:00:48.550000,0.375488,-0.941406,-0.229248,-8.522034,18.814087,-0.785828,1.0391299921010846
0 days 00:00:48.560000,0.304932,-0.928711,-0.19873,-8.621216,-2.510071,-5.455017,0.9974874731268557
0 days 00:00:48.570000,0.379639,-0.963867,-0.221924,-4.371643,29.479979,2.777099,1.059441185619098
0 days 00:00:48.580000,0.374756,-0.953125,-0.229492,-6.629943,23.933409,0.793457,1.0495503338215848
0 days 00:00:48.590000,0.200684,-0.97876,-0.120605,6.889343,10.56671,2.433777,1.0063750650135366
0 days 00:00:48.600000,0.259033,-0.979004,-0.13501,6.080627,27.404783,1.731872,1.0216528897844903
0 days 00:00:48.610000,0.30542,-0.955322,-0.155029,2.723694,33.233643,6.057739,1.0148672282249536
0 days 00:00:48.620000,0.321045,-0.96582,-0.166748,2.716064,31.35681,6.591796,1.0313501151059226
0 days 00:00:48.630000,0.207275,-0.963623,-0.117188,4.570007,0.061035,3.601074,0.9926052785966837
0 days 00:00:48.640000,0.32251,-0.994141,-0.186035,1.098633,29.342649,4.013062,1.06157338380632
0 days 00:00:48.650000,0.347656,-0.989746,-0.199219,-0.190735,33.332825,3.738403,1.0677780896857736
0 days 00:00:48.660000,0.373535,-0.977783,-0.210693,-2.02179,33.706665,3.799438,1.0676982399362658
0 days 00:00:48.670000,0.321533,-0.987061,-0.174561,2.166748,28.503416,4.882813,1.0526843926509977
0 days 00:00:48.680000,0.230225,-0.935547,-0.0896,3.753662,-2.792358,-0.694275,0.9676155744064892
0 days 00:00:48.690000,0.286865,-0.925293,-0.095215,4.66156,-3.959656,2.487183,0.9734087323930272
0 days 00:00:48.700000,0.28125,-0.952637,-0.079102,0.839233,-0.061035,1.373291,0.9964316046136834
0 days 00:00:48.710000,0.285156,-0.953613,-0.080078,1.068115,-2.02179,0.907898,0.9985510423553721
0 days 00:00:48.720000,0.287109,-0.954834,-0.080322,1.480102,-3.173828,0.587463,1.0002955408882916
0 days 00:00:48.730000,0.286865,-0.949463,-0.083008,2.166748,-3.639221,0.549316,0.9953199709932479
0 days 00:00:48.740000,0.286865,-0.938232,-0.084229,2.380371,-3.631592,0.518799,0.9847158668824221
0 days 00:00:48.750000,0.283691,-0.927002,-0.085205,2.937317,-3.372192,0.587463,0.9731768510964489
0 days 00:00:48.760000,0.280518,-0.917725,-0.087891,3.684997,-3.578186,0.907898,0.9636567603820356
0 days 00:00:48.770000,0.279297,-0.91748,-0.092285,4.02832,-4.051208,1.533508,0.9634795720896214
0 days 00:00:48.780000,0.283691,-0.920166,-0.09375,4.455566,-4.142761,2.105713,0.9674580681026956
0 days 00:00:48.790000,0.272461,-0.927979,-0.102539,4.966736,-2.777099,3.39508,0.9725709575568252
0 days 00:00:48.800000,0.292725,-0.936523,-0.098633,4.997253,-0.686645,3.959656,0.9861499499787039
0 days 00:00:48.810000,0.293213,-0.940918,-0.103516,5.226135,1.159668,3.768921,0.9909672589692357
0 days 00:00:48.820000,0.283936,-0.940674,-0.102295,5.378723,1.411438,4.043579,0.9879025728263896
0 days 00:00:48.830000,0.276123,-0.936523,-0.103271,4.951477,-0.221252,4.302979,0.9818269399945186
0 days 00:00:48.840000,0.274902,-0.937744,-0.101318,4.974365,-1.922607,4.272461,0.9824460576866295
0 days 00:00:48.850000,0.272217,-0.937744,-0.099854,5.226135,-2.830505,4.341125,0.9815481271649394
0 days 00:00:48.860000,0.270752,-0.936279,-0.0979,4.997253,-3.410339,4.219055,0.9795455177504514
0 days 00:00:48.870000,0.271973,-0.935547,-0.097412,5.134582,-3.288269,3.90625,0.9791356390623314
0 days 00:00:48.880000,0.269287,-0.931641,-0.102051,5.119323,-3.089905,3.601074,0.9751332462033074
0 days 00:00:48.890000,0.281738,-0.952881,-0.078125,0.75531,2.403259,1.487732,0.9967256475229279
0 days 00:00:48.900000,0.284668,-0.927734,-0.0979,4.867554,-3.448486,3.120422,0.9753515545586626
0 days 00:00:48.910000,0.279785,-0.951416,-0.080322,0.75531,4.600525,1.472473,0.9949490815941286
0 days 00:00:48.920000,0.297607,-0.963867,-0.076904,2.052307,-0.793457,2.403259,1.0116935036630412
0 days 00:00:48.930000,0.281738,-0.944336,-0.084717,0.534058,7.446289,0.846863,0.989102498040016
0 days 00:00:48.940000,0.299072,-0.947266,-0.085693,-2.220154,11.917113,-1.00708,0.9970457492958887
0 days 00:00:48.950000,0.30127,-0.947754,-0.088867,-2.372742,12.649535,0.144958,0.9984480963500306
0 days 00:00:48.960000,0.303223,-0.950928,-0.085449,-2.067566,13.015746,1.022339,1.0017533531333949
0 days 00:00:48.970000,0.301514,-0.954102,-0.084961,-1.777649,12.947082,1.998901,1.0042109788888984
0 days 00:00:48.980000,0.303711,-0.956543,-0.082275,-1.548767,12.344359,2.922058,1.0069677541982165
0 days 00:00:48.990000,0.303467,-0.960449,-0.081055,-1.296997,11.238097,3.761291,1.0105070087411567
0 days 00:00:49,0.303467,-0.963379,-0.082275,-0.839233,10.19287,4.104614,1.0133905926911893
0 days 00:00:49.010000,0.301758,-0.967529,-0.080811,-0.595093,8.918762,4.211426,1.0167107130968966
0 days 00:00:49.020000,0.297363,-0.967529,-0.080322,0.061035,7.041931,4.470825,1.01537615852156
0 days 00:00:49.030000,0.295166,-0.970215,-0.08374,0.587463,4.577637,4.455566,1.0175718654625825
0 days 00:00:49.040000,0.295898,-0.9729,-0.079834,1.00708,2.098083,4.188538,1.0200311289171522
0 days 00:00:49.050000,0.300049,-0.972656,-0.075195,1.502991,0.473022,3.540039,1.0206583095051938
0 days 00:00:49.060000,0.300293,-0.970703,-0.077393,1.937866,-0.160217,2.89917,1.0190337955666633
0 days 00:00:49.070000,0.27002,-0.925537,-0.103516,4.951477,-2.357483,3.234863,0.9696623644470276
0 days 00:00:49.080000,0.294189,-0.961914,-0.074463,2.304077,-1.022339,1.464844,1.0086478322417591
0 days 00:00:49.090000,0.296631,-0.956543,-0.073975,2.441406,-0.427246,0.495911,1.004209520784881
0 days 00:00:49.100000,0.29834,-0.950928,-0.071777,2.059937,0.923157,-0.236511,0.9992110660481098
0 days 00:00:49.110000,0.297607,-0.948486,-0.070557,2.052307,2.937317,-0.846863,0.9965811100427301
0 days 00:00:49.120000,0.291748,-0.943604,-0.067139,1.63269,4.699707,-0.999451,0.9899560847032559
0 days 00:00:49.130000,0.285645,-0.938232,-0.068115,1.228333,5.928039,-0.801086,0.9831134243178657
0 days 00:00:49.140000,0.28125,-0.936768,-0.06958,1.029968,6.813049,-0.679016,0.980549450422568
0 days 00:00:49.150000,0.282715,-0.9375,-0.074463,0.770569,7.400512,-0.297546,0.9820278812711989
0 days 00:00:49.160000,0.281982,-0.94165,-0.079346,0.602722,7.766723,0.37384,0.9861614262076975
0 days 00:00:49.170000,0.278809,-0.951172,-0.083496,0.801086,6.278991,1.159668,0.9947030783510223
0 days 00:00:49.180000,0.266846,-0.926025,-0.107178,4.615784,-2.26593,3.189087,0.969647467910374
0 days 00:00:49.190000,0.287842,-0.931396,-0.097656,4.898071,-2.380371,3.791809,0.9797388530195176
0 days 00:00:49.200000,0.263672,-0.924805,-0.104248,4.341125,-2.960205,2.403259,0.9672925395726982
0 days 00:00:49.210000,0.257813,-0.932617,-0.157227,-0.488281,0.862122,-0.984192,0.9802868667828821
0 days 00:00:49.220000,0.262939,-0.940674,-0.158447,-0.114441,0.961304,-0.358582,0.9894998452784114
0 days 00:00:49.230000,0.263672,-0.950195,-0.160889,0.1297,0.732422,0.183105,0.9991389953004537
0 days 00:00:49.240000,0.266357,-0.95752,-0.163574,0.404358,0.953674,0.656128,1.007247266228606
0 days 00:00:49.250000,0.27002,-0.961914,-0.165039,0.930786,1.808166,1.00708,1.0126338011922178
0 days 00:00:49.260000,0.271484,-0.967285,-0.165527,1.411438,2.716064,1.419067,1.0182057852958801
0 days 00:00:49.270000,0.269287,-0.96875,-0.166016,1.480102,3.387451,1.88446,1.0190943838158466
0 days 00:00:49.280000,0.267822,-0.971924,-0.165771,2.02179,3.532409,2.159119,1.0216872857684978
0 days 00:00:49.290000,0.264893,-0.968262,-0.169678,2.349854,3.059387,2.357483,1.0180816400353168
0 days 00:00:49.300000,0.263428,-0.960449,-0.172607,2.532959,2.334595,2.822876,1.0107669213196482
0 days 00:00:49.310000,0.25708,-0.928223,-0.150391,-0.740051,0.434875,-1.625061,0.9748361488014281
0 days 00:00:49.320000,0.263184,-0.958984,-0.171631,3.082275,2.098083,3.089905,1.0091448509867154
0 days 00:00:49.330000,0.266602,-0.946533,-0.171631,3.219604,3.227234,3.494262,0.9982277028083322
0 days 00:00:49.340000,0.26001,-0.947998,-0.168213,4.562378,3.913879,4.257202,0.997296857246126
0 days 00:00:49.350000,0.260254,-0.938477,-0.167725,4.508972,4.318237,4.371643,0.9882322093870448
0 days 00:00:49.360000,0.262695,-0.936279,-0.166504,4.890442,4.638672,5.203247,0.9865853287384725
0 days 00:00:49.370000,0.267334,-0.936523,-0.167969,5.966186,5.516052,6.362915,0.9883098613521976
0 days 00:00:49.380000,0.271973,-0.935303,-0.171875,5.760192,6.881713,6.576538,0.9890915175872251
0 days 00:00:49.390000,0.271729,-0.938965,-0.173584,6.301879,8.003235,7.102966,0.9927856393612873
0 days 00:00:49.400000,0.272705,-0.935791,-0.177979,6.095886,8.346558,7.759094,0.9908326484058749
0 days 00:00:49.410000,0.272461,-0.934814,-0.176758,6.256103,8.720398,8.094788,0.9896239698395548
0 days 00:00:49.420000,0.276123,-0.937744,-0.175293,6.935119,9.246826,8.781433,0.9931441771032039
0 days 00:00:49.430000,0.266846,-0.951172,-0.174072,3.204345,2.418518,3.257751,1.0031131653427743
0 days 00:00:49.440000,0.257324,-0.928711,-0.147705,-0.793457,-0.228882,-2.044678,0.9749546294684691
0 days 00:00:49.450000,0.26416,-0.926758,-0.104736,4.356384,-2.571106,2.967834,0.9693454110171461
0 days 00:00:49.460000,0.25415,-0.931641,-0.130615,-1.190186,0.099182,-2.487183,0.9744780416233093
0 days 00:00:49.470000,0.264648,-0.925537,-0.106445,4.257202,-3.27301,2.151489,0.9684977234345985
0 days 00:00:49.480000,0.262939,-0.928467,-0.105469,4.142761,-3.265381,1.945495,0.9707273550132396
0 days 00:00:49.490000,0.263916,-0.928955,-0.104736,4.058838,-2.883911,1.579285,0.971379779888896
0 days 00:00:49.500000,0.260254,-0.928223,-0.104736,3.883362,-2.449036,1.174927,0.969690523796639
0 days 00:00:49.510000,0.26123,-0.93042,-0.104248,3.448486,-2.151489,1.037598,0.9720031557582517
0 days 00:00:49.520000,0.260498,-0.933594,-0.104004,3.013611,-1.647949,0.953674,0.9748198791858935
0 days 00:00:49.530000,0.255615,-0.929688,-0.138916,-1.091003,-0.358582,-2.197266,0.9741439629875042
0 days 00:00:49.540000,0.263428,-0.939209,-0.107422,2.456665,-0.747681,0.282288,0.9813497556676722
0 days 00:00:49.550000,0.262695,-0.939209,-0.108887,1.739502,0.1297,0.12207,0.9813147239672907
0 days 00:00:49.560000,0.263672,-0.943359,-0.111328,1.472473,1.220703,-0.030518,0.9858210030472063
0 days 00:00:49.570000,0.263184,-0.947021,-0.112061,0.915527,1.991272,-0.1297,0.9892786564047563
0 days 00:00:49.580000,0.260254,-0.935059,-0.106201,2.838135,-1.243591,0.62561,0.9763944543052259
0 days 00:00:49.590000,0.261963,-0.945313,-0.11499,-0.045776,3.219604,-0.740051,0.9876558010957056
0 days 00:00:49.600000,0.260498,-0.946777,-0.110596,0.312805,2.63977,-0.488281,0.9881686955925086
0 days 00:00:49.610000,0.255859,-0.930908,-0.126709,-1.945495,2.029419,-2.250671,0.9737087362378958
0 days 00:00:49.620000,0.255859,-0.931885,-0.125,-2.067566,2.655029,-2.174377,0.9744221267530823
0 days 00:00:49.630000,0.258301,-0.935547,-0.125244,-2.01416,2.998352,-2.182007,0.9785978006034961
0 days 00:00:49.640000,0.258057,-0.936279,-0.12085,-2.189636,3.196716,-1.831055,0.9786810019562043
0 days 00:00:49.650000,0.25415,-0.933594,-0.127441,-1.647949,1.068115,-2.304077,0.9759258106111345
0 days 00:00:49.660000,0.258057,-0.935791,-0.116943,-1.846313,3.39508,-1.51062,0.9777391657180355
0 days 00:00:49.670000,0.25708,-0.937988,-0.116699,-1.556396,3.181457,-1.38092,0.9795561602812777
0 days 00:00:49.680000,0.255127,-0.939453,-0.115723,-1.098633,3.158569,-1.029968,0.9803333810837005
0 days 00:00:49.690000,0.25708,-0.943848,-0.115967,-0.50354,3.280639,-0.785828,0.9850824932933282
0 days 00:00:49.700000,0.256836,-0.935303,-0.119873,-2.151489,3.326416,-1.609802,0.9773054634217493
0 days 00:00:49.710000,0.286133,-0.949707,-0.078369,0.762939,-3.952026,-1.457214,0.9949659188630533
0 days 00:00:49.720000,0.2854,-0.951172,-0.080078,0.419617,-3.929138,-1.647949,0.9962900278874621
0 days 00:00:49.730000,0.280029,-0.947266,-0.081299,0.106812,-4.310608,-1.731872,0.9911299828972989
0 days 00:00:49.740000,0.281006,-0.946777,-0.083008,-0.183105,-4.653931,-1.861572,0.9910809189107618
0 days 00:00:49.750000,0.285156,-0.947021,-0.083008,-0.679016,-4.562378,-1.907349,0.9924983863165723
0 days 00:00:49.760000,0.289551,-0.945068,-0.084473,-1.029968,-3.837585,-2.044678,0.9920327585085081
0 days 00:00:49.770000,0.291992,-0.949463,-0.083252,-1.068115,-2.937317,-2.098083,0.9968300817777319
0 days 00:00:49.780000,0.291992,-0.951416,-0.078613,-0.610352,-2.212524,-1.930237,0.9983144479015618
0 days 00:00:49.790000,0.287598,-0.953613,-0.077393,0.053406,-1.983642,-1.708984,0.9990395586872424
0 days 00:00:49.800000,0.285889,-0.955811,-0.076172,0.656128,-2.311707,-1.670837,1.0005545270628682
0 days 00:00:49.810000,0.290771,-0.939453,-0.080566,2.02179,-3.334045,-1.945495,0.9867170790079596
0 days 00:00:49.820000,0.283936,-0.947021,-0.073486,1.319885,-3.936767,-1.00708,0.9913973061961586
0 days 00:00:49.830000,0.275146,-0.945068,-0.071533,1.403808,-5.706787,-0.724792,0.9869021309273782
0 days 00:00:49.840000,0.27002,-0.945313,-0.073486,1.625061,-7.530212,-0.640869,0.9858639158448796
0 days 00:00:49.850000,0.270996,-0.947266,-0.07373,1.63269,-8.44574,-1.037598,0.9880221756985013
0 days 00:00:49.860000,0.280029,-0.944824,-0.073486,1.930237,-8.239746,-1.51062,0.9881846102894943
0 days 00:00:49.870000,0.290527,-0.943359,-0.078125,2.151489,-7.6828,-1.800537,0.9901695088392694
0 days 00:00:49.880000,0.294678,-0.945313,-0.077881,2.349854,-6.91986,-2.189636,0.9932357433228025
0 days 00:00:49.890000,0.294189,-0.942383,-0.078125,2.449036,-5.996704,-2.26593,0.9903213630105129
0 days 00:00:49.900000,0.289551,-0.939697,-0.081299,2.227783,-4.936218,-2.105713,0.9866507795623536
0 days 00:00:49.910000,0.286377,-0.939209,-0.079834,2.182007,-4.066467,-1.960754,0.9851389746457095
0 days 00:00:49.920000,0.290527,-0.949219,-0.076904,0.823975,-4.425049,-1.197815,0.9956590143749013
0 days 00:00:49.930000,0.285889,-0.951416,-0.074219,1.13678,-2.822876,-1.449585,0.9962095087570687
0 days 00:00:49.940000,0.294189,-0.94873,-0.078857,0.976562,-5.271911,-1.022339,0.9964206978329986
0 days 00:00:49.950000,0.2771,-0.946533,-0.076904,2.601623,-7.850646,-0.610352,0.9892539387361569
0 days 00:00:49.960000,0.274902,-0.946533,-0.077881,1.457214,-9.002686,-0.88501,0.9887169867328061
0 days 00:00:49.970000,0.291992,-0.937256,-0.082764,1.502991,-2.746582,-1.625061,0.9851690298096057
0 days 00:00:49.980000,0.272217,-0.943848,-0.077881,1.419067,-3.311157,-0.50354,0.9854017416028855
0 days 00:00:49.990000,0.272705,-0.945313,-0.080078,1.373291,-3.326416,-0.663757,0.9871155814179006
0 days 00:00:50,0.270264,-0.946289,-0.079834,1.38855,-3.570556,-0.801086,0.9873595944603972
0 days 00:00:50.010000,0.268555,-0.943848,-0.077393,1.480102,-4.135132,-0.923157,0.9843579184310959
0 days 00:00:50.020000,0.268311,-0.944092,-0.077393,1.51062,-4.91333,-1.106262,0.9845253544901726
0 days 00:00:50.030000,0.269775,-0.945068,-0.078369,1.739502,-5.577087,-1.197815,0.985938018036631
0 days 00:00:50.040000,0.273193,-0.943115,-0.077881,1.876831,-5.989074,-1.152039,0.984969932858359
0 days 00:00:50.050000,0.270508,-0.943115,-0.079346,1.945495,-6.515502,-1.045227,0.9843456044525216
0 days 00:00:50.060000,0.269775,-0.941895,-0.077881,2.059937,-7.110595,-0.991821,0.9828581748202535
0 days 00:00:50.070000,0.290283,-0.948975,-0.078613,1.213074,-7.125854,-1.052856,0.995488711378989
0 days 00:00:50.080000,0.270996,-0.945557,-0.07666,2.334595,-7.545471,-0.984192,0.986607129441603
0 days 00:00:50.090000,0.275146,-0.946777,-0.075684,2.670288,-7.965087,-0.671387,0.9888478532620678
0 days 00:00:50.100000,0.279297,-0.947266,-0.078125,2.693176,-7.354736,-0.442505,0.9906680597404965
0 days 00:00:50.110000,0.281006,-0.94458,-0.079834,2.63977,-6.729125,-0.396728,0.9887210000763612
0 days 00:00:50.120000,0.277344,-0.944336,-0.078613,2.479553,-6.484985,-0.297546,0.9873551433000184
0 days 00:00:50.130000,0.271973,-0.946777,-0.079346,2.326965,-6.881713,-0.030518,0.9882569444097016
0 days 00:00:50.140000,0.274658,-0.946045,-0.076416,2.227783,-7.385253,0.061035,0.9880675908281781
0 days 00:00:50.150000,0.277344,-0.945557,-0.074219,2.090454,-7.720947,-0.282288,0.9881832798352742
0 days 00:00:50.160000,0.278564,-0.948975,-0.078125,1.953125,-7.797241,-0.480652,0.9920962495373118
0 days 00:00:50.170000,0.272949,-0.948242,-0.079102,1.686096,-8.102417,-0.167847,0.9899096795006098
0 days 00:00:50.180000,0.269287,-0.946289,-0.076416,1.495361,-9.170532,-0.175476,0.9868220533338319
0 days 00:00:50.190000,0.273438,-0.947754,-0.075684,2.731323,-7.8125,-0.88501,0.989309886848403
0 days 00:00:50.200000,0.27124,-0.945313,-0.077393,1.304626,-3.27301,-0.297546,0.9864975833817333
0 days 00:00:50.210000,0.280029,-0.934326,-0.082764,0.785828,-3.204345,-0.648498,0.9788928413330031
0 days 00:00:50.220000,0.273193,-0.938721,-0.08667,0.518799,-4.096985,-0.724792,0.9815004941364014
0 days 00:00:50.230000,0.297607,-0.948486,-0.083008,0.87738,13.626098,0.648498,0.9975399474251646
0 days 00:00:50.240000,0.291748,-0.951904,-0.079346,1.075745,14.244079,0.030518,0.9987661930782399
0 days 00:00:50.250000,0.290039,-0.947021,-0.079834,0.999451,14.205932,-0.144958,0.9936522850162425
0 days 00:00:50.260000,0.289795,-0.943604,-0.080322,0.831604,14.488219,-0.106812,0.9903642130675967
0 days 00:00:50.270000,0.28418,-0.940918,-0.080078,0.534058,15.151977,-0.640869,0.9861528488059039
0 days 00:00:50.280000,0.276123,-0.939453,-0.079102,0.038147,14.60266,-1.083374,0.9823812787008922
0 days 00:00:50.290000,0.272705,-0.9375,-0.075195,-0.312805,13.290404,-1.342773,0.979248975005846
0 days 00:00:50.300000,0.272949,-0.935059,-0.071777,-0.747681,12.260436,-1.739502,0.9767233117986894
0 days 00:00:50.310000,0.274414,-0.933105,-0.070313,-0.968933,11.779784,-2.113342,0.9751573731403562
0 days 00:00:50.320000,0.27417,-0.933105,-0.069336,-1.228333,11.779784,-2.792358,0.9750187745992381
0 days 00:00:50.330000,0.300049,-0.947266,-0.084473,0.839233,12.512206,0.679016,0.9972351602736438
0 days 00:00:50.340000,0.274902,-0.937256,-0.070068,-1.243591,12.031554,-3.509521,0.979249428779001
0 days 00:00:50.350000,0.272217,-0.9375,-0.067871,-1.701355,11.604308,-4.570007,0.9785779568997045
0 days 00:00:50.360000,0.273438,-0.936768,-0.06958,-1.815796,10.673522,-4.943848,0.9783373661820344
0 days 00:00:50.370000,0.276367,-0.939941,-0.071289,-2.082825,10.139464,-5.363464,0.9823186467185686
0 days 00:00:50.380000,0.281494,-0.942139,-0.07373,-2.14386,10.276793,-5.676269,0.986053183280192
0 days 00:00:50.390000,0.286865,-0.938965,-0.072998,-2.166748,10.902404,-5.584716,0.9845179061114125
0 days 00:00:50.400000,0.289307,-0.936768,-0.072021,-2.365112,11.436461,-5.233764,0.983066554468211
0 days 00:00:50.410000,0.287842,-0.935547,-0.074219,-2.479553,11.940001,-4.829407,0.9816362188377119
0 days 00:00:50.420000,0.288086,-0.935791,-0.076904,-2.593994,12.016295,-4.112244,0.9821469158394788
0 days 00:00:50.430000,0.289795,-0.941406,-0.080566,-2.609253,11.718749,-3.280639,0.9882900784774681
0 days 00:00:50.440000,0.293945,-0.945313,-0.08252,-2.334595,11.45935,-2.250671,0.9933931152338433
0 days 00:00:50.450000,0.273438,-0.9375,-0.068115,-1.525879,12.092589,-4.074097,0.9789352598966901
0 days 00:00:50.460000,0.302246,-0.94873,-0.090576,0.709534,11.276244,0.839233,0.9998226188639663
0 days 00:00:50.470000,0.288086,-0.936279,-0.082764,1.213074,-2.716064,-0.930786,0.9830878846435857
0 days 00:00:50.480000,0.303223,-0.95166,-0.091797,0.083923,9.536743,1.052856,1.0030092883607808
0 days 00:00:50.490000,0.282959,-0.940186,-0.088867,0.480652,-3.356933,-0.854492,0.9858564063625087
0 days 00:00:50.500000,0.299316,-0.942139,-0.08667,0.068665,-1.106262,-0.968933,0.9923344456769602
0 days 00:00:50.510000,0.299805,-0.940918,-0.087891,-0.030518,0.488281,-1.213074,0.9914305566352088
0 days 00:00:50.520000,0.294678,-0.940918,-0.088379,0.12207,0.984192,-0.961304,0.9899356817738212
0 days 00:00:50.530000,0.294434,-0.944092,-0.08667,0.12207,1.38092,-0.999451,0.9927299601200721
0 days 00:00:50.540000,0.296631,-0.946777,-0.083496,-0.053406,1.770019,-1.304626,0.9956647125945561
0 days 00:00:50.550000,0.301758,-0.950195,-0.0896,0.343323,10.093688,1.083374,1.000977816232208
0 days 00:00:50.560000,0.294922,-0.946777,-0.083984,-0.190735,2.01416,-1.747131,0.9951979632560549
0 days 00:00:50.570000,0.293213,-0.944824,-0.084229,-0.007629,1.411438,-1.792908,0.9928548629009176
0 days 00:00:50.580000,0.296143,-0.942139,-0.085205,0.175476,1.152039,-1.731872,0.9912549943354636
0 days 00:00:50.590000,0.299805,-0.9375,-0.087891,-0.015259,1.502991,-1.525879,0.9881872878690557
0 days 00:00:50.600000,0.296143,-0.948975,-0.084229,-0.366211,2.13623,-1.586914,0.9976716651859969
0 days 00:00:50.610000,0.302246,-0.94043,-0.09082,-0.007629,3.349304,-0.839233,0.9919725307769364
0 days 00:00:50.620000,0.300537,-0.943115,-0.088867,-0.12207,3.974914,-0.137329,0.9938237948866993
0 days 00:00:50.630000,0.305176,-0.945557,-0.087402,-0.350952,4.844666,0.175476,0.9974214459439901
0 days 00:00:50.640000,0.30835,-0.949219,-0.088379,-0.37384,5.569458,0.350952,1.0019517354154341
0 days 00:00:50.650000,0.306152,-0.949463,-0.089355,-0.183105,6.050109,0.732422,1.0015954030934846
0 days 00:00:50.660000,0.302246,-0.947266,-0.090332,-0.045776,6.362915,1.037598,0.9984114329754042
0 days 00:00:50.670000,0.294678,-0.947021,-0.09082,-0.183105,6.431579,1.13678,0.9959579160411348
0 days 00:00:50.680000,0.293213,-0.948975,-0.095947,-0.12207,6.614685,0.999451,0.9978643398794247
0 days 00:00:50.690000,0.303955,-0.945557,-0.09375,-0.099182,7.713317,0.88501,0.99762505219847
0 days 00:00:50.700000,0.307861,-0.947266,-0.090576,-0.205994,8.934021,1.022339,1.0001476300291872
0 days 00:00:50.710000,0.301758,-0.937988,-0.088379,0.022888,2.288818,-1.159668,0.9892877368839665
0 days 00:00:50.720000,0.283447,-0.945801,-0.075439,-0.411987,2.380371,0.938415,0.9902387470357843
0 days 00:00:50.730000,0.281738,-0.946533,-0.075439,-0.343323,1.731872,0.915527,0.9904504346275991
0 days 00:00:50.740000,0.282715,-0.947266,-0.076172,-0.442505,1.335144,0.88501,0.9914851585197835
0 days 00:00:50.750000,0.284912,-0.94873,-0.078613,-0.549316,1.167297,0.869751,0.9937018991694642
0 days 00:00:50.760000,0.284912,-0.950928,-0.075928,-0.389099,0.671387,0.465393,0.9955922710186134
0 days 00:00:50.770000,0.283936,-0.946777,-0.078125,-0.62561,0.75531,0.961304,0.9915189637369524
0 days 00:00:50.780000,0.283691,-0.948242,-0.077881,-0.564575,0.366211,0.770569,0.9928287486802545
0 days 00:00:50.790000,0.282471,-0.950195,-0.077393,-0.480652,0.267029,0.747681,0.9943088455379445
0 days 00:00:50.800000,0.284668,-0.946533,-0.078125,-0.63324,1.052856,0.930786,0.9914958930515042
0 days 00:00:50.810000,0.28418,-0.946045,-0.07959,-0.228882,3.234863,0.694275,0.9910065501927825
0 days 00:00:50.820000,0.270264,-0.95166,-0.070801,1.792908,-1.800537,-0.160217,0.9918226489131008
0 days 00:00:50.830000,0.27417,-0.946045,-0.077148,0.022888,3.631592,0.297546,0.9879889396288807
0 days 00:00:50.840000,0.272949,-0.946777,-0.074463,0.114441,3.204345,0.190735,0.9881460330836733
0 days 00:00:50.850000,0.270508,-0.948975,-0.073975,0.167847,2.471924,0.045776,0.9895455670730884
0 days 00:00:50.860000,0.268799,-0.950684,-0.07373,0.244141,1.724243,-0.045776,0.9907013087490094
0 days 00:00:50.870000,0.268555,-0.951416,-0.072021,0.305176,1.014709,0.038147,0.9912119942383668
0 days 00:00:50.880000,0.271973,-0.951416,-0.072754,0.404358,0.434875,0.0,0.99219698764963
0 days 00:00:50.890000,0.269531,-0.95459,-0.075195,0.648498,0.099182,-0.038147,0.9947579183328977
0 days 00:00:50.900000,0.270996,-0.95752,-0.075439,0.907898,-0.320435,0.091553,0.9979851828243744
0 days 00:00:50.910000,0.269043,-0.955811,-0.07373,1.197815,-0.953674,0.160217,0.9956881622626634
0 days 00:00:50.920000,0.270508,-0.952393,-0.071777,1.464844,-1.548767,0.114441,0.992662552049789
0 days 00:00:50.930000,0.288574,-0.953857,-0.07373,-0.602722,0.617981,0.312805,0.9992768599467317
0 days 00:00:50.940000,0.279541,-0.946777,-0.078369,-0.083923,3.669739,0.297546,0.9902886238723537
0 days 00:00:50.950000,0.288574,-0.953613,-0.073486,-0.640869,0.419617,0.030518,0.9990259753584989
0 days 00:00:50.960000,0.270508,-0.941162,-0.081543,0.556946,0.091553,0.366211,0.982654440358868
0 days 00:00:50.970000,0.284912,-0.95459,-0.077148,-0.587463,-0.175476,-0.495911,0.9991840319720887
0 days 00:00:50.980000,0.268555,-0.949951,-0.072998,2.311707,-2.189636,-0.358582,0.9898774663714697
0 days 00:00:50.990000,0.277832,-0.949463,-0.088867,0.801086,-1.876831,-0.183105,0.9932612709060995
0 days 00:00:51,0.280518,-0.94751,-0.088135,1.045227,-1.403808,0.289917,0.9920853424222131
0 days 00:00:51.010000,0.276611,-0.948486,-0.091797,1.167297,-1.205444,0.427246,0.9922530054003365
0 days 00:00:51.020000,0.276855,-0.94873,-0.092041,1.358032,-0.991821,0.442505,0.9925768733987308
0 days 00:00:51.030000,0.279053,-0.949951,-0.091309,1.647949,-0.541687,0.556946,0.9942911106366183
0 days 00:00:51.040000,0.277832,-0.953125,-0.090088,1.823425,-0.312805,0.518799,0.9968719745248132
0 days 00:00:51.050000,0.276855,-0.957275,-0.085205,1.89209,-0.38147,0.297546,1.0001419942563157
0 days 00:00:51.060000,0.273926,-0.955322,-0.081543,1.953125,-0.518799,-0.022888,0.9971583816069541
0 days 00:00:51.070000,0.273193,-0.952637,-0.081299,2.029419,-0.63324,-0.114441,0.9943647200192693
0 days 00:00:51.080000,0.286865,-0.953369,-0.07666,-0.556946,0.259399,-0.190735,0.9985393001710048
0 days 00:00:51.090000,0.275146,-0.945313,-0.082275,1.846313,-0.511169,-0.061035,0.9879732612323069
0 days 00:00:51.100000,0.270996,-0.937988,-0.082275,0.900268,0.183105,0.236511,0.9798109490024084
0 days 00:00:51.110000,0.267578,-0.939941,-0.083252,0.312805,-0.221252,0.366211,0.9808251450024108
0 days 00:00:51.120000,0.267822,-0.939697,-0.083984,0.137329,-0.854492,0.328064,0.9807203412538154
0 days 00:00:51.130000,0.266846,-0.937988,-0.082275,-0.137329,-1.663208,0.305176,0.9786712683455053
0 days 00:00:51.140000,0.267822,-0.939209,-0.082275,-0.404358,-2.334595,0.198364,0.9801078231449843
0 days 00:00:51.150000,0.266846,-0.939209,-0.082764,-0.564575,-3.074646,0.022888,0.9798827547686508
0 days 00:00:51.160000,0.271484,-0.940918,-0.083496,-0.686645,-3.234863,0.061035,0.9828539194590415
0 days 00:00:51.170000,0.275146,-0.945313,-0.079834,-0.732422,-2.922058,-0.205994,0.9877729783917962
0 days 00:00:51.180000,0.283447,-0.949707,-0.080322,-0.717163,-2.182007,-0.37384,0.9943526594433184
0 days 00:00:51.190000,0.286377,-0.953369,-0.079346,-0.717163,-1.159668,-0.457764,0.9986090446245718
0 days 00:00:51.200000,0.27417,-0.941406,-0.082764,1.373291,-0.076294,0.045776,0.9840042303933454
0 days 00:00:51.210000,0.274658,-0.947998,-0.088867,0.511169,-2.380371,-0.183105,0.9909765732130099
0 days 00:00:51.220000,0.263916,-0.948975,-0.072754,2.578735,-3.173828,-0.534058,0.9876732001006203
0 days 00:00:51.230000,0.262207,-0.944824,-0.077881,2.456665,-5.393981,-0.518799,0.9836210408414411
0 days 00:00:51.240000,0.276123,-0.944092,-0.081787,-0.221252,-7.896423,-0.267029,0.9870373493247355
0 days 00:00:51.250000,0.281738,-0.946777,-0.084229,-0.328064,-6.683349,-0.144958,0.9913917050359056
0 days 00:00:51.260000,0.283203,-0.950439,-0.084717,-0.259399,-5.363464,-0.190735,0.9953467747569186
0 days 00:00:51.270000,0.283203,-0.952637,-0.083008,-0.198364,-4.394531,-0.442505,0.9973021212461146
0 days 00:00:51.280000,0.283203,-0.955566,-0.081543,-0.244141,-3.990173,-0.495911,0.9999797900027779
0 days 00:00:51.290000,0.279785,-0.958984,-0.080322,0.015259,-3.890991,-0.831604,1.0021883965427858
0 days 00:00:51.300000,0.279053,-0.958252,-0.078613,0.1297,-3.364563,-1.213074,1.001148078998307
0 days 00:00:51.310000,0.280029,-0.954102,-0.080078,-0.106812,-2.670288,-1.365662,0.9975667162295462
0 days 00:00:51.320000,0.280273,-0.948242,-0.083252,-0.350952,-2.075195,-1.174927,0.9922936765882366
0 days 00:00:51.330000,0.279541,-0.943604,-0.086914,-0.511169,-1.38855,-0.991821,0.9879705070967452
0 days 00:00:51.340000,0.268555,-0.945313,-0.078125,0.228882,-8.621216,-0.694275,0.9858204560765617
0 days 00:00:51.350000,0.278809,-0.947021,-0.083984,-0.12207,-1.472473,-0.663757,0.990775729001271
0 days 00:00:51.360000,0.273682,-0.951416,-0.081299,0.083923,-2.89917,-0.419617,0.9933296379253969
0 days 00:00:51.370000,0.274902,-0.949463,-0.081055,0.213623,-3.39508,-0.389099,0.9917766941191952
0 days 00:00:51.380000,0.275146,-0.950439,-0.078857,0.434875,-3.761291,-0.274658,0.992601652469912
0 days 00:00:51.390000,0.276367,-0.951172,-0.080322,0.740051,-4.051208,-0.205994,0.9937597878546908
0 days 00:00:51.400000,0.27417,-0.952148,-0.078613,1.068115,-4.447937,-0.144958,0.9939491971791113
0 days 00:00:51.410000,0.274658,-0.951416,-0.075684,1.121521,-4.447937,-0.221252,0.9931553201166472
0 days 00:00:51.420000,0.275879,-0.949219,-0.079102,1.228333,-4.020691,-0.236511,0.9916567243789557
0 days 00:00:51.430000,0.275146,-0.946777,-0.079834,1.281738,-3.517151,-0.221252,0.9891741386636632
0 days 00:00:51.440000,0.271484,-0.946045,-0.078125,1.251221,-3.27301,-0.25177,0.9873237665051926
0 days 00:00:51.450000,0.259277,-0.94751,-0.075195,2.578735,-4.348755,-0.556946,0.9852177682390832
0 days 00:00:51.460000,0.274414,-0.949707,-0.08252,-0.106812,-2.098083,-0.366211,0.991995957474122
0 days 00:00:51.470000,0.265137,-0.946777,-0.077393,0.442505,-8.155823,-1.190186,0.9862423601463283
0 days 00:00:51.480000,0.28125,-0.944092,-0.086182,-0.495911,-1.449585,-1.022339,0.9888572212852572
0 days 00:00:51.490000,0.265869,-0.941895,-0.076416,0.701904,-6.477355,-1.518249,0.9816781148838962
0 days 00:00:51.500000,0.266113,-0.94751,-0.077881,0.732422,-7.225036,-1.51062,0.9872470709148748
0 days 00:00:51.510000,0.269775,-0.943604,-0.076416,1.998901,-5.91278,-0.37384,0.9843812597246049
0 days 00:00:51.520000,0.27002,-0.944092,-0.079346,1.716614,-5.302429,-0.328064,0.9851478531570782
0 days 00:00:51.530000,0.27417,-0.947754,-0.07959,1.541138,-4.486084,-0.205994,0.9898188730853741
0 days 00:00:51.540000,0.273682,-0.948242,-0.074707,1.327515,-3.570556,-0.152588,0.9897706115747223
0 days 00:00:51.550000,0.270752,-0.950684,-0.074463,1.13678,-3.02124,-0.228882,0.9912877744272851
0 days 00:00:51.560000,0.270752,-0.950439,-0.072266,1.205444,-2.868652,-0.350952,0.9908901619155375
0 days 00:00:51.570000,0.27417,-0.950684,-0.07251,1.274109,-2.357483,-0.480652,0.9920821321120545
0 days 00:00:51.580000,0.27417,-0.950195,-0.075195,1.113892,-1.815796,-0.640869,0.9918134980680592
0 days 00:00:51.590000,0.273926,-0.949219,-0.072998,1.00708,-1.289368,-0.679016,0.9906466935497237
0 days 00:00:51.600000,0.271484,-0.94751,-0.074219,0.816345,-1.144409,-0.610352,0.9884266398256373
0 days 00:00:51.610000,0.264893,-0.944336,-0.07666,2.212524,-6.149292,-0.549316,0.9837761625212311
0 days 00:00:51.620000,0.269043,-0.94458,-0.070313,0.282288,-1.060486,-0.671387,0.9846620893575622
0 days 00:00:51.630000,0.267822,-0.945068,-0.074219,0.564575,-1.243591,-0.671387,0.985084061524193
0 days 00:00:51.640000,0.268799,-0.945557,-0.074463,1.083374,-6.454467,-1.846313,0.9858375530578047
0 days 00:00:51.650000,0.270264,-0.945557,-0.071289,0.999451,-6.195068,-1.747131,0.9860034439422612
0 days 00:00:51.660000,0.26709,-0.943848,-0.068848,0.816345,-5.844116,-1.770019,0.9833240372878108
0 days 00:00:51.670000,0.265137,-0.942383,-0.069336,0.640869,-4.966736,-1.586914,0.981422859094896
0 days 00:00:51.680000,0.268799,-0.943359,-0.075439,1.12915,-6.469726,-1.937866,0.983803917456624
0 days 00:00:51.690000,0.263184,-0.945557,-0.070313,0.465393,-2.845764,-1.220703,0.9840161462465948
0 days 00:00:51.700000,0.267578,-0.943359,-0.067627,0.305176,-1.983642,-1.045227,0.9829026401907769
0 days 00:00:51.710000,0.269531,-0.945557,-0.070068,0.205994,-1.274109,-0.785828,0.985715235163787
0 days 00:00:51.720000,0.263184,-0.945068,-0.070068,0.556946,-3.936767,-1.434326,0.9835287830582286
0 days 00:00:51.730000,0.268555,-0.946777,-0.085205,1.029968,-0.389099,-0.50354,0.9878098844307036
0 days 00:00:51.740000,0.276367,-0.950195,-0.0896,0.984192,1.457214,0.350952,0.9936183456005631
0 days 00:00:51.750000,0.272949,-0.955566,-0.084473,1.266479,1.655578,0.022888,0.997368149023218
0 days 00:00:51.760000,0.27002,-0.95752,-0.081787,1.541138,1.289368,-0.312805,0.9982206490395799
0 days 00:00:51.770000,0.267334,-0.953125,-0.084473,1.602173,0.579834,-0.640869,0.9935041121756869
0 days 00:00:51.780000,0.264893,-0.946777,-0.085205,1.579285,0.0,-0.816345,0.9868205922066077
0 days 00:00:51.790000,0.265137,-0.943848,-0.084961,1.480102,-0.442505,-0.694275,0.9840554087011565
0 days 00:00:51.800000,0.276367,-0.947266,-0.090576,0.785828,0.648498,0.411987,0.9909064563423735
0 days 00:00:51.810000,0.266846,-0.943359,-0.087158,1.159668,-0.511169,-0.495911,0.9842405740270007
0 days 00:00:51.820000,0.268066,-0.94458,-0.087402,0.984192,-0.350952,-0.434875,0.9857635955745171
0 days 00:00:51.830000,0.264893,-0.945068,-0.087402,0.808716,-0.686645,-0.511169,0.9853735005960937
0 days 00:00:51.840000,0.27002,-0.946289,-0.088867,0.205994,-1.289368,-0.106812,0.9880642770639976
0 days 00:00:51.850000,0.268555,-0.946045,-0.085938,0.404358,-1.098633,-0.244141,0.9871718542857673
0 days 00:00:51.860000,0.268555,-0.946045,-0.085938,0.328064,-1.174927,-0.259399,0.9871718542857673
0 days 00:00:51.870000,0.268555,-0.945557,-0.090332,0.350952,-1.243591,-0.213623,0.9870966003882294
0 days 00:00:51.880000,0.269775,-0.947754,-0.088867,0.091553,-0.961304,0.144958,0.9894005957295557
0 days 00:00:51.890000,0.272217,-0.948242,-0.091553,0.007629,-0.656128,0.205994,0.9907809735062538
0 days 00:00:51.900000,0.27417,-0.947266,-0.088623,-0.068665,-0.175476,0.190735,0.9901192351353447
0 days 00:00:51.910000,0.271484,-0.94751,-0.087158,0.213623,0.358582,0.205994,0.9894823289579253
0 days 00:00:51.920000,0.270508,-0.949219,-0.087646,0.221252,0.495911,0.045776,0.9908951051150673
0 days 00:00:51.930000,0.270508,-0.948242,-0.088867,0.267029,0.541687,0.061035,0.9900680846876138
0 days 00:00:51.940000,0.279785,-0.948242,-0.090088,0.701904,-0.62561,0.236511,0.9927529322711669
0 days 00:00:51.950000,0.265869,-0.944092,-0.089355,0.686645,-0.968933,-0.328064,0.9848758021446157
0 days 00:00:51.960000,0.275146,-0.952393,-0.086182,0.473022,-3.051758,-0.312805,0.9950804414161701
0 days 00:00:51.970000,0.268555,-0.947998,-0.087891,0.328064,0.343323,0.106812,0.989215256610006
0 days 00:00:51.980000,0.270752,-0.950928,-0.084473,-0.022888,-4.28772,-0.534058,0.9923237346838985
0 days 00:00:51.990000,0.266113,-0.947754,-0.085449,0.152588,-2.433777,-0.267029,0.9881069298846152
0 days 00:00:52,0.264648,-0.949707,-0.08667,0.106812,-2.281189,-0.389099,0.9896937095147165
0 days 00:00:52.010000,0.268799,-0.948242,-0.085449,0.137329,-2.14386,-0.350952,0.9893014326109105
0 days 00:00:52.020000,0.268311,-0.94873,-0.085205,0.167847,-2.105713,-0.37384,0.9896157323153265
0 days 00:00:52.030000,0.267334,-0.949951,-0.082275,0.267029,-2.029419,-0.267029,0.9902744799205925
0 days 00:00:52.040000,0.26709,-0.952881,-0.083496,0.411987,-2.037048,-0.152588,0.9931217701153268
0 days 00:00:52.050000,0.267578,-0.954834,-0.084961,0.732422,-1.945495,-0.12207,0.9952508855364058
0 days 00:00:52.060000,0.269287,-0.952393,-0.083984,0.724792,-1.556396,-0.015259,0.9932880886600826
0 days 00:00:52.070000,0.27002,-0.951416,-0.084717,0.839233,-1.098633,-0.053406,0.99261280242852
0 days 00:00:52.080000,0.267578,-0.949707,-0.085693,0.762939,-0.694275,-0.083923,0.9903962147453916
0 days 00:00:52.090000,0.273926,-0.949219,-0.083496,0.282288,-3.791809,-0.404358,0.9914755395132046
0 days 00:00:52.100000,0.265625,-0.950684,-0.082764,0.648498,-0.63324,-0.038147,0.9905587252540861
0 days 00:00:52.110000,0.261475,-0.947998,-0.080322,0.62561,-1.197815,-0.480652,0.9866716816210952
0 days 00:00:52.120000,0.260498,-0.94873,-0.078857,0.610352,-1.617432,-0.816345,0.9869986055476472
0 days 00:00:52.130000,0.259033,-0.947021,-0.07959,0.648498,-2.258301,-0.915527,0.9850286481265406
0 days 00:00:52.140000,0.257568,-0.948975,-0.081543,0.488281,-3.379822,-0.793457,0.9866833768225752
0 days 00:00:52.150000,0.26001,-0.948486,-0.084473,0.228882,-4.180908,-0.778198,0.9871000861234893
0 days 00:00:52.160000,0.262451,-0.945801,-0.084961,0.083923,-4.508972,-0.686645,0.9852098408577739
0 days 00:00:52.170000,0.265381,-0.945557,-0.085205,-0.038147,-4.707336,-0.610352,0.9857814197046929
0 days 00:00:52.180000,0.265625,-0.947266,-0.085449,-0.213623,-4.753113,-0.663757,0.9875074921143637
0 days 00:00:52.190000,0.26709,-0.949707,-0.08667,-0.244141,-4.653931,-0.595093,0.9903495054015021
0 days 00:00:52.200000,0.268311,-0.951172,-0.085938,-0.160217,-4.501343,-0.518799,0.9920203153912727
0 days 00:00:52.210000,0.261719,-0.950439,-0.081055,0.732422,-0.831604,-0.152588,0.9891415675761484
0 days 00:00:52.220000,0.267822,-0.947021,-0.085205,0.312805,0.228882,0.091553,0.9878447702701068
0 days 00:00:52.230000,0.280762,-0.950439,-0.088379,0.686645,-1.89209,0.015259,0.9949735880946791
0 days 00:00:52.240000,0.270508,-0.945313,-0.086182,0.274658,-0.1297,-0.091553,0.9870251177943751
0 days 00:00:52.250000,0.263428,-0.94458,-0.090332,0.50354,-2.525329,0.045776,0.9847769076333989
0 days 00:00:52.260000,0.26416,-0.947021,-0.088135,0.648498,-3.051758,0.030518,0.9871155242756544
0 days 00:00:52.270000,0.26709,-0.94873,-0.0896,0.778198,-3.242492,-0.190735,0.9896736032652381
0 days 00:00:52.280000,0.266113,-0.949219,-0.089111,0.88501,-3.318786,-0.335693,0.9898351423600801
0 days 00:00:52.290000,0.268066,-0.94751,-0.083252,1.098633,-3.311157,-0.427246,0.9882132745313635
0 days 00:00:52.300000,0.268555,-0.949219,-0.086914,1.266479,-3.494262,-0.556946,0.9902992181063257
0 days 00:00:52.310000,0.26709,-0.947998,-0.088379,1.38855,-3.532409,-0.610352,0.9888620347374046
0 days 00:00:52.320000,0.269287,-0.949707,-0.085693,1.502991,-3.471374,-0.541687,0.9908593060909303
0 days 00:00:52.330000,0.271729,-0.950928,-0.084961,1.541138,-3.280639,-0.434875,0.992632400310407
0 days 00:00:52.340000,0.270996,-0.950684,-0.087646,1.449585,-3.051758,-0.236511,0.9924317211717892
0 days 00:00:52.350000,0.27002,-0.948975,-0.085938,1.342773,-2.830505,-0.244141,0.9903785593746464
0 days 00:00:52.360000,0.270996,-0.950684,-0.083008,1.281738,-2.685547,-0.205994,0.9920328764390826
0 days 00:00:52.370000,0.272705,-0.950928,-0.085205,1.243591,-2.693176,-0.289917,0.9929209284902801
0 days 00:00:52.380000,0.270996,-0.946777,-0.084961,1.274109,-2.670288,-0.526428,0.9884553056491729
0 days 00:00:52.390000,0.268066,-0.945557,-0.084717,1.213074,-2.807617,-0.541687,0.9864656054287955
0 days 00:00:52.400000,0.268555,-0.947754,-0.083984,1.25885,-3.105163,-0.663757,0.9886418688266242
0 days 00:00:52.410000,0.265381,-0.945801,-0.085938,1.304626,-3.547668,-0.686645,0.9860790772580057
0 days 00:00:52.420000,0.269287,-0.942139,-0.089355,1.220703,-3.829956,-0.663757,0.9839337882779511
0 days 00:00:52.430000,0.273193,-0.943359,-0.089844,0.907898,-3.692627,-0.541687,0.9862213557138174
0 days 00:00:52.440000,0.274902,-0.942139,-0.088379,0.595093,-3.158569,-0.50354,0.9853973069610044
0 days 00:00:52.450000,0.274658,-0.943115,-0.089844,0.526428,-2.685547,-0.556946,0.986394882653494
0 days 00:00:52.460000,0.274414,-0.942627,-0.091797,0.526428,-2.479553,-0.442505,0.9860402596922704
0 days 00:00:52.470000,0.273438,-0.944824,-0.092041,0.511169,-2.487183,-0.144958,0.9878928466696173
0 days 00:00:52.480000,0.265869,-0.945313,-0.089844,0.511169,-1.800537,0.083923,0.9860907349052621
0 days 00:00:52.490000,0.267334,-0.946777,-0.089111,0.411987,-1.251221,0.007629,0.9878233271218088
0 days 00:00:52.500000,0.268066,-0.94751,-0.085938,0.350952,0.12207,0.030518,0.9884431801069802
0 days 00:00:52.510000,0.270752,-0.946289,-0.087158,0.396728,-0.709534,0.038147,0.9881123589901101
0 days 00:00:52.520000,0.267822,-0.94458,-0.082275,0.442505,0.015259,-0.259399,0.9852558935165017
0 days 00:00:52.530000,0.267822,-0.945313,-0.084717,0.587463,-0.205994,-0.335693,0.9861654332524539
0 days 00:00:52.540000,0.266113,-0.945068,-0.085693,0.679016,-0.793457,-0.282288,0.985552100927191
0 days 00:00:52.550000,0.267578,-0.947021,-0.084961,0.50354,-1.327515,-0.259399,0.9877576281892234
0 days 00:00:52.560000,0.27002,-0.946533,-0.084473,0.427246,-1.693725,-0.1297,0.98791255089608
0 days 00:00:52.570000,0.267334,-0.946777,-0.086426,0.450134,-1.76239,-0.068665,0.9875847349777132
0 days 00:00:52.580000,0.268311,-0.946289,-0.087646,0.366211,-1.991272,-0.030518,0.9874894863025127
0 days 00:00:52.590000,0.267822,-0.947021,-0.090088,0.1297,-2.220154,0.045776,0.9882779193470832
0 days 00:00:52.600000,0.267578,-0.946289,-0.088379,0.053406,-2.27356,0.106812,0.9873559161953709
0 days 00:00:52.610000,0.267334,-0.945068,-0.089844,-0.389099,-2.258301,0.259399,0.9862519640112257
0 days 00:00:52.620000,0.267822,-0.944824,-0.08667,-0.549316,-2.250671,0.221252,0.9858664734942557
0 days 00:00:52.630000,0.268311,-0.943604,-0.08374,0.434875,-0.068665,-0.137329,0.9845769086958113
0 days 00:00:52.640000,0.269287,-0.94751,-0.085693,-0.770569,-2.510071,0.091553,0.9887537502927612
0 days 00:00:52.650000,0.268555,-0.948975,-0.083252,-0.793457,-2.563476,0.053406,0.9897505918937356
0 days 00:00:52.660000,0.270264,-0.950928,-0.085205,-0.656128,-2.197266,-0.099182,0.9922532856609748
0 days 00:00:52.670000,0.272705,-0.950439,-0.084473,-0.579834,-1.708984,-0.244141,0.992390043014842
0 days 00:00:52.680000,0.274414,-0.953125,-0.084473,-0.50354,-1.068115,-0.267029,0.9954325676558909
0 days 00:00:52.690000,0.276855,-0.953857,-0.085938,-0.495911,-0.495911,-0.328064,0.996933903184158
0 days 00:00:52.700000,0.275635,-0.950684,-0.084473,-0.328064,-0.099182,-0.312805,0.9934336459019293
0 days 00:00:52.710000,0.275146,-0.950439,-0.082031,-0.099182,-0.061035,-0.259399,0.9928588514980365
0 days 00:00:52.720000,0.272949,-0.949463,-0.082764,0.022888,-0.167847,-0.259399,0.9913783458730576
0 days 00:00:52.730000,0.269287,-0.947998,-0.084961,0.228882,-0.37384,-0.106812,0.9891582623089189
0 days 00:00:52.740000,0.268311,-0.947998,-0.087891,-0.595093,-2.296448,0.198364,0.9891490426654621
0 days 00:00:52.750000,0.269287,-0.948242,-0.078369,0.656128,1.396179,-0.694275,0.988847854370934
0 days 00:00:52.760000,0.273193,-0.952148,-0.079346,0.556946,1.747131,-0.732422,0.9937384046463134
0 days 00:00:52.770000,0.274414,-0.953125,-0.079346,0.427246,1.823425,-0.579834,0.9950106013189005
0 days 00:00:52.780000,0.27417,-0.952393,-0.078613,0.289917,1.579285,-0.518799,0.9941838960262835
0 days 00:00:52.790000,0.273926,-0.950439,-0.078857,1.808166,-2.6474,-1.716614,0.9922641647494885
0 days 00:00:52.800000,0.276855,-0.947998,-0.08252,0.747681,0.63324,-0.801086,0.9910390756317331
0 days 00:00:52.810000,0.27832,-0.949951,-0.082764,1.174927,-0.205994,-1.190186,0.9933372058354605
0 days 00:00:52.820000,0.276367,-0.949219,-0.081299,1.548767,-1.327515,-1.419067,0.9919702394986454
0 days 00:00:52.830000,0.268311,-0.947754,-0.077148,0.709534,0.831604,-0.62561,0.9880183455488061
0 days 00:00:52.840000,0.274414,-0.950439,-0.080078,0.38147,1.174927,-0.541687,0.9924967618088233
0 days 00:00:52.850000,0.268311,-0.94751,-0.07959,0.602722,0.244141,-0.701904,0.9879780164158511
0 days 00:00:52.860000,0.267822,-0.949707,-0.082764,0.328064,-1.533508,-0.679016,0.9902130524432609
0 days 00:00:52.870000,0.264648,-0.946533,-0.080322,0.411987,-1.159668,-0.648498,0.9861110017016339
0 days 00:00:52.880000,0.268311,-0.945557,-0.082031,0.320435,-1.289368,-0.62561,0.9863051849863712
0 days 00:00:52.890000,0.269287,-0.944336,-0.081787,0.328064,-1.312256,-0.671387,0.9853806790443985
0 days 00:00:52.900000,0.268311,-0.949707,-0.082764,0.411987,-1.754761,-0.556946,0.9903454237113433
0 days 00:00:52.910000,0.268799,-0.948486,-0.079834,0.587463,-1.914978,-0.320435,0.9890662577163373
0 days 00:00:52.920000,0.270752,-0.949219,-0.079346,0.595093,-1.708984,-0.274658,0.9902621588150282
0 days 00:00:52.930000,0.275879,-0.94873,-0.081299,0.663757,-0.907898,-0.091553,0.9913664120505595
0 days 00:00:52.940000,0.277344,-0.949951,-0.084717,0.778198,0.282288,0.144958,0.9932288592394001
0 days 00:00:52.950000,0.2771,-0.949463,-0.087891,0.709534,1.00708,0.152588,0.9929699019859565
0 days 00:00:52.960000,0.269043,-0.950439,-0.078125,1.914978,-3.234863,-1.747131,0.9908692871388234
0 days 00:00:52.970000,0.265625,-0.946533,-0.080566,0.534058,-0.762939,-0.770569,0.9863935528327422
0 days 00:00:52.980000,0.263428,-0.950684,-0.075928,1.754761,-2.388,-1.13678,0.9894237920244286
0 days 00:00:52.990000,0.283203,-0.945557,-0.070557,4.104614,-4.676819,1.266479,0.9895758029110251
0 days 00:00:53,0.277588,-0.944092,-0.07251,1.518249,-0.656128,0.259399,0.986723113293694
0 days 00:00:53.010000,0.233398,-0.948242,-0.095459,-1.663208,22.514341,3.860473,0.9811982152699831
0 days 00:00:53.020000,0.236816,-0.945557,-0.098145,-0.068665,14.686584,3.120422,0.9796898994732977
0 days 00:00:53.030000,0.246338,-0.941162,-0.09668,1.365662,8.308411,2.39563,0.9776580909950063
0 days 00:00:53.040000,0.255615,-0.936523,-0.097412,2.525329,4.051208,1.991272,0.9756553979238777
0 days 00:00:53.050000,0.263672,-0.937012,-0.093262,3.219604,1.670837,1.564026,0.9778610393977255
0 days 00:00:53.060000,0.266357,-0.934082,-0.086914,3.738403,0.37384,1.419067,0.9751970455087525
0 days 00:00:53.070000,0.266113,-0.93042,-0.081787,3.753662,-0.724792,1.426697,0.9711779541041899
0 days 00:00:53.080000,0.266846,-0.93042,-0.077148,3.784179,-1.953125,1.38855,0.9709994737485701
0 days 00:00:53.090000,0.268066,-0.935547,-0.076904,4.051208,-3.265381,1.51062,0.9762283517604885
0 days 00:00:53.100000,0.271973,-0.938721,-0.075928,4.020691,-4.562378,1.716614,0.9802711307357777
0 days 00:00:53.110000,0.269531,-0.947266,-0.072998,1.617432,-1.113892,-0.465393,0.987566981384554
0 days 00:00:53.120000,0.276611,-0.942627,-0.072754,3.952026,-5.500793,1.686096,0.9850646937973161
0 days 00:00:53.130000,0.273193,-0.952637,-0.087158,0.686645,1.281738,0.091553,0.9948608877536598
0 days 00:00:53.140000,0.279297,-0.945557,-0.069092,3.974914,-4.089355,0.946045,0.9883615527336138
0 days 00:00:53.150000,0.273926,-0.940186,-0.067139,3.64685,-4.226685,0.679016,0.981576697661981
0 days 00:00:53.160000,0.27417,-0.939697,-0.067383,3.585815,-4.66156,0.37384,0.9811932069669052
0 days 00:00:53.170000,0.275635,-0.936768,-0.070068,3.02124,-5.126953,0.488281,0.9789884900615533
0 days 00:00:53.180000,0.276123,-0.939697,-0.070801,2.578735,-5.187988,0.617981,0.9819812343110229
0 days 00:00:53.190000,0.277588,-0.939697,-0.070557,2.227783,-4.829407,0.610352,0.9823766282857099
0 days 00:00:53.200000,0.282471,-0.939209,-0.071777,2.082825,-3.738403,0.221252,0.9833897239909516
0 days 00:00:53.210000,0.282959,-0.943848,-0.073242,2.128601,-2.166748,0.0,0.9880684355595011
0 days 00:00:53.220000,0.280029,-0.945557,-0.074219,1.953125,-1.052856,0.167847,0.9889402110597991
0 days 00:00:53.230000,0.282959,-0.945801,-0.072021,4.020691,-5.40924,1.480102,0.9898446098873298
0 days 00:00:53.240000,0.271729,-0.957031,-0.07959,0.984192,1.121521,-0.045776,0.9980378512371161
0 days 00:00:53.250000,0.268066,-0.946289,-0.07959,0.556946,-0.312805,-0.663757,0.9867405028562475
0 days 00:00:53.260000,0.268799,-0.954102,-0.076416,1.25885,0.274658,-0.846863,0.9941845572432716
0 days 00:00:53.270000,0.263916,-0.945068,-0.082275,1.251221,-2.555847,-1.319885,0.9846696681146424
0 days 00:00:53.280000,0.263916,-0.946777,-0.08374,1.029968,-3.112793,-1.38855,0.9864333380340509
0 days 00:00:53.290000,0.264648,-0.946289,-0.084717,0.610352,-3.707886,-1.235962,0.9862445972039594
0 days 00:00:53.300000,0.26709,-0.945557,-0.08374,0.312805,-4.020691,-1.022339,0.9861173844674882
0 days 00:00:53.310000,0.270264,-0.946533,-0.083984,0.358582,-3.952026,-0.892639,0.9879375800327671
0 days 00:00:53.320000,0.275635,-0.947998,-0.085693,0.282288,-3.227234,-0.778198,0.9909682898448365
0 days 00:00:53.330000,0.275879,-0.947754,-0.083496,0.190735,-2.220154,-0.572205,0.9906151872311467
0 days 00:00:53.340000,0.277588,-0.949219,-0.081299,0.289917,-1.518249,-0.427246,0.9923111080230836
0 days 00:00:53.350000,0.273438,-0.952637,-0.082764,0.343323,-1.167297,-0.350952,0.9945529012118963
0 days 00:00:53.360000,0.274902,-0.953857,-0.08252,0.404358,-0.701904,-0.274658,0.9961043301045327
0 days 00:00:53.370000,0.26123,-0.944824,-0.081543,1.342773,-2.14386,-1.312256,0.9836578494197055
0 days 00:00:53.380000,0.274658,-0.953125,-0.080566,0.442505,-0.106812,-0.244141,0.9951759457226647
0 days 00:00:53.390000,0.274902,-0.951172,-0.083496,0.770569,0.793457,-0.137329,0.9936150488010937
0 days 00:00:53.400000,0.271484,-0.950195,-0.083252,0.656128,0.87738,-0.114441,0.9917182038185041
0 days 00:00:53.410000,0.268555,-0.948486,-0.081055,0.671387,0.862122,-0.144958,0.9890992838163417
0 days 00:00:53.420000,0.267822,-0.946533,-0.082764,0.656128,0.88501,-0.259399,0.9871692982812016
0 days 00:00:53.430000,0.266113,-0.948486,-0.084717,0.724792,0.63324,-0.350952,0.9887460700574239
0 days 00:00:53.440000,0.263672,-0.947754,-0.082764,0.747681,-0.091553,-0.289917,0.9872236057732817
0 days 00:00:53.450000,0.256592,-0.946533,-0.081055,0.686645,-1.037598,-0.205994,0.9840396778473924
0 days 00:00:53.460000,0.254395,-0.948486,-0.084229,0.511169,-2.044678,-0.205994,0.9856150529806249
0 days 00:00:53.470000,0.261475,-0.949707,-0.083252,0.236511,-2.372742,-0.37384,0.9885562487678685
0 days 00:00:53.480000,0.270264,-0.955811,-0.077148,1.159668,0.709534,-0.526428,0.9962776276324787
0 days 00:00:53.490000,0.275635,-0.949951,-0.080566,0.701904,0.480652,-0.236511,0.9924073941592736
0 days 00:00:53.500000,0.265137,-0.948486,-0.082275,1.434326,-1.808166,-1.296997,0.9882775402638675
0 days 00:00:53.510000,0.266357,-0.948975,-0.085693,0.160217,-2.418518,-0.38147,0.9893648934154678
0 days 00:00:53.520000,0.26709,-0.946533,-0.079346,1.548767,-1.602173,-0.961304,0.9866902127339664
0 days 00:00:53.530000,0.265625,-0.945557,-0.082031,1.571655,-1.647949,-1.091003,0.9855778842055051
0 days 00:00:53.540000,0.269531,-0.942383,-0.083008,1.480102,-0.038147,-1.014709,0.9836783044847538
0 days 00:00:53.550000,0.268066,-0.942139,-0.08374,1.38092,-0.190735,-0.999451,0.9831061302204355
0 days 00:00:53.560000,0.268799,-0.946777,-0.082275,1.396179,-0.434875,-1.014709,0.987627847802501
0 days 00:00:53.570000,0.268066,-0.948486,-0.080566,1.38092,-0.740051,-1.014709,0.9889266671032793
0 days 00:00:53.580000,0.268555,-0.948486,-0.082764,1.426697,-1.014709,-0.907898,0.989240799763637
0 days 00:00:53.590000,0.269531,-0.947754,-0.082031,1.419067,-1.274109,-0.778198,0.9887434902127042
0 days 00:00:53.600000,0.272217,-0.948486,-0.083252,1.541138,-1.373291,-0.717163,0.9902821228261167
0 days 00:00:53.610000,0.270996,-0.948486,-0.084473,1.594543,-1.12915,-0.701904,0.9900506107977511
0 days 00:00:53.620000,0.269775,-0.949219,-0.087158,1.716614,-1.045227,-0.663757,0.9906521980745816
0 days 00:00:53.630000,0.269043,-0.949951,-0.085693,1.88446,-1.083374,-0.732422,0.9910269060419096
0 days 00:00:53.640000,0.267578,-0.948975,-0.080811,1.434326,0.038147,-1.014709,0.9892835561303949
0 days 00:00:53.650000,0.269775,-0.953613,-0.082764,2.02179,-1.228333,-0.839233,0.9944879004241329
0 days 00:00:53.660000,0.271484,-0.950684,-0.083496,1.960754,-1.251221,-0.862122,0.992207242529503
0 days 00:00:53.670000,0.27124,-0.94873,-0.082764,2.006531,-1.335144,-0.831604,0.9902068623252416
0 days 00:00:53.680000,0.27002,-0.947998,-0.081787,2.037048,-1.274109,-0.907898,0.9890905528681385
0 days 00:00:53.690000,0.270996,-0.946533,-0.080566,2.075195,-0.984192,-0.900268,0.9878534468538336
0 days 00:00:53.700000,0.270264,-0.947266,-0.080811,1.983642,-0.663757,-0.808716,0.9883753953700993
0 days 00:00:53.710000,0.269043,-0.94873,-0.080811,2.044678,-0.694275,-0.793457,0.9894458886012918
0 days 00:00:53.720000,0.26709,-0.947266,-0.077881,1.914978,-0.892639,-0.808716,0.987276756040068
0 days 00:00:53.730000,0.266846,-0.947266,-0.077393,1.792908,-1.113892,-0.724792,0.987172395745039
0 days 00:00:53.740000,0.266357,-0.94873,-0.07666,1.647949,-1.419067,-0.839233,0.9883882941177521
0 days 00:00:53.750000,0.26709,-0.948242,-0.077148,1.533508,-1.571655,-0.930786,0.9881557430729226
0 days 00:00:53.760000,2.128174,-1.233887,0.503174,85.227959,-119.049065,-249.992355,2.510933248280607
0 days 00:00:53.770000,1.851807,-0.912109,0.321289,82.176201,-135.650635,-249.992355,2.089104739990554
0 days 00:00:53.780000,1.547119,-0.65918,0.205078,73.417664,-147.598267,-249.992355,1.6941524307585194
0 days 00:00:53.790000,1.270508,-0.49292,0.178955,63.522335,-156.997681,-249.992355,1.3744764808788108
0 days 00:00:53.800000,0.668213,-0.510498,0.419189,49.789425,-196.044907,-249.992355,0.9395936563717318
0 days 00:00:53.810000,0.885986,-0.290283,0.261719,50.559994,-184.547409,-249.992355,0.9683657610872042
0 days 00:00:53.820000,0.817383,-0.287109,0.335938,49.560543,-195.739731,-249.992355,0.9291936754057251
0 days 00:00:53.830000,0.741943,-0.372803,0.383301,49.72839,-199.600204,-249.992355,0.9145387627974005
0 days 00:00:53.840000,1.045166,-0.372803,0.203613,55.305477,-169.631943,-249.992355,1.1281898324900823
0 days 00:00:53.850000,2.342041,-1.585938,0.693604,81.466667,-102.004997,-249.992355,2.91229151946384
0 days 00:00:53.860000,2.79541,-2.893066,0.675049,15.502929,7.278442,-249.992355,4.079195889002758
0 days 00:00:53.870000,2.648682,-2.601318,0.973633,43.731686,-57.02972,-249.992355,3.83801158061528
0 days 00:00:53.880000,2.700928,-2.838135,0.902344,33.813477,-43.312069,-249.992355,4.020478458311275
0 days 00:00:53.890000,2.758301,-2.957275,0.799561,25.245665,-18.77594,-249.992355,4.12225637545107
0 days 00:00:53.900000,2.066895,-1.321045,0.044434,-53.802486,4.753113,-234.443649,2.453403597740494
0 days 00:00:53.910000,2.820068,-2.581787,0.550537,1.693725,30.189512,-249.992355,3.8628355681237583
0 days 00:00:53.920000,2.859863,-2.152832,0.422607,-16.616821,39.93988,-249.992355,3.60445539235014
0 days 00:00:53.930000,2.860352,-1.811768,0.304932,-31.60858,39.649963,-249.900803,3.3995735577204385
0 days 00:00:53.940000,2.770264,-1.586426,0.2229,-41.603085,38.139343,-249.984726,3.2001241371503073
0 days 00:00:53.950000,2.521973,-1.442139,0.165039,-49.026485,30.334471,-249.992355,2.9098712307542067
0 days 00:00:53.960000,2.238037,-1.354004,0.108154,-54.367062,14.381408,-246.376022,2.6179827602757433
0 days 00:00:53.970000,0.542725,-0.637207,0.459717,47.599789,-186.93541,-249.992355,0.9549465464427839
0 days 00:00:53.980000,2.620117,-2.273682,0.975586,56.297298,-66.490173,-249.992355,3.6036663239274804
0 days 00:00:53.990000,0.411133,-0.718994,0.49585,45.089718,-173.278793,-249.992355,0.9653237478820255
