t,ax,ay,az,gx,gy,gz,acc_mag
0 days 00:00:09.530000,-0.119873,-0.87793,0.304443,81.466667,-103.637688,20.39337,0.9369184389678752
0 days 00:00:09.540000,-0.154053,-0.83667,0.338379,74.440002,-89.210503,18.730164,0.9155595902779895
0 days 00:00:09.550000,-0.193848,-0.804688,0.352539,63.522335,-81.916801,21.408079,0.8996574742472826
0 days 00:00:09.560000,-0.365234,-0.953613,0.336914,44.830318,-90.286247,28.793333,1.0753067803752565
0 days 00:00:09.570000,-0.427002,-0.927734,0.402588,-10.299682,-5.279541,21.64459,1.0977696390882743
0 days 00:00:09.580000,-0.210938,-0.999268,0.165771,46.852108,-2.204895,31.692503,1.03465520832256
0 days 00:00:09.590000,-0.19165,-0.9646,0.136963,47.897335,-4.508972,35.102844,0.9929459934301563
0 days 00:00:09.600000,-0.219238,-0.956543,0.057861,-21.049498,-4.005432,-4.364014,0.9830502056426214
0 days 00:00:09.610000,-0.216797,-0.947266,0.067383,-20.606993,-5.523681,-6.950378,0.9740915165701834
0 days 00:00:09.620000,-0.209229,-0.930176,0.074707,-22.3999,-6.500244,-9.857178,0.9563395324182725
0 days 00:00:09.630000,-0.213135,-0.921387,0.075684,-24.696348,-7.003784,-13.374328,0.9487405334705585
0 days 00:00:09.640000,-0.213135,-0.927734,0.076904,-25.863646,-7.644653,-17.181396,0.955003208474715
0 days 00:00:09.650000,-0.218018,-0.935791,0.077393,-25.886534,-9.414673,-19.927979,0.9639638584791445
0 days 00:00:09.660000,-0.228027,-0.943604,0.079834,-25.138853,-11.741637,-21.484373,0.9740422419489824
0 days 00:00:09.670000,-0.228027,-0.949951,0.098633,-22.3999,-13.160705,-22.789,0.9819020744549835
0 days 00:00:09.680000,-0.215576,-0.955566,0.104004,-19.592285,-12.725829,-24.406431,0.9850869119768062
0 days 00:00:09.690000,-0.208008,-0.968994,0.096191,-18.356323,-3.280639,-27.809141,0.9957255689099281
0 days 00:00:09.700000,-0.215088,-0.950684,0.065918,-22.384642,-1.205444,-1.937866,0.9769381241020334
0 days 00:00:09.710000,-0.213867,-0.970215,0.089111,-19.607544,2.380371,-31.532286,0.9974953685280951
0 days 00:00:09.720000,-0.204834,-0.970947,0.091553,-19.294739,8.811951,-39.093018,0.9965324862612358
0 days 00:00:09.730000,-0.196777,-0.974609,0.106934,-16.395569,10.871886,-41.603085,1.0000093854389567
0 days 00:00:09.740000,-0.198486,-0.975586,0.125488,-10.95581,11.924743,-43.914791,1.0034500354955398
0 days 00:00:09.750000,-0.220703,-0.977295,0.137451,-4.623413,11.177062,-45.982357,1.0112903186696687
0 days 00:00:09.760000,-0.242676,-0.979492,0.151855,1.190186,7.095336,-46.06628,1.0204685982748318
0 days 00:00:09.770000,-0.255615,-0.98999,0.154053,6.477355,0.953674,-44.006344,1.0339978506428338
0 days 00:00:09.780000,-0.254395,-0.992432,0.15332,12.7182,-5.493164,-41.992184,1.0359271755528956
0 days 00:00:09.790000,-0.253662,-0.984863,0.156982,18.821716,-11.505126,-39.779663,1.0290495067473675
0 days 00:00:09.800000,-0.257324,-0.976563,0.154297,22.727964,-15.914916,-36.972046,1.0216156313183544
0 days 00:00:09.810000,-0.204834,-0.988281,0.155273,49.255367,-4.272461,33.935547,1.0211591487353966
0 days 00:00:09.820000,-0.212891,-0.967773,0.087891,-19.874573,6.202697,-35.995483,0.9948024855673613
0 days 00:00:09.830000,-0.219482,-0.947021,0.074219,-22.171019,1.876831,0.434875,0.97495106683669
0 days 00:00:09.840000,-0.205322,-0.963379,0.10498,-18.39447,-9.262085,-25.672911,0.9905942770503976
0 days 00:00:09.850000,-0.204834,-0.944336,0.092773,-17.784119,6.118774,5.523681,0.9707390370130378
0 days 00:00:09.860000,-0.218994,-0.945801,0.078369,-20.187376,4.53949,2.754211,0.9739813159388634
0 days 00:00:09.870000,-0.186035,-0.927002,0.112549,38.551331,-0.488281,37.567139,0.9521601790822802
0 days 00:00:09.880000,-0.199219,-0.917236,0.098389,33.874512,2.944946,38.398743,0.9437639985600214
0 days 00:00:09.890000,-0.201904,-0.918945,0.083252,29.151915,5.645751,38.597107,0.9445401175942714
0 days 00:00:09.900000,-0.207031,-0.920166,0.071045,25.3067,7.827758,37.879944,0.9458407342370068
0 days 00:00:09.910000,-0.212402,-0.915283,0.062256,21.614073,9.45282,36.29303,0.9416652214184189
0 days 00:00:09.920000,-0.212158,-0.91333,0.053223,17.63916,10.360717,34.057617,0.9391567460190019
0 days 00:00:09.930000,-0.200928,-0.912109,0.04126,13.374328,11.268615,31.547544,0.9348889114033816
0 days 00:00:09.940000,-0.186279,-0.9104,0.038818,9.384155,13.191222,29.426573,0.9300725041441662
0 days 00:00:09.950000,-0.18042,-0.908203,0.035645,5.691528,16.387939,28.83148,0.9266361916275447
0 days 00:00:09.960000,-0.193115,-0.910156,0.039795,1.945495,19.515991,29.563902,0.9312684841580327
0 days 00:00:09.970000,-0.181152,-0.944824,0.121582,43.258663,-3.044128,36.193848,0.9696858361366324
0 days 00:00:09.980000,-0.23999,-0.931885,0.058594,-2.418518,15.129088,28.381346,0.9640737057720223
0 days 00:00:09.990000,-0.220703,-0.915283,0.053955,-1.174927,19.737244,30.09033,0.9430609345758099
0 days 00:00:10,-0.188232,-0.924805,0.10498,-17.051697,4.943848,13.290404,0.9495874758277933
0 days 00:00:10.010000,-0.187744,-0.903564,0.107178,-15.86914,2.197266,17.555237,0.9290655710529802
0 days 00:00:10.020000,-0.187988,-0.894287,0.10083,-13.381957,-0.999451,21.224974,0.9193777327154493
0 days 00:00:10.030000,-0.185791,-0.903564,0.081543,-10.650634,-4.760742,24.093626,0.9260645002514674
0 days 00:00:10.040000,-0.191895,-0.941406,0.101074,-16.975403,6.271362,9.010315,0.9660667168146307
0 days 00:00:10.050000,-0.179443,-0.928711,0.068115,-7.080078,-6.942749,23.300169,0.9483372633166958
0 days 00:00:10.060000,-0.207031,-0.928711,0.075195,-3.509521,-1.64032,23.04077,0.9544738050397192
0 days 00:00:10.070000,-0.230957,-0.937012,0.065186,-2.13623,6.530761,25.29907,0.9672547950715985
0 days 00:00:10.080000,-0.172852,-0.924316,0.059326,-9.32312,-7.843017,24.92523,0.942208817638638
0 days 00:00:10.090000,-0.005371,0.910156,0.349854,-32.951355,-23.048399,72.479248,0.9750951816581804
0 days 00:00:10.100000,-0.104492,0.794189,0.907959,201.690659,-249.992355,-62.33215,1.2108031596696467
0 days 00:00:10.110000,-0.044922,0.871826,0.919189,147.079468,-215.446457,-40.214535,1.267677789535259
0 days 00:00:10.120000,0.076904,0.941895,0.853516,96.54998,-171.30278,-19.012451,1.2734088025834438
0 days 00:00:10.130000,0.123779,0.96875,0.741211,60.279842,-132.133484,-2.380371,1.2260471238341535
0 days 00:00:10.140000,0.076172,0.967773,0.65332,32.409668,-100.143425,11.566161,1.1701340844163972
0 days 00:00:10.150000,0.036133,0.953369,0.604492,8.06427,-76.095581,28.83148,1.1294373032240435
0 days 00:00:10.160000,-0.007813,0.757324,0.875244,248.451218,-249.992355,-80.169678,1.157433688589113
0 days 00:00:10.170000,0.0271,0.927979,0.565674,-9.689331,-56.190487,45.1889,1.0871368399226475
0 days 00:00:10.180000,0.011719,0.912109,0.460938,-21.614073,-38.955688,59.028622,1.0220293550999404
0 days 00:00:10.190000,0.007568,0.887939,0.28833,-48.324581,-9.536743,86.158745,0.9336097317642956
0 days 00:00:10.200000,-0.118164,0.687012,0.215576,-78.903198,30.174253,144.355774,0.7296720022146936
0 days 00:00:10.210000,-0.004395,0.904785,0.289063,-87.562553,9.407043,114.379875,0.9498487407050661
0 days 00:00:10.220000,-0.037842,0.881592,0.301025,-96.130363,19.554138,125.625603,0.9323371289683792
0 days 00:00:10.230000,-0.058838,0.800537,0.275879,-91.682426,26.611326,134.689331,0.848781845502129
0 days 00:00:10.240000,-0.180664,0.597412,0.146729,-67.443848,26.672361,159.01947,0.6411473918538545
0 days 00:00:10.250000,-0.236084,0.54834,0.075928,-62.187191,18.562317,173.408493,0.6018118242773235
0 days 00:00:10.260000,-0.325195,0.534424,0.006104,-63.84277,16.075134,185.966476,0.6256181412147509
0 days 00:00:10.270000,-0.364746,0.552734,-0.020996,-73.0896,21.39282,199.127182,0.6625672428425661
0 days 00:00:10.280000,-0.323975,0.569092,-0.024414,-87.615959,31.074522,211.708054,0.6553026388509359
0 days 00:00:10.290000,-0.286377,0.552734,-0.05835,-101.684563,42.755123,223.190292,0.6252450586650006
0 days 00:00:10.300000,0.10791,0.740967,0.947021,249.992355,-249.412521,-91.285698,1.2072801819089056
0 days 00:00:10.310000,0.031982,0.884766,0.268311,-68.336487,0.1297,100.776665,0.9251078400927105
0 days 00:00:10.320000,0.118408,0.689453,1.071777,249.336227,-249.961838,-100.570671,1.2798718027216631
0 days 00:00:10.330000,-0.275635,0.508057,-0.044189,-109.352104,54.222103,229.461655,0.5796975385448864
0 days 00:00:10.340000,0.231445,0.711426,1.143555,249.992355,-249.992355,-146.873474,1.3665327583069498
0 days 00:00:10.350000,-1.411621,0.693848,-0.13916,-92.758171,-171.966537,58.814999,1.5790707394999757
0 days 00:00:10.360000,-1.093994,0.720459,-0.21875,-40.466305,-186.523422,45.867916,1.3280570790508215
0 days 00:00:10.370000,-0.511963,0.790771,-0.483643,-0.87738,-160.03418,33.630371,1.0589312722075026
0 days 00:00:10.380000,-0.466309,0.929199,-0.639648,-13.938903,-23.200987,-3.486633,1.2206573757553756
0 days 00:00:10.390000,-0.569336,0.9729,-0.31958,-39.825439,78.933716,-21.926878,1.1716694360168314
0 days 00:00:10.400000,-0.455078,0.960938,-0.128174,-52.322384,103.98864,-14.038085,1.0709464973582947
0 days 00:00:10.410000,-0.622314,1.000977,-0.160889,-73.257446,117.09594,4.356384,1.189586037008673
0 days 00:00:10.420000,-0.725342,0.978271,-0.265381,-94.253532,128.753662,16.418457,1.2464197694059573
0 days 00:00:10.430000,-0.636719,1.039063,-0.22583,-124.1455,136.161804,20.988462,1.2393797609409314
0 days 00:00:10.440000,-0.698975,1.143066,-0.251953,-158.042908,131.523132,45.585629,1.3633217687655397
0 days 00:00:10.450000,0.172852,0.703857,1.12915,249.877914,-249.992355,-123.847954,1.3417422304053042
0 days 00:00:10.460000,-1.084229,1.047607,-0.671143,-187.286362,112.358086,61.386105,1.650292664147484
0 days 00:00:10.470000,-1.918701,0.420166,-0.373291,-190.277084,-54.832455,-18.318176,1.9993246773943447
0 days 00:00:10.480000,-1.257813,0.298584,-0.959473,-68.161011,-48.97308,-53.222652,1.6099175089904452
0 days 00:00:10.490000,1.249756,0.693848,0.081543,-53.63464,52.322384,-111.244194,1.4317696628609646
0 days 00:00:10.500000,2.467041,1.132324,1.689453,-13.740539,51.391598,10.231017,3.197295791112546
0 days 00:00:10.510000,-1.066162,2.396973,0.479004,61.653133,-122.50518,99.517815,2.6667631700226027
0 days 00:00:10.520000,-6.280273,2.912109,0.646973,-201.179489,-200.813278,45.989986,6.952753544110347
0 days 00:00:10.530000,-3.062012,-4.133301,-3.251465,108.924858,-200.553879,-189.712509,6.085402147021181
0 days 00:00:10.540000,-0.562256,-1.496338,-1.370605,249.992355,-249.992355,-226.760849,2.1056394007058756
0 days 00:00:10.550000,0.225586,0.473389,0.924561,249.992355,-249.992355,-189.147934,1.0629201434905633
0 days 00:00:10.560000,0.222412,0.594727,1.082275,249.992355,-249.992355,-166.351303,1.2547854310191844
0 days 00:00:10.570000,-1.64917,0.749268,-0.483154,-220.252975,48.835751,24.497984,1.8747271834696375
0 days 00:00:10.580000,-0.263672,0.448975,0.053711,-109.565727,58.79211,234.039291,0.5234370503986129
0 days 00:00:10.590000,-1.544922,-1.152832,0.416016,-117.698662,50.712582,249.992355,1.9720230522395015
0 days 00:00:10.600000,-0.378418,0.303711,0.109863,-104.988091,55.282589,248.626694,0.49750420401640827
0 days 00:00:10.610000,-1.456055,-1.401611,0.282227,-134.140015,-10.528563,249.992355,2.040652257949649
0 days 00:00:10.620000,-1.457764,-1.428955,0.296631,-139.091492,-24.940489,249.992355,2.0627598556017133
0 days 00:00:10.630000,-1.408447,-1.373779,0.361572,-146.55304,-42.442318,249.992355,2.000431454420271
0 days 00:00:10.640000,-1.304443,-1.238281,0.466553,-161.941513,-58.2962,249.992355,1.8581127729551294
0 days 00:00:10.650000,-1.185059,-1.233643,0.560059,-174.003586,-72.036743,249.870285,1.7999738799246505
0 days 00:00:10.660000,-1.113525,-1.377686,0.591797,-168.800339,-82.344048,249.748215,1.8676670820652166
0 days 00:00:10.670000,-1.105469,-1.462158,0.532471,-149.978638,-87.417595,249.992355,1.908793622360993
0 days 00:00:10.680000,-1.071777,-1.452393,0.413574,-132.415771,-89.912407,246.337875,1.8518085261856854
0 days 00:00:10.690000,-0.975586,-1.372803,0.31543,-122.482292,-93.719475,219.352707,1.7134328714907392
0 days 00:00:10.700000,-0.893555,-1.25,0.304199,-118.896477,-99.189751,193.031296,1.5663580592016628
0 days 00:00:10.710000,-1.456787,-1.32373,0.326904,-128.311157,1.106262,249.992355,1.9953334812719903
0 days 00:00:10.720000,-0.848389,-1.152832,0.354004,-115.547173,-102.012627,168.014511,1.474484434492613
0 days 00:00:10.730000,-0.565918,-1.109619,0.344238,-99.655144,-95.565788,129.53186,1.2922914951855868
0 days 00:00:10.740000,-0.51123,-1.104004,0.290283,-87.814323,-83.549492,116.012566,1.2507778239979312
0 days 00:00:10.750000,-0.510986,-1.080078,0.263672,-76.660156,-68.077087,103.416435,1.2236004666001072
0 days 00:00:10.760000,-0.494873,-1.038086,0.280518,-67.832947,-53.550716,92.720024,1.1837280844218405
0 days 00:00:10.770000,-0.483643,-1.006104,0.29541,-60.6842,-42.152401,84.045403,1.1547393118643707
0 days 00:00:10.780000,-0.45874,-0.984375,0.293213,-53.016659,-32.096863,76.568604,1.1249046144424868
0 days 00:00:10.790000,-0.393066,-0.966064,0.314697,-43.281551,-22.262571,68.153381,1.0894102690267795
0 days 00:00:10.800000,-0.354004,-0.946777,0.335449,-34.820557,-13.374328,58.532711,1.0650030757448543
0 days 00:00:10.810000,-0.372559,-0.921143,0.346924,-29.296873,-6.118774,47.599789,1.0524547005481995
0 days 00:00:10.820000,-0.409912,-0.916992,0.371338,-21.804808,-3.265381,34.545898,1.0708847211777746
0 days 00:00:10.830000,-0.720703,-1.114258,0.37915,-109.268181,-101.600639,146.034241,1.38012261313008
0 days 00:00:10.840000,-1.48291,-1.238525,0.393311,-121.459953,16.12854,249.992355,1.9717149353915235
0 days 00:00:10.850000,-0.306641,0.371094,0.119873,-106.422417,57.327267,241.378769,0.49609373695502346
0 days 00:00:10.860000,-0.443359,0.277588,0.093506,-106.842033,54.786678,249.992355,0.5313809110807425
0 days 00:00:10.870000,-1.533691,-1.184082,0.445313,-116.355888,35.514832,249.992355,1.9881051114500963
0 days 00:00:10.880000,-0.48584,0.226074,0.07666,-113.029472,59.387203,249.992355,0.5413194201910735
0 days 00:00:10.890000,-0.492432,0.163818,0.116211,-110.939018,67.504883,249.992355,0.5318182097944748
0 days 00:00:10.900000,-0.439697,0.092529,0.181396,-94.223015,76.896667,249.992355,0.4845612205552565
0 days 00:00:10.910000,-0.423096,0.037598,0.231201,-73.188782,87.364189,249.992355,0.48360907479181986
0 days 00:00:10.920000,-0.456543,-0.018066,0.227783,-57.15942,98.686211,249.992355,0.5105320619647702
0 days 00:00:10.930000,-0.486328,-0.158936,0.209717,-39.344788,97.43499,249.992355,0.5529527970532385
0 days 00:00:10.940000,-0.582764,-0.235352,0.171143,-31.639097,97.496025,249.992355,0.6513788222294304
0 days 00:00:10.950000,-0.702148,-0.259766,0.103516,-26.412962,101.455681,249.992355,0.7557815497324607
0 days 00:00:10.960000,-0.772461,-0.257324,0.09082,-27.488707,103.111259,249.992355,0.8192434985381329
0 days 00:00:10.970000,-0.764893,-0.274414,0.119873,-34.767151,94.604485,249.992355,0.8214218654102167
0 days 00:00:10.980000,-0.45459,-0.08374,0.207764,-46.661373,100.45623,249.992355,0.5067843085534516
0 days 00:00:10.990000,-0.815186,-0.389404,0.210205,-49.186703,73.83728,249.992355,0.9275504470577328
0 days 00:00:11,-0.863281,-0.498047,0.21167,-50.407406,69.007874,249.992355,1.01887638507819
0 days 00:00:11.010000,-1.022949,-0.584717,0.214355,-48.782345,77.613831,249.992355,1.1976087394115826
0 days 00:00:11.020000,-1.120117,-0.650635,0.193359,-51.055904,81.138603,249.992355,1.3097235203641264
0 days 00:00:11.030000,-1.189941,-0.706055,0.205078,-58.013912,71.350098,249.992355,1.3987602484307309
0 days 00:00:11.040000,-1.3125,-0.765137,0.217773,-68.283081,57.66296,249.992355,1.5347690244131198
0 days 00:00:11.050000,-1.363281,-0.807129,0.233154,-87.722771,44.128414,249.992355,1.6013597644870436
0 days 00:00:11.060000,-1.298828,-0.911865,0.287598,-107.460014,40.145874,249.992355,1.612812624396585
0 days 00:00:11.070000,-1.312012,-1.041016,0.340088,-118.484489,47.119137,249.992355,1.709020084183916
0 days 00:00:11.080000,-0.798096,-0.319336,0.175537,-43.914791,84.381096,249.992355,0.8773516652295134
0 days 00:00:11.090000,-1.445557,-1.112305,0.361084,-121.154778,54.054256,249.992355,1.859365243390873
0 days 00:00:11.100000,-0.033691,0.962646,0.108643,-47.8363,76.522827,-98.335258,0.9693429249991976
0 days 00:00:11.110000,-1.511719,0.672363,-1.268799,-55.160519,53.276058,-46.836849,2.0849981393591217
0 days 00:00:11.120000,-1.363281,0.690186,-0.675537,-86.563103,33.485413,30.288694,1.6707010618078868
0 days 00:00:11.130000,-0.843506,0.941162,-0.017334,-73.753357,113.822929,81.80999,1.2639575743813556
0 days 00:00:11.140000,-0.209717,0.760742,-0.549561,-0.12207,50.529476,18.119812,0.961627216427447
0 days 00:00:11.150000,-0.430664,0.941162,-0.478027,-39.215088,142.204285,41.572567,1.1400733326716312
0 days 00:00:11.160000,-0.306641,0.873291,-0.402344,-28.671263,106.986992,26.771544,1.0092306812111889
0 days 00:00:11.170000,-0.289551,0.823486,-0.499023,-8.781433,84.869377,25.482176,1.005481441064926
0 days 00:00:11.180000,1.350342,1.397217,0.636963,-105.072014,108.871452,-36.964417,2.0448375792277487
0 days 00:00:11.190000,-0.618408,0.995361,-0.422852,-46.394344,173.660263,73.005676,1.24578320292457
0 days 00:00:11.200000,1.157715,2.619141,1.431641,-47.271725,71.739197,121.849052,3.2015308138431213
0 days 00:00:11.210000,-1.565186,3.661377,3.369873,-210.433945,-227.5009,249.992355,5.21646746245522
0 days 00:00:11.220000,-3.621582,-4.168945,-4.419678,249.992355,-187.499985,-249.992355,7.0731543330704305
0 days 00:00:11.230000,-0.056152,0.305908,0.631348,249.992355,-249.992355,-241.302475,0.7037990115594082
0 days 00:00:11.240000,0.02832,0.403564,0.784424,249.992355,-249.992355,-231.025681,0.8826023658885127
0 days 00:00:11.250000,-0.057129,0.445068,1.04834,249.992355,-249.992355,-219.490036,1.1403359166776255
0 days 00:00:11.260000,-0.151367,0.498535,1.329102,249.992355,-249.992355,-204.147324,1.4275717990062706
0 days 00:00:11.270000,-0.192139,0.579102,1.480469,249.992355,-249.992355,-185.249313,1.6012698029020593
0 days 00:00:11.280000,-0.212158,0.62793,1.440918,249.992355,-249.992355,-166.534409,1.586049111657013
0 days 00:00:11.290000,-0.240234,0.622559,1.339844,249.603256,-249.992355,-151.817322,1.4968213078296955
0 days 00:00:11.300000,-0.318848,0.60083,1.266113,249.992355,-249.992355,-138.931274,1.4372553234456988
0 days 00:00:11.310000,-0.23877,0.750977,-0.388916,-14.518737,5.500793,10.833739,0.8787680140315759
0 days 00:00:11.320000,-7.862549,-2.501709,-5.064697,-24.475096,91.094963,-45.44067,9.681393515392864
0 days 00:00:11.330000,-0.501221,0.76001,-0.321777,-29.945372,-46.936031,13.694762,0.9655972911467803
0 days 00:00:11.340000,-0.733887,0.780273,0.040283,-198.089584,217.04863,108.741753,1.0719322755598881
0 days 00:00:11.350000,-1.13916,0.648193,-0.609863,-39.176941,-86.84539,-63.880917,1.4456045619802118
0 days 00:00:11.360000,-0.493896,0.670166,0.745361,-175.376877,227.989182,51.712032,1.1174161027535803
0 days 00:00:11.370000,-0.547607,0.633789,0.644287,-163.902267,228.088364,48.126217,1.056724969582436
0 days 00:00:11.380000,-0.616211,0.634277,0.543945,-160.736069,227.195724,49.72839,1.0382193757944416
0 days 00:00:11.390000,-0.6521,0.662109,0.439209,-167.869553,233.749374,54.244991,1.0278751303353926
0 days 00:00:11.400000,-0.606934,0.698975,0.349121,-178.520187,245.101913,59.082027,0.9893535281293537
0 days 00:00:11.410000,-0.55835,0.702393,0.316406,-185.852036,249.954208,67.138672,0.9514322917501803
0 days 00:00:11.420000,-0.572998,0.685303,0.324219,-184.226974,249.908432,76.599121,0.9503077763409074
0 days 00:00:11.430000,-0.589111,0.689453,0.318604,-176.437363,249.992355,83.969109,0.9612001447908756
0 days 00:00:11.440000,-0.634766,0.718262,0.23877,-174.125656,249.992355,91.461174,0.9878457816380045
0 days 00:00:11.450000,-0.703125,0.760254,0.147705,-181.930527,246.711716,100.692741,1.0460342619465195
0 days 00:00:11.460000,-1.01123,0.662842,-0.518799,-33.39386,-78.201294,-1.00708,1.3157119868212042
0 days 00:00:11.470000,-0.733398,0.789063,0.097656,-192.459091,233.535751,107.826225,1.0816791292749435
0 days 00:00:11.480000,-0.777832,0.73877,-0.064209,-196.723923,200.530991,105.758659,1.0746750805731935
0 days 00:00:11.490000,-0.839844,0.681152,-0.175781,-187.43895,182.13652,102.294914,1.0955386581043134
0 days 00:00:11.500000,-0.907471,0.642822,-0.257813,-170.150742,157.096863,98.808281,1.1415740372371825
0 days 00:00:11.510000,-1.048584,0.671631,-0.349854,-154.907227,129.310608,98.030083,1.2934505891347376
0 days 00:00:11.520000,-1.139404,0.7771,-0.504395,-157.646179,89.87426,97.000114,1.4685163265149626
0 days 00:00:11.530000,-1.197021,0.850586,-0.660156,-181.228622,33.203125,84.20562,1.6100191806848139
0 days 00:00:11.540000,-1.471924,0.789795,-0.648682,-203.079208,-25.711058,73.822021,1.7919611438100438
0 days 00:00:11.550000,-1.465576,0.693359,-0.404785,-184.432968,-88.371269,68.244934,1.6710806715661575
0 days 00:00:11.560000,-0.958984,0.70459,-0.190918,-109.199516,-156.196594,26.56555,1.205216604216852
0 days 00:00:11.570000,-0.80835,0.719238,-0.29834,-42.892452,-157.348633,-44.578548,1.1223812982868167
0 days 00:00:11.580000,-0.353516,0.602783,1.188721,249.992355,-249.992355,-122.50518,1.3789048274576456
0 days 00:00:11.590000,-0.310059,0.657715,1.17627,233.451828,-249.992355,-107.170097,1.3828726324596925
0 days 00:00:11.600000,-0.250732,0.72998,1.24292,197.296127,-249.748215,-96.458427,1.4630746606458604
0 days 00:00:11.610000,-0.256836,0.761719,1.208252,168.975815,-249.992355,-89.324944,1.4512248142038504
0 days 00:00:11.620000,-0.1875,0.83374,0.949463,-195.129379,207.038864,32.302856,1.277403078894442
0 days 00:00:11.630000,-0.160889,0.807373,0.928223,-207.611069,223.464951,45.089718,1.2406991453124323
0 days 00:00:11.640000,-0.136719,0.780518,0.871094,-213.531479,241.798386,58.349606,1.1775844726052564
0 days 00:00:11.650000,-0.132813,0.760254,0.804199,-215.118393,249.900803,69.702148,1.1146126991408272
0 days 00:00:11.660000,-0.167725,0.741455,0.716309,-218.719467,249.992355,79.368591,1.0445026453441848
0 days 00:00:11.670000,-0.237549,0.708008,0.612305,-225.257858,249.992355,88.012688,0.9657237019406741
0 days 00:00:11.680000,-0.286621,0.664795,0.533203,-226.142868,249.992355,95.199577,0.8991159151494317
0 days 00:00:11.690000,-0.316162,0.630859,0.474365,-217.025742,249.992355,101.72271,0.850272686465936
0 days 00:00:11.700000,-0.311523,0.696289,0.242432,-194.061264,249.992355,116.2033,0.8003987916495127
0 days 00:00:11.710000,-0.319824,0.781982,0.126465,-195.701584,249.992355,125.671379,0.8542696503592996
0 days 00:00:11.720000,-0.209473,0.84668,0.970215,-176.567062,195.632919,24.360655,1.3046314063190416
0 days 00:00:11.730000,-0.302979,0.832275,0.104736,-204.437241,249.992355,134.483337,0.8918786799570892
0 days 00:00:11.740000,-0.491455,0.787109,0.044922,-197.13591,249.717697,142.76886,0.9290245319634999
0 days 00:00:11.750000,-0.585205,0.720703,-0.00708,-172.912582,249.992355,139.030457,0.9284006853907423
0 days 00:00:11.760000,-0.708984,0.657959,-0.125488,-145.66803,249.992355,132.286072,0.9753540875400071
0 days 00:00:11.770000,-0.867676,0.636475,-0.304443,-124.65667,238.990768,129.745483,1.1183235698356717
0 days 00:00:11.780000,-0.979492,0.67334,-0.451172,-110.023491,204.69664,130.470276,1.2713565618063252
0 days 00:00:11.790000,-1.106934,0.780029,-0.552246,-103.561394,164.794907,131.355286,1.4624376108788368
0 days 00:00:11.800000,-1.254395,0.881592,-0.592529,-109.870903,110.992424,135.360718,1.6437158776169318
0 days 00:00:11.810000,-1.367676,0.938477,-0.568604,-125.984184,36.056519,136.825562,1.7534500931937014
0 days 00:00:11.820000,-1.415527,0.92041,-0.4375,-136.428833,-48.84338,117.629997,1.7442125747250532
0 days 00:00:11.830000,-1.436768,0.796875,-0.251465,-126.770012,-125.862114,83.229057,1.6620910617875304
0 days 00:00:11.840000,-0.348877,0.832031,0.097412,-208.305344,249.992355,140.312195,0.9074579019623995
0 days 00:00:11.850000,-0.238525,0.852783,0.982422,-155.738831,184.967026,21.301268,1.32260576393648
0 days 00:00:11.860000,-0.322754,0.63501,0.382568,-203.254684,249.992355,108.535759,0.808558049394105
0 days 00:00:11.870000,-0.178223,0.864746,0.963379,-111.0382,144.104004,13.267516,1.3067701327647492
0 days 00:00:11.880000,-0.293945,0.771484,1.105957,146.339417,-249.992355,-85.754387,1.3801203248738858
0 days 00:00:11.890000,-0.231201,0.85791,0.976074,-133.81958,167.884811,18.074036,1.319918150483961
0 days 00:00:11.900000,-0.284912,0.834473,0.975098,103.195183,-215.316757,-73.852539,1.3146619889070346
0 days 00:00:11.910000,-0.276611,0.8479,0.918945,84.228508,-189.338669,-66.413879,1.2805889146584082
0 days 00:00:11.920000,-0.281494,0.845703,0.836182,75.920105,-163.719162,-60.18066,1.222150879952635
0 days 00:00:11.930000,-0.285889,0.853516,0.75708,73.997498,-141.448975,-55.290218,1.1761769462869947
0 days 00:00:11.940000,-0.278809,0.871094,0.679932,72.235107,-122.299187,-51.040646,1.1396695748948464
0 days 00:00:11.950000,-0.265381,0.894775,0.625244,67.451477,-103.996269,-46.539303,1.1233785805871501
0 days 00:00:11.960000,-0.257813,0.908203,0.633545,60.806271,-84.487907,-41.397091,1.1369606410087378
0 days 00:00:11.970000,-0.262695,0.905518,0.653564,55.26733,-63.095089,-35.53772,1.1472216060748683
0 days 00:00:11.980000,-0.260498,0.898193,0.653809,52.902218,-42.892452,-29.800413,1.1410854839730458
0 days 00:00:11.990000,-0.301025,0.796631,1.015381,125.495903,-239.318832,-81.115715,1.3252303859884138
0 days 00:00:12,-0.136963,0.888916,0.962891,-63.453671,89.004509,6.79779,1.3176075274170227
0 days 00:00:12.010000,-0.285889,0.898926,0.692871,49.606319,-17.807007,-18.39447,1.1704147540244014
0 days 00:00:12.020000,-0.282471,0.907715,0.715088,42.518612,-9.460449,-12.573241,1.1895743922975142
0 days 00:00:12.030000,-0.243652,0.908203,0.76416,31.784056,-2.372742,-7.232666,1.2116680617698066
0 days 00:00:12.040000,-0.213135,0.889648,0.818604,19.050598,6.210327,-3.097534,1.2276044154958876
0 days 00:00:12.050000,-0.192139,0.866699,0.881592,6.446838,16.548157,-0.328064,1.2511151051705836
0 days 00:00:12.060000,-0.156006,0.864502,0.932861,-5.401611,27.107237,1.235962,1.2813786424632652
0 days 00:00:12.070000,-0.135254,0.879395,0.962158,-20.919798,41.931149,2.708435,1.3104874007425635
0 days 00:00:12.080000,-0.129639,0.889648,0.966797,-40.939327,62.713619,4.470825,1.320218267345972
0 days 00:00:12.090000,-0.146729,0.876953,0.959961,-87.089531,117.34771,9.33075,1.3084728064316047
0 days 00:00:12.100000,-0.263672,0.895264,0.678711,52.200314,-28.350828,-24.024961,1.1539797116071842
0 days 00:00:12.110000,-0.463623,0.515137,0.227051,-193.771347,189.788803,-12.08496,0.7292904575674908
0 days 00:00:12.120000,-0.511719,0.873535,-0.063232,-213.058456,150.680542,-26.206968,1.0143559616870204
0 days 00:00:12.130000,-0.55957,1.16333,-0.213623,-177.238449,93.269341,-41.961666,1.3084685934056652
0 days 00:00:12.140000,-0.445068,1.195068,-0.18042,-106.704704,42.961117,-62.629696,1.287953580548616
0 days 00:00:12.150000,0.098877,0.328369,1.238525,249.992355,-249.992355,-249.992355,1.2851253000836145
0 days 00:00:12.160000,-0.198486,0.63501,-0.071533,-13.031005,-54.38232,-86.830132,0.6691422587051276
0 days 00:00:12.170000,-0.30957,0.476563,-0.029053,-23.04077,-100.761406,-79.292297,0.5690254429091902
0 days 00:00:12.180000,-0.841064,0.155762,0.327881,-119.819633,191.20787,-7.255554,0.9160548034375454
0 days 00:00:12.190000,-0.466797,0.456299,0.05249,-52.36816,-133.552551,-77.522278,0.654876642360987
0 days 00:00:12.200000,-0.265137,0.947998,-0.091797,-42.190548,-6.378173,-83.930962,0.9886478270759512
0 days 00:00:12.210000,-1.461426,0.012451,0.219971,-27.45056,142.601013,-35.690308,1.477940533890995
0 days 00:00:12.220000,-1.815674,3.147217,1.885742,-249.992355,-235.221848,-33.653259,4.093613295113377
0 days 00:00:12.230000,-2.227051,0.90918,-0.833496,12.687682,-53.367611,-57.128902,2.5457965376315914
0 days 00:00:12.240000,-0.772705,1.710938,-0.862305,-86.631767,71.723938,-80.825798,2.0659021685196035
0 days 00:00:12.250000,2.171387,1.995605,0.920166,-230.735764,60.56213,38.94043,3.08934722673739
0 days 00:00:12.260000,1.592285,2.480957,1.813721,-231.704697,-1.579285,140.953064,3.4612285424275293
0 days 00:00:12.270000,-7.326904,-2.729492,-1.186768,-71.029663,-40.664669,-76.919556,7.908354259206146
0 days 00:00:12.280000,-3.211182,-4.436279,-3.723877,249.992355,-193.664536,-249.992355,6.622652120872272
0 days 00:00:12.290000,0.057861,0.158936,0.911621,249.992355,-249.992355,-249.992355,0.9271792680264157
0 days 00:00:12.300000,0.154541,0.243896,1.003174,249.992355,-249.992355,-249.916061,1.0438995419929067
0 days 00:00:12.310000,0.191406,0.295654,1.119141,249.992355,-249.992355,-249.763474,1.1732536479521383
0 days 00:00:12.320000,-0.602783,0.539307,0.103516,-87.455742,-138.404846,-83.526604,0.8154231708714194
0 days 00:00:12.330000,-1.918457,0.324219,0.139404,11.146544,12.695312,-80.79528,1.9506482758370358
0 days 00:00:12.340000,-0.701416,0.665527,0.046875,-113.670341,-118.011467,-91.835014,0.9680433143253457
0 days 00:00:12.350000,-1.222412,0.000977,0.348633,-216.575607,-124.351494,-63.110348,1.2711557815476433
0 days 00:00:12.360000,-1.011719,0.772217,0.029541,-95.611565,-64.949036,-99.060051,1.273093516098091
0 days 00:00:12.370000,-0.059082,0.356689,1.349854,249.992355,-249.992355,-247.993454,1.3974346305859893
0 days 00:00:12.380000,-1.300049,-0.113281,0.374268,-212.036118,-115.684502,-68.527222,1.3575848125203818
0 days 00:00:12.390000,-1.250732,-0.248535,0.3396,-191.810593,-105.155937,-72.006226,1.3196318964199827
0 days 00:00:12.400000,-1.138916,-0.388672,0.199463,-160.102844,-79.490662,-83.351128,1.2198282940680627
0 days 00:00:12.410000,-0.921143,-0.51123,0.115479,-119.056694,-45.577999,-100.486748,1.0598093879514372
0 days 00:00:12.420000,-0.752441,-0.588135,0.211426,-67.306519,-30.822752,-113.548271,0.9781468142267805
0 days 00:00:12.430000,-0.824219,-0.596436,0.354492,-12.863158,-38.917542,-132.797241,1.0773752550160969
0 days 00:00:12.440000,-1.012451,-0.512207,0.454834,28.137205,-51.879879,-153.09906,1.2224103262841002
0 days 00:00:12.450000,-1.057617,-0.352295,0.410156,56.434628,-51.99432,-153.953552,1.187810351045149
0 days 00:00:12.460000,-0.958252,-0.194824,0.298584,68.29071,-30.479429,-136.100769,1.022426374628511
0 days 00:00:12.470000,-0.849121,0.756104,0.02124,-114.776604,-92.658989,-93.40667,1.1371679159460137
0 days 00:00:12.480000,-0.858154,-0.103027,0.208984,50.491329,2.853393,-106.155388,0.8892227857522546
0 days 00:00:12.490000,-0.872314,0.206055,0.041992,23.010252,53.604122,-209.342941,0.8973035749873062
0 days 00:00:12.500000,-1.039307,0.110107,-0.05249,-24.536131,44.349667,-236.404404,1.0464405342865881
0 days 00:00:12.510000,-1.008301,0.0271,-0.151367,-4.669189,29.899595,-189.95665,1.0199594527676088
0 days 00:00:12.520000,-0.781738,0.13208,-0.085693,-11.253356,8.506775,-123.718254,0.7974350865700606
0 days 00:00:12.530000,-0.651855,0.282715,0.00293,-27.542112,-2.746582,-105.911247,0.7105288855141639
0 days 00:00:12.540000,-0.725342,0.359863,0.003418,-38.345337,2.830505,-115.722649,0.8097123430311532
0 days 00:00:12.550000,-0.753174,0.411621,0.059814,-40.06958,10.620116,-122.093193,0.8603956279020716
0 days 00:00:12.560000,-0.771484,0.4729,0.104004,-44.914242,1.365662,-110.679619,0.9108451044343379
0 days 00:00:12.570000,-0.875732,0.592773,0.115479,-57.426449,-10.620116,-112.243645,1.063777121766585
0 days 00:00:12.580000,-1.015381,0.708984,0.059814,-74.440002,-34.339905,-109.40551,1.2398526533475662
0 days 00:00:12.590000,-0.875488,0.025146,0.156494,44.532772,37.628174,-117.652885,0.8897201422335004
0 days 00:00:12.600000,-0.151123,0.400635,1.460205,249.992355,-249.992355,-226.280197,1.5216915608555501
0 days 00:00:12.610000,-0.368896,0.898926,0.658203,-45.646664,77.354431,47.142025,1.1736197857487747
0 days 00:00:12.620000,-0.08374,0.540771,1.467041,249.633774,-249.992355,-172.630295,1.5657761518563245
0 days 00:00:12.630000,-0.345459,0.906738,0.459473,-1.602173,15.556334,9.857178,1.073606612802846
0 days 00:00:12.640000,-0.36084,0.903564,0.464844,-3.89862,19.882202,14.869689,1.0782918677389717
0 days 00:00:12.650000,-0.365234,0.886475,0.474365,-3.364563,23.620604,19.737244,1.0696990014046006
0 days 00:00:12.660000,-0.362793,0.874512,0.484619,-0.816345,26.733397,23.04077,1.0636002887147031
0 days 00:00:12.670000,-0.361328,0.876709,0.485352,-0.37384,31.898497,24.29199,1.0652432389689221
0 days 00:00:12.680000,-0.333008,0.893066,0.497803,-4.66156,38.18512,25.642393,1.0752995095455964
0 days 00:00:12.690000,-0.29541,0.912109,0.539551,-12.809752,43.777462,29.380796,1.1001477980626058
0 days 00:00:12.700000,-0.296143,0.926514,0.586914,-22.102354,50.376888,35.469055,1.136044414642755
0 days 00:00:12.710000,-0.333008,0.929199,0.627686,-31.265257,60.150143,41.954037,1.1697413492994937
0 days 00:00:12.720000,-0.354492,0.900146,0.658691,-53.237911,85.639946,46.638485,1.1703850788783152
0 days 00:00:12.730000,-0.359619,0.897217,0.443359,0.968933,12.542724,5.989074,1.0634337652768977
0 days 00:00:12.740000,-0.338379,0.920654,0.680176,-63.957211,97.228996,46.607967,1.1936262087994716
0 days 00:00:12.750000,-0.33374,0.951416,0.78833,-91.423027,120.048515,54.794308,1.2798589694009257
0 days 00:00:12.760000,-0.373047,0.960449,0.806641,-104.812614,133.911133,58.258053,1.308547304720391
0 days 00:00:12.770000,-0.405518,0.965088,0.789063,-118.141167,149.795532,57.640072,1.3109004973822382
0 days 00:00:12.780000,-0.400391,0.962646,0.794922,-132.873535,162.284836,54.64172,1.311068747351183
0 days 00:00:12.790000,-0.390137,0.942627,0.813477,-150.566101,172.264084,51.399227,1.3047978270318357
0 days 00:00:12.800000,-0.368896,0.916992,0.810547,-165.962204,182.929977,47.134396,1.2782585912439626
0 days 00:00:12.810000,-0.372314,0.879883,0.786133,-176.010117,195.259079,46.005245,1.237261856671416
0 days 00:00:12.820000,-0.404785,0.813477,0.814941,-183.380112,208.007797,50.460812,1.220542731425246
0 days 00:00:12.830000,-0.124023,0.467529,1.500244,249.900803,-249.992355,-200.218185,1.5762922095557028
0 days 00:00:12.840000,-0.446777,0.738037,0.822998,-184.28801,219.9478,54.122921,1.1923229466474257
0 days 00:00:12.850000,-0.319824,0.94043,0.731689,-77.354431,108.711235,49.522396,1.2337198906546818
0 days 00:00:12.860000,-0.368408,0.880859,0.437256,2.998352,6.240844,4.081726,1.0501570558164144
0 days 00:00:12.870000,-0.36499,0.916016,0.653809,-39.031982,69.534302,46.295162,1.1831184306048994
0 days 00:00:12.880000,-0.36084,0.85791,0.47876,-0.823975,-7.469177,3.753662,1.0466261086462538
0 days 00:00:12.890000,-0.120605,0.585938,1.411133,249.992355,-249.992355,-148.81897,1.532698681919574
0 days 00:00:12.900000,-0.357422,0.863037,0.455322,2.861023,-1.922607,3.829956,1.03918307970107
0 days 00:00:12.910000,-0.33374,0.629639,1.348633,219.749435,-249.992355,-118.484489,1.5253323003890005
0 days 00:00:12.920000,-0.253906,0.67627,1.349365,190.124496,-249.93895,-100.425713,1.530553910504625
0 days 00:00:12.930000,-0.128662,0.73291,1.294189,160.697922,-249.496445,-80.841057,1.4928617303906615
0 days 00:00:12.940000,-0.049805,0.790283,1.251465,133.544922,-249.992355,-65.040588,1.4809430793717226
0 days 00:00:12.950000,-0.08374,0.83374,1.218506,109.504692,-249.908432,-55.793758,1.4788142707033904
0 days 00:00:12.960000,-0.130371,0.851074,1.189209,86.326591,-216.583237,-47.813412,1.4681762826030123
0 days 00:00:12.970000,-0.14917,0.870605,1.152832,62.385555,-174.461349,-39.894104,1.4523175875644418
0 days 00:00:12.980000,-0.169434,0.882813,1.067627,44.067379,-133.300781,-33.721924,1.3956697619616183
0 days 00:00:12.990000,-0.197754,0.887939,0.928955,33.782959,-100.753777,-29.533384,1.3001921797419027
0 days 00:00:13,-0.220947,0.889404,0.789307,26.863096,-78.720093,-25.756834,1.2094885664089594
0 days 00:00:13.010000,-0.254395,0.609863,1.35376,248.04686,-249.992355,-133.308411,1.506424851226904
0 days 00:00:13.020000,-0.284424,0.880371,0.678711,17.242432,-50.567623,-17.379761,1.1474313621903491
0 days 00:00:13.030000,-0.323975,0.875977,0.661865,14.533996,-40.756222,-13.305663,1.1447099123266995
0 days 00:00:13.040000,-0.34668,0.873779,0.640869,11.589049,-32.714844,-10.299682,1.1377125464729656
0 days 00:00:13.050000,-0.330566,0.872314,0.621826,9.69696,-26.824949,-8.270264,1.1211035497348139
0 days 00:00:13.060000,-0.318359,0.880127,0.601318,6.439209,-20.89691,-5.149841,1.1124564378590291
0 days 00:00:13.070000,-0.311035,0.89209,0.583984,1.281738,-15.426635,-1.617432,1.1106775641836832
0 days 00:00:13.080000,-0.308594,0.890137,0.572754,-3.326416,-13.641356,1.342773,1.1025521666211535
0 days 00:00:13.090000,-0.335938,0.879395,0.547607,-5.531311,-12.435912,2.494812,1.0890653480475816
0 days 00:00:13.100000,-0.357178,0.868896,0.512451,-4.592896,-10.520934,2.906799,1.070122614423693
0 days 00:00:13.110000,-0.250732,0.88916,0.714355,20.88928,-62.492367,-21.713255,1.16780782128268
0 days 00:00:13.120000,-0.071777,-0.466797,0.202637,-109.611504,-224.136337,21.003721,0.5139193815249625
0 days 00:00:13.130000,-0.812744,-0.93457,0.426025,140.7547,109.962456,26.908873,1.3097599761257785
0 days 00:00:13.140000,-0.725586,-0.915527,0.41333,113.212578,152.282715,-0.724792,1.239155526971897
0 days 00:00:13.150000,-0.612793,-0.89502,0.371338,84.526054,194.213852,-24.948118,1.146502495197023
0 days 00:00:13.160000,-0.154297,-0.844482,0.355469,-39.970398,249.992355,-119.308464,0.9291477936765495
0 days 00:00:13.170000,-0.338867,-0.865479,0.329834,27.084349,249.992355,-74.043274,0.9862429775090923
0 days 00:00:13.180000,-0.276855,-0.873535,0.294434,3.135681,249.992355,-98.739616,0.9624985545994342
0 days 00:00:13.190000,-0.213623,-0.873535,0.313721,-19.538879,249.610886,-115.821831,0.9524279753319933
0 days 00:00:13.200000,-0.147217,-0.805664,0.365967,-51.467892,249.992355,-117.607109,0.8970502611749245
0 days 00:00:13.210000,-0.463867,-0.871094,0.36499,54.862972,233.856186,-48.500057,1.052233363197062
0 days 00:00:13.220000,-0.84375,-0.960693,0.388184,164.947495,64.231873,55.641171,1.336237973044098
0 days 00:00:13.230000,-1.045166,-0.952881,-0.015625,190.9561,-129.196167,149.536133,1.41442508049808
0 days 00:00:13.240000,-0.87915,-1.00415,0.311035,196.75444,-14.419555,98.777763,1.3703885274713152
0 days 00:00:13.250000,-0.984863,-0.988037,0.295898,202.239975,-50.819393,108.558647,1.4260883102185502
0 days 00:00:13.260000,-1.118164,-0.960449,0.154297,201.835617,-88.691704,130.1651,1.482079814553184
0 days 00:00:13.270000,-0.895264,-0.984863,-0.034912,173.767075,-158.378601,151.870728,1.3314171420741887
0 days 00:00:13.280000,-0.822754,-1.004395,-0.063232,155.632019,-179.763779,148.178101,1.299896821430455
0 days 00:00:13.290000,-0.718262,-0.977539,-0.047119,139.48822,-196.2509,136.947632,1.2139616951642256
0 days 00:00:13.300000,-0.538574,-0.869385,0.006836,118.60656,-211.151108,117.149345,1.0227115735127865
0 days 00:00:13.310000,-0.38208,-0.650146,-0.001465,67.520142,-223.648056,92.575066,0.7541068186543601
0 days 00:00:13.320000,-0.225098,-0.460205,0.011475,-20.63751,-229.080185,60.287472,0.5124348029300898
0 days 00:00:13.330000,-0.178955,-0.796387,0.350586,-52.726742,249.649033,-115.859978,0.8883511069335143
0 days 00:00:13.340000,-0.864746,-0.997559,0.339844,183.982834,23.658751,81.390373,1.3632327561106357
0 days 00:00:13.350000,-0.206055,-0.823486,0.328369,-47.378536,237.251266,-109.924309,0.9101725415447337
0 days 00:00:13.360000,-0.369629,-0.950195,0.262451,-7.621765,-39.085388,94.795219,1.052794691792754
0 days 00:00:13.370000,-0.290527,-0.983887,0.294678,-28.808592,197.395309,-88.195793,1.0673681137180369
0 days 00:00:13.380000,0.022217,-0.542236,0.480469,-172.714218,-208.587631,-13.252257,0.7248199326356858
0 days 00:00:13.390000,-0.350586,-0.952637,0.270752,-9.963989,-53.497311,101.943962,1.0505876653897093
0 days 00:00:13.400000,-0.325195,-0.960449,0.271973,-12.680053,-62.751766,107.337944,1.0498492188666904
0 days 00:00:13.410000,-0.271729,-0.970703,0.275391,-14.427184,-66.467285,109.176628,1.0449598875224828
0 days 00:00:13.420000,-0.209717,-0.974854,0.270996,-15.998839,-65.1474,107.757561,1.0333249118360595
0 days 00:00:13.430000,-0.179443,-0.962402,0.248047,-20.561216,-57.952877,105.148308,1.009923122847477
0 days 00:00:13.440000,-0.185791,-0.95752,0.247559,-28.068541,-46.806332,100.776665,1.0063042803059123
0 days 00:00:13.450000,-0.179443,-0.96582,0.283203,-33.828735,-35.926819,94.482414,1.0223561032526778
0 days 00:00:13.460000,-0.174805,-0.981689,0.305664,-37.490845,-24.620054,87.234489,1.0429288382444892
0 days 00:00:13.470000,-0.187988,-1.008545,0.319824,-40.985104,-10.284423,79.452515,1.0746115094046778
0 days 00:00:13.480000,-0.248291,-0.891113,0.297607,-36.239624,214.40123,-98.052971,0.9717513704127203
0 days 00:00:13.490000,-0.168457,-1.044189,0.34375,-41.671749,3.684997,66.871643,1.1121476930111396
0 days 00:00:13.500000,-0.154053,-1.096436,0.325928,-29.983519,46.19598,36.170959,1.1541807874371328
0 days 00:00:13.510000,-0.128418,-1.087891,0.304688,-25.688169,74.211121,17.852783,1.1370280506429908
0 days 00:00:13.520000,-0.116943,-1.05542,0.269287,-28.388975,104.011528,-1.678467,1.095491912347143
0 days 00:00:13.530000,-0.140869,-1.019287,0.230225,-38.337708,130.943298,-19.340515,1.0544162433095388
0 days 00:00:13.540000,-0.193848,-0.99707,0.221924,-50.598141,150.169373,-35.514832,1.039699905636237
0 days 00:00:13.550000,-0.260742,-1.015381,0.226807,-60.600277,161.750778,-51.635738,1.0725793122067944
0 days 00:00:13.560000,-0.315674,-1.056885,0.266113,-62.95776,169.41832,-65.689087,1.1346682802784258
0 days 00:00:13.570000,-0.342773,-1.100098,0.297852,-55.244442,176.277145,-74.043274,1.1901364430337389
0 days 00:00:13.580000,-0.341553,-1.108643,0.296631,-42.297359,181.945786,-79.025269,1.1973878667411826
0 days 00:00:13.590000,-0.319336,-1.069824,0.297607,-31.112669,187.423691,-83.511345,1.1554517723907825
0 days 00:00:13.600000,-0.1604,-1.075439,0.336182,-37.185669,21.77429,52.177425,1.1381192994783103
0 days 00:00:13.610000,0.023438,-0.671143,0.690674,-205.100998,-187.43132,-42.587276,0.963334230975418
0 days 00:00:13.620000,-0.856934,-0.336914,0.666748,-147.613525,-7.751464,-80.947868,1.1368376397955866
0 days 00:00:13.630000,-0.253418,-1.390381,1.036865,-132.720947,-122.482292,-141.716003,1.7528459818563638
0 days 00:00:13.640000,-0.632324,-0.42749,0.612793,-86.021416,-63.636776,-53.962704,0.9788240914101982
0 days 00:00:13.650000,-0.626465,-0.431885,0.637451,-90.873711,-66.627502,-52.886959,0.9926363013969417
0 days 00:00:13.660000,-0.623779,-0.444824,0.653076,-94.482414,-63.514706,-55.465694,1.006715895172516
0 days 00:00:13.670000,-0.639404,-0.441162,0.6604,-97.427361,-57.91473,-58.769222,1.0196026409636256
0 days 00:00:13.680000,-0.662598,-0.446045,0.69458,-99.159233,-52.238461,-60.798641,1.058505374586733
0 days 00:00:13.690000,-0.704346,-0.446045,0.733154,-99.052422,-51.330563,-61.531063,1.1102135909170812
0 days 00:00:13.700000,-0.761719,-0.43042,0.730225,-102.859489,-54.038998,-64.77356,1.1396077228529122
0 days 00:00:13.710000,-0.773193,-0.424072,0.711426,-109.466545,-52.940365,-72.860718,1.1330452020590354
0 days 00:00:13.720000,-0.761475,-0.387451,0.683105,-118.721001,-42.251583,-79.13208,1.093889799774639
0 days 00:00:13.730000,-0.773193,-0.33374,0.659912,-133.628845,-24.238585,-80.436699,1.069903570698313
0 days 00:00:13.740000,-0.653564,-0.431885,0.585205,-82.206718,-53.649899,-60.295101,0.9778217871094916
0 days 00:00:13.750000,-1.090576,-0.374268,0.667969,-154.014587,-2.433777,-87.135307,1.3325220945864276
0 days 00:00:13.760000,-1.351318,-0.425049,0.570801,-128.684998,-26.489256,-109.146111,1.5272657827392062
0 days 00:00:13.770000,-1.231689,-0.393555,0.510498,-112.640373,-57.777401,-108.345024,1.3901624145221305
0 days 00:00:13.780000,-1.176758,-0.321533,0.52124,-103.881828,-89.805595,-101.501457,1.3265873504044126
0 days 00:00:13.790000,-1.206055,-0.214111,0.573242,-103.324883,-114.654533,-92.102043,1.3524121316780622
0 days 00:00:13.800000,-1.245605,-0.097656,0.582031,-111.587517,-131.126404,-85.59417,1.3783426987951872
0 days 00:00:13.810000,-1.223633,0.000732,0.467773,-125.961296,-139.778137,-84.388725,1.3099961198576124
0 days 00:00:13.820000,-1.134521,0.081055,0.339844,-144.493103,-142.875671,-80.123901,1.1870980400969415
0 days 00:00:13.830000,-1.030762,0.108643,0.294678,-165.275558,-142.036438,-70.014954,1.077547551515477
0 days 00:00:13.840000,-0.995361,0.105957,0.298096,-186.256393,-138.175964,-59.471127,1.0444288541523545
0 days 00:00:13.850000,-1.063965,0.075195,0.323486,-205.413803,-132.736206,-56.922909,1.1145936485760182
0 days 00:00:13.860000,-1.327637,-0.412354,0.641602,-146.522522,-8.033752,-100.372307,1.5311136311485833
0 days 00:00:13.870000,-0.667236,-0.437988,0.564941,-79.864502,-37.498474,-69.824219,0.9778525969291078
0 days 00:00:13.880000,-0.078857,-0.927734,0.84082,-199.424728,-159.439087,-82.4356,1.2545465609553916
0 days 00:00:13.890000,-0.664063,-0.438965,0.556641,-83.236687,9.933472,-96.237175,0.9713491350050197
0 days 00:00:13.900000,-0.433594,-1.672607,1.001465,-44.921871,-84.487907,-203.414902,1.9971354684923102
0 days 00:00:13.910000,-0.589355,-1.728271,0.814941,27.221678,-47.386166,-246.040329,1.9995971591665656
0 days 00:00:13.920000,-0.753418,-1.738281,0.656738,69.900513,-1.754761,-249.992355,2.005134488838342
0 days 00:00:13.930000,-0.933838,-1.710938,0.493652,80.108643,52.11639,-249.992355,2.010734827666741
0 days 00:00:13.940000,-1.032227,-1.655762,0.374756,64.102173,106.437675,-249.992355,1.9868272294563005
0 days 00:00:13.950000,-0.960449,-1.583252,0.368652,40.573116,151.924133,-249.992355,1.8881349194930432
0 days 00:00:13.960000,-0.677246,-0.439697,0.563965,-80.406181,-14.86206,-81.596367,0.984912238501482
0 days 00:00:13.970000,-0.822021,-1.431641,0.419678,-6.950378,213.195786,-249.992355,1.7033625864759387
0 days 00:00:13.980000,-0.777588,-1.314209,0.505615,-26.802061,220.108017,-249.992355,1.6085505654625845
0 days 00:00:13.990000,-0.708252,-1.158691,0.502686,-28.892515,217.529282,-249.992355,1.4480604074350627
0 days 00:00:14,-0.616211,-1.014404,0.433838,-38.604736,205.986008,-249.992355,1.2637036369263959
0 days 00:00:14.010000,-0.880859,-1.510498,0.380859,20.286558,189.674362,-249.992355,1.7895726763018034
0 days 00:00:14.020000,-0.488525,-0.748779,0.417969,-69.000244,175.949081,-249.885544,0.9869269230429374
0 days 00:00:14.030000,-0.493408,-0.673828,0.465576,-81.413261,159.78241,-249.740585,0.9561676839467018
0 days 00:00:14.040000,-0.516113,-0.630371,0.479736,-87.806694,140.922546,-249.992355,0.945455898551593
0 days 00:00:14.050000,-0.543701,-0.601074,0.471924,-89.599602,121.177666,-246.932968,0.9378768536716321
0 days 00:00:14.060000,-0.540771,-0.571777,0.478271,-89.347832,102.638237,-221.214279,0.9209263605799325
0 days 00:00:14.070000,-0.522949,-0.540283,0.491943,-87.463371,86.814873,-193.244919,0.8985484360561761
0 days 00:00:14.080000,-0.50708,-0.503662,0.503418,-85.235588,74.241638,-167.587265,0.8742054789167133
0 days 00:00:14.090000,-0.509277,-0.468506,0.520264,-84.411613,62.896725,-145.645142,0.8657572202765623
0 days 00:00:14.100000,-0.546631,-0.447266,0.534424,-85.014336,49.430843,-127.113335,0.8856982198768382
0 days 00:00:14.110000,-0.61084,-0.439941,0.54541,-85.014336,31.799314,-111.373894,0.9295943508762303
0 days 00:00:14.120000,-0.529541,-0.868896,0.400146,-53.642269,191.009506,-249.992355,1.0933941424815665
0 days 00:00:14.130000,-0.321289,-0.912842,0.160889,1.167297,37.788391,-24.971006,0.9810160084351326
0 days 00:00:14.140000,-0.311768,-0.902832,0.151367,0.610352,35.15625,-20.484922,0.9670661170452617
0 days 00:00:14.150000,-0.302979,-0.893066,0.145996,0.488281,30.578611,-15.975951,0.954294496899673
0 days 00:00:14.160000,-0.299316,-0.883057,0.141602,0.061035,25.459288,-10.917663,0.9430964211092098
0 days 00:00:14.170000,-0.289551,-0.879639,0.128418,4.486084,-4.653931,16.906738,0.9349308715867714
0 days 00:00:14.180000,-0.283936,-0.869873,0.134766,1.304626,13.755797,-0.328064,0.9249111108539025
0 days 00:00:14.190000,-0.279785,-0.870117,0.130615,2.677917,7.362365,5.500793,0.9232786784817464
0 days 00:00:14.200000,-0.283203,-0.876709,0.129395,4.020691,1.121521,11.344909,0.9303578214402242
0 days 00:00:14.210000,-0.295166,-0.873291,0.137695,0.259399,20.042419,-5.577087,0.932051528222555
0 days 00:00:14.220000,-0.337402,-0.926758,0.168457,3.082275,38.650513,-28.869627,1.000548979819079
0 days 00:00:14.230000,-0.358154,-0.962891,0.158447,-12.199401,-34.53064,-23.628233,1.039489690860857
0 days 00:00:14.240000,-0.366211,-0.94165,0.162354,8.094788,35.217285,-32.50885,1.0233152204169544
0 days 00:00:14.250000,-0.377441,-0.943848,0.163574,9.208679,31.211851,-33.531189,1.0295956531867256
0 days 00:00:14.260000,-0.388916,-0.944336,0.163086,9.368896,25.650023,-33.760071,1.0342258841026946
0 days 00:00:14.270000,-0.399414,-0.946777,0.1604,9.017944,18.65387,-33.287048,1.0400223031863307
0 days 00:00:14.280000,-0.407959,-0.954834,0.156738,8.529663,10.299682,-32.325745,1.0500977639634321
0 days 00:00:14.290000,-0.4104,-0.961182,0.148193,7.80487,1.091003,-30.97534,1.0555852226954487
0 days 00:00:14.300000,-0.406982,-0.965332,0.144775,5.92041,-8.102417,-29.701231,1.057572701601644
0 days 00:00:14.310000,-0.395752,-0.963379,0.144043,2.700805,-16.403198,-28.236387,1.051411969208074
0 days 00:00:14.320000,-0.377686,-0.95874,0.143555,-2.059937,-23.857115,-27.030943,1.0404023934137214
0 days 00:00:14.330000,-0.367188,-0.95752,0.151123,-7.713317,-29.754637,-25.741575,1.0365856157949522
0 days 00:00:14.340000,-0.300049,-0.875732,0.126709,4.615784,-9.239197,21.987913,0.9343399322013375
0 days 00:00:14.350000,-0.352783,-0.938721,0.167725,5.775451,37.818909,-31.150816,1.016752003467414
0 days 00:00:14.360000,-0.303955,-0.876953,0.130127,5.325317,-12.382506,25.985716,0.9372130186691817
0 days 00:00:14.370000,-0.333008,-0.985596,0.16626,16.410828,6.217956,19.424438,1.0535350923818343
0 days 00:00:14.380000,-0.297607,-0.873047,0.135498,6.973266,-16.609192,32.119751,0.9322771576425113
0 days 00:00:14.390000,-0.342041,-0.966553,0.165039,-15.419005,-38.490295,-22.041319,1.0384866965979873
0 days 00:00:14.400000,-0.2854,-0.912109,0.140869,2.189636,62.789913,-14.808654,0.9660435099114325
0 days 00:00:14.410000,-0.303711,-0.916016,0.143066,0.709534,61.058041,-15.655517,0.9755990796085244
0 days 00:00:14.420000,-0.314941,-0.922119,0.147949,-0.442505,57.640072,-15.434264,0.9855862165447526
0 days 00:00:14.430000,-0.321289,-0.931152,0.155762,-1.235962,53.25317,-14.61029,0.9972624876475601
0 days 00:00:14.440000,-0.329834,-0.946289,0.16333,-1.419067,48.355099,-12.96234,1.015347245023593
0 days 00:00:14.450000,-0.341553,-0.968018,0.169434,-0.030518,43.403622,-10.70404,1.0403966457505522
0 days 00:00:14.460000,-0.348633,-0.990723,0.175781,2.685547,38.398743,-7.629394,1.0648830881270488
0 days 00:00:14.470000,-0.349121,-1.004883,0.179199,5.928039,33.38623,-4.074097,1.07878987663539
0 days 00:00:14.480000,-0.35376,-1.009033,0.180908,8.964539,28.617857,-0.152588,1.0844452209092907
0 days 00:00:14.490000,-0.299561,-0.874756,0.131836,6.088256,-14.60266,29.350279,0.9339783633216564
0 days 00:00:14.500000,-0.351807,-1.007324,0.177979,11.238097,23.338316,4.692078,1.081733021898657
0 days 00:00:14.510000,-0.340088,-0.991943,0.171875,14.648437,12.023925,14.709472,1.0626155365973151
0 days 00:00:14.520000,-0.326416,-0.973145,0.162598,17.929077,0.930786,23.773191,1.0392288995620744
0 days 00:00:14.530000,-0.319092,-0.955078,0.156982,19.15741,-3.64685,27.778624,1.0191354369621342
0 days 00:00:14.540000,-0.316162,-0.932617,0.150146,19.218445,-7.919311,30.960081,0.9961308650217601
0 days 00:00:14.550000,-0.317139,-0.907715,0.139893,17.776489,-11.848449,33.164978,0.9716448517822756
0 days 00:00:14.560000,-0.318115,-0.884277,0.131592,15.220641,-15.579223,34.866333,0.9489254029785481
0 days 00:00:14.570000,-0.317871,-0.868652,0.125977,12.252807,-18.539429,36.003113,0.9335247582544343
0 days 00:00:14.580000,-0.311523,-0.864258,0.12915,10.017395,-20.195005,36.468506,0.9277220448997642
0 days 00:00:14.590000,-0.299805,-0.863525,0.13623,8.743286,-20.26367,36.155701,0.9241845468032887
0 days 00:00:14.600000,-0.294678,-0.868408,0.137451,7.904052,-18.692017,34.591675,0.9272865552508566
0 days 00:00:14.610000,-0.344727,-1.001465,0.174072,13.099669,17.76886,9.803772,1.073345197007002
0 days 00:00:14.620000,-0.256592,-0.911865,0.136475,3.959656,61.759945,-12.634276,0.9570593807669407
0 days 00:00:14.630000,-0.328613,-0.962402,0.178955,-18.295288,-42.243954,-22.40753,1.0325836553994063
0 days 00:00:14.640000,-0.334229,-0.945557,0.187744,-25.726316,-48.515316,-24.80316,1.0203111653931853
0 days 00:00:14.650000,-0.329834,-0.854492,0.102783,38.452148,64.430237,-50.849911,0.9216894220446494
0 days 00:00:14.660000,-0.333008,-0.876709,0.111328,43.815609,59.089657,-48.904415,0.9444082392318484
0 days 00:00:14.670000,-0.337402,-0.890137,0.115967,49.682613,53.672787,-47.119137,0.9589746260782919
0 days 00:00:14.680000,-0.343262,-0.894775,0.116699,54.267879,48.950191,-44.593807,0.9654375991590549
0 days 00:00:14.690000,-0.335449,-0.890381,0.115234,57.075497,45.372005,-41.236874,0.958427478486505
0 days 00:00:14.700000,-0.316162,-0.874268,0.111572,57.28149,44.265743,-37.54425,0.9363499651583269
0 days 00:00:14.710000,-0.29248,-0.849121,0.105713,53.741451,47.119137,-34.065247,0.9042821801904536
0 days 00:00:14.720000,-0.275391,-0.832275,0.104492,47.95837,53.230282,-30.754087,0.882859250713272
0 days 00:00:14.730000,-0.263672,-0.82373,0.11377,42.106625,61.256405,-27.221678,0.8723517922168785
0 days 00:00:14.740000,-0.264648,-0.833496,0.134766,33.721924,78.361511,-21.492002,0.8848254181905039
0 days 00:00:14.750000,-0.329102,-0.837646,0.082764,35.095215,69.145203,-52.444454,0.9037747658659209
0 days 00:00:14.760000,-0.257813,-0.847412,0.145996,31.661985,85.571281,-16.265869,0.8977134691698684
0 days 00:00:14.770000,-0.259033,-0.851074,0.155762,27.084349,91.537468,-1.159668,0.9031538347419004
0 days 00:00:14.780000,-0.268311,-0.840088,0.158936,21.835325,89.126579,8.087158,0.8961022779577117
0 days 00:00:14.790000,-0.279785,-0.841309,0.169922,15.800475,82.511894,17.89856,0.9027480079125071
0 days 00:00:14.800000,-0.299561,-0.855713,0.185059,10.169982,72.135925,28.610228,0.9253260855347156
0 days 00:00:14.810000,-0.32251,-0.875488,0.204102,5.889892,57.624813,40.054321,0.9550652148665032
0 days 00:00:14.820000,-0.350342,-0.897461,0.222656,2.792358,39.390564,51.36871,0.9888131561730962
0 days 00:00:14.830000,-0.381836,-0.914795,0.23999,-0.038147,18.981934,62.522884,1.019923439784085
0 days 00:00:14.840000,-0.386963,-0.932373,0.246338,-2.799988,-2.586365,74.180603,1.0391064357138782
0 days 00:00:14.850000,-0.378662,-0.942139,0.250488,-5.325317,-22.491453,85.487358,1.045827444518932
0 days 00:00:14.860000,-0.334961,-0.954834,0.189941,-21.247862,-44.822689,-23.773191,1.0295554489963132
0 days 00:00:14.870000,-0.255371,-0.855713,0.155273,30.059813,90.156548,-9.094238,0.9064043195721211
0 days 00:00:14.880000,-0.338867,-0.828369,0.074951,34.431458,75.340271,-54.244991,0.8981334512481984
0 days 00:00:14.890000,-0.26001,-0.821777,0.126953,37.315369,69.93866,-24.650572,0.8712288459629881
0 days 00:00:14.900000,-0.327148,-0.85791,0.034668,37.826538,88.928215,-60.531612,0.9188238417825257
0 days 00:00:14.910000,-0.343262,-0.835693,0.063965,35.354614,82.740776,-57.403561,0.9057058640187774
0 days 00:00:14.920000,-0.339111,-0.932373,0.195068,-37.712097,-54.161068,-22.521971,1.0111217563053423
0 days 00:00:14.930000,-0.330322,-0.943115,0.193115,-43.273922,-55.885311,-20.286558,1.017777937535492
0 days 00:00:14.940000,-0.307617,-0.964111,0.204102,-47.088619,-55.152889,-18.119812,1.0323738980689119
0 days 00:00:14.950000,-0.279053,-0.991943,0.199951,-49.47662,-54.13818,-17.158508,1.0496675161492806
0 days 00:00:14.960000,-0.294678,-1.023682,0.206055,-50.567623,-52.864071,-15.350341,1.0849970616702147
0 days 00:00:14.970000,-0.335449,-1.045654,0.209473,-51.780697,-55.007931,-10.429381,1.1179433156676595
0 days 00:00:14.980000,-0.366211,-1.048096,0.217041,-53.047176,-62.187191,-3.875732,1.1312482121170402
0 days 00:00:14.990000,-0.369629,-1.043945,0.228271,-53.817745,-70.671082,1.800537,1.130731802907745
0 days 00:00:15,-0.346436,-1.031738,0.208252,-53.75671,-77.606201,5.348205,1.108093000719705
0 days 00:00:15.010000,-0.327637,-1.025146,0.173096,-54.199215,-78.384399,7.850646,1.0900608011945938
0 days 00:00:15.020000,-0.333496,-0.934082,0.190918,-31.776426,-52.078243,-23.948668,1.0100388346316194
0 days 00:00:15.030000,-0.258789,-1.059082,0.104004,-52.101131,-55.152889,14.144897,1.0951909702243716
0 days 00:00:15.040000,-0.30249,-1.033447,0.140137,-54.267879,-71.212769,11.611938,1.08588732411701
0 days 00:00:15.050000,-0.285645,-0.964111,-0.067871,42.213436,86.700432,-62.210079,1.007824170670162
0 days 00:00:15.060000,-0.301025,-1.026611,-0.051514,42.327877,76.568604,-57.075497,1.071074174902
0 days 00:00:15.070000,-0.320801,-1.108154,-0.065674,37.826538,68.67981,-52.665707,1.1555222384675252
0 days 00:00:15.080000,-0.298096,-1.187012,-0.063232,28.808592,60.340878,-46.249386,1.2255027536419492
0 days 00:00:15.090000,-0.298096,-0.906982,-0.009521,40.557858,91.430656,-62.927242,0.9547608197768696
0 days 00:00:15.100000,-0.166992,-1.231689,0.014893,-5.699157,28.381346,-18.2724,1.2430470313845732
0 days 00:00:15.110000,-0.150879,-1.191406,0.051514,-28.427122,0.549316,-0.87738,1.202025965473708
0 days 00:00:15.120000,-0.200439,-1.12085,0.073975,-44.319149,-29.594419,11.32965,1.1410314701383129
0 days 00:00:15.130000,-0.230957,-1.228027,-0.030273,14.167785,48.431393,-34.690857,1.249923158880977
0 days 00:00:15.140000,-0.861328,-0.599609,0.210205,73.799133,72.227478,188.102707,1.070328462898189
0 days 00:00:15.150000,-0.863037,-0.206543,0.125488,66.673279,26.56555,164.520248,0.8962366385960797
0 days 00:00:15.160000,-0.794678,-0.229736,0.143555,63.720699,19.91272,177.703842,0.8395831057167599
0 days 00:00:15.170000,-0.818604,-0.25293,0.173584,58.860775,17.76123,186.309799,0.8741953436000446
0 days 00:00:15.180000,-0.904053,-0.281494,0.239258,53.916927,24.597166,192.22258,0.9766243338198163
0 days 00:00:15.190000,-0.876709,-0.338623,0.25293,55.152889,36.92627,194.229111,0.9732716947029745
0 days 00:00:15.200000,-0.794189,-0.40332,0.173096,59.959408,47.07336,194.900497,0.907394850843336
0 days 00:00:15.210000,-0.886719,-0.199951,0.060303,67.512512,35.331726,149.612427,0.9109815800393551
0 days 00:00:15.220000,-0.829102,-0.463867,0.136963,64.056396,53.833004,194.709763,0.9598653986169102
0 days 00:00:15.230000,-0.901123,-0.53125,0.16626,67.932129,61.256405,192.115768,1.0591938496937188
0 days 00:00:15.240000,-0.798828,-0.650635,0.266357,79.040527,86.387627,182.449326,1.0641419680935433
0 days 00:00:15.250000,-0.955566,-0.762207,0.407471,83.831779,135.33783,149.551392,1.288448100253169
0 days 00:00:15.260000,-0.999512,-0.687256,0.268799,76.576233,121.299736,159.461975,1.2424161742673023
0 days 00:00:15.270000,-0.968262,-0.697754,0.336182,74.409485,131.469727,154.930115,1.2399234985611007
0 days 00:00:15.280000,-0.93042,-0.728516,0.371338,78.163147,135.3302,153.846741,1.2386722120480462
0 days 00:00:15.290000,-1.016846,-0.774658,0.433105,83.595268,131.68335,144.195557,1.349685424721257
0 days 00:00:15.300000,-1.077393,-0.775635,0.443604,78.659058,124.328606,141.63208,1.3997034823454573
0 days 00:00:15.310000,-1.10376,-0.79126,0.436279,74.97406,114.013664,141.937256,1.4264353792026474
0 days 00:00:15.320000,-1.108887,-0.833252,0.399658,75.668335,100.944511,145.751953,1.4434908351759632
0 days 00:00:15.330000,-1.111572,-0.891846,0.369385,80.55114,85.411064,149.848938,1.4722183523937609
0 days 00:00:15.340000,-1.100342,-0.940674,0.350586,87.051384,71.083069,152.252197,1.489473274226832
0 days 00:00:15.350000,-0.768311,-0.216064,-0.043945,68.138123,42.999264,139.587402,0.7993225931011834
0 days 00:00:15.360000,-0.884033,-0.679443,0.254883,79.856873,103.446953,171.874985,1.1437318212881025
0 days 00:00:15.370000,-0.575684,-0.24292,-0.083984,67.893982,41.900631,137.47406,0.6304565857471869
0 days 00:00:15.380000,-1.068115,-0.960938,0.340332,87.951653,61.576839,157.180786,1.476515277026621
0 days 00:00:15.390000,-0.546143,-0.296631,-0.007813,60.905453,7.858276,128.395081,0.6215490081876087
0 days 00:00:15.400000,-1.046387,0.15625,-0.083984,10.803222,235.412582,7.621765,1.0613166956780618
0 days 00:00:15.410000,-1.075928,0.104248,-0.107178,10.040282,237.08342,4.974365,1.0862669240900231
0 days 00:00:15.420000,-1.168457,0.055664,-0.166992,7.93457,238.197311,8.720398,1.1816414726172233
0 days 00:00:15.430000,-1.183105,0.048828,-0.097412,3.967285,232.833847,20.606993,1.1881122473710135
0 days 00:00:15.440000,-1.150146,0.088135,-0.006836,-0.274658,213.813766,34.591675,1.1535381790114272
0 days 00:00:15.450000,-1.220703,0.105713,0.072998,-1.518249,180.831894,42.472836,1.2274444022366147
0 days 00:00:15.460000,-1.305176,0.094727,0.228516,3.631592,141.50238,41.213985,1.3284115167225101
0 days 00:00:15.470000,-1.222656,0.063477,0.373047,10.398864,97.122185,37.536621,1.2798754189662367
0 days 00:00:15.480000,-1.077637,0.010742,0.309326,15.518188,52.665707,40.481564,1.1212044722569563
0 days 00:00:15.490000,-1.04248,-0.015625,0.122803,16.296387,23.513792,45.074459,1.0498043950346179
0 days 00:00:15.500000,-0.486084,-0.275635,-0.055176,66.314697,28.678892,134.735107,0.5615128665106438
0 days 00:00:15.510000,-1.036133,-0.029053,0.046387,11.932372,11.825561,47.668453,1.0375776714381433
0 days 00:00:15.520000,-0.936768,-0.129395,-0.006836,8.049011,10.925292,55.480953,0.945687095579188
0 days 00:00:15.530000,-0.987305,-0.160156,-0.056885,9.338379,13.85498,62.896725,1.0018268366269691
0 days 00:00:15.540000,-0.950195,-0.087646,-0.138672,0.396728,21.713255,67.596436,0.9642521884470888
0 days 00:00:15.550000,-0.86084,-0.045166,-0.141113,-13.740539,35.400391,71.266174,0.8734977687006419
0 days 00:00:15.560000,-0.877686,-0.061523,-0.023926,-18.356323,39.131165,79.086304,0.8801648979600356
0 days 00:00:15.570000,-0.96582,-0.098633,0.031494,-17.288208,27.526854,94.612114,0.9713540101965915
0 days 00:00:15.580000,-0.978271,-0.180908,0.023682,-12.367248,5.699157,115.760796,0.9951395334469433
0 days 00:00:15.590000,-1.024414,-0.267822,-0.000732,-2.807617,-16.517639,134.407043,1.0588452214105704
0 days 00:00:15.600000,-0.977539,-0.315674,0.046875,15.975951,-25.177,136.741638,1.0283140747952446
0 days 00:00:15.610000,-0.780029,-0.316895,0.052734,42.098995,-13.09204,129.478455,0.8435926485111164
0 days 00:00:15.620000,-0.962402,-0.0625,0.016602,8.041382,9.643555,50.636288,0.9645721777078168
0 days 00:00:15.630000,-1.035645,0.201904,-0.140625,9.918213,228.75975,12.519835,1.064472255094514
0 days 00:00:15.640000,-1.018066,-0.939453,0.312256,76.35498,57.78503,163.673386,1.420047227771316
0 days 00:00:15.650000,-0.899902,-0.857422,0.324951,37.773132,58.464046,159.950256,1.2847526019000701
0 days 00:00:15.660000,-0.373291,-0.94165,0.137695,-3.77655,-4.302979,4.554749,1.0222577004875042
0 days 00:00:15.670000,-0.364502,-0.972412,0.146973,1.243591,-8.010864,4.379272,1.048831668322901
0 days 00:00:15.680000,-0.337646,-0.979004,0.155029,7.347106,-9.95636,3.623962,1.0471330594403943
0 days 00:00:15.690000,-0.315918,-0.96167,0.149414,9.620667,-8.483887,1.976013,1.0231998411942802
0 days 00:00:15.700000,-0.285156,-0.940186,0.14502,7.598876,-3.730774,-1.12915,0.9931235871390831
0 days 00:00:15.710000,-0.267822,-0.939453,0.155762,4.837036,1.899719,-5.15747,0.9892231111013329
0 days 00:00:15.720000,-0.268311,-0.958496,0.154785,3.730774,6.256103,-7.469177,1.0073052024892952
0 days 00:00:15.730000,-0.267334,-0.968018,0.145752,3.509521,9.170532,-6.813049,1.0147758182889461
0 days 00:00:15.740000,-0.253662,-0.967041,0.142578,2.296448,12.145995,-5.683898,1.00987186910469
0 days 00:00:15.750000,-0.242432,-0.976074,0.133545,1.289368,13.130187,-5.172729,1.0145580294517411
0 days 00:00:15.760000,-0.341309,-0.942871,0.087402,-5.065917,0.389099,5.722045,1.006546901900751
0 days 00:00:15.770000,-0.269043,-0.99585,0.114746,2.464294,10.45227,-2.685547,1.03791521949772
0 days 00:00:15.780000,-0.301758,-0.99292,0.109619,8.338928,4.928589,6.767272,1.0435345428518406
0 days 00:00:15.790000,-0.26709,-0.972168,0.111572,10.368346,5.744934,9.811401,1.0143451086824444
0 days 00:00:15.800000,-0.235596,-0.961182,0.11377,10.688781,9.559631,10.223388,0.9961525612274458
0 days 00:00:15.810000,-0.2229,-0.951904,0.116455,9.544373,15.800475,8.972168,0.9845645749472199
0 days 00:00:15.820000,-0.221924,-0.946533,0.116699,8.300781,22.926329,6.698608,0.9791800847985012
0 days 00:00:15.830000,-0.22998,-0.948242,0.12085,8.026123,29.96826,3.860473,0.9831878830945793
0 days 00:00:15.840000,-0.239014,-0.950684,0.123535,8.392334,36.758423,0.740051,0.9880225990720051
0 days 00:00:15.850000,-0.234375,-0.941895,0.122314,8.605957,43.869015,-2.914428,0.978293691202187
0 days 00:00:15.860000,-0.227783,-0.930664,0.125977,7.705688,51.269527,-6.713867,0.966380246338883
0 days 00:00:15.870000,-0.233887,-0.916992,0.131836,5.958557,57.701107,-9.941101,0.9554884550474695
0 days 00:00:15.880000,-0.303711,-1.006104,0.104736,5.371093,6.622314,1.731872,1.0561511539703965
0 days 00:00:15.890000,-0.306152,-1.010742,-0.020508,-2.777099,4.211426,8.964539,1.0562902137821784
0 days 00:00:15.900000,-0.955078,-0.889404,0.323486,55.999752,57.708736,165.985092,1.3445656002947568
0 days 00:00:15.910000,-0.238525,-1.094482,0.008545,2.388,-7.942199,31.09741,1.1202044639145123
0 days 00:00:15.920000,-0.859619,-0.884521,0.313965,27.755735,55.366512,145.027161,1.2727514469946597
0 days 00:00:15.930000,-0.848389,-0.950684,0.305176,27.038572,46.279903,128.471375,1.3102275963179069
0 days 00:00:15.940000,-0.849365,-1.003906,0.304443,30.387877,32.302856,115.58532,1.3497902430785311
0 days 00:00:15.950000,-0.835449,-1.000244,0.279053,27.931211,12.33673,106.0028,1.3327916821266554
0 days 00:00:15.960000,-0.852295,-0.949463,0.247559,15.1062,-9.506226,98.838799,1.2996815817249239
0 days 00:00:15.970000,-0.87207,-0.900391,0.251465,-1.846313,-25.695799,92.819206,1.2784540210762372
0 days 00:00:15.980000,-0.271484,-1.091309,-0.056152,1.167297,2.037048,16.555786,1.125971555076326
0 days 00:00:15.990000,-0.770752,-0.929443,0.270752,-13.153075,-55.503841,81.93969,1.2374286166308746
0 days 00:00:16,-0.745605,-0.965576,0.234375,-15.228271,-70.81604,79.521179,1.2422541883310356
0 days 00:00:16.010000,-0.706543,-0.985352,0.161133,-18.928528,-83.633415,77.980042,1.2231457061372533
0 days 00:00:16.020000,-0.668945,-0.973145,0.122803,-23.841856,-91.690056,76.545715,1.1872569986565673
0 days 00:00:16.030000,-0.819824,-0.89624,0.269287,-11.032104,-39.756775,86.09008,1.2441354495974304
0 days 00:00:16.040000,-0.537109,-0.913818,0.170898,-28.991697,-105.232231,76.347351,1.0736645385822334
0 days 00:00:16.050000,-0.486084,-0.9104,0.182861,-27.328489,-109.756462,77.285767,1.0481144786601317
0 days 00:00:16.060000,-0.435059,-0.909424,0.19165,-24.131773,-112.17498,78.269958,1.0261861759724695
0 days 00:00:16.070000,-0.410889,-0.908447,0.195557,-19.645691,-111.022942,78.559875,1.0160454036995592
0 days 00:00:16.080000,-0.408936,-0.907715,0.190186,-14.938354,-106.407158,78.842163,1.0135807259005076
0 days 00:00:16.090000,-0.406494,-0.914551,0.180664,-10.513305,-98.197929,79.681396,1.0169957642650238
0 days 00:00:16.100000,-0.386719,-0.923828,0.171143,-6.16455,-84.83123,79.818726,1.0160214982932203
0 days 00:00:16.110000,-0.335449,-0.94165,0.150635,-2.929687,-66.268921,75.798035,1.0109014083114138
0 days 00:00:16.120000,-0.27002,-0.978516,0.117432,-1.197815,-45.028683,65.139771,1.0218584233053032
0 days 00:00:16.130000,-0.235352,-1.038818,0.075684,0.595093,-24.559019,49.201962,1.0678302622064988
0 days 00:00:16.140000,-0.600342,-0.93457,0.154785,-28.160093,-98.617546,75.920105,1.121512370903237
0 days 00:00:16.150000,-1.485107,0.099121,-0.618652,83.305351,-58.876034,80.604546,1.611861678679036
0 days 00:00:16.160000,-1.296387,-0.028076,-0.263672,85.487358,-1.991272,50.666805,1.3232272817354545
0 days 00:00:16.170000,-1.062012,-0.000488,-0.115723,49.102779,27.526854,24.269102,1.0682984316271367
0 days 00:00:16.180000,-0.888672,0.172363,-0.146973,4.150391,30.319212,8.682251,0.9170866862418187
0 days 00:00:16.190000,-1.029053,0.82959,-0.188477,30.204771,12.077331,8.583069,1.3351753534416368
0 days 00:00:16.200000,-0.963135,0.410645,-0.040039,-21.980284,19.500732,-30.151365,1.0477888459852012
0 days 00:00:16.210000,-1.012939,0.613281,0.057861,-31.036375,21.377562,-40.420528,1.1855407618479425
0 days 00:00:16.220000,-0.964844,0.870117,-0.020996,-14.122008,19.02771,-27.587889,1.299410778022485
0 days 00:00:16.230000,-0.874512,0.320557,-0.184814,-15.594481,22.987364,-8.056641,0.9495705571409636
0 days 00:00:16.240000,-1.453857,0.332764,-0.982178,45.730587,-120.010368,106.864922,1.7858067308163557
0 days 00:00:16.250000,-0.987061,0.398438,-0.135742,63.003536,-14.656066,43.067928,1.073064838734827
0 days 00:00:16.260000,-0.934082,0.661133,-0.798584,-33.676147,-170.104965,100.288383,1.3954721177683915
0 days 00:00:16.270000,-0.778809,0.73877,-0.515137,-45.005795,-143.463135,75.134277,1.1906681738209013
0 days 00:00:16.280000,-0.853271,0.702393,-0.286621,-47.233578,-103.599541,49.751278,1.1417438081859697
0 days 00:00:16.290000,-0.945068,0.638428,-0.101318,-58.334347,-73.707581,35.392761,1.1449930885957347
0 days 00:00:16.300000,-0.975342,0.57373,-0.128174,-66.574097,-75.408936,42.66357,1.1388093361665068
0 days 00:00:16.310000,-0.998291,0.433594,-0.233154,-42.564388,-90.12603,45.234676,1.113081068580811
0 days 00:00:16.320000,-1.003906,0.178711,-0.17041,-15.907287,-85.006706,31.059263,1.0338299891457008
0 days 00:00:16.330000,-1.101074,0.112061,-0.175049,5.210876,-71.754456,43.525692,1.1205194213390504
0 days 00:00:16.340000,-1.11499,0.178467,-0.173828,39.268494,-71.495056,53.619381,1.1424838483641684
0 days 00:00:16.350000,-1.143311,0.275635,-0.121338,60.127254,-49.575802,51.834103,1.182310283381651
0 days 00:00:16.360000,-1.121582,0.567383,-0.192871,65.444946,15.449523,27.397154,1.2716402298032254
0 days 00:00:16.370000,-1.178955,0.532715,-0.998535,-1.594543,-164.192184,111.259453,1.634255888615672
0 days 00:00:16.380000,-1.053467,0.397705,-0.166016,63.385006,29.319761,21.354673,1.1382105689941557
0 days 00:00:16.390000,-0.713623,0.390625,-0.317139,-54.992672,12.33673,-22.300718,0.873168266759048
0 days 00:00:16.400000,-0.856201,0.388428,-0.20166,22.575377,39.619446,15.174865,0.9615733041141481
0 days 00:00:16.410000,-0.884277,0.544434,-0.117432,51.765438,23.231504,27.778624,1.0450571600199674
0 days 00:00:16.420000,-1.057861,0.831055,-0.049805,-31.204222,47.660824,-1.708984,1.346180837172703
0 days 00:00:16.430000,-0.961426,0.738037,0.112549,-56.800838,57.479855,2.189636,1.2172534018214942
0 days 00:00:16.440000,-0.914063,0.601807,0.09668,-61.386105,62.522884,-6.004333,1.0986491048637868
0 days 00:00:16.450000,-1.061768,0.455322,-0.137939,-49.22485,70.457458,-28.663633,1.163484669958741
0 days 00:00:16.460000,-1.151611,0.350342,-0.340332,-35.324097,78.834534,-51.193233,1.250908982503923
0 days 00:00:16.470000,-1.072266,0.318359,-0.419189,-28.251646,74.440002,-60.707088,1.194498323715023
0 days 00:00:16.480000,-1.060059,0.397705,-0.516602,-29.403685,65.353394,-59.29565,1.244496676134573
0 days 00:00:16.490000,-1.142822,0.525879,-0.548096,-36.170959,54.954525,-56.205746,1.3722244975006823
0 days 00:00:16.500000,-1.182373,0.591064,-0.486572,-50.804134,40.893551,-56.190487,1.408586126017504
0 days 00:00:16.510000,-0.95459,0.35498,-0.174072,43.05267,39.337158,17.883301,1.0332250140622805
0 days 00:00:16.520000,-1.168701,0.53833,-0.330078,-64.102173,19.485474,-55.435177,1.3283872561813441
0 days 00:00:16.530000,-0.961182,0.376465,-0.274414,-57.235714,-0.50354,-31.890867,1.068129101160061
0 days 00:00:16.540000,-0.649658,0.42334,-0.312744,-52.825924,27.114866,-18.997192,0.8361106877082722
0 days 00:00:16.550000,-0.76416,0.435303,-0.310547,-44.998165,40.924068,-20.164488,0.9326674898472659
0 days 00:00:16.560000,-0.806396,0.439453,-0.373291,-30.128477,45.600887,-20.927427,0.9913322443590746
0 days 00:00:16.570000,-0.818848,0.440918,-0.456543,-13.183593,42.282101,-15.426635,1.036027142828314
0 days 00:00:16.580000,-0.852539,0.452148,-0.514404,-8.560181,36.170959,-4.081726,1.0935593425329053
0 days 00:00:16.590000,-0.890381,0.481934,-0.441162,-7.217407,32.409668,0.839233,1.104383364489433
0 days 00:00:16.600000,-0.925293,0.494141,-0.378174,-0.999451,29.388426,2.456665,1.1150596567027256
0 days 00:00:16.610000,-0.906494,0.480957,-0.342529,4.867554,29.953001,5.0354,1.0818396940979749
0 days 00:00:16.620000,-0.844971,0.447998,-0.267822,10.292052,35.133362,9.864807,0.9931801561292897
0 days 00:00:16.630000,-1.128662,0.435547,-0.226318,-63.117977,1.121521,-46.226498,1.230771683366578
0 days 00:00:16.640000,-0.751465,0.667725,-0.053955,26.260374,53.916927,1.831055,1.006711211755884
0 days 00:00:16.650000,-0.652344,0.768555,0.002197,-5.371093,66.047668,-24.078367,1.0080844752152471
0 days 00:00:16.660000,-0.733398,0.762695,0.08252,-25.459288,70.411682,-36.514282,1.0613132618737033
0 days 00:00:16.670000,-0.716064,0.263184,-0.325684,-79.421997,62.240597,22.727964,0.8295080094899626
0 days 00:00:16.680000,-0.885498,0.253418,-0.411865,-67.817688,75.767517,22.65167,1.0089401215894827
0 days 00:00:16.690000,-0.996582,0.329102,-0.425049,-65.971375,88.394157,23.689268,1.1323208297691074
0 days 00:00:16.700000,-1.02002,0.4104,-0.430176,-74.523926,93.65081,29.014585,1.1806440409268155
0 days 00:00:16.710000,-1.033203,0.444824,-0.510498,-86.952202,74.836731,39.604187,1.235307669444742
0 days 00:00:16.720000,-1.099365,0.469971,-0.5354,-102.706902,40.458675,46.783443,1.310011184710268
0 days 00:00:16.730000,-1.144531,0.443848,-0.377686,-113.388054,2.632141,54.534908,1.284367148311183
0 days 00:00:16.740000,-1.016357,0.359619,-0.164307,-107.26165,-26.679991,60.317989,1.0905522302297126
0 days 00:00:16.750000,-0.788818,0.262695,-0.196289,-88.562004,-45.288082,51.452633,0.8542668620928708
0 days 00:00:16.760000,-0.753418,0.201416,-0.412354,-73.318481,-42.236324,40.145874,0.8821807689447781
0 days 00:00:16.770000,-0.619629,0.352539,-0.330566,-90.240471,45.745846,28.633116,0.7858102344192267
0 days 00:00:16.780000,-0.713867,0.179199,-0.490479,-60.516354,-27.8244,35.301208,0.8844704770262262
0 days 00:00:16.790000,-0.828857,0.272705,-0.446533,-38.764954,-12.451171,46.241756,0.9801855250731873
0 days 00:00:16.800000,-0.980713,0.333496,-0.422607,-40.420528,-13.076781,51.475521,1.1187556689617264
0 days 00:00:16.810000,-1.06665,0.346191,-0.445313,-43.830868,-12.367248,57.708736,1.2066043672016111
0 days 00:00:16.820000,-0.927002,0.327881,-0.458496,-42.41943,-2.204895,62.408443,1.0849226885732457
0 days 00:00:16.830000,-0.72168,0.309082,-0.416016,-38.803101,20.332335,58.982845,0.8884948043629743
0 days 00:00:16.840000,-0.650391,0.279785,-0.272949,-30.555723,55.816647,44.456478,0.7588077857448485
0 days 00:00:16.850000,-0.721436,0.230713,-0.15332,-15.411376,89.393608,32.913208,0.7727906656171515
0 days 00:00:16.860000,-0.82959,0.202637,-0.131592,-0.50354,115.913383,28.152464,0.8640588963334618
0 days 00:00:16.870000,-0.939697,0.216064,-0.157227,8.628845,147.659302,22.544859,0.9769516024010606
0 days 00:00:16.880000,-1.037842,0.241211,-0.170654,10.108947,185.79863,19.065857,1.079083662743997
0 days 00:00:16.890000,-0.700928,0.205811,-0.456055,-45.936581,-18.035889,39.260864,0.8611877797147379
0 days 00:00:16.900000,-0.724609,0.411377,-0.506836,-85.502617,31.639097,33.782959,0.9752804570512013
0 days 00:00:16.910000,-1.046143,0.239014,-0.166992,9.07135,214.805588,16.914368,1.0860152838284551
0 days 00:00:16.920000,-0.978027,0.319092,-0.692627,-41.328426,44.281002,13.839721,1.2401970320566003
0 days 00:00:16.930000,-0.83667,0.620361,0.145264,-23.28491,60.859676,-41.770931,1.0516492233235377
0 days 00:00:16.940000,-0.984131,0.57251,0.082275,-14.961242,41.923519,-47.302242,1.1415124619932977
0 days 00:00:16.950000,-1.103271,0.529785,-0.003174,-7.17163,28.770445,-48.858639,1.2238828048232395
0 days 00:00:16.960000,-0.974609,0.493896,-0.014404,6.317138,22.094725,-43.029781,1.0927046430362597
0 days 00:00:16.970000,-0.81543,0.449463,0.041016,20.538328,16.12854,-42.434689,0.932000743307107
0 days 00:00:16.980000,-1.026611,0.316895,-0.178223,40.977474,12.908935,-43.785091,1.0890895390531488
0 days 00:00:16.990000,-0.882813,0.375488,-0.670654,-63.781734,31.745909,23.986814,1.170524164137161
0 days 00:00:17,-0.918457,0.519775,-0.047607,95.199577,-23.193357,-24.604795,1.0564069944500556
0 days 00:00:17.010000,-0.990967,0.627686,-0.070068,94.764702,-33.882141,-35.316467,1.1751233272763333
0 days 00:00:17.020000,-0.928223,0.667725,-0.206299,71.266174,-58.135983,-28.976439,1.1619009814760466
0 days 00:00:17.030000,-0.951172,0.669434,-0.206543,41.549679,-76.10321,-27.145384,1.1813255541081806
0 days 00:00:17.040000,-1.070801,0.322754,-0.291748,70.587158,-1.243591,-25.077818,1.1558121913273798
0 days 00:00:17.050000,-1.140381,0.529541,-0.154541,2.27356,-128.53241,-1.88446,1.266793359835376
0 days 00:00:17.060000,-1.105713,0.450195,-0.198242,-3.059387,-152.885437,15.823363,1.2101969537881014
0 days 00:00:17.070000,-0.933105,0.403809,-0.294189,-1.098633,-160.552979,25.520323,1.0584393309146254
0 days 00:00:17.080000,-0.67334,0.394775,-0.361572,-0.114441,-144.874573,32.058716,0.8602141404377168
0 days 00:00:17.090000,-0.530273,0.347412,-0.404785,0.907898,-112.106316,36.933899,0.7521538728863929
0 days 00:00:17.100000,-0.533936,0.333496,-0.453125,-2.601623,-66.726685,37.704468,0.7756477936131837
0 days 00:00:17.110000,-0.590332,0.299072,-0.494873,-7.278442,-20.759581,34.355164,0.8263384400698057
0 days 00:00:17.120000,-0.667725,0.254883,-0.506104,-9.613037,17.700195,24.963377,0.8757643964731611
0 days 00:00:17.130000,-0.794678,0.240967,-0.547607,-12.313842,42.457577,16.75415,0.9947118402944644
0 days 00:00:17.140000,-0.943604,0.271729,-0.625244,-23.460386,50.704952,13.710021,1.1641113425239873
0 days 00:00:17.150000,-0.993896,0.595703,-0.144775,18.562317,-100.509636,-20.233152,1.1677547360854503
0 days 00:00:17.160000,-0.724365,0.477539,0.170654,20.538328,38.909912,-18.52417,0.884234661988547
0 days 00:00:17.170000,-0.749023,0.484619,0.307129,8.583069,27.763365,-4.936218,0.9435143095528546
0 days 00:00:17.180000,-0.77124,0.467285,0.150391,-1.205444,1.434326,8.659363,0.9142121535540861
0 days 00:00:17.190000,-0.846191,0.45752,-0.095703,-2.311707,-32.432556,9.033203,0.9667072064953276
0 days 00:00:17.200000,-0.992432,0.437012,-0.237061,-5.28717,17.364502,-7.278442,1.1099994056255165
0 days 00:00:17.210000,-1.060059,0.449219,-0.304688,16.311646,-52.513119,-18.577576,1.1909481814025327
0 days 00:00:17.220000,-1.074219,0.394775,-0.25,13.687133,-33.607483,-13.442992,1.1714494272421665
0 days 00:00:17.230000,-1.071045,0.384521,-0.217773,3.173828,-3.593445,-6.210327,1.158628012346931
0 days 00:00:17.240000,-0.975098,0.46167,-0.256836,6.492614,-53.50494,-6.607055,1.1090175965240587
0 days 00:00:17.250000,-0.731689,0.488525,-0.093506,28.877256,42.053219,-25.726316,0.8847422451663535
0 days 00:00:17.260000,-0.905273,0.845947,0.102051,-16.471863,105.171196,-34.317017,1.243205509133144
0 days 00:00:17.270000,-0.789307,0.534424,-0.276367,35.28595,44.502254,-33.760071,0.99246827189286
0 days 00:00:17.280000,-0.824951,0.530273,-0.302734,38.093567,46.058651,-27.053831,1.0263437444082757
0 days 00:00:17.290000,-0.911133,0.521729,-0.320313,39.115906,46.836849,-14.442443,1.0977089373322055
0 days 00:00:17.300000,-1.028564,0.52124,-0.306885,39.497375,42.892452,-1.342773,1.1932365410600698
0 days 00:00:17.310000,-1.111084,0.523438,-0.266113,39.489746,33.096313,4.501343,1.2567064588315762
0 days 00:00:17.320000,-1.122803,0.534424,-0.218994,37.063599,19.073486,1.815796,1.2626376996672481
0 days 00:00:17.330000,-1.030518,0.563232,-0.199707,32.028198,8.110046,-2.02179,1.191251661067887
0 days 00:00:17.340000,-0.902588,0.625977,-0.181641,22.850035,13.519286,-2.548218,1.1133309279607748
0 days 00:00:17.350000,-0.835693,0.697266,-0.126953,10.0708,41.107174,-5.180358,1.0957553236074193
0 days 00:00:17.360000,-0.799316,0.780273,-0.009766,-5.15747,77.392578,-17.76123,1.117061948658623
0 days 00:00:17.370000,-0.866455,0.492676,-0.177979,-10.047912,24.986265,-11.787414,1.012497127127776
0 days 00:00:17.380000,-0.766602,0.517578,-0.245361,32.180786,44.090267,-31.60095,0.956957487461695
0 days 00:00:17.390000,-0.821289,0.547852,-0.113037,-12.191772,27.06146,-13.435363,0.993697538888972
0 days 00:00:17.400000,-0.956787,0.558838,-0.145996,3.77655,1.13678,-6.210327,1.1176117866365762
0 days 00:00:17.410000,-0.944336,0.631348,-0.082031,-5.760192,4.631042,-9.460449,1.1389029207799055
0 days 00:00:17.420000,-1.13501,0.85498,0.107422,-15.945434,114.967339,-38.253784,1.4250536784921473
0 days 00:00:17.430000,-0.920898,0.493896,-0.261719,8.865356,8.026123,6.271362,1.0772572674069087
0 days 00:00:17.440000,-0.890869,0.526123,-0.226074,4.257202,13.954162,4.257202,1.0590384505606962
0 days 00:00:17.450000,-0.84375,0.557129,-0.199707,-2.960205,25.68054,3.677368,1.0306258637303838
0 days 00:00:17.460000,-0.80542,0.536865,-0.154785,-9.20105,38.146973,-0.488281,0.9802468060901806
0 days 00:00:17.470000,-0.851318,0.457764,-0.104492,-6.248474,44.281002,-5.691528,0.9722184913300096
0 days 00:00:17.480000,-0.94165,0.415039,-0.14624,2.288818,38.818359,-6.17218,1.03939801405477
0 days 00:00:17.490000,-1.005859,0.442139,-0.269287,8.148193,29.71649,-3.944397,1.1312624415099266
0 days 00:00:17.500000,-1.021973,0.493652,-0.358643,8.476257,23.41461,-2.761841,1.1902713603552761
0 days 00:00:17.510000,-1.027344,0.517822,-0.323242,5.958557,17.784119,-2.677917,1.1950149407367257
0 days 00:00:17.520000,-0.865967,0.600342,-0.076904,-11.71112,19.744873,-11.856078,1.0565148305958607
0 days 00:00:17.530000,-1.046875,0.526123,-0.231689,4.470825,9.338379,-3.730774,1.1943334833600707
0 days 00:00:17.540000,-1.050049,0.539307,-0.147217,4.196167,-2.868652,-5.233764,1.1895914373174514
0 days 00:00:17.550000,-0.845703,0.581543,-0.161621,0.053406,13.648986,-7.080078,1.0390029704957537
0 days 00:00:17.560000,-0.790283,0.571045,-0.152344,-5.149841,28.572081,-8.171082,0.9868375278889631
0 days 00:00:17.570000,-0.828857,0.515381,-0.145508,-5.66864,34.660339,-10.231017,0.9868100524791992
0 days 00:00:17.580000,-0.962891,0.465332,-0.181641,0.831604,28.984068,-12.855529,1.0847517692937865
0 days 00:00:17.590000,-1.074951,0.453125,-0.262695,8.140564,17.913818,-13.061522,1.1957635974769427
0 days 00:00:17.600000,-1.069336,0.463867,-0.311768,12.832641,4.753113,-11.436461,1.2065866568170724
0 days 00:00:17.610000,-1.036377,0.500244,-0.288818,14.907836,-5.15747,-9.727478,1.1864810081872361
0 days 00:00:17.620000,-1.026611,0.552002,-0.192627,12.329101,-9.773254,-8.56781,1.181415047497703
0 days 00:00:17.630000,-1.004883,0.608398,-0.12207,4.501343,-7.209777,-8.201599,1.181033045682042
0 days 00:00:17.640000,-1.075928,0.533203,-0.171631,4.325867,1.25885,-4.53949,1.2130060595701904
0 days 00:00:17.650000,-1.336426,0.828125,-0.036377,-16.738892,93.063347,-27.175901,1.572624797982659
0 days 00:00:17.660000,-0.952637,0.466553,-0.314209,12.832641,6.973266,8.934021,1.1063074849511776
0 days 00:00:17.670000,-1.644531,0.647949,-0.580811,-39.123535,-49.758907,8.590698,1.860554093350419
0 days 00:00:17.680000,-1.015381,0.44751,-0.024414,-24.42169,-19.844055,13.84735,1.1098918049328053
0 days 00:00:17.690000,-1.057373,0.442139,-0.052979,-16.319275,-27.44293,22.232054,1.1473148351219904
0 days 00:00:17.700000,-1.068848,0.412842,-0.047119,-6.42395,-36.445618,22.682188,1.1467758125409693
0 days 00:00:17.710000,-0.971191,0.414551,-0.029541,5.599975,-46.806332,15.86151,1.056379269373931
0 days 00:00:17.720000,-0.894287,0.465088,-0.105469,11.924743,-49.957272,10.406493,1.013498789379642
0 days 00:00:17.730000,-0.884033,0.516602,-0.230469,13.702392,-44.616695,12.901305,1.0495274800852048
0 days 00:00:17.740000,-0.8396,0.605713,-0.250732,10.116576,-29.953001,15.159606,1.0652149708828729
0 days 00:00:17.750000,-0.823975,0.630859,-0.178467,1.541138,-16.304016,16.647339,1.0529806971616336
0 days 00:00:17.760000,-0.908936,0.593994,-0.109131,-4.074097,-20.278929,14.274596,1.091285067841121
0 days 00:00:17.770000,-0.956543,0.59375,-0.074463,-6.149292,-32.859802,10.803222,1.128298857447795
0 days 00:00:17.780000,-0.88208,0.459961,-0.00415,-26.405333,-21.301268,-6.41632,0.9948097659457309
0 days 00:00:17.790000,-0.968018,0.55957,-0.094727,-4.379272,-52.673336,17.951965,1.1221188162369438
0 days 00:00:17.800000,-0.986328,0.445068,-0.020508,9.742737,-82.496635,38.566589,1.0822887906062781
0 days 00:00:17.810000,-0.882324,0.421631,-0.123291,12.237548,-79.467773,35.614014,0.9856312757913073
0 days 00:00:17.820000,-0.80957,0.451416,-0.271484,13.389586,-63.110348,33.828735,0.965858971181611
0 days 00:00:17.830000,-0.801758,0.509033,-0.380615,8.06427,-42.556759,28.305052,1.0231315965593086
0 days 00:00:17.840000,-0.861816,0.539063,-0.47998,-3.089905,-20.782469,18.257141,1.124142578245749
0 days 00:00:17.850000,-0.885254,0.525391,-0.479492,-4.821777,3.837585,7.896423,1.1356156592179416
0 days 00:00:17.860000,-0.80835,0.466309,-0.33667,11.474608,17.082214,-4.318237,0.9920788753325009
0 days 00:00:17.870000,-0.859863,0.457275,-0.207764,30.242918,19.538879,-10.643004,0.9958065495315845
0 days 00:00:17.880000,-1.032959,0.577393,-0.194824,32.142639,24.108885,-11.009215,1.1993095359856019
0 days 00:00:17.890000,-1.114258,0.75,-0.182129,7.621765,35.110474,-7.4234,1.3554489526370959
0 days 00:00:17.900000,-1.00293,0.495117,-0.034912,2.754211,-71.601868,32.775879,1.1190300605135681
0 days 00:00:17.910000,-0.942383,0.466797,-0.058105,-37.658691,-1.579285,-1.266479,1.05326224128799
0 days 00:00:17.920000,-1.504395,0.790283,-0.316406,-30.326841,29.167173,-7.408142,1.7285439806235767
0 days 00:00:17.930000,-0.746094,0.434814,-0.11377,-24.597166,18.371582,-2.655029,0.8710126774806438
0 days 00:00:17.940000,-1.632813,0.362305,-0.762451,-3.616333,-110.862724,29.289244,1.838117170747012
0 days 00:00:17.950000,-1.355469,0.095215,-0.991211,41.099545,-130.500793,37.513733,1.6819219222981192
0 days 00:00:17.960000,-1.000977,-0.012451,-1.140869,50.537106,-101.943962,-1.434326,1.5177918358889009
0 days 00:00:17.970000,-0.85083,0.189941,-0.959961,52.253719,-39.932251,-36.552429,1.2967321982205886
0 days 00:00:17.980000,-0.707764,0.522217,-0.680664,38.543701,14.038085,-41.976925,1.11217982164801
0 days 00:00:17.990000,-0.694824,0.804688,-0.645508,-3.097534,43.533321,-34.675598,1.243778013306233
0 days 00:00:18,-0.941162,0.464355,-0.132813,-37.330627,17.814636,3.990173,1.057851959982114
0 days 00:00:18.010000,-0.809082,0.927002,-0.220459,-148.612976,75.408936,3.044128,1.2500194244126768
0 days 00:00:18.020000,-0.786621,0.735352,0.554688,-149.925232,67.03186,18.02063,1.211277812431566
0 days 00:00:18.030000,-0.768555,0.700195,0.921143,-113.525383,58.006283,9.32312,1.3890479662340678
0 days 00:00:18.040000,-0.687012,0.586182,0.79834,-74.943542,37.864685,8.087158,1.2053802640113203
0 days 00:00:18.050000,-0.843018,0.974121,-0.661865,-81.43615,67.29126,-24.215696,1.4483288125249736
0 days 00:00:18.060000,-0.846436,0.572754,0.336182,-32.119751,-19.081116,30.540464,1.0758807479158645
0 days 00:00:18.070000,-0.868164,0.604736,0.363037,-29.006956,-39.138794,47.7066,1.1185750864206658
0 days 00:00:18.080000,-0.8396,0.60498,0.431885,-25.344847,-58.113094,56.915279,1.1213623917471995
0 days 00:00:18.090000,-0.764404,0.59375,0.368408,-26.69525,-67.817688,57.136532,1.0356529303680841
0 days 00:00:18.100000,-0.753418,0.563721,0.213623,-33.630371,-67.28363,48.667904,0.9649118274194799
0 days 00:00:18.110000,-0.816406,0.468018,0.080322,-35.736084,-62.149044,32.859802,0.9444634608305394
0 days 00:00:18.120000,-0.789063,0.379883,0.025635,-31.501768,-51.666256,16.944885,0.8761213756569349
0 days 00:00:18.130000,-0.665527,0.335205,0.000244,-25.154112,-36.384583,6.790161,0.7451769181140812
0 days 00:00:18.140000,-0.605469,0.331055,-0.022217,-20.698545,-14.045714,1.564026,0.6904228545427794
0 days 00:00:18.150000,-0.627441,0.375,-0.049316,-19.432068,8.163452,-2.426147,0.7326249220010197
0 days 00:00:18.160000,-0.791748,0.510986,0.48584,-44.723507,5.15747,13.229369,1.0601943658122317
0 days 00:00:18.170000,-1.030029,0.211182,-0.234375,11.367797,-13.84735,-22.834776,1.0772600515149533
0 days 00:00:18.180000,-1.003418,0.22168,-0.205078,7.751464,-10.0708,-20.324705,1.0478772309808053
0 days 00:00:18.190000,-1.003418,0.249756,-0.185547,4.936218,-8.804321,-16.708374,1.0505491094989323
0 days 00:00:18.200000,-1.024902,0.279053,-0.1875,4.318237,-10.963439,-15.533446,1.0786338286985997
0 days 00:00:18.210000,-1.09082,0.287109,-0.153809,3.14331,2.609253,-19.172668,1.1384098817043007
0 days 00:00:18.220000,-1.094727,0.304199,-0.153564,8.377075,-12.390136,-18.615723,1.1465365839021449
0 days 00:00:18.230000,-1.136719,0.302002,-0.164307,8.804321,-10.0708,-18.974304,1.1875740327297495
0 days 00:00:18.240000,-1.127441,0.284912,-0.160156,7.148742,-4.798889,-19.683838,1.173860298570916
0 days 00:00:18.250000,-1.052002,0.294678,-0.173828,6.347656,-13.160705,-16.944885,1.1062366407202395
0 days 00:00:18.260000,-1.053223,0.230713,-0.248291,13.931273,-17.936707,-21.812437,1.106415652808202
0 days 00:00:18.270000,-0.977051,0.196777,-0.146484,-1.220703,34.873962,11.772155,1.0073764969394512
0 days 00:00:18.280000,-0.987793,0.26123,-0.202637,12.565612,-27.770994,-11.009215,1.04165151443177
0 days 00:00:18.290000,-0.933838,0.256104,-0.135254,9.162903,-26.771544,-5.996704,0.9777199566215266
0 days 00:00:18.300000,-0.880127,0.240967,-0.087891,6.454467,-19.828796,-2.853393,0.9167406716727474
0 days 00:00:18.310000,-0.840332,0.229736,-0.101074,4.089355,-9.552002,-0.991821,0.8770133712754897
0 days 00:00:18.320000,-0.837646,0.229004,-0.116211,1.052856,1.739502,-0.762939,0.8761270740326428
0 days 00:00:18.330000,-0.869385,0.230957,-0.118896,-1.350403,12.107848,1.564026,0.9073630325784713
0 days 00:00:18.340000,-0.899414,0.233398,-0.139893,-3.288269,20.149229,6.980896,0.9396755936220756
0 days 00:00:18.350000,-0.915527,0.235352,-0.165283,-4.890442,26.580809,12.351989,0.9596346813876622
0 days 00:00:18.360000,-0.935303,0.222412,-0.16333,-5.645751,32.028198,14.808654,0.9751592118485063
0 days 00:00:18.370000,-0.954102,0.205566,-0.151123,-4.394531,34.912109,13.748168,0.9876265325967098
0 days 00:00:18.380000,-1.067871,0.308594,-0.160645,-0.823975,6.599426,-14.09912,1.123114217478347
0 days 00:00:18.390000,-1.036865,0.252197,-0.233398,14.373778,-23.208616,-17.349243,1.0923218305234037
0 days 00:00:18.400000,-1.068359,0.331787,-0.175049,-1.716614,4.974365,-8.209229,1.1323054882190584
0 days 00:00:18.410000,-0.997314,0.255371,-0.186035,-0.427246,17.318726,8.728027,1.0461637460082434
0 days 00:00:18.420000,-1.096436,0.315186,-0.203125,4.394531,-2.342224,-4.211426,1.15878120554184
0 days 00:00:18.430000,-1.000244,0.207275,-0.156006,3.166198,31.967161,11.810302,1.0333386943287277
0 days 00:00:18.440000,-1.003418,0.278076,-0.167725,2.090454,-5.622863,-7.652282,1.0546590065632588
0 days 00:00:18.450000,-0.998291,0.247559,-0.165283,4.615784,-4.852295,-8.68988,1.0417239793971338
0 days 00:00:18.460000,-0.996338,0.225342,-0.167969,10.520934,-4.730225,-9.132385,1.0352207552831425
0 days 00:00:18.470000,-0.989502,0.231201,-0.180176,14.617919,-3.082275,-8.575439,1.0320036343836196
0 days 00:00:18.480000,-0.978516,0.243408,-0.182861,11.657714,0.450134,-3.662109,1.0247824949914983
0 days 00:00:18.490000,-0.963623,0.248047,-0.168701,4.493713,3.410339,1.312256,1.009235665114447
0 days 00:00:18.500000,-0.971924,0.245117,-0.160645,2.731323,4.890442,3.15094,1.0151479800945278
0 days 00:00:18.510000,-0.993164,0.253906,-0.175781,3.417969,6.187438,4.554749,1.0400682418442553
0 days 00:00:18.520000,-0.996582,0.256104,-0.166992,2.914428,7.980346,5.607605,1.0424256662246953
0 days 00:00:18.530000,-1.083496,0.335938,-0.193604,0.999451,1.525879,-4.585266,1.150782529705765
0 days 00:00:18.540000,-0.988525,0.254395,-0.155029,2.220154,9.971619,6.67572,1.0324400624205747
0 days 00:00:18.550000,-0.984131,0.255127,-0.180908,0.389099,15.197753,8.552551,1.0326331951637038
0 days 00:00:18.560000,-1.024414,0.265381,-0.190186,-0.831604,18.341064,7.728576,1.075184557716953
0 days 00:00:18.570000,-1.057129,0.28125,-0.193115,-1.815796,18.066406,6.759643,1.1108180266659342
0 days 00:00:18.580000,-1.07666,0.293457,-0.192383,-3.250122,15.960692,7.713317,1.1323978917050312
0 days 00:00:18.590000,-1.090088,0.295654,-0.19458,-4.562378,11.520385,8.834839,1.1461084206391645
0 days 00:00:18.600000,-1.126953,0.290771,-0.203369,-5.424499,5.554199,8.171082,1.1814947265269533
0 days 00:00:18.610000,-1.161377,0.274902,-0.200439,-4.684448,-0.679016,5.867004,1.210183225158075
0 days 00:00:18.620000,-1.147949,0.254883,-0.195557,-1.777649,-5.1651,2.326965,1.1920548605408228
0 days 00:00:18.630000,-1.119629,0.256592,-0.20166,2.235413,-6.660461,-1.770019,1.1662226664342448
0 days 00:00:18.640000,-1.104736,0.282227,-0.209473,4.905701,-5.348205,-4.180908,1.1592983425132635
0 days 00:00:18.650000,-0.984619,0.253174,-0.167725,1.541138,12.46643,7.873535,1.030389889829088
0 days 00:00:18.660000,-1.006836,0.247559,-0.169434,6.561279,30.166624,14.808654,1.0505770175160887
0 days 00:00:18.670000,-1.029053,0.294922,-0.182129,3.27301,-7.003784,-5.554199,1.0858637278839367
0 days 00:00:18.680000,-0.963867,0.316406,-0.124023,3.204345,37.567139,19.53125,1.0220244884805842
0 days 00:00:18.690000,-0.942871,0.364258,-0.198486,-12.481688,-64.735413,-94.459526,1.0300904355448603
0 days 00:00:18.700000,-0.88916,0.423828,-0.233154,-19.706726,-57.441708,-91.308586,1.012223526154179
0 days 00:00:18.710000,-0.829102,0.402832,-0.217529,-24.055479,-55.870052,-89.088432,0.9471022185957544
0 days 00:00:18.720000,-0.833252,0.349609,-0.233154,-20.248411,-58.79974,-77.972412,0.9332181610432793
0 days 00:00:18.730000,-0.82373,0.333496,-0.22998,-12.435912,-65.063477,-70.419312,0.9179550617083605
0 days 00:00:18.740000,-0.857666,0.327148,-0.251709,-2.624511,-69.953918,-68.092346,0.9518267710781201
0 days 00:00:18.750000,-0.935303,0.324219,-0.323242,8.06427,-70.358276,-58.212276,1.0413429081402532
0 days 00:00:18.760000,-0.86792,0.352295,-0.314453,12.947082,-65.536499,-46.134945,0.9880676002349232
0 days 00:00:18.770000,-0.751709,0.348877,-0.264893,14.686584,-54.710384,-37.338257,0.8700286680673229
0 days 00:00:18.780000,-0.697266,0.350586,-0.208496,16.708374,-34.973145,-33.432007,0.8078124783438295
0 days 00:00:18.790000,-0.904053,0.329102,-0.061523,-12.687682,-72.677612,-103.86657,0.9640565505933767
0 days 00:00:18.800000,-0.665039,0.388672,-0.178955,19.630432,-11.863708,-33.332825,0.7908019266099445
0 days 00:00:18.810000,-0.677002,0.476807,-0.150635,10.81848,27.717588,-23.956297,0.8416457250399362
0 days 00:00:18.820000,-0.71167,0.503418,-0.161377,3.540039,39.161682,-16.838074,0.8865361852473931
0 days 00:00:18.830000,-0.765869,0.507813,-0.188232,-2.700805,45.036312,-12.023925,0.9380088773321924
0 days 00:00:18.840000,-0.834961,0.481445,-0.212402,-6.278991,43.876644,-6.301879,0.9869466901256623
0 days 00:00:18.850000,-0.904053,0.44043,-0.246582,-5.851745,36.811829,0.114441,1.0354192843640686
0 days 00:00:18.860000,-0.961426,0.395996,-0.297852,-1.068115,28.274534,6.523132,1.0816046409830165
0 days 00:00:18.870000,-0.984619,0.358398,-0.350586,7.240295,20.797728,11.947631,1.104913682131324
0 days 00:00:18.880000,-0.985596,0.354736,-0.4021,13.961791,13.84735,15.449523,1.122016717750676
0 days 00:00:18.890000,-0.989014,0.391602,-0.43042,17.00592,9.025574,14.991759,1.1475025904110194
0 days 00:00:18.900000,-0.98584,0.438232,-0.400391,16.242981,7.751464,11.604308,1.1507565964638222
0 days 00:00:18.910000,-0.654785,0.433838,-0.179932,17.707825,9.757996,-30.960081,0.8058128387491725
0 days 00:00:18.920000,-0.874512,0.345459,0.025146,-17.448425,-78.575134,-102.806084,0.9406091006050281
0 days 00:00:18.930000,-0.986572,0.290283,-0.1604,6.378173,32.295227,17.997742,1.040825005115173
0 days 00:00:18.940000,-1.015625,0.432129,0.074463,-14.47296,-80.566399,-80.352776,1.1062433510014873
0 days 00:00:18.950000,-0.986084,0.327393,-0.080322,-1.068115,42.221066,21.65222,1.0421129762117924
0 days 00:00:18.960000,-1.044922,0.337646,-0.083252,-4.417419,44.982906,25.161741,1.1012709489058539
0 days 00:00:18.970000,-1.092529,0.347412,-0.106201,-6.378173,49.659725,26.916502,1.1513441561870197
0 days 00:00:18.980000,-1.077148,0.345947,-0.124268,-7.67517,56.518551,22.735594,1.1381430826293326
0 days 00:00:18.990000,-1.057129,0.332031,-0.122559,-6.538391,62.103268,13.641356,1.1148035773547733
0 days 00:00:19,-1.107666,0.323975,-0.106201,-2.838135,62.118526,6.187438,1.1589488429529582
0 days 00:00:19.010000,-0.946533,0.369873,0.031006,-18.112183,-81.550591,-92.880241,1.0167065103824209
0 days 00:00:19.020000,-1.248535,0.304932,-0.127686,1.747131,35.598755,10.215758,1.2915598652191853
0 days 00:00:19.030000,-1.241699,0.30249,-0.17041,2.243042,22.460936,11.535644,1.2893239215965087
0 days 00:00:19.040000,-1.215576,0.30127,-0.195313,0.480652,13.755797,4.333496,1.267491930011785
0 days 00:00:19.050000,-1.241943,0.30249,-0.230469,-3.067016,7.141113,-6.462097,1.2988604910882462
0 days 00:00:19.060000,-1.196777,0.317139,-0.102539,0.106812,51.895138,5.294799,1.2423230576508673
0 days 00:00:19.070000,-1.417969,0.358887,-0.296631,-6.67572,-11.085509,-20.26367,1.4924563356731748
0 days 00:00:19.080000,-1.438232,0.399902,-0.304688,-6.256103,-22.666929,-20.507811,1.5235706983176067
0 days 00:00:19.090000,-1.412109,0.402832,-0.261719,-5.126953,-31.249998,-18.981934,1.491583816976438
0 days 00:00:19.100000,-1.316895,0.368408,-0.187744,-4.53186,-40.39764,-21.720884,1.3802842841331635
0 days 00:00:19.110000,-1.19043,0.344482,-0.120117,-4.707336,-39.855957,-34.118652,1.245078120807285
0 days 00:00:19.120000,-1.125488,0.327637,-0.005127,-0.190735,-29.632566,-50.628658,1.1722182083733386
0 days 00:00:19.130000,-1.168213,0.3125,0.105957,7.850646,-29.685972,-56.823727,1.2139212285885768
0 days 00:00:19.140000,-1.273926,0.347412,0.14502,11.405944,-42.579647,-48.805233,1.3283875005509498
0 days 00:00:19.150000,-1.309814,0.431152,0.111328,7.942199,-58.662411,-44.410702,1.3834372719006816
0 days 00:00:19.160000,-1.168457,0.484619,0.093994,-4.692078,-71.266174,-59.80682,1.2684566244243436
0 days 00:00:19.170000,-1.335449,0.320801,-0.271484,-5.691528,0.015259,-15.686034,1.4000145983017465
0 days 00:00:19.180000,-0.816895,0.294922,-0.417725,-51.475521,120.399467,-51.254269,0.9637378288383206
0 days 00:00:19.190000,-0.808105,0.237061,-0.394775,-39.94751,111.244194,-87.509148,0.9300961828601384
0 days 00:00:19.200000,-0.985596,0.118896,-0.314941,-19.973755,91.76635,-69.198608,1.0415006325072491
0 days 00:00:19.210000,-1.083008,0.203857,-0.345215,-15.533446,87.692253,-15.1062,1.1548321959219876
0 days 00:00:19.220000,-0.848633,0.035156,-0.638184,-108.032219,93.421928,-66.665649,1.0623995156630108
0 days 00:00:19.230000,-0.985107,-0.100586,-0.425293,-40.90118,102.546684,-86.662285,1.0776954489529962
0 days 00:00:19.240000,-0.819824,0.000732,-0.500244,-70.327759,92.918388,-92.239372,0.9603936621698417
0 days 00:00:19.250000,-0.829346,0.0625,-0.617676,-89.859001,92.002861,-72.227478,1.0359752307328587
0 days 00:00:19.260000,-1.024902,0.072021,-0.359619,-17.547607,97.526543,-33.325195,1.088548096873078
0 days 00:00:19.270000,-1.280273,0.114258,-0.290283,-17.341614,98.388664,-36.5448,1.3177321674687918
0 days 00:00:19.280000,-0.938965,0.232666,-0.182861,-13.839721,-4.867554,-14.030456,0.9844932118110312
0 days 00:00:19.290000,-1.414795,0.232666,-0.374756,22.605894,-22.3999,-35.263062,1.4819650532711628
0 days 00:00:19.300000,-1.094238,0.282227,-0.41333,3.631592,-50.895687,-14.541625,1.2032666242662098
0 days 00:00:19.310000,-0.961426,0.199951,-0.386963,-4.859924,-40.40527,5.91278,1.0554907480627198
0 days 00:00:19.320000,-0.846191,0.138184,-0.400879,-10.719298,-21.369932,5.561828,0.9464871890194817
0 days 00:00:19.330000,-0.927246,0.079834,-0.356934,-2.662658,2.319336,-11.619567,0.9967750460500102
0 days 00:00:19.340000,-1.052246,0.075439,-0.322266,12.260436,16.120911,-26.992796,1.1030721019013219
0 days 00:00:19.350000,-1.092529,0.136719,-0.310791,18.249512,13.534545,-28.022764,1.144072876386378
0 days 00:00:19.360000,-1.054199,0.232178,-0.293457,10.82611,5.851745,-23.452757,1.118641661182883
0 days 00:00:19.370000,-0.973389,0.2854,-0.225342,-1.785278,0.679016,-20.278929,1.039094953449876
0 days 00:00:19.380000,-0.926758,0.269775,-0.172607,-10.673522,-3.013611,-17.379761,0.9805366477791638
0 days 00:00:19.390000,-0.859375,0.045898,-0.609131,-127.334587,88.806145,-59.516903,1.0543588536119948
0 days 00:00:19.400000,-1.737305,0.024902,-0.251221,29.357908,49.011227,-40.664669,1.7555514129383967
0 days 00:00:19.410000,-0.851318,0.09668,-0.605225,-142.333984,80.986015,-47.45483,1.0489931649677227
0 days 00:00:19.420000,-0.888672,0.24292,-0.431396,-108.184807,92.231743,-108.627312,1.0172760484745524
0 days 00:00:19.430000,-0.962891,0.231934,-0.54541,-152.748108,73.822021,-51.269527,1.1306743679490572
0 days 00:00:19.440000,-0.983887,0.193848,-0.219482,-11.993407,-5.401611,-10.253905,1.0265393437160604
0 days 00:00:19.450000,-0.855469,0.047119,-0.445313,-51.445004,-9.94873,-91.476433,0.965583283870946
0 days 00:00:19.460000,-0.810303,0.0896,-0.492432,-56.259151,-1.029968,-87.043755,0.9524223781668508
0 days 00:00:19.470000,-0.780518,0.098633,-0.5271,-60.989376,17.036438,-86.967461,0.94698005629105
0 days 00:00:19.480000,-0.758301,0.087158,-0.530762,-64.689636,40.977474,-87.287895,0.9296909294001958
0 days 00:00:19.490000,-0.724365,0.068359,-0.495361,-66.551208,63.4613,-86.479179,0.8802045935048284
0 days 00:00:19.500000,-0.748535,0.066895,-0.463135,-64.674377,85.014336,-86.006157,0.8827647565886395
0 days 00:00:19.510000,-0.814941,0.094971,-0.447998,-60.93597,106.62841,-87.280266,0.9347997284584544
0 days 00:00:19.520000,-0.84375,0.150146,-0.42749,-59.349056,122.51281,-91.76635,0.9577085067576668
0 days 00:00:19.530000,-0.864014,0.215576,-0.390869,-64.208984,126.892082,-100.547783,0.972507984097303
0 days 00:00:19.540000,-0.859863,0.161133,-0.587402,-150.726318,76.766968,-44.425961,1.053740637947498
0 days 00:00:19.550000,-0.909668,0.268799,-0.355957,-76.049805,121.215813,-111.282341,1.013140739716847
0 days 00:00:19.560000,-0.87207,0.276611,-0.344971,-101.913445,97.579948,-115.066521,0.9777651666233566
0 days 00:00:19.570000,-0.907471,0.190674,-0.510742,-107.360832,92.048637,-103.614799,1.058639495145066
0 days 00:00:19.580000,-0.948486,0.137451,-0.555176,-99.876396,92.536919,-100.273125,1.1075824396283105
0 days 00:00:19.590000,-1.000488,0.112549,-0.586426,-91.278069,91.041557,-98.640434,1.1651347428606702
0 days 00:00:19.600000,-1.04248,0.131592,-0.590332,-88.11187,85.639946,-97.740166,1.2052273126211503
0 days 00:00:19.610000,-1.080811,0.187744,-0.572754,-95.581047,76.377869,-94.558708,1.2375166147462424
0 days 00:00:19.620000,-1.123291,0.24707,-0.531738,-110.649101,66.833496,-87.829582,1.2671115011020144
0 days 00:00:19.630000,-1.15332,0.300049,-0.487793,-126.106255,61.18774,-78.132629,1.2876794770632947
0 days 00:00:19.640000,-1.140625,0.318359,-0.47876,-139.213562,62.088009,-69.038391,1.277336674924039
0 days 00:00:19.650000,-1.071533,0.293945,-0.503418,-148.674011,67.810059,-60.844418,1.219842742257378
0 days 00:00:19.660000,-0.90332,0.288574,-0.32666,-90.217583,109.52758,-117.385857,1.0029799257592347
0 days 00:00:19.670000,-0.868408,-0.01001,-0.412109,-46.936031,-10.581969,-100.662224,0.9612837679088313
0 days 00:00:19.680000,-1.026367,0.163818,-0.249756,-6.851196,-7.072448,-8.68988,1.0689450946372314
0 days 00:00:19.690000,-1.056641,0.168945,-0.275879,4.959106,-10.337829,-5.905151,1.105052866856152
0 days 00:00:19.700000,-1.002197,0.255859,-0.157471,-7.507324,6.820678,1.487732,1.046259896264308
0 days 00:00:19.710000,-1.020996,0.232666,-0.20459,-5.592346,7.4234,2.609253,1.0669692440140905
0 days 00:00:19.720000,-1.050781,0.214355,-0.228516,-1.235962,5.226135,3.27301,1.0964982162511712
0 days 00:00:19.730000,-1.080566,0.223389,-0.239258,3.52478,0.549316,3.860473,1.129057091665873
0 days 00:00:19.740000,-1.078125,0.266357,-0.262695,4.638672,-3.181457,4.379272,1.1411872020396128
0 days 00:00:19.750000,-1.043213,0.303467,-0.274414,0.434875,-2.410889,3.982544,1.1205751321772226
0 days 00:00:19.760000,-1.007324,0.295898,-0.206543,-5.088806,1.342773,2.861023,1.0700080739083235
0 days 00:00:19.770000,-1.000488,0.27002,-0.165527,-7.606506,3.883362,2.319336,1.0494218533425919
0 days 00:00:19.780000,-1.029053,0.254639,-0.180908,-6.156921,4.53949,2.250671,1.0754156413192062
0 days 00:00:19.790000,-1.133301,0.263916,-0.180176,0.328064,-3.578186,-0.091553,1.1774914872868507
0 days 00:00:19.800000,-0.97998,0.278809,-0.11377,-6.233215,5.493164,-0.785828,1.0252018687951168
0 days 00:00:19.810000,-1.147949,0.279541,-0.169922,1.594543,-8.071899,-1.861572,1.1936513575437344
0 days 00:00:19.820000,-1.034668,0.282959,-0.145508,1.068115,-9.83429,-1.502991,1.08248614031266
0 days 00:00:19.830000,-1.020996,0.277588,-0.175293,0.480652,-10.246276,-2.433777,1.07248103275023
0 days 00:00:19.840000,-1.041504,0.280762,-0.200195,-0.061035,-9.513855,-3.250122,1.0971034229665861
0 days 00:00:19.850000,-1.042725,0.283447,-0.200439,-0.778198,-8.018494,-4.676819,1.0989965514754811
0 days 00:00:19.860000,-1.037842,0.275879,-0.199951,-0.190735,-6.195068,-6.355285,1.0923395268898768
0 days 00:00:19.870000,-1.036133,0.258057,-0.196289,2.204895,-4.974365,-7.438659,1.0856769226887897
0 days 00:00:19.880000,-1.04248,0.237305,-0.182617,5.065917,-6.095886,-7.774353,1.0846322796754668
0 days 00:00:19.890000,-1.061035,0.250488,-0.18042,6.759643,-8.079529,-6.729125,1.1050298121630022
0 days 00:00:19.900000,-1.059814,0.282471,-0.190186,5.859375,-8.331299,-4.951477,1.113178465041882
0 days 00:00:19.910000,-1.056641,0.152832,-0.269531,-0.038147,-9.32312,-8.666992,1.1011334083870128
0 days 00:00:19.920000,-1.099609,0.284912,-0.14917,1.365662,-9.140015,-1.495361,1.1456729417791973
0 days 00:00:19.930000,-0.963623,0.299316,-0.137939,-2.876281,2.044678,-2.471924,1.018423547305344
0 days 00:00:19.940000,-1.078857,0.250244,-0.188721,-2.777099,2.044678,1.846313,1.1234634403602104
0 days 00:00:19.950000,-0.996582,0.282227,-0.163574,3.562927,-8.338928,-1.770019,1.0486106120619798
0 days 00:00:19.960000,-0.966797,0.302002,-0.168213,0.617981,-3.65448,-2.365112,1.0267410874129856
0 days 00:00:19.970000,-1.015137,0.224365,-0.238281,4.905701,-6.530761,-2.27356,1.0665929949868411
0 days 00:00:19.980000,-1.001465,0.238037,-0.217285,4.066467,-4.386902,-2.731323,1.0520487302492219
0 days 00:00:19.990000,-0.993408,0.250977,-0.209229,3.768921,-2.655029,-2.067566,1.04576559679213
0 days 00:00:20,-0.990723,0.26709,-0.209717,2.548218,-0.175476,-2.151489,1.0473062355003908
0 days 00:00:20.010000,-0.992676,0.270752,-0.203857,1.487732,2.418518,-2.334595,1.0489375400513608
0 days 00:00:20.020000,-1.007324,0.265625,-0.202148,1.159668,3.791809,0.137329,1.0611890008405667
0 days 00:00:20.030000,-1.028809,0.263184,-0.201172,0.946045,3.746032,-1.312256,1.080825587188331
0 days 00:00:20.040000,-1.053223,0.252686,-0.204346,2.952575,3.089905,-6.629943,1.1022187577976523
0 days 00:00:20.050000,-1.063232,0.242432,-0.196777,7.148742,1.052856,-3.189087,1.1081320987034893
0 days 00:00:20.060000,-1.04834,0.269775,-0.185059,8.094788,0.709534,2.937317,1.0981994990465076
0 days 00:00:20.070000,-1.033447,0.197998,-0.260254,5.928039,-9.567261,-2.410889,1.0839502084178037
0 days 00:00:20.080000,-1.038574,0.271973,-0.1521,2.998352,8.155823,-6.729125,1.0843153029469796
0 days 00:00:20.090000,-1.042969,0.297607,-0.169434,4.455566,6.019592,-1.953125,1.0977532244388992
0 days 00:00:20.100000,-1.109375,0.247559,-0.208252,5.424499,-8.323669,-5.546569,1.1555809121865936
0 days 00:00:20.110000,-1.121826,0.225586,-0.225586,5.081176,-5.744934,-4.844666,1.1663068468752125
0 days 00:00:20.120000,-1.082031,0.202637,-0.190186,1.495361,-2.082825,-2.532959,1.1171497452562031
0 days 00:00:20.130000,-1.039795,0.22168,-0.175781,-3.517151,1.083374,-1.487732,1.077596689112397
0 days 00:00:20.140000,-1.053223,0.263428,-0.167236,4.837036,-9.651184,-3.479004,1.0984720654659361
0 days 00:00:20.150000,-1.047363,0.282959,-0.186523,-3.532409,2.189636,-3.326416,1.100829632131603
0 days 00:00:20.160000,-1.051758,0.277588,-0.181641,-0.022888,3.364563,-4.386902,1.1028342763937835
0 days 00:00:20.170000,-1.041992,0.255615,-0.163818,2.532959,5.210876,-5.40924,1.0853214700783358
0 days 00:00:20.180000,-1.032715,0.259033,-0.179443,-5.477905,1.968384,-2.128601,1.0797213328275959
0 days 00:00:20.190000,-0.319336,-0.450928,-1.094727,-5.928039,-0.061035,-40.145874,1.226270258388827
0 days 00:00:20.200000,-0.350098,-0.402344,-1.06665,1.89209,18.913269,-27.679441,1.1925567183325076
0 days 00:00:20.210000,-0.341797,-0.403076,-1.067139,2.326965,16.876221,-30.021666,1.1908321024838053
0 days 00:00:20.220000,-0.364502,-0.422852,-1.058838,7.003784,11.085509,-29.983519,1.1969976742466961
0 days 00:00:20.230000,-0.391602,-0.437988,-1.051514,15.426635,1.869202,-27.420042,1.2045195335668077
0 days 00:00:20.240000,-0.399902,-0.417236,-1.068848,20.729063,-8.201599,-23.986814,1.2150899293484414
0 days 00:00:20.250000,-0.392578,-0.380859,-1.095703,16.334534,-14.007567,-22.979734,1.2246371414316979
0 days 00:00:20.260000,-0.360596,-0.434326,-1.036377,3.120422,16.960144,-24.871824,1.180146531419298
0 days 00:00:20.270000,-0.36377,-0.373779,-1.10791,5.691528,-13.22174,-27.618406,1.2245423315839268
0 days 00:00:20.280000,-0.329346,-0.410156,-1.095215,-3.211975,-7.743835,-35.53009,1.2149866782302596
0 days 00:00:20.290000,-0.343262,-0.454102,-1.076904,-1.502991,9.048462,-38.925171,1.2180967335413062
0 days 00:00:20.300000,-0.412354,-0.276855,-1.044678,2.868652,-5.935668,-23.323057,1.1567353353403709
0 days 00:00:20.310000,-0.402344,-0.316162,-1.080322,5.187988,14.930724,-33.26416,1.1953805788383882
0 days 00:00:20.320000,-0.408203,-0.263184,-1.087891,4.562378,8.674622,-33.653259,1.191386727702638
0 days 00:00:20.330000,-0.416992,-0.258789,-1.074219,3.417969,0.015259,-29.487608,1.181016737623138
0 days 00:00:20.340000,-0.364502,-0.30249,-1.027588,1.113892,-3.166198,-21.89636,1.1315029853464815
0 days 00:00:20.350000,-0.276367,-0.322998,-1.05835,-2.845764,6.576538,-27.114866,1.1405310820810626
0 days 00:00:20.360000,-0.245117,-0.348877,-1.076416,-2.601623,18.295288,-33.866882,1.1577862107807297
0 days 00:00:20.370000,-0.279541,-0.387451,-1.035156,3.845215,30.487059,-37.979126,1.140091835080841
0 days 00:00:20.380000,-0.350586,-0.408691,-0.967285,9.841919,41.343685,-36.964417,1.1070587825865437
0 days 00:00:20.390000,-0.410156,-0.378906,-0.930176,11.421203,48.324581,-33.004761,1.0849078726546324
0 days 00:00:20.400000,-0.365723,-0.469238,-0.998047,2.586365,13.145446,-21.987913,1.161910249366103
0 days 00:00:20.410000,-0.37915,-0.396729,-1.061035,4.211426,15.624999,-35.316467,1.194547568398178
0 days 00:00:20.420000,-0.377441,-0.521484,-0.968506,2.26593,7.484436,-18.341064,1.1629321316280672
0 days 00:00:20.430000,-0.423828,-0.314209,-0.926514,7.568359,50.636288,-31.150816,1.0662015107197138
0 days 00:00:20.440000,-0.329102,-0.526123,-1.02832,0.205994,10.765075,-15.785216,1.201064344626465
0 days 00:00:20.450000,-0.098389,-0.938232,-0.293213,140.022278,9.437561,-23.605345,0.9878934884459963
0 days 00:00:20.460000,-0.197754,-0.886475,-0.370361,137.924194,7.93457,-31.127928,0.9808729991502467
0 days 00:00:20.470000,-0.288574,-0.793213,-0.404053,124.343864,-4.722595,-32.089233,0.9357994676499874
0 days 00:00:20.480000,-0.312012,-0.677734,-0.476807,104.896538,-20.690916,-27.313231,0.885448913347913
0 days 00:00:20.490000,-0.286377,-0.581055,-0.55249,84.655754,-31.074522,-21.690367,0.8513999643258156
0 days 00:00:20.500000,-0.236816,-0.562256,-0.49292,67.741394,-30.685423,-16.822815,0.7843365054566821
0 days 00:00:20.510000,-0.170898,-0.607666,-0.380371,57.205196,-19.958496,-12.96997,0.7369845260254791
0 days 00:00:20.520000,-0.126465,-0.636475,-0.414795,50.376888,-3.540039,-7.80487,0.7701614855827316
0 days 00:00:20.530000,-0.156006,-0.611084,-0.594727,45.150753,12.748717,-4.753113,0.866868924129248
0 days 00:00:20.540000,-0.215088,-0.570068,-0.749023,39.978027,22.674559,-6.385803,0.9655443163816977
0 days 00:00:20.550000,-0.362305,-0.533203,-1.000977,1.838684,9.338379,-18.600464,1.190598717773121
0 days 00:00:20.560000,-0.269775,-0.545166,-0.818848,34.172058,23.490904,-10.475158,1.0200473348256933
0 days 00:00:20.570000,-0.331055,-0.509277,-0.858398,29.396055,-1.548767,-7.789611,1.051573869092419
0 days 00:00:20.580000,-0.33667,-0.477539,-0.875732,27.557371,-18.974304,0.732422,1.0527567246258747
0 days 00:00:20.590000,-0.322021,-0.458008,-0.874023,21.89636,-30.258177,7.347106,1.0379716070461658
0 days 00:00:20.600000,-0.2854,-0.466064,-0.853027,14.389037,-32.623291,9.605408,1.0130764407610118
0 days 00:00:20.610000,-0.251709,-0.47998,-0.852783,9.300232,-28.465269,10.57434,1.0104340978856563
0 days 00:00:20.620000,-0.25293,-0.467529,-0.895752,7.186889,-22.331236,12.924193,1.041599057336843
0 days 00:00:20.630000,-0.274414,-0.449951,-0.961914,5.371093,-15.60974,14.686584,1.0968306565705574
0 days 00:00:20.640000,-0.289795,-0.446533,-1.015625,2.792358,-7.720947,12.641906,1.1466765030901263
0 days 00:00:20.650000,-0.304932,-0.4646,-1.046631,-0.38147,1.358032,4.615784,1.1850203098618184
0 days 00:00:20.660000,-0.309326,-0.502197,-1.041748,-1.365662,8.277893,-6.782531,1.1971312779261094
0 days 00:00:20.670000,-0.30957,-0.531494,-0.84082,30.364988,14.892577,-12.168883,1.041776237651829
0 days 00:00:20.680000,-0.412109,-0.263428,-0.937256,-1.052856,49.392696,-31.707762,1.0572024160968418
0 days 00:00:20.690000,-0.378662,-0.493164,-0.974365,1.838684,9.216309,-19.058228,1.1558472193006306
0 days 00:00:20.700000,-0.449951,-0.328613,-0.90918,-15.281676,44.631954,-22.628782,1.0663257844439475
0 days 00:00:20.710000,-0.567627,-0.449219,-0.569092,-5.599975,115.020744,-83.290092,0.9207952136897759
0 days 00:00:20.720000,-0.541016,-0.458008,-0.572754,6.04248,132.05719,-90.316765,0.9113269363055171
0 days 00:00:20.730000,-0.5354,-0.416992,-0.611816,6.027221,145.553589,-91.171257,0.9137036203933965
0 days 00:00:20.740000,-0.569336,-0.348633,-0.62915,-3.364563,151.344299,-90.530388,0.9173429958772236
0 days 00:00:20.750000,-0.627197,-0.294922,-0.547363,-11.650084,145.866394,-96.290581,0.8831541862336384
0 days 00:00:20.760000,-0.684814,-0.278809,-0.395752,-12.08496,125.541679,-106.750481,0.8386443337798211
0 days 00:00:20.770000,-0.73877,-0.300293,-0.305908,-4.074097,93.612663,-114.288322,0.8541292075634693
0 days 00:00:20.780000,-0.790039,-0.322754,-0.353271,5.744934,63.247677,-114.181511,0.9236515389896777
0 days 00:00:20.790000,-0.789307,-0.311035,-0.475342,6.66809,45.539852,-104.87365,0.972470219820638
0 days 00:00:20.800000,-0.701172,-0.269775,-0.531494,-1.190186,38.314819,-94.062798,0.9202752828610579
0 days 00:00:20.810000,-0.556152,-0.390137,-0.585205,-15.129088,96.900932,-71.243286,0.8966475438532133
0 days 00:00:20.820000,-0.655762,-0.233154,-0.486572,-9.880066,38.505554,-91.407768,0.8491977976561174
0 days 00:00:20.830000,-0.786621,-0.172607,-0.365479,-19.615173,37.117004,-109.626762,0.8843871739973392
0 days 00:00:20.840000,-0.794678,-0.191162,-0.361084,-18.951416,17.051697,-114.669792,0.8935534057816579
0 days 00:00:20.850000,-0.811279,-0.190186,-0.409668,-18.699646,-8.354187,-108.192436,0.9285322830472832
0 days 00:00:20.860000,-0.812988,-0.155029,-0.445557,-20.835875,-26.397703,-96.336357,0.9399492109864235
0 days 00:00:20.870000,-0.750732,-0.112793,-0.442871,-23.66638,-32.409668,-88.905327,0.8788944870199152
0 days 00:00:20.880000,-0.711182,-0.085449,-0.438721,-26.710508,-25.05493,-90.301506,0.8399746928128251
0 days 00:00:20.890000,-0.751709,-0.082764,-0.44165,-30.204771,-6.027221,-96.450798,0.8757688181689275
0 days 00:00:20.900000,-0.781982,-0.098389,-0.428711,-33.706665,11.83319,-102.844231,0.8972008499583579
0 days 00:00:20.910000,-0.789063,-0.115479,-0.407715,-35.324097,17.967224,-108.947746,0.8956491158009368
0 days 00:00:20.920000,-0.815674,-0.103027,-0.407471,-37.078857,11.062621,-112.213127,0.9175899154012102
0 days 00:00:20.930000,-0.717529,-0.201172,-0.416748,-16.311646,41.870113,-98.411552,0.853813173316622
0 days 00:00:20.940000,-0.539551,-0.327881,-0.623779,-16.830444,80.383293,-56.541439,0.8875367443678036
0 days 00:00:20.950000,-0.849365,-0.062256,-0.408447,-41.587826,-2.151489,-109.199516,0.9445240412874625
0 days 00:00:20.960000,-0.566162,-0.314453,-0.694824,-12.451171,70.098877,-46.730038,0.9498423503029332
0 days 00:00:20.970000,-0.439697,-0.4021,-0.819824,-3.501892,45.974728,-23.117064,1.013473854021405
0 days 00:00:20.980000,-0.428711,-0.428467,-0.778076,10.169982,49.659725,-31.303404,0.986295773784923
0 days 00:00:20.990000,-0.451172,-0.411621,-0.790527,14.266967,52.444454,-37.567139,0.9989599386131558
0 days 00:00:21,-0.490479,-0.361572,-0.806152,9.82666,53.054806,-34.912109,1.010536989787608
0 days 00:00:21.010000,-0.521729,-0.292969,-0.811768,-0.984192,50.85754,-22.171019,1.0084638170137787
0 days 00:00:21.020000,-0.53125,-0.215088,-0.829102,-12.329101,45.539852,-8.209229,1.0079184176549212
0 days 00:00:21.030000,-0.422607,-0.264404,-0.936035,-11.131286,46.531673,-29.769896,1.0605034997066252
0 days 00:00:21.040000,-0.522461,-0.207764,-0.779541,-20.370481,35.476685,-3.128052,0.9611532379896559
0 days 00:00:21.050000,-0.503174,-0.270996,-0.718994,-15.937804,35.095215,-8.895874,0.9184635421877126
0 days 00:00:21.060000,-0.480713,-0.317871,-0.698975,-10.124206,39.100647,-14.183043,0.9059210846619037
0 days 00:00:21.070000,-0.463379,-0.322754,-0.713379,-8.529663,47.607418,-14.038085,0.9098350618645118
0 days 00:00:21.080000,-0.52832,-0.178955,-0.830322,-19.454956,39.329529,-1.770019,1.0002907267934658
0 days 00:00:21.090000,-0.476318,-0.223633,-0.756348,-24.780272,65.994263,-1.64032,0.921386375478279
0 days 00:00:21.100000,-0.505859,-0.160645,-0.785889,-38.085938,69.374084,0.617981,0.948325716316393
0 days 00:00:21.110000,-0.510742,-0.155273,-0.770508,-46.676632,67.848206,-6.240844,0.9373631490286995
0 days 00:00:21.120000,-0.506836,-0.23291,-0.674072,-45.982357,65.574646,-19.462585,0.874930203033362
0 days 00:00:21.130000,-0.530518,-0.360596,-0.557129,-37.391663,66.184998,-30.761717,0.8496302408583396
0 days 00:00:21.140000,-0.550293,-0.486328,-0.511719,-22.857664,68.954468,-39.916992,0.8950942097868805
0 days 00:00:21.150000,-0.5354,-0.553467,-0.547363,-3.868103,72.07489,-51.330563,0.9447672379258291
0 days 00:00:21.160000,-0.530273,-0.533936,-0.617432,10.848998,72.845459,-59.967037,0.9733957988654974
0 days 00:00:21.170000,-0.551758,-0.456299,-0.702393,11.20758,70.236206,-58.013912,1.0029963082753597
0 days 00:00:21.180000,-0.583008,-0.364746,-0.746338,-1.296997,67.649841,-48.828121,1.0148686529911148
0 days 00:00:21.190000,-0.458496,-0.288086,-0.73584,-13.809203,57.899471,-8.293152,0.9136041982237166
0 days 00:00:21.200000,-0.302246,-0.672852,0.243408,-8.31604,-6.210327,12.802123,0.7767431447293243
0 days 00:00:21.210000,-0.294189,-0.738037,0.169189,13.984679,-6.286621,19.53125,0.8123242571849003
0 days 00:00:21.220000,-0.223145,-0.814453,0.130371,27.938841,-9.147644,23.902891,0.8544729240151497
0 days 00:00:21.230000,-0.168457,-0.880615,0.100098,32.958984,-13.145446,28.572081,0.9021530627770434
0 days 00:00:21.240000,-0.272217,-1.101807,-0.143311,-0.442505,-63.957211,34.934998,1.1439487764139615
0 days 00:00:21.250000,-0.088867,-0.941406,0.003418,17.76123,-26.504515,34.538269,0.945597315588935
0 days 00:00:21.260000,-0.124756,-0.974365,-0.037598,10.559081,-37.986755,35.766602,0.9830385660618816
0 days 00:00:21.270000,-0.195557,-1.039063,-0.078857,8.468628,-52.108761,33.325195,1.0602418991282132
0 days 00:00:21.280000,-0.120361,-0.918701,0.055176,27.763365,-18.486023,31.784056,0.9281932388775518
0 days 00:00:21.290000,-0.310791,-0.67041,0.326416,-35.53772,-5.058288,6.782531,0.8078292015252976
0 days 00:00:21.300000,-0.122559,-0.868652,0.636963,8.758545,1.014709,-36.483765,1.0841120186373732
0 days 00:00:21.310000,-0.455566,-0.827148,0.428955,-79.269409,-9.20105,-1.037598,1.0371675786896735
0 days 00:00:21.320000,-0.49707,-0.931641,0.469727,-90.095512,-17.677307,-4.089355,1.1557149269218598
0 days 00:00:21.330000,-0.473877,-1.054443,0.524414,-89.660637,-28.511045,-12.123107,1.2694169901076635
0 days 00:00:21.340000,-0.430908,-1.174805,0.562256,-82.031242,-37.864685,-21.759031,1.3718528718579848
0 days 00:00:21.350000,-0.421631,-1.271729,0.615967,-68.588257,-41.923519,-29.792784,1.4746127270205558
