t,ax,ay,az,gx,gy,gz,acc_mag
0 days 00:00:06.160000,0.223633,-0.972656,0.057861,-2.952575,-28.70941,22.117613,0.9997096120104078
0 days 00:00:06.170000,0.259033,-0.99707,0.041016,-19.432068,-2.548218,17.059326,1.0309844772085563
0 days 00:00:06.180000,0.224854,-0.97998,0.062256,-6.652832,-23.490904,20.278929,1.0073708012703169
0 days 00:00:06.190000,0.225586,-0.98291,0.064209,-8.224487,-21.583555,19.241333,1.0105067576107545
0 days 00:00:06.200000,0.226807,-0.985107,0.063721,-9.803772,-20.118711,18.531799,1.0128857697386215
0 days 00:00:06.210000,0.227295,-0.984863,0.065674,-11.116027,-18.814087,17.829895,1.0128826289704056
0 days 00:00:06.220000,0.228516,-0.98291,0.063965,-12.145995,-17.410278,17.303467,1.0111494209962244
0 days 00:00:06.230000,0.230469,-0.97876,0.063477,-13.328551,-15.747069,16.860962,1.007529864118181
0 days 00:00:06.240000,0.236328,-0.977295,0.057129,-14.656066,-13.793944,16.601563,1.0070849831320094
0 days 00:00:06.250000,0.239502,-0.975342,0.052246,-15.945434,-11.596679,16.609192,1.0056753300563757
0 days 00:00:06.260000,0.241699,-0.97876,0.047119,-17.26532,-9.086609,16.960144,1.0092619800438338
0 days 00:00:06.270000,0.250732,-0.98877,0.041504,-18.547058,-5.989074,17.105103,1.0209090217742227
0 days 00:00:06.280000,0.162598,-0.901855,0.062744,12.924193,-44.860836,22.331236,0.9185408864960775
0 days 00:00:06.290000,0.223389,-0.980225,0.061768,-4.806519,-25.848387,21.080015,1.007253186527598
0 days 00:00:06.300000,0.15625,-0.904785,0.066406,14.617919,-44.387814,21.095274,0.9205757522121685
0 days 00:00:06.310000,0.075928,-0.987549,0.069824,27.282713,9.536743,-4.974365,0.9929216885338944
0 days 00:00:06.320000,0.14209,-0.914307,0.074707,17.158508,-41.389462,18.440247,0.9282930540502821
0 days 00:00:06.330000,0.260986,-1.000977,0.04541,-20.202635,1.281738,17.349243,1.035437450947666
0 days 00:00:06.340000,0.179688,-0.986572,0.028564,59.631344,-1.525879,-10.032654,1.0032088469625853
0 days 00:00:06.350000,0.164551,-1.010986,0.014404,55.824276,3.494262,-9.529114,1.0243911357547955
0 days 00:00:06.360000,0.140869,-1.019531,0.028076,48.851009,4.371643,-10.459899,1.0295998236683999
0 days 00:00:06.370000,0.115234,-0.995605,0.049561,39.93988,3.715515,-12.756347,1.0034761997685844
0 days 00:00:06.380000,0.103516,-0.993652,0.061768,37.010193,4.402161,-13.290404,1.000937133482418
0 days 00:00:06.390000,0.120361,-0.998779,0.078369,36.956787,6.889343,-12.992858,1.0090530022367508
0 days 00:00:06.400000,0.114502,-0.990234,0.07373,36.064148,12.802123,-12.931823,0.9995549988169735
0 days 00:00:06.410000,0.11792,-0.997559,0.058838,34.980774,19.096375,-13.366698,1.0062261153065946
0 days 00:00:06.420000,0.120361,-0.99707,0.047607,34.080505,23.208616,-12.832641,1.0054361151609783
0 days 00:00:06.430000,0.150635,-0.9104,0.071533,15.953063,-43.243404,19.859314,0.9255463431476567
0 days 00:00:06.440000,0.118896,-0.981445,0.046387,32.791138,24.505613,-11.596679,0.9897081896245984
0 days 00:00:06.450000,0.092041,-0.980469,0.061279,29.167173,17.50946,-7.507324,0.9866844082496693
0 days 00:00:06.460000,0.071533,-0.98999,0.082764,25.642393,-0.099182,-1.594543,0.996015587169699
0 days 00:00:06.470000,0.07959,-0.994141,0.093262,24.658201,-9.95636,2.288818,1.001672948933433
0 days 00:00:06.480000,0.09375,-1.006104,0.102783,24.780272,-18.287659,5.249023,1.0156764575419677
0 days 00:00:06.490000,0.117432,-1.005859,0.102539,25.024412,-24.513243,7.759094,1.0178687779011595
0 days 00:00:06.500000,0.13208,-0.979248,0.093262,23.841856,-28.297422,10.108947,0.9925067115883902
0 days 00:00:06.510000,0.134521,-0.947998,0.081543,21.90399,-30.769346,11.764525,0.9609606486709016
0 days 00:00:06.520000,0.134521,-0.930176,0.080078,20.462034,-33.180237,13.313293,0.9432580646360783
0 days 00:00:06.530000,0.134766,-0.922607,0.076172,19.355774,-35.957336,14.961242,0.9355039950684336
0 days 00:00:06.540000,0.137207,-0.917236,0.074707,18.119812,-38.825989,16.746521,0.9304454720154213
0 days 00:00:06.550000,0.111572,-0.973145,0.053955,30.921934,22.682188,-9.742737,0.9810049154994077
0 days 00:00:06.560000,0.182129,-0.990967,0.0625,61.790462,-8.842468,-11.306762,1.0095012717822598
0 days 00:00:06.570000,0.26123,-1.004883,0.044678,-21.087645,5.40924,17.440796,1.0392435134620759
0 days 00:00:06.580000,0.263916,-1.012451,0.046143,-22.453306,14.251708,17.38739,1.0473002716059994
0 days 00:00:06.590000,0.060791,-1.005859,-0.05127,20.469664,12.893676,-41.572567,1.0089977633582743
0 days 00:00:06.600000,0.059814,-1.005371,-0.051025,21.034239,9.605408,-43.067928,1.0084404359514745
0 days 00:00:06.610000,0.062012,-1.001953,-0.046143,21.163939,6.240844,-44.166561,1.0049300865244308
0 days 00:00:06.620000,0.0625,-1.001465,-0.043457,21.057127,2.281189,-44.525143,1.0043539749879025
0 days 00:00:06.630000,0.060059,-1.000488,-0.04126,20.660398,-1.88446,-44.326778,1.0031379313060593
0 days 00:00:06.640000,0.066162,-0.997803,-0.034424,20.210264,-6.057739,-43.67065,1.000586452451261
0 days 00:00:06.650000,0.074219,-0.998779,-0.029541,19.981384,-10.025024,-42.5415,1.0019683734943934
0 days 00:00:06.660000,0.08374,-1.001953,-0.023682,20.103453,-13.450622,-41.366573,1.005725130904563
0 days 00:00:06.670000,0.095703,-1.004639,-0.015381,20.858763,-16.654968,-39.955139,1.009304294893765
0 days 00:00:06.680000,0.108643,-0.999512,-0.015869,22.323606,-23.078917,-35.934448,1.0055244227536195
0 days 00:00:06.690000,0.05957,-1.004639,-0.050781,19.752502,16.75415,-40.000916,1.0076838865348596
0 days 00:00:06.700000,0.118408,-0.986328,-0.018799,22.628782,-25.764463,-33.52356,0.9935878322770464
0 days 00:00:06.710000,0.134521,-0.967041,-0.013184,22.430418,-30.609129,-28.282164,0.976441505149182
0 days 00:00:06.720000,0.139404,-0.95874,-0.008545,22.300718,-32.707214,-25.398252,0.9688595769465254
0 days 00:00:06.730000,0.145996,-0.949463,-0.004395,21.995543,-34.545898,-22.544859,0.9606321545784318
0 days 00:00:06.740000,0.152832,-0.94873,-0.004395,21.408079,-36.026001,-19.53125,0.9609711489680635
0 days 00:00:06.750000,0.159668,-0.942871,-0.001221,20.965574,-37.17041,-16.410828,0.9562955002016897
0 days 00:00:06.760000,0.164795,-0.938721,0.001221,20.538328,-38.17749,-13.359069,0.9530771210699583
0 days 00:00:06.770000,0.17041,-0.935547,0.003662,20.278929,-39.039612,-10.391234,0.9509475104089605
0 days 00:00:06.780000,0.175537,-0.933594,0.006592,19.90509,-39.505005,-7.270813,0.9499760258390735
0 days 00:00:06.790000,0.179932,-0.932617,0.009766,19.523621,-39.68811,-4.234314,0.9498659737399798
0 days 00:00:06.800000,0.262695,-1.009766,0.044189,-21.888731,9.658813,17.562866,1.0443125516348062
0 days 00:00:06.810000,0.126709,-0.977539,-0.016846,22.598265,-28.282164,-31.112669,0.9858607685256576
0 days 00:00:06.820000,0.060303,-1.005859,-0.047363,18.806458,21.492002,-37.780762,1.0087774945244368
0 days 00:00:06.830000,0.102783,-1.005615,-0.013428,21.675108,-20.027161,-38.078308,1.0109432152687905
0 days 00:00:06.840000,0.074219,-1.004639,-0.031738,16.029358,32.028198,-32.775879,1.0078766198925342
0 days 00:00:06.850000,0.265137,-1.02002,0.042969,-22.697447,19.340515,16.815186,1.0547913367723494
0 days 00:00:06.860000,0.068359,-1.003906,-0.042236,17.242432,26.832579,-35.118103,1.0071167208486809
0 days 00:00:06.870000,0.263428,-1.0271,0.039795,-22.727964,24.589537,15.914916,1.0610901767564338
0 days 00:00:06.880000,0.26123,-1.039063,0.033936,-22.331236,29.556273,14.701842,1.0719350180701255
0 days 00:00:06.890000,0.256348,-1.041016,0.026855,-22.087095,34.118652,13.404845,1.0724503719916365
0 days 00:00:06.900000,0.248535,-1.043945,0.024658,-21.728514,38.238525,12.130736,1.0734052478975495
0 days 00:00:06.910000,0.241455,-1.046875,0.021729,-21.179197,42.053219,10.44464,1.0745789557268466
0 days 00:00:06.920000,0.225098,-1.05957,0.022949,-18.280029,48.477169,6.576538,1.0834594367603245
0 days 00:00:06.930000,0.215088,-1.062988,0.024658,-15.792846,50.544735,4.478455,1.0848107451772404
0 days 00:00:06.940000,0.202637,-1.067139,0.029297,-12.535094,52.215572,2.059937,1.0866028314425653
0 days 00:00:06.950000,0.192627,-1.066162,0.031982,-9.254456,53.298946,-0.274658,1.083895483751547
0 days 00:00:06.960000,0.234131,-1.051025,0.020996,-20.240782,45.661922,8.68988,1.0769919720230046
0 days 00:00:06.970000,0.172607,-1.043945,0.030518,-3.936767,54.557796,-5.455017,1.0585583062817088
0 days 00:00:06.980000,0.08667,-1.008545,-0.025146,14.85443,36.53717,-30.181883,1.0125744551592244
0 days 00:00:06.990000,0.181396,-1.057373,0.032471,-6.439209,54.145809,-2.670288,1.0733110154032706
0 days 00:00:07,0.099609,-1.019775,-0.01123,12.527465,44.013973,-25.344847,1.024689765932109
0 days 00:00:07.010000,0.108154,-1.024658,-0.002197,11.138915,47.142025,-22.720335,1.0303524307192176
0 days 00:00:07.020000,0.120117,-1.02832,0.00708,9.063721,50.117489,-19.78302,1.0353358114587747
0 days 00:00:07.030000,0.093506,-1.015381,-0.019531,13.580321,40.443417,-27.633665,1.01986440626095
0 days 00:00:07.040000,0.146729,-1.023682,0.01416,3.662109,54.527279,-14.312743,1.0342411431407088
0 days 00:00:07.050000,0.158447,-1.023926,0.019531,1.228333,55.053707,-11.505126,1.0362969483917241
0 days 00:00:07.060000,0.164063,-1.032959,0.025146,-1.335144,54.89349,-8.415222,1.0462090063491138
0 days 00:00:07.070000,0.132568,-1.025879,0.011719,6.309509,52.726742,-16.967773,1.0344753898600005
0 days 00:00:07.080000,0.348389,0.253662,-0.189697,-184.669479,-59.722897,-227.25676,0.47085481560030795
0 days 00:00:07.090000,0.04541,0.580322,-0.130371,-129.821777,-44.105526,-111.251823,0.5965167972697835
0 days 00:00:07.100000,0.049316,0.556396,-0.165039,-142.425537,-52.795406,-122.352592,0.5824486657148422
0 days 00:00:07.110000,0.079346,0.540039,-0.147217,-149.093628,-52.474972,-136.917114,0.5653412724416996
0 days 00:00:07.120000,0.084473,0.505371,-0.141357,-151.329041,-47.019955,-153.137207,0.5315235994939453
0 days 00:00:07.130000,0.068848,0.450195,-0.182861,-151.985168,-42.716976,-166.648849,0.4907685100431771
0 days 00:00:07.140000,0.077148,0.39502,-0.191895,-152.366638,-43.212887,-177.841171,0.44588822066634587
0 days 00:00:07.150000,0.102783,0.35083,-0.143066,-155.181885,-47.508236,-187.782272,0.39257345089167706
0 days 00:00:07.160000,0.185303,0.309082,-0.120605,-161.888107,-52.864071,-199.874863,0.38001901341643424
0 days 00:00:07.170000,0.303955,0.27417,-0.17627,-172.225937,-57.960506,-213.630661,0.44567807195889725
0 days 00:00:07.180000,0.354492,0.230713,-0.137451,-193.130478,-58.830257,-240.257248,0.4447312040255326
0 days 00:00:07.190000,0.609619,-0.336426,-0.333984,-215.263351,-66.368103,-249.992355,0.7722454861590322
0 days 00:00:07.200000,0.228271,0.058594,-0.057617,-184.112534,-63.751217,-249.992355,0.24261208742764653
0 days 00:00:07.210000,0.279541,-0.025635,-0.080078,-178.749069,-71.640015,-249.992355,0.2919123327130938
0 days 00:00:07.220000,0.411133,-0.063721,-0.143066,-180.435165,-81.878654,-249.992355,0.4399529405356896
0 days 00:00:07.230000,0.498291,-0.094482,-0.167969,-185.241684,-90.5075,-249.992355,0.5342605674818234
0 days 00:00:07.240000,0.544434,-0.135986,-0.188232,-190.933212,-94.108574,-249.992355,0.5918883833764607
0 days 00:00:07.250000,0.607422,-0.176025,-0.213379,-196.830734,-92.338554,-249.992355,0.6674405474272597
0 days 00:00:07.260000,0.614014,-0.20752,-0.209473,-200.317368,-85.510246,-249.992355,0.6811436561585228
0 days 00:00:07.270000,0.572266,-0.246094,-0.194092,-201.103195,-75.386047,-249.992355,0.6524740117859101
0 days 00:00:07.280000,0.565918,-0.285156,-0.231201,-205.886826,-65.879822,-249.992355,0.6745598783362379
0 days 00:00:07.290000,0.005859,0.618164,-0.019775,-117.378227,-27.770994,-100.669853,0.6185079703625492
0 days 00:00:07.300000,0.270996,0.154297,-0.078857,-191.963181,-58.563229,-249.214157,0.32165948248730364
0 days 00:00:07.310000,-0.025391,0.686523,0.090332,-106.895439,-9.94873,-90.988152,0.6929057674994487
0 days 00:00:07.320000,-0.552734,1.072754,-1.865479,-30.509947,13.404845,69.343567,2.221784849780239
0 days 00:00:07.330000,-0.009277,0.80835,0.269775,-92.338554,26.756285,-73.608398,0.8522290395509883
0 days 00:00:07.340000,0.553955,-0.4104,-0.307129,-223.670944,-70.877075,-249.992355,0.754733412978384
0 days 00:00:07.350000,0.202393,0.790771,-1.182129,64.361572,-156.524658,105.339043,1.4365621022186963
0 days 00:00:07.360000,0.31543,0.959229,-2.043945,102.97393,-249.992355,205.909714,2.279764795404561
0 days 00:00:07.370000,0.128906,2.381836,-7.380859,-249.992355,-54.695126,-0.022888,7.756728631685719
0 days 00:00:07.380000,1.237549,-4.896484,-3.833496,61.134335,182.350143,-121.6278,6.340565800594849
0 days 00:00:07.390000,0.238281,0.128906,1.174805,249.992355,243.118271,-65.864563,1.2056373334556292
0 days 00:00:07.400000,0.077881,0.505859,0.369873,249.992355,249.992355,-86.189262,0.6314782768797356
0 days 00:00:07.410000,0.113037,0.664795,0.492432,249.992355,249.992355,-102.72216,0.8349964251528267
0 days 00:00:07.420000,0.125,0.77417,0.611572,249.786362,249.702438,-112.319939,0.9944769982679338
0 days 00:00:07.430000,0.182861,0.850586,0.72998,249.496445,249.992355,-117.622368,1.135696037290348
0 days 00:00:07.440000,0.267334,0.908936,0.841553,249.992355,249.992355,-113.403313,1.2672188332963648
0 days 00:00:07.450000,0.276611,0.932129,0.914795,244.369492,239.21965,-97.465508,1.3350011273354792
0 days 00:00:07.460000,0.28125,0.960938,0.906494,196.00676,205.215439,-75.073242,1.350642356206853
0 days 00:00:07.470000,0.393311,0.999756,0.930664,148.757935,181.76268,-56.091305,1.4213870279248366
0 days 00:00:07.480000,0.392578,1.013672,0.934326,112.716667,171.943649,-49.758907,1.4333922993877146
0 days 00:00:07.490000,0.303711,1.003174,0.809082,83.961479,162.528976,-50.209042,1.3240891693994783
0 days 00:00:07.500000,0.232422,0.972412,0.674561,57.044979,146.789551,-51.811214,1.206083590199701
0 days 00:00:07.510000,0.184814,0.924561,0.557617,32.577515,125.808708,-51.628109,1.095402198284265
0 days 00:00:07.520000,0.124268,0.887207,0.470703,7.240295,101.913445,-50.094601,1.0119980784971876
0 days 00:00:07.530000,0.063965,0.847656,0.397705,-20.866392,81.794731,-49.919125,0.9384995911485524
0 days 00:00:07.540000,0.050537,0.821045,0.339355,-46.440121,66.055298,-52.635189,0.8898486929916793
0 days 00:00:07.550000,0.017578,0.826172,0.325439,-67.7948,53.237911,-57.418819,0.8881327053931749
0 days 00:00:07.560000,-0.009033,0.831055,0.314941,-83.366386,40.954586,-64.605713,0.8887754731061158
0 days 00:00:07.570000,-0.023926,0.753174,0.184082,-98.297112,9.170532,-82.412712,0.7757123890179917
0 days 00:00:07.580000,0.585693,-0.537354,-0.206787,-229.255661,-69.961548,-249.992355,0.8213077833151223
0 days 00:00:07.590000,0.127441,-1.00708,0.084229,61.523434,-12.847899,-13.053893,1.0185999505802068
0 days 00:00:07.600000,1.019531,-0.625,-0.268799,-248.634323,-62.271114,-249.992355,1.225692197234689
0 days 00:00:07.610000,0.273926,-1.122559,0.121338,-18.135071,-2.250671,-12.016295,1.1618507099455595
0 days 00:00:07.620000,0.256348,-1.072266,0.118896,-9.063721,-0.328064,-8.491516,1.1088755253300526
0 days 00:00:07.630000,0.243896,-1.035645,0.129395,-3.570556,-1.205444,-5.767822,1.0718156981804288
0 days 00:00:07.640000,0.23291,-1.018311,0.134521,0.396728,-2.723694,-3.807068,1.0532332411493668
0 days 00:00:07.650000,0.208252,-1.01709,0.132568,4.623413,-3.494262,-2.548218,1.0466208665166197
0 days 00:00:07.660000,0.186035,-1.017578,0.121582,8.224487,-3.883362,-1.724243,1.0415642995192378
0 days 00:00:07.670000,0.178955,-1.008057,0.113037,10.223388,-3.852844,-1.289368,1.03003940247109
0 days 00:00:07.680000,0.173584,-0.995605,0.110352,10.978698,-3.547668,-1.327515,1.016630849908166
0 days 00:00:07.690000,0.169434,-0.999512,0.110107,12.977599,-3.044128,-2.090454,1.0197331366337958
0 days 00:00:07.700000,0.16626,-1.011719,0.104736,17.166138,-2.151489,-2.983093,1.0306247388147638
0 days 00:00:07.710000,0.322266,-1.168701,0.116455,-31.509398,-7.93457,-16.464233,1.217899490591075
0 days 00:00:07.720000,0.168457,-1.015625,0.100586,21.163939,1.12915,-4.463196,1.0344029412516187
0 days 00:00:07.730000,0.157471,-1.020996,0.116943,32.00531,11.009215,-7.896423,1.0396661065486361
0 days 00:00:07.740000,0.163818,-1.015137,0.115479,37.231445,16.723633,-10.185241,1.0347342003306934
0 days 00:00:07.750000,0.179443,-0.999268,0.116699,40.824886,21.163939,-12.512206,1.0219368780281881
0 days 00:00:07.760000,0.20166,-0.988037,0.117676,44.670101,23.269651,-14.945983,1.0152494816275457
0 days 00:00:07.770000,0.19043,-0.97876,0.121826,48.423763,22.102354,-18.188477,1.0045278974602945
0 days 00:00:07.780000,0.191895,-0.958984,0.133789,50.239559,17.14325,-21.301268,0.9871035912213064
0 days 00:00:07.790000,0.166016,-0.945801,0.146729,52.940365,10.391234,-20.660398,0.9714063224511151
0 days 00:00:07.800000,0.106445,-0.965088,0.133789,54.824825,3.318786,-18.302917,0.9801147291465423
0 days 00:00:07.810000,0.081543,-0.995361,0.119629,56.434628,-4.417419,-16.014099,1.005834916281494
0 days 00:00:07.820000,0.095947,-1.013672,0.107178,59.188839,-11.466979,-14.068603,1.02382804907709
0 days 00:00:07.830000,0.159912,-1.018311,0.109131,26.05438,5.882263,-5.943298,1.0365513569650082
0 days 00:00:07.840000,0.383789,-1.21875,0.072266,-47.561642,-17.219543,-23.979185,1.2797921447551552
0 days 00:00:07.850000,0.786133,-0.628418,-0.20166,-238.113388,-64.506531,-249.992355,1.0264409539827413
0 days 00:00:07.860000,0.436523,-1.444092,-0.194336,-85.006706,-39.466858,-51.383968,1.5210918824610824
0 days 00:00:07.870000,1.073242,-0.614746,-0.332031,-249.992355,-60.249325,-249.992355,1.2806270417420522
0 days 00:00:07.880000,1.015625,-0.652588,-0.348633,-249.992355,-52.947994,-249.992355,1.2565469378650365
0 days 00:00:07.890000,0.993408,-0.737061,-0.387939,-249.992355,-41.28265,-249.992355,1.296385374765544
0 days 00:00:07.900000,1.066162,-0.817383,-0.408203,-249.992355,-31.486509,-249.992355,1.4040819307084613
0 days 00:00:07.910000,1.129639,-0.92749,-0.353516,-249.992355,-20.64514,-249.992355,1.5037604638628455
0 days 00:00:07.920000,1.239502,-1.069824,-0.308594,-249.992355,1.724243,-249.992355,1.6661689157513413
0 days 00:00:07.930000,0.434082,-1.315674,-0.092041,-65.52124,-29.090879,-35.598755,1.3884872353323958
0 days 00:00:07.940000,1.429199,-1.224121,-0.415771,-249.992355,68.786621,-249.992355,1.9271604833752172
0 days 00:00:07.950000,1.256836,-1.231934,-0.414551,-249.992355,89.286797,-249.992355,1.8080792689627854
0 days 00:00:07.960000,1.131104,-1.273193,-0.398926,-249.992355,97.618095,-249.984726,1.7491594059836284
0 days 00:00:07.970000,1.126221,-1.347412,-0.366455,-249.992355,104.919426,-249.763474,1.7939292365112958
0 days 00:00:07.980000,1.4021,-1.173828,-0.342041,-249.992355,35.964966,-249.992355,1.8603087456830922
0 days 00:00:07.990000,1.059814,-1.484131,-0.41333,-249.992355,114.921562,-249.992355,1.869944445339754
0 days 00:00:08,0.887451,-1.538818,-0.435547,-249.992355,100.112907,-235.458359,1.828997349296603
0 days 00:00:08.010000,0.728516,-1.57666,-0.431396,-249.595627,73.692322,-214.195236,1.789607450440459
0 days 00:00:08.020000,0.62085,-1.543457,-0.387695,-249.992355,42.434689,-190.383896,1.7082217790363172
0 days 00:00:08.030000,0.565674,-1.478271,-0.289795,-249.992355,11.009215,-163.406357,1.6091157092459196
0 days 00:00:08.040000,0.504883,-1.45166,-0.170654,-228.813156,-15.281676,-135.093689,1.546397874741491
0 days 00:00:08.050000,0.466309,-1.496094,-0.100586,-194.007858,-32.569885,-108.703606,1.5703053472853616
0 days 00:00:08.060000,0.459961,-1.553223,-0.080322,-157.867432,-42.701717,-88.394157,1.6218869975846038
0 days 00:00:08.070000,0.442139,-1.561523,-0.093018,-128.196716,-46.554562,-75.698853,1.625574767020576
0 days 00:00:08.080000,0.437744,-1.532471,-0.152344,-104.934685,-45.768734,-64.811707,1.6010296279934983
0 days 00:00:08.090000,1.123047,-1.430908,-0.37207,-249.992355,114.44091,-249.992355,1.8566551520336243
0 days 00:00:08.100000,0.419678,0.902832,0.598389,166.603073,209.579453,-69.252014,1.161595729687829
0 days 00:00:08.110000,0.518799,0.889648,0.687744,185.386642,225.395187,-78.620911,1.2383932234314754
0 days 00:00:08.120000,0.676025,0.846436,0.745117,212.768539,246.818527,-92.460625,1.314786312071281
0 days 00:00:08.130000,0.791748,0.781006,0.72168,246.963486,249.992355,-115.119926,1.32576668005347
0 days 00:00:08.140000,0.333984,0.530762,0.034424,249.992355,249.992355,-106.559746,0.6280434894782366
0 days 00:00:08.150000,0.629395,0.647461,0.545654,249.572739,249.885544,-141.166687,1.0550270613884745
0 days 00:00:08.160000,0.541992,0.60376,0.406982,249.862656,249.992355,-134.902954,0.9076980852618342
0 days 00:00:08.170000,0.457275,0.580078,0.209961,249.992355,249.992355,-119.186394,0.767902684739414
0 days 00:00:08.180000,0.731201,0.716064,0.624512,249.992355,249.793991,-135.307312,1.1989235974994403
0 days 00:00:08.190000,0.389648,0.918457,0.532959,150.665283,199.455246,-61.111446,1.13112073645301
0 days 00:00:08.200000,0.313721,0.958496,0.352783,35.552979,38.787842,-29.937742,1.0684527565344197
0 days 00:00:08.210000,0.489258,0.989746,0.55127,122.352592,176.452621,-50.582882,1.2340458451694571
0 days 00:00:08.220000,0.488037,1.00415,0.553467,109.619133,160.171509,-48.004147,1.246123210584732
0 days 00:00:08.230000,0.45874,0.983643,0.516846,98.892204,142.120361,-45.127865,1.2021338223197118
0 days 00:00:08.240000,0.403564,0.954102,0.444824,90.675346,123.085014,-42.381283,1.1274053926942162
0 days 00:00:08.250000,0.337158,0.943359,0.36499,82.237236,105.438225,-38.162231,1.0662173417952832
0 days 00:00:08.260000,0.320557,0.936035,0.32666,73.524475,90.652458,-33.226013,1.041933331396016
0 days 00:00:08.270000,0.351318,0.937012,0.334473,65.231323,78.399658,-30.09033,1.0551246433464627
0 days 00:00:08.280000,0.366455,0.935303,0.359863,57.41119,67.9245,-29.869078,1.0670437421225993
0 days 00:00:08.290000,0.359619,0.938477,0.374512,49.98016,57.891842,-30.509947,1.0725316512038234
0 days 00:00:08.300000,0.339355,0.94165,0.358643,43.228146,47.927853,-30.494688,1.0632456630402967
0 days 00:00:08.310000,0.191162,0.407715,0.084473,249.992355,249.992355,-95.352165,0.4581594910050429
0 days 00:00:08.320000,0.438477,0.953369,0.52002,136.207581,189.582809,-54.664608,1.1711512840320846
0 days 00:00:08.330000,0.432617,0.188232,0.712646,249.992355,243.13353,-66.268921,0.8546654759781748
0 days 00:00:08.340000,0.574219,0.403564,-0.612305,22.796629,25.413511,7.698059,0.9314015112087806
0 days 00:00:08.350000,-0.637451,2.919922,-6.48999,-249.328598,-157.836914,50.315853,7.145086316034607
0 days 00:00:08.360000,0.327393,0.97168,0.354736,28.556822,30.143736,-29.396055,1.0849819484880843
0 days 00:00:08.370000,0.304199,0.486572,-1.164307,-190.765366,-30.235289,45.478817,1.2980370306867213
0 days 00:00:08.380000,0.376953,0.346436,-1.248779,-170.082077,-4.074097,36.186218,1.349651976305744
0 days 00:00:08.390000,0.397217,0.192383,-1.23999,-129.875183,17.616272,24.79553,1.3161944248012905
0 days 00:00:08.400000,0.365234,0.045898,-1.233643,-70.739746,16.593933,22.78137,1.2873917634539223
0 days 00:00:08.410000,0.282471,0.117188,-1.041504,-10.169982,3.90625,30.029295,1.0854738482344934
0 days 00:00:08.420000,0.23584,0.367676,-0.789551,25.070189,-3.860473,32.569885,0.9023286142958119
0 days 00:00:08.430000,0.158691,0.648193,-0.758301,27.656553,-10.810851,29.106138,1.010127420344087
0 days 00:00:08.440000,0.085938,0.85376,-0.723877,21.278379,-26.031492,31.60095,1.1226261125472718
0 days 00:00:08.450000,0.14209,0.929688,-0.622559,11.466979,-41.725155,35.545349,1.1278692539142114
0 days 00:00:08.460000,2.590576,-4.561035,-4.463623,69.381714,129.211426,-133.56781,6.887528916028593
0 days 00:00:08.470000,0.328125,0.868896,-0.593018,5.577087,-51.132198,43.708797,1.1019603544433891
0 days 00:00:08.480000,0.603271,0.535156,-0.576172,19.081116,-16.151428,33.317566,0.9911115060178648
0 days 00:00:08.490000,0.524414,0.354492,-0.535645,33.065796,59.860226,4.478455,0.829210580905116
0 days 00:00:08.500000,0.248535,0.449463,-0.352783,60.897823,82.214348,12.702941,0.623091068530917
0 days 00:00:08.510000,-0.053955,0.793457,-0.269287,72.776794,94.123833,-13.244628,0.839643163041896
0 days 00:00:08.520000,-0.317139,1.429932,-0.481689,16.960144,109.497063,-19.058228,1.5418517965958984
0 days 00:00:08.530000,-0.433594,1.879395,-0.411621,-69.046021,91.430656,55.641171,1.972197041500164
0 days 00:00:08.540000,-0.219971,1.756348,-1.092529,-104.164116,35.987854,98.487846,2.0800877755003513
0 days 00:00:08.550000,-0.755371,1.365479,-1.888184,-128.40271,24.54376,35.858154,2.449562627274102
0 days 00:00:08.560000,0.245605,0.534424,-0.312012,83.816521,-150.215149,55.160519,0.6657944997857822
0 days 00:00:08.570000,0.013184,1.260742,-1.463379,178.077682,-249.992355,217.54454,1.9316113237556358
0 days 00:00:08.580000,0.499268,0.716309,-0.574951,10.528563,-42.686459,49.606319,1.0454356851121929
0 days 00:00:08.590000,0.210693,0.602051,-1.042725,-203.514084,-48.416134,51.025387,1.2223470752920382
0 days 00:00:08.600000,0.342529,0.987549,0.369141,21.850584,21.430967,-28.236387,1.1085324628187485
0 days 00:00:08.610000,0.361572,0.993896,0.431641,5.783081,7.637023,-25.596617,1.1423123578430727
0 days 00:00:08.620000,0.260986,0.611084,-0.795654,-238.174423,-98.609917,24.703978,1.0366304235203594
0 days 00:00:08.630000,0.22168,0.601807,-0.907227,-236.923203,-83.412163,20.935057,1.1110240848775512
0 days 00:00:08.640000,0.185791,0.553955,-1.018066,-228.698715,-65.292358,14.869689,1.1738154957496514
0 days 00:00:08.650000,0.197021,0.527832,-1.133057,-216.491684,-46.455379,9.872437,1.2654019361112105
0 days 00:00:08.660000,0.231445,0.513916,-1.240723,-204.025253,-29.998777,8.003235,1.3627435583447094
0 days 00:00:08.670000,0.287842,0.457764,-1.342285,-188.171371,-20.942686,3.52478,1.4471108865201034
0 days 00:00:08.680000,0.291748,0.327637,-1.354736,-155.349731,-20.950315,-5.149841,1.4239987812385935
0 days 00:00:08.690000,0.260498,0.256348,-1.235352,-102.523796,-21.362303,-6.355285,1.28828105202708
0 days 00:00:08.700000,0.344482,0.375244,-1.11084,-55.488583,-14.47296,-1.403808,1.2220644064287283
0 days 00:00:08.710000,0.467041,0.648926,-0.891113,-10.276793,25.077818,3.410339,1.1972111876882876
0 days 00:00:08.720000,0.270508,0.592773,-0.66333,-240.211472,-112.17498,29.861448,0.9298177759609675
0 days 00:00:08.730000,0.569824,0.638428,-0.746094,11.573791,44.624325,0.862122,1.1353175586574886
0 days 00:00:08.740000,0.516602,0.552979,-0.714355,51.261898,60.577389,3.517151,1.0406567478616569
0 days 00:00:08.750000,0.453369,0.540527,-0.726074,58.975216,61.851498,6.134033,1.0123716419210882
0 days 00:00:08.760000,0.36084,0.582031,-0.695068,65.101624,70.075989,6.340026,0.9757484897169967
0 days 00:00:08.770000,0.328613,0.702148,-0.561768,68.893433,74.317932,6.79779,0.9573826839341727
0 days 00:00:08.780000,0.117432,0.906982,-0.34375,67.9245,70.716858,26.43585,0.9770213331591076
0 days 00:00:08.790000,-0.1521,1.147217,-0.245361,54.809566,68.000793,43.441769,1.1829806741489906
0 days 00:00:08.800000,-0.359375,1.503174,-0.548096,15.121459,81.230156,55.702206,1.6398450201519046
0 days 00:00:08.810000,-0.309326,1.761475,-0.518799,-11.71112,79.25415,99.601738,1.8621571234195036
0 days 00:00:08.820000,0.068848,1.404297,-0.811035,5.393981,28.07617,124.824516,1.6231352015583913
0 days 00:00:08.830000,0.335938,0.996094,0.391113,13.702392,14.183043,-26.81732,1.121618016728066
0 days 00:00:08.840000,0.574707,0.593018,-0.687256,35.385132,55.191036,0.099182,1.0743739077755938
0 days 00:00:08.850000,0.232178,0.583496,-0.535645,-245.452866,-122.909538,35.690308,0.8254027936256334
0 days 00:00:08.860000,0.414795,0.547607,-1.002441,-27.938841,0.572205,3.211975,1.2152432994898592
0 days 00:00:08.870000,0.233643,0.615723,-0.293457,-249.992355,-132.209778,36.613464,0.7209860435729668
0 days 00:00:08.880000,0.418213,1.000732,0.484863,-2.296448,-0.976562,-23.635862,1.1880483062409541
0 days 00:00:08.890000,0.202881,0.594238,-0.409424,-249.832138,-129.837036,38.032532,0.7496049043202693
0 days 00:00:08.900000,0.456055,1.022705,0.557373,-11.650084,-13.648986,-20.294188,1.2508302607384425
0 days 00:00:08.910000,0.495605,1.04541,0.648438,-21.278379,-32.661438,-15.274047,1.3262647639023666
0 days 00:00:08.920000,0.516357,1.06543,0.705322,-31.249998,-58.464046,-7.499694,1.3781308936501642
0 days 00:00:08.930000,0.528564,1.077637,0.722412,-43.006893,-89.11895,1.266479,1.4009141671098198
0 days 00:00:08.940000,0.542969,1.077637,0.7146,-54.557796,-123.184196,9.788513,1.4024157724191497
0 days 00:00:08.950000,0.573486,1.064209,0.626709,-79.994202,-193.290695,29.121397,1.3616868797774324
0 days 00:00:08.960000,0.586182,1.0625,0.56665,-95.756523,-219.543442,37.04834,1.3392564390825232
0 days 00:00:08.970000,0.57959,1.050293,0.503418,-114.501945,-235.473618,42.884823,1.3009495134988907
0 days 00:00:08.980000,0.575684,1.020996,0.469971,-134.83429,-243.576035,45.974728,1.2628213019715022
0 days 00:00:08.990000,0.553467,1.067871,0.677246,-66.452026,-159.347534,19.477844,1.380339210935486
0 days 00:00:09,0.519287,0.913818,0.436768,-163.711533,-244.934067,48.912045,1.1381953309151291
0 days 00:00:09.010000,0.309082,0.637695,-0.220459,-249.93895,-133.499146,34.996033,0.7421514444033644
0 days 00:00:09.020000,0.552979,0.969727,0.452148,-151.512146,-246.078476,47.439571,1.204406095498524
0 days 00:00:09.030000,0.44873,0.639893,-0.101563,-246.917709,-159.339905,37.490845,0.7881222667315015
0 days 00:00:09.040000,0.470947,0.648438,-0.038086,-240.219101,-183.082565,41.343685,0.8023175556156054
0 days 00:00:09.050000,0.45459,0.661377,0.027588,-226.11998,-208.106979,45.448299,0.8030147582535454
0 days 00:00:09.060000,0.384766,0.643311,-0.167236,-249.526962,-141.647339,35.682678,0.7680246071402921
0 days 00:00:09.070000,0.370117,0.74292,0.175293,-195.487961,-238.395676,48.797604,0.8483185462654934
0 days 00:00:09.080000,0.43457,0.803467,0.28125,-181.480392,-242.431625,49.453732,0.9557781476310284
0 days 00:00:09.090000,0.494629,0.854004,0.382568,-171.897873,-243.423447,49.369808,1.0584606531567435
0 days 00:00:09.100000,0.408203,0.681152,0.0979,-209.655746,-227.981552,47.340389,0.8001138333468557
0 days 00:00:09.110000,0.806152,0.597168,0.972168,249.671921,249.992355,-109.893791,1.3969972396364998
0 days 00:00:09.120000,-0.987549,1.529297,-3.60376,59.371944,-193.10759,249.992355,4.037460647388405
0 days 00:00:09.130000,-1.235596,1.927734,-7.999756,-249.992355,37.117004,-24.330137,8.320994646645795
0 days 00:00:09.140000,2.033936,-4.298828,-1.120117,164.352402,136.58905,-101.119987,4.885844852159042
0 days 00:00:09.150000,0.323975,-0.04248,0.481445,249.992355,194.847092,-68.389893,0.5818536233882196
0 days 00:00:09.160000,0.333496,-0.010742,0.437988,249.992355,237.777695,-83.938591,0.5506073562203833
0 days 00:00:09.170000,0.321533,0.086426,0.467041,249.992355,249.992355,-100.593559,0.5735679726466603
0 days 00:00:09.180000,0.428711,0.250488,0.599121,249.992355,249.992355,-113.891594,0.7781280950499089
0 days 00:00:09.190000,0.600586,0.403809,0.804688,249.992355,249.992355,-120.414726,1.0822606105836985
0 days 00:00:09.200000,0.763916,0.520996,0.925537,249.992355,249.80925,-118.591301,1.3082901916016187
0 days 00:00:09.210000,0.743408,0.639893,0.969482,249.992355,249.992355,-98.81591,1.3791351834526593
0 days 00:00:09.220000,0.497803,0.943115,0.623047,41.381832,54.725643,-35.842896,1.23509566198048
0 days 00:00:09.230000,0.641113,0.750488,0.942383,237.014755,224.075302,-80.825798,1.364677190987671
0 days 00:00:09.240000,0.618896,0.820068,0.935547,204.910263,208.900436,-74.584961,1.3895294069032869
0 days 00:00:09.250000,0.652588,0.873291,0.915039,177.841171,192.237839,-69.007874,1.423307640654683
0 days 00:00:09.260000,0.665039,0.907715,0.884277,154.197693,176.528915,-63.697811,1.431142622338878
0 days 00:00:09.270000,0.650879,0.915283,0.829102,132.072449,165.016159,-60.134884,1.395993040503426
0 days 00:00:09.280000,0.67334,0.921875,0.779541,111.572258,152.954102,-58.021542,1.3823619069932447
0 days 00:00:09.290000,0.647949,0.925537,0.746338,93.116753,135.292053,-54.229733,1.3540594725542894
0 days 00:00:09.300000,0.559814,0.93457,0.707275,73.829651,109.886162,-48.21014,1.2988651681837495
0 days 00:00:09.310000,0.495361,0.941406,0.657471,55.679317,79.605103,-41.641232,1.2505582325497682
0 days 00:00:09.320000,1.082764,0.269043,-0.606445,178.009018,-106.201164,124.999992,1.2698572965376858
0 days 00:00:09.330000,0.681152,0.679932,0.943604,249.992355,239.196762,-88.798515,1.3478368152502735
0 days 00:00:09.340000,0.039795,1.1604,-1.737061,-85.784904,39.405823,48.019405,2.089376155637371
0 days 00:00:09.350000,0.611572,0.285156,-0.387207,5.340576,39.054871,129.837036,0.7779868356013487
0 days 00:00:09.360000,-0.35498,1.623779,-0.633301,-30.448912,18.356323,234.359726,1.7786903040838784
0 days 00:00:09.370000,0.525635,0.939697,0.579346,32.562256,40.412899,-32.37915,1.2226873650897028
0 days 00:00:09.380000,0.591309,0.409668,-0.320068,-4.730225,50.10223,116.950981,0.7873485431046405
0 days 00:00:09.390000,0.622559,0.475342,-0.325439,-19.485474,61.508175,106.437675,0.8481982481507492
0 days 00:00:09.400000,0.664551,0.450195,-0.34375,-25.382994,71.69342,107.849113,0.8731939258412188
0 days 00:00:09.410000,0.667725,0.331299,-0.405029,-18.478394,84.220879,115.730278,0.8483302386847943
0 days 00:00:09.420000,0.577148,0.223877,-0.516113,-11.482238,104.942314,118.057243,0.8059735441079937
0 days 00:00:09.430000,0.516357,0.189453,-0.602051,-11.650084,116.554253,116.432182,0.8154645285105906
0 days 00:00:09.440000,0.394775,0.202393,-0.626465,-11.436461,112.602226,113.891594,0.7676383414727277
0 days 00:00:09.450000,0.210205,0.271973,-0.623779,-6.126403,98.922722,108.489983,0.71221885372054
0 days 00:00:09.460000,0.096924,0.404053,-0.560547,0.793457,85.029594,102.790825,0.6977578575652158
0 days 00:00:09.470000,0.127441,0.573242,-0.509277,5.081176,70.236206,96.107475,0.777309887865837
0 days 00:00:09.480000,0.202881,0.725098,-0.461426,7.255554,54.550167,88.256828,0.8830864981648174
0 days 00:00:09.490000,0.307861,0.777832,-0.393555,10.31494,42.66357,83.793633,0.924492592490605
0 days 00:00:09.500000,0.500488,0.705322,-0.335693,13.084411,43.724056,77.270508,0.9277160945445542
0 days 00:00:09.510000,0.732666,0.529785,-0.304932,21.751402,67.871094,62.377926,0.9541777289399497
0 days 00:00:09.520000,0.884521,0.346436,-0.32666,42.823788,112.167351,48.797604,1.0045407195017035
0 days 00:00:09.530000,1.0,0.247314,-0.295166,62.881466,149.353027,48.347469,1.0715816264531601
0 days 00:00:09.540000,0.909668,0.290283,-0.282715,71.083069,165.206894,54.748531,0.9958352582320029
0 days 00:00:09.550000,0.599609,0.423584,-0.272461,68.893433,169.601425,57.434078,0.7830640806843332
0 days 00:00:09.560000,0.523438,0.604492,-0.258301,69.633484,158.439636,57.78503,0.8403078748345751
0 days 00:00:09.570000,0.382568,0.840332,-0.073486,89.775078,129.928589,35.362244,0.9262377324661308
0 days 00:00:09.580000,-0.023438,1.194092,-0.17627,73.58551,84.014885,-3.005981,1.2072597720490814
0 days 00:00:09.590000,-0.869141,1.594482,-0.585449,2.532959,70.541382,68.916321,1.9080171534359958
0 days 00:00:09.600000,0.390137,1.423828,-1.447266,-77.545166,1.670837,221.145615,2.0673828690179765
0 days 00:00:09.610000,0.518311,0.931396,0.488525,26.954649,35.041809,-31.173704,1.1725192864776255
0 days 00:00:09.620000,0.589355,0.941162,0.300537,-88.577263,-74.409485,14.808654,1.1504119760494498
0 days 00:00:09.630000,0.442627,0.920898,0.325195,17.074585,27.19879,-29.777525,1.0722516381698841
0 days 00:00:09.640000,0.536621,0.998535,0.362305,-122.695915,-123.161308,35.949707,1.190083676424057
0 days 00:00:09.650000,0.544434,1.005859,0.398193,-133.224487,-140.769958,44.540401,1.2110814892012842
0 days 00:00:09.660000,0.574951,0.979248,0.412598,-139.900208,-153.312683,52.742001,1.208193861724599
0 days 00:00:09.670000,0.611328,0.945801,0.411865,-144.104004,-159.858704,57.357784,1.1991222762545946
0 days 00:00:09.680000,0.628906,0.915283,0.385986,-148.925781,-164.085373,59.104916,1.1756916768953498
0 days 00:00:09.690000,0.613525,0.887207,0.359375,-155.36499,-167.694077,60.8139,1.1369694706099192
0 days 00:00:09.700000,0.602539,0.87085,0.313477,-165.405258,-170.196518,63.171383,1.1044006512810467
0 days 00:00:09.710000,0.592529,0.855713,0.26001,-178.665146,-170.387253,68.359375,1.07281897555459
0 days 00:00:09.720000,0.555176,0.833496,0.195313,-188.522324,-162.368759,74.058533,1.0203348180675793
0 days 00:00:09.730000,0.548096,0.812744,0.125488,-194.953903,-147.529602,76.86615,0.9882860278765455
0 days 00:00:09.740000,0.539063,0.970947,0.321289,-111.54937,-105.323784,29.495237,1.1560941208651656
0 days 00:00:09.750000,0.551514,0.756104,0.095703,-198.966965,-130.783081,74.806213,0.9407550240211316
0 days 00:00:09.760000,0.552979,0.604492,0.082031,-202.537521,-96.481316,67.756653,0.8233622759551229
0 days 00:00:09.770000,0.538086,0.560059,-0.018555,-206.45903,-81.207268,64.529419,0.776882819286152
0 days 00:00:09.780000,0.471436,0.556396,-0.138428,-211.616501,-74.729919,64.155579,0.7422874928866847
0 days 00:00:09.790000,0.366455,0.58374,-0.268799,-220.214828,-77.018738,68.595886,0.7397935908251707
0 days 00:00:09.800000,0.2854,0.601807,-0.446289,-229.89653,-82.031242,74.386597,0.8017472773698704
0 days 00:00:09.810000,0.239258,0.607178,-0.585449,-238.08287,-81.93969,77.964783,0.8767325965475449
0 days 00:00:09.820000,0.256104,0.601563,-0.651611,-238.815292,-78.346252,78.529358,0.9230732349635103
0 days 00:00:09.830000,0.272461,0.610107,-0.702148,-234.664902,-75.378418,76.148987,0.9692664039746761
0 days 00:00:09.840000,0.249512,0.624512,-0.780029,-230.361923,-72.509766,68.603516,1.0299110238894427
0 days 00:00:09.850000,0.209961,0.651367,-0.880615,-224.113449,-68.817139,59.265133,1.115278157427554
0 days 00:00:09.860000,0.550293,0.671875,0.099365,-200.28685,-113.853447,70.808411,0.8741348893042766
0 days 00:00:09.870000,0.568604,0.952393,0.30542,-100.196831,-90.034477,22.392271,1.1504974192343935
0 days 00:00:09.880000,0.177734,0.654541,-0.954102,-214.576706,-61.31744,54.534908,1.170608355446432
0 days 00:00:09.890000,0.621338,0.935059,0.311768,-77.407837,-60.234066,9.82666,1.165159014705289
0 days 00:00:09.900000,0.401611,0.926514,0.2771,11.741637,17.074585,-27.938841,1.0471408680387753
0 days 00:00:09.910000,0.386475,0.93457,0.264404,5.691528,3.250122,-24.993895,1.0453198007026367
0 days 00:00:09.920000,0.39624,0.9375,0.26709,0.305176,-10.414123,-22.308348,1.052259215070127
0 days 00:00:09.930000,0.424805,0.927979,0.247559,-3.837585,-19.340515,-21.690367,1.05018558881133
0 days 00:00:09.940000,0.48291,0.914063,0.239502,-6.660461,-25.337217,-22.293089,1.0611665486967632
0 days 00:00:09.950000,0.491211,0.907471,0.238525,-8.476257,-29.418943,-21.766661,1.0590968029349348
0 days 00:00:09.960000,0.488525,0.922607,0.393311,22.079466,32.394409,-30.540464,1.1155957577881874
0 days 00:00:09.970000,0.446777,0.901611,0.199219,-10.368346,-40.855404,-19.104004,1.0257681477853562
0 days 00:00:09.980000,0.417236,0.902344,0.19165,-11.024474,-47.660824,-17.494202,1.0124427374088867
0 days 00:00:09.990000,0.421387,0.890869,0.193359,-12.168883,-50.903316,-16.021729,1.0042919305714848
0 days 00:00:10,0.463867,0.888428,0.191162,-14.488219,-52.536007,-14.663695,1.020303785701592
0 days 00:00:10.010000,0.459961,0.903564,0.218018,-9.872437,-33.622742,-20.507811,1.037074670378657
0 days 00:00:10.020000,0.442139,0.875488,0.147461,-21.171568,-48.995968,-13.458251,0.9918220001522451
0 days 00:00:10.030000,0.476074,0.880127,0.1521,-22.918699,-45.532223,-13.038634,1.0121286477543256
0 days 00:00:10.040000,0.497314,0.893555,0.172852,-25.756834,-42.152401,-12.420653,1.0371304481717813
0 days 00:00:10.050000,0.489258,0.902344,0.209473,-29.243467,-39.154053,-11.566161,1.0476053754296033
0 days 00:00:10.060000,0.481201,0.905029,0.246094,-33.195496,-37.315369,-10.398864,1.0541319414940429
0 days 00:00:10.070000,0.501709,0.911621,0.268066,-37.391663,-36.712646,-8.872986,1.0745343869220751
0 days 00:00:10.080000,0.552246,0.928223,0.29126,-42.808529,-38.116455,-5.41687,1.1186625808728028
0 days 00:00:10.090000,0.587402,0.934326,0.311768,-50.178524,-40.367123,-0.236511,1.1468240796669733
0 days 00:00:10.100000,0.61792,0.936035,0.309082,-58.906551,-43.30444,3.204345,1.1634080669949818
0 days 00:00:10.110000,0.638916,0.937012,0.322754,-67.710876,-49.629208,6.217956,1.179141758956912
0 days 00:00:10.120000,0.455566,0.885986,0.174316,-18.127441,-51.933285,-13.641356,1.011384022223013
0 days 00:00:10.130000,0.671875,-1.268311,-0.01709,109.992973,-15.3656,152.259827,1.4353817876948278
0 days 00:00:10.140000,0.623535,-1.203125,-0.085693,94.352715,5.180358,136.34491,1.3578103520370584
0 days 00:00:10.150000,0.590088,-1.176758,-0.142334,85.189812,30.754087,116.638176,1.3240929747808496
0 days 00:00:10.160000,0.60083,-1.188477,-0.178467,80.497734,57.067867,99.44915,1.3436237339813555
0 days 00:00:10.170000,0.644775,-1.026367,-0.184326,75.828552,90.110771,17.39502,1.226026139032117
0 days 00:00:10.180000,0.63501,-1.112305,-0.2146,72.036743,90.492241,66.223145,1.2986582587905873
0 days 00:00:10.190000,0.634766,-1.063232,-0.23584,68.511963,96.382133,46.714779,1.260559663871568
0 days 00:00:10.200000,0.61792,-1.036133,-0.231934,71.655273,96.656792,30.281065,1.2284909850890238
0 days 00:00:10.210000,0.615479,-1.171875,-0.202637,77.789307,78.163147,84.533684,1.339091919486859
0 days 00:00:10.220000,0.666748,-1.327148,0.018799,129.371643,-32.531738,165.649399,1.4853377096838956
0 days 00:00:10.230000,0.74292,-0.718994,0.077148,110.061638,9.246826,235.168442,1.0367421629026188
0 days 00:00:10.240000,0.666504,-1.323486,-0.006348,165.695175,-67.955017,185.935959,1.4818512311686352
0 days 00:00:10.250000,0.718994,-1.273682,-0.036377,175.056442,-76.942444,197.01384,1.4630589514059233
0 days 00:00:10.260000,0.786133,-1.2229,-0.06665,173.32457,-76.408386,212.936386,1.4553115563991788
0 days 00:00:10.270000,0.815674,-1.187988,-0.097168,163.978561,-65.574646,227.561935,1.4443272422287134
0 days 00:00:10.280000,0.851074,-1.150635,-0.108398,154.983521,-48.667904,237.663254,1.4352832414213579
0 days 00:00:10.290000,0.87915,-1.131836,-0.109619,149.429321,-29.800413,242.309555,1.4373495672789554
0 days 00:00:10.300000,0.899414,-1.11084,-0.128906,144.897461,-11.001586,242.538437,1.4351055033801523
0 days 00:00:10.310000,0.960693,-1.067871,-0.116455,137.969971,5.752563,238.59404,1.4411250049579323
0 days 00:00:10.320000,0.990479,-0.981445,-0.070557,130.569458,16.197205,235.389694,1.3961594564071111
0 days 00:00:10.330000,0.921143,-0.851563,0.009521,120.513908,16.654968,235.465988,1.2544937699562322
0 days 00:00:10.340000,0.668945,-1.026855,-0.134277,75.4776,78.384399,6.256103,1.232862083437965
0 days 00:00:10.350000,0.655029,-1.348145,0.011719,148.536682,-51.277157,177.055344,1.4988980174871802
0 days 00:00:10.360000,0.660645,-1.018799,-0.088135,69.419861,61.515804,-1.76239,1.217444453209673
0 days 00:00:10.370000,0.473877,-0.880859,0.170654,-40.443417,-140.975952,10.986327,1.0146894976917815
0 days 00:00:10.380000,0.636719,-0.980957,0.000732,49.186703,18.959045,-9.605408,1.1694820463068256
0 days 00:00:10.390000,0.57373,-0.627441,0.085693,100.669853,0.831604,230.087265,0.8545124993995115
0 days 00:00:10.400000,0.249023,-1.043213,0.105957,-4.066467,-196.517929,10.612487,1.0777442663948622
0 days 00:00:10.410000,0.289063,-1.041748,0.097168,-6.019592,-202.68248,11.116027,1.0854666893539386
0 days 00:00:10.420000,0.338135,-1.032227,0.074707,-9.460449,-200.759872,12.100219,1.0887648936308518
0 days 00:00:10.430000,0.378174,-1.010254,0.047607,-16.921997,-192.626938,13.923644,1.0797662456481032
0 days 00:00:10.440000,0.38208,-0.991455,0.05127,-25.024412,-182.159409,13.648986,1.0637653671392953
0 days 00:00:10.450000,0.361816,-0.982422,0.062256,-31.410215,-174.797043,12.031554,1.0487800596292818
0 days 00:00:10.460000,0.341553,-0.973633,0.074951,-37.322998,-171.760544,11.520385,1.0345227512718123
0 days 00:00:10.470000,0.330078,-0.963623,0.087646,-43.55621,-171.760544,12.817382,1.0223515019449034
0 days 00:00:10.480000,0.330566,-0.954102,0.106934,-48.072811,-172.897324,14.694213,1.0153912482959462
0 days 00:00:10.490000,0.655273,-1.002441,-0.044434,60.340878,40.878292,-6.660461,1.1984344134603278
0 days 00:00:10.500000,0.348633,-0.939941,0.12915,-49.575802,-172.668442,15.556334,1.0107985826414676
0 days 00:00:10.510000,0.427002,-0.890869,0.152832,-46.890255,-156.547546,15.007018,0.9996678965481487
0 days 00:00:10.520000,0.495361,-0.875,0.179932,-31.09741,-122.596733,4.524231,1.021461230270146
0 days 00:00:10.530000,0.497803,-0.871582,0.19043,-20.957945,-104.515068,-2.777099,1.0216293821308193
0 days 00:00:10.540000,0.496826,-0.860596,0.202393,-11.375426,-88.958733,-8.766174,1.0141126544625108
0 days 00:00:10.550000,0.498779,-0.852295,0.219971,-2.975464,-74.905396,-12.21466,1.0117185867161878
0 days 00:00:10.560000,0.51123,-0.855225,0.213135,4.79126,-61.56921,-13.809203,1.0189172889641238
0 days 00:00:10.570000,0.529053,-0.865234,0.186523,11.58142,-48.21777,-14.640807,1.0311730122021232
0 days 00:00:10.580000,0.54126,-0.882324,0.145996,18.089294,-34.927368,-14.595031,1.045357766791829
0 days 00:00:10.590000,0.553223,-0.912109,0.100342,26.168821,-19.889832,-13.740539,1.071478899733448
0 days 00:00:10.600000,0.594238,-0.950439,0.050781,36.849976,-1.861572,-11.932372,1.1220658640766148
0 days 00:00:10.610000,0.377686,-0.914307,0.14209,-49.301144,-167.854294,16.174316,0.9993966044293926
0 days 00:00:10.620000,0.541016,-0.560059,0.061035,89.172356,-8.705139,225.204453,0.781082368871555
0 days 00:00:10.630000,0.565918,-0.521729,0.060547,74.676514,-20.26367,223.693832,0.7720947295338831
0 days 00:00:10.640000,0.56958,-0.510254,0.05542,61.256405,-30.708311,220.19957,0.7667150039721409
0 days 00:00:10.650000,0.934814,-0.126709,-0.427979,-60.203548,67.764282,106.842033,1.0359046335054207
0 days 00:00:10.660000,0.951172,-0.094971,-0.466553,-56.381222,77.697754,103.431694,1.0636819854796826
0 days 00:00:10.670000,0.944092,-0.075684,-0.498535,-52.093502,85.83831,100.097649,1.0703153360318631
0 days 00:00:10.680000,0.921143,-0.060059,-0.546143,-46.745296,93.14727,97.091667,1.072559409253865
0 days 00:00:10.690000,0.898438,-0.043213,-0.578857,-42.549129,98.785393,95.252983,1.069641823070695
0 days 00:00:10.700000,0.865723,-0.041016,-0.611328,-39.573669,104.62188,93.269341,1.0606038603404195
0 days 00:00:10.710000,0.87085,-0.046631,-0.657959,-35.827637,108.505241,86.822502,1.0924578794360906
0 days 00:00:10.720000,0.846436,-0.047607,-0.683594,-30.799864,105.102531,77.674866,1.089045951914335
0 days 00:00:10.730000,0.785645,-0.034912,-0.664551,-26.931761,86.006157,76.026917,1.0296042663907332
0 days 00:00:10.740000,0.581787,-0.016357,-0.678223,-28.945921,9.918213,95.092766,0.8937170148022249
0 days 00:00:10.750000,0.981689,-0.151611,-0.360352,-64.880371,57.334896,109.161369,1.0566705976537816
0 days 00:00:10.760000,0.567139,-0.067871,-0.671143,-22.621153,-35.552979,108.5205,0.8812979316956326
0 days 00:00:10.770000,0.530518,-0.2229,-0.363037,44.471737,-103.622429,158.180237,0.680389316269002
0 days 00:00:10.780000,0.667725,-0.185303,-0.355957,71.495056,-108.589165,161.468491,0.7790373953046157
0 days 00:00:10.790000,0.861084,-0.128662,-0.395752,81.405632,-99.357597,153.427124,0.9563677173577116
0 days 00:00:10.800000,1.084473,-0.071533,-0.454102,79.406738,-83.114616,148.124695,1.177882542625537
0 days 00:00:10.810000,1.196777,-0.032715,-0.51416,66.749573,-61.157223,140.968323,1.3029604616234522
0 days 00:00:10.820000,1.239258,-0.007324,-0.562256,47.752377,-40.588375,133.522034,1.3608621682874427
0 days 00:00:10.830000,1.261963,0.035156,-0.617188,26.245115,-29.830931,137.214661,1.4052428918336501
0 days 00:00:10.840000,1.147461,0.104248,-0.622314,10.490417,-20.606993,146.29364,1.3095071999118602
0 days 00:00:10.850000,0.957031,0.154053,-0.549805,4.53186,-0.946045,147.30835,1.1144174261895763
0 days 00:00:10.860000,0.759033,0.184082,-0.46875,6.118774,22.796629,141.586304,0.910902761173222
0 days 00:00:10.870000,0.506348,-0.178223,-0.519287,4.341125,-77.262878,133.308411,0.7468672728149226
0 days 00:00:10.880000,1.026855,-0.164063,-0.287109,-69.084167,53.863522,105.957024,1.0787860941238538
0 days 00:00:10.890000,0.665039,-0.018799,-0.650879,-27.053831,51.887508,84.480278,0.9307382803790764
0 days 00:00:10.900000,0.919434,-0.188232,-0.211426,-75.035095,74.554443,94.017021,0.9620244901539668
0 days 00:00:10.910000,0.98291,-0.17627,-0.241699,-72.097778,60.478207,98.419182,1.0274247357354211
0 days 00:00:10.920000,0.635254,-0.428955,0.033203,36.155701,-41.557308,203.468307,0.7672369097938394
0 days 00:00:10.930000,0.705322,-0.375244,0.049072,20.751951,-44.479366,198.974594,0.8004344098075744
0 days 00:00:10.940000,0.737305,-0.320801,0.06958,8.003235,-47.561642,196.983322,0.8070770229823173
0 days 00:00:10.950000,0.665039,-0.274658,0.082764,-2.578735,-48.59161,192.840561,0.7242677461968053
0 days 00:00:10.960000,0.609863,-0.255859,0.095703,-12.672423,-45.753475,186.080917,0.668248285339364
0 days 00:00:10.970000,0.620117,-0.260498,0.106201,-21.766661,-40.573116,178.474411,0.6809426951616414
0 days 00:00:10.980000,0.630859,-0.274414,0.090576,-28.938292,-31.181334,169.181808,0.693894900581493
0 days 00:00:10.990000,0.666016,-0.269775,0.063232,-34.919739,-17.333984,159.439087,0.7213557712425958
0 days 00:00:11,0.717285,-0.256348,0.05957,-41.000362,-1.968384,151.283264,0.7640423111510252
0 days 00:00:11.010000,0.741699,-0.247803,0.053467,-46.783443,13.687133,142.921448,0.7838255249090833
0 days 00:00:11.020000,0.579102,-0.484863,0.037598,49.919125,-37.322998,211.853012,0.7562174718802787
0 days 00:00:11.030000,0.769531,-0.232666,0.023438,-54.580685,41.900631,123.573296,0.8042765490557336
0 days 00:00:11.040000,0.746582,-0.241699,0.040039,-51.261898,28.930662,132.774353,0.7857520033992913
0 days 00:00:11.050000,0.873535,-0.205566,-0.155762,-81.710808,117.84362,97.602837,0.9108142385936882
0 days 00:00:11.060000,0.901855,-0.188721,-0.157471,-82.466118,128.723145,101.249687,0.9347487216931618
0 days 00:00:11.070000,0.927979,-0.178711,-0.1521,-78.865051,124.603264,101.051323,0.9571922774249697
0 days 00:00:11.080000,0.926758,-0.186768,-0.128906,-73.059082,108.818047,100.311272,0.9541380577379773
0 days 00:00:11.090000,0.888672,-0.20166,-0.17041,-78.468323,95.344536,93.543999,0.9270621593420799
0 days 00:00:11.100000,0.845703,-0.204346,-0.039307,-64.300537,73.890686,106.369011,0.8709281785394246
0 days 00:00:11.110000,0.819092,-0.204346,-0.017578,-61.119076,60.791012,111.434929,0.8443802332267141
0 days 00:00:11.120000,0.807373,-0.214355,0.010254,-57.777401,51.292416,116.897575,0.8354067103333561
0 days 00:00:11.130000,0.885742,-0.203125,-0.077637,-67.78717,90.362541,101.928703,0.9120450427243163
0 days 00:00:11.140000,0.340088,-0.982178,-0.025391,-18.638611,48.904415,2.998352,1.039701002360294
0 days 00:00:11.150000,0.283936,-0.937744,-0.011475,-28.945921,-1.25885,22.033689,0.9798546510870886
0 days 00:00:11.160000,0.297607,-0.94165,-0.010254,-29.724119,-1.38855,21.659849,0.9876131800786175
0 days 00:00:11.170000,0.311768,-0.954834,-0.016357,-29.899595,1.770019,20.797728,1.0045769282782677
0 days 00:00:11.180000,0.317383,-0.962402,-0.010986,-29.342649,7.17926,18.501282,1.0134447545322833
0 days 00:00:11.190000,0.326172,-0.9646,-0.008789,-28.152464,14.396667,15.098571,1.0182919915746171
0 days 00:00:11.200000,0.329834,-0.965332,-0.013672,-26.496885,22.605894,11.810302,1.0202172618437702
0 days 00:00:11.210000,0.27002,-0.945313,-0.020752,-27.122496,2.616882,21.751402,0.9833402838656616
0 days 00:00:11.220000,0.33374,-0.969727,-0.014648,-24.101255,31.135557,8.308411,1.0256546231714652
0 days 00:00:11.230000,0.336426,-0.976318,-0.02002,-21.110533,39.909363,5.355834,1.0328504688482258
0 days 00:00:11.240000,0.341553,-0.992188,-0.034668,-16.799927,59.486385,0.1297,1.0499034952684936
0 days 00:00:11.250000,0.29248,-1.046387,-0.077393,-21.965025,107.566826,-15.144347,1.0892474377376336
0 days 00:00:11.260000,0.331299,-1.010742,-0.073975,-17.982483,82.481377,-7.789611,1.0662226402539012
0 days 00:00:11.270000,0.318848,-1.022461,-0.075195,-19.40918,92.346184,-11.856078,1.0736595510914995
0 days 00:00:11.280000,0.303223,-1.033691,-0.07251,-20.851133,100.448601,-14.289855,1.0796846629039425
0 days 00:00:11.290000,0.289795,-1.074707,-0.081543,-22.369383,114.143364,-14.831542,1.116075955624437
0 days 00:00:11.300000,0.282959,-1.107666,-0.086182,-21.514891,119.796745,-13.900756,1.14648030962638
0 days 00:00:11.310000,0.270752,-1.138916,-0.089844,-19.325256,122.238152,-12.046813,1.1740989076291657
0 days 00:00:11.320000,0.251221,-1.162842,-0.095947,-16.372681,120.262138,-8.041382,1.1935322930754744
0 days 00:00:11.330000,0.22583,-1.172607,-0.104736,-13.679503,113.410942,-2.342224,1.1987393357377576
0 days 00:00:11.340000,0.206299,-1.169434,-0.115967,-11.96289,101.959221,4.829407,1.1931401857476767
0 days 00:00:11.350000,0.267334,-0.952637,-0.032715,-24.864195,8.613586,20.111082,0.9899772687036809
0 days 00:00:11.360000,0.340576,-1.001221,-0.056152,-16.792297,71.357727,-3.799438,1.0590507776877367
0 days 00:00:11.370000,0.273682,-0.953857,-0.05127,-23.109434,13.992309,16.685486,0.9936667582610379
0 days 00:00:11.380000,0.203857,-1.001709,-0.035889,-9.689331,-44.81506,3.425598,1.0228717502458458
0 days 00:00:11.390000,0.262695,-0.943848,-0.078613,-19.073486,23.826597,8.537292,0.9828721757675308
0 days 00:00:11.400000,0.204346,-1.164307,-0.110352,-10.421752,89.088432,12.260436,1.1872428740021985
0 days 00:00:11.410000,0.20752,-0.973877,-0.034668,-11.497497,-44.296261,4.272461,0.9963447353968404
0 days 00:00:11.420000,0.210938,-0.942871,-0.038086,-13.534545,-43.350216,4.989624,0.9669286974131029
0 days 00:00:11.430000,0.217285,-0.916016,-0.04248,-15.258788,-41.946407,5.53894,0.942391974648023
0 days 00:00:11.440000,0.225098,-0.9021,-0.05249,-16.372681,-39.611816,6.072998,0.9312404199260252
0 days 00:00:11.450000,0.23291,-0.893066,-0.063721,-16.639709,-36.621094,5.973815,0.9251347546692861
0 days 00:00:11.460000,0.237305,-0.885986,-0.071045,-16.075134,-33.294678,5.317688,0.9199631771141713
0 days 00:00:11.470000,0.244385,-0.880859,-0.070313,-14.98413,-29.975889,4.447937,0.9168317861390931
0 days 00:00:11.480000,0.251465,-0.875732,-0.069336,-13.763427,-26.519773,3.051758,0.9137552533063763
0 days 00:00:11.490000,0.258057,-0.873779,-0.074219,-12.519835,-22.834776,1.38092,0.9141070047051384
0 days 00:00:11.500000,0.266846,-0.875732,-0.07666,-11.070251,-18.600464,-0.175476,0.9186893267802777
0 days 00:00:11.510000,0.273682,-0.878174,-0.080078,-9.506226,-13.626098,-1.922607,0.9233113762344749
0 days 00:00:11.520000,0.274414,-0.885498,-0.082031,-8.354187,-8.049011,-3.936767,0.9306658027245871
0 days 00:00:11.530000,0.27417,-0.895264,-0.086182,-7.408142,-2.525329,-5.935668,0.9402628120477806
0 days 00:00:11.540000,0.274414,-0.901123,-0.092285,-6.782531,3.112793,-7.5531,0.9464894218901763
0 days 00:00:11.550000,0.270264,-0.911865,-0.095947,-6.233215,8.346558,-8.995056,0.955900745229336
0 days 00:00:11.560000,0.268311,-0.917969,-0.10376,-6.950378,13.206481,-9.605408,0.9619896128763553
0 days 00:00:11.570000,0.266846,-0.925537,-0.106445,-7.92694,17.845154,-9.223938,0.9691006470485922
0 days 00:00:11.580000,0.262207,-0.936523,-0.10498,-8.720398,22.018431,-8.354187,0.9781864039016286
0 days 00:00:11.590000,0.261963,-0.948975,-0.103271,-9.925842,25.382994,-6.774902,0.9898702255523196
0 days 00:00:11.600000,0.256836,-0.951172,-0.104492,-11.894225,27.671812,-4.135132,0.9907630809350941
0 days 00:00:11.610000,0.251709,-0.947754,-0.095459,-14.183043,28.152464,-0.320435,0.985244886248084
0 days 00:00:11.620000,0.260742,-0.945313,-0.086182,-16.319275,26.618956,3.791809,0.9843934150821002
0 days 00:00:11.630000,0.264893,-0.946533,-0.069336,-21.598814,19.515991,12.96997,0.9853428349736958
0 days 00:00:11.640000,0.207275,-1.159912,-0.103027,-8.827209,78.468323,18.1427,1.1827820323702927
0 days 00:00:11.650000,0.210449,-1.153076,-0.101318,-7.591247,71.281433,22.445677,1.176494105595519
0 days 00:00:11.660000,0.218262,-1.130127,-0.101807,-6.248474,66.841125,24.414061,1.155504219820075
0 days 00:00:11.670000,0.142822,-0.975098,-0.01709,5.851745,-69.480896,-20.1416,0.9856501922020815
0 days 00:00:11.680000,0.145996,-0.979004,-0.003418,0.801086,-66.345215,-22.933958,0.9898360201346483
0 days 00:00:11.690000,0.144531,-0.980713,0.003662,-4.249573,-63.720699,-25.497435,0.9913125685544393
0 days 00:00:11.700000,0.144775,-0.979248,0.010498,-8.155823,-61.584469,-27.709959,0.9899478037416922
0 days 00:00:11.710000,0.138916,-0.984619,0.020752,-10.765075,-60.211178,-29.823301,0.9945867864198679
0 days 00:00:11.720000,0.125244,-0.993164,0.030518,-12.847899,-61.233517,-31.433104,1.0014949519373526
0 days 00:00:11.730000,0.114258,-1.003174,0.04126,-14.823913,-64.956665,-32.836914,1.0105025247073853
0 days 00:00:11.740000,0.108887,-1.004395,0.044434,-16.693115,-70.587158,-33.699036,1.0112566811398578
0 days 00:00:11.750000,0.111084,-0.997559,0.04834,-17.959595,-77.308655,-33.073425,1.0048882371373447
0 days 00:00:11.760000,0.105957,-0.988525,0.055664,-18.699646,-85.502617,-31.486509,0.9957444664018977
0 days 00:00:11.770000,0.135498,-0.970703,-0.03125,11.024474,-72.776794,-17.074585,0.9806123519072151
0 days 00:00:11.780000,0.104736,-0.986572,0.062744,-19.371033,-96.107475,-29.525755,0.9940979581590539
0 days 00:00:11.790000,0.131348,-1.014648,0.067383,-19.287109,-117.004387,-24.833677,1.0253308391426643
0 days 00:00:11.800000,0.140625,-1.027832,0.070557,-17.967224,-126.426689,-22.003172,1.0398039724380745
0 days 00:00:11.810000,0.146729,-1.042725,0.081543,-15.983581,-136.306763,-18.669128,1.0561505981227297
0 days 00:00:11.820000,0.17041,-1.05957,0.090332,-13.145446,-144.927979,-15.678405,1.076980976259098
0 days 00:00:11.830000,0.201416,-1.066895,0.096191,-9.979248,-149.963379,-13.137816,1.0899936029913202
0 days 00:00:11.840000,0.227051,-1.06665,0.093994,-7.575988,-152.580261,-10.238647,1.0945909058351437
0 days 00:00:11.850000,0.242188,-1.060791,0.093018,-6.134033,-154.838562,-7.125854,1.0920553655144962
0 days 00:00:11.860000,0.240967,-1.065674,0.097412,-4.608154,-159.538269,-4.074097,1.0969116952193554
0 days 00:00:11.870000,0.240967,-1.063232,0.099121,-3.39508,-166.496262,-0.541687,1.0946928124154283
0 days 00:00:11.880000,0.244141,-1.057861,0.104248,-2.426147,-175.239548,3.715515,1.090661436333934
0 days 00:00:11.890000,0.117676,-0.99707,0.066162,-19.760132,-107.101433,-27.366636,1.006167797198857
0 days 00:00:11.900000,0.119141,-0.962402,-0.041748,16.471863,-75.424194,-13.931273,0.9706467343936207
0 days 00:00:11.910000,0.244141,-1.04834,0.109131,-2.609253,-185.600266,8.171082,1.081910882948314
0 days 00:00:11.920000,0.068359,-0.934326,-0.064209,25.665281,-70.785522,-10.360717,0.9390212046796388
0 days 00:00:11.930000,0.224365,-1.093018,-0.09668,-4.981995,64.903259,24.223326,1.1199888499217303
0 days 00:00:11.940000,0.215332,-1.04541,-0.086914,-3.562927,63.987728,23.216246,1.070889341491454
0 days 00:00:11.950000,0.203369,-1.000488,-0.066162,-1.098633,61.775204,22.239683,1.0230897314258414
0 days 00:00:11.960000,0.188477,-0.967285,-0.045898,1.998901,58.876034,21.316526,0.9865447162485844
0 days 00:00:11.970000,0.175781,-0.947266,-0.035645,4.714966,56.068417,19.691467,0.964096676035137
0 days 00:00:11.980000,0.163574,-0.93042,-0.042725,7.644653,53.512569,17.456055,0.9456549346886527
0 days 00:00:11.990000,0.091064,-0.950195,-0.051514,21.499632,-75.454712,-11.550902,0.9559376979264915
0 days 00:00:12,0.147461,-0.882813,-0.065186,13.870238,48.416134,12.619018,0.8974144828817953
0 days 00:00:12.010000,0.139648,-0.859375,-0.067627,16.51001,46.035763,10.231017,0.8732699271462404
0 days 00:00:12.020000,0.130859,-0.836914,-0.06665,18.875122,43.189999,7.667541,0.8497007377759538
0 days 00:00:12.030000,0.121094,-0.825195,-0.064453,21.194456,39.573669,4.844666,0.8365194164333545
0 days 00:00:12.040000,0.153076,-0.907715,-0.055664,10.82611,50.888058,15.136718,0.9222132420958832
0 days 00:00:12.050000,0.101563,-0.846924,-0.072754,28.938292,29.525755,-1.274109,0.8560890428343304
0 days 00:00:12.060000,0.084717,-0.870117,-0.078613,33.294678,22.598265,-3.715515,0.8777588322238632
0 days 00:00:12.070000,0.07373,-0.888184,-0.088379,36.872864,14.060973,-5.966186,0.895610282654794
0 days 00:00:12.080000,0.06665,-0.899658,-0.093506,39.901733,4.348755,-7.736206,0.9069565102583474
0 days 00:00:12.090000,0.059082,-0.909424,-0.09375,41.969296,-6.248474,-8.811951,0.9161505100145937
0 days 00:00:12.100000,0.056152,-0.916992,-0.089844,42.091366,-17.570496,-9.773254,0.9230922594757255
0 days 00:00:12.110000,0.055908,-0.918701,-0.084961,40.90118,-28.747557,-10.581969,0.924313584984014
0 days 00:00:12.120000,0.055664,-0.916992,-0.082764,38.17749,-39.474487,-10.459899,0.9224005033910162
0 days 00:00:12.130000,0.055176,-0.910645,-0.077881,34.042358,-50.506588,-9.872437,0.9156332001200044
0 days 00:00:12.140000,0.054443,-0.916748,-0.071533,29.785154,-61.599728,-9.872437,0.9211448886261053
0 days 00:00:12.150000,0.113525,-0.828857,-0.065186,24.635313,35.011292,1.708984,0.8391311379456728
0 days 00:00:12.160000,0.766602,-1.140869,-0.305664,-52.886959,-29.800413,-169.265732,1.408080673278701
0 days 00:00:12.170000,0.771484,-1.114746,-0.312256,-57.563778,-23.15521,-178.466782,1.3911685793993478
0 days 00:00:12.180000,0.769531,-1.07373,-0.322998,-59.867855,-18.119812,-187.164291,1.3599271233654397
0 days 00:00:12.190000,0.738281,-1.01709,-0.299072,-60.073849,-10.757445,-196.975693,1.2918881392152342
0 days 00:00:12.200000,0.909424,-0.807129,-0.287842,-44.013973,20.011902,-235.710129,1.2495448176760207
0 days 00:00:12.210000,0.784668,-0.883545,-0.224365,-52.192684,7.614135,-221.817001,1.2027864691930983
0 days 00:00:12.220000,0.860107,-0.841553,-0.241943,-46.745296,14.411925,-232.315048,1.227408619208371
0 days 00:00:12.230000,0.905029,-0.820801,-0.266602,-44.570919,17.89093,-235.954269,1.2505472397498625
0 days 00:00:12.240000,0.726074,-0.94751,-0.249268,-57.777401,-1.052856,-209.068283,1.219464304274627
0 days 00:00:12.250000,0.753662,-1.145264,-0.306396,-46.501156,-42.221066,-156.272888,1.4048183330082222
0 days 00:00:12.260000,0.446289,-0.950684,-0.187012,-25.863646,-25.291441,-29.640196,1.0667461870196677
0 days 00:00:12.270000,0.616699,-1.084473,-0.24707,-30.265806,-77.796936,-120.079033,1.2717872971648994
0 days 00:00:12.280000,0.542969,-1.062988,-0.22998,-23.857115,-92.01049,-100.196831,1.2155861234421033
0 days 00:00:12.290000,0.515137,-1.071289,-0.224609,-19.248962,-99.441521,-83.183281,1.2097418952698131
0 days 00:00:12.300000,0.534912,-1.073242,-0.227051,-16.746521,-99.914543,-68.916321,1.22046359835474
0 days 00:00:12.310000,0.572754,-1.054199,-0.249512,-16.090393,-94.055168,-57.960506,1.225413772674765
0 days 00:00:12.320000,0.597656,-1.030518,-0.267578,-16.105652,-81.275932,-50.666805,1.2209660227639425
0 days 00:00:12.330000,0.588867,-1.008545,-0.283447,-16.944885,-65.719604,-44.609066,1.2017776676752652
0 days 00:00:12.340000,0.560303,-0.981934,-0.263184,-18.936157,-52.757259,-38.261414,1.1607754520237754
0 days 00:00:12.350000,0.522705,-0.949707,-0.228271,-22.209166,-43.815609,-32.569885,1.1078228885137733
0 days 00:00:12.360000,0.468018,-0.942871,-0.199463,-24.627684,-35.682678,-29.71649,1.0713692450943326
0 days 00:00:12.370000,0.858398,-0.774414,-0.244141,-42.442318,21.40045,-236.228928,1.1815959536495544
0 days 00:00:12.380000,0.701904,-1.123047,-0.282715,-38.696289,-59.738155,-139.450073,1.3541903709043275
0 days 00:00:12.390000,0.817139,-0.715576,-0.191895,-38.68103,17.486572,-237.876877,1.1029908649313465
0 days 00:00:12.400000,0.530762,-0.331299,-0.29248,17.25769,-97.457878,-161.804184,0.6906604653844028
0 days 00:00:12.410000,0.881836,-0.60791,-0.184814,-28.259275,4.592896,-240.669235,1.0868971955028681
0 days 00:00:12.420000,0.457764,-0.956787,-0.181641,-27.374266,-13.427733,-30.2124,1.076096044015589
0 days 00:00:12.430000,0.423096,-0.276855,-0.642822,-12.71057,-249.992355,-31.745909,0.8178502551965121
0 days 00:00:12.440000,0.496826,-0.277588,-0.689697,-9.963989,-249.992355,-38.825989,0.894188528124243
0 days 00:00:12.450000,0.505859,-0.240234,-0.623047,3.303528,-249.992355,-42.991634,0.8377310229697835
0 days 00:00:12.460000,0.417236,-0.197754,-0.527832,12.611388,-249.832138,-40.016174,0.7012839256934383
0 days 00:00:12.470000,0.304443,-0.164307,-0.51001,-1.533508,-249.992355,-32.295227,0.6162730974154235
0 days 00:00:12.480000,0.307373,-0.222656,-0.552246,-30.46417,-249.992355,-25.817869,0.6700966348079954
0 days 00:00:12.490000,0.309082,-0.337646,-0.529297,-35.469055,-242.88176,-33.14209,0.6997798355547264
0 days 00:00:12.500000,0.351318,-0.389893,-0.372559,-16.975403,-223.587021,-58.448788,0.6436156438853861
0 days 00:00:12.510000,0.53418,-0.376953,-0.303223,-2.723694,-193.176254,-96.084587,0.7206844138303533
0 days 00:00:12.520000,0.840088,-0.670898,-0.185547,-33.691406,10.383605,-239.639267,1.0909993874228343
0 days 00:00:12.530000,0.721924,-0.369141,-0.282959,7.080078,-161.987289,-120.788567,0.8587811917700573
0 days 00:00:12.540000,0.53833,-0.330566,-0.252686,13.984679,-112.800591,-143.829346,0.6803846587423911
0 days 00:00:12.550000,0.596191,-0.310059,-0.287598,18.051147,-88.088982,-179.214462,0.7309534195596872
0 days 00:00:12.560000,0.67334,-0.294678,-0.247803,15.480041,-82.908623,-191.902145,0.7756469597007393
0 days 00:00:12.570000,0.6875,-0.324707,-0.210449,12.542724,-77.690125,-201.79747,0.7889104305623041
0 days 00:00:12.580000,0.666992,-0.388428,-0.203125,10.620116,-71.495056,-212.150558,0.7981318217393666
0 days 00:00:12.590000,0.678223,-0.45166,-0.222168,7.6828,-61.401363,-220.779404,0.8445956509200128
0 days 00:00:12.600000,0.779053,-0.49292,-0.286865,2.685547,-46.600338,-225.875839,0.9654974010498423
0 days 00:00:12.610000,0.905029,-0.489746,-0.319824,-6.881713,-30.372618,-229.782089,1.077597339609281
0 days 00:00:12.620000,0.927246,-0.50708,-0.270752,-15.434264,-15.029906,-234.085068,1.090972921946278
0 days 00:00:12.630000,0.907715,-0.546631,-0.216309,-21.415709,-3.112793,-238.479599,1.0814534455384568
0 days 00:00:12.640000,0.63623,-0.333496,-0.202881,11.474608,-134.513855,-130.462646,0.7464374689664232
0 days 00:00:12.650000,0.456055,-0.950928,-0.179932,-29.060362,-4.241943,-30.525206,1.0698718375735479
0 days 00:00:12.660000,0.416504,-0.939453,-0.178711,-31.013487,1.113892,-30.4718,1.0430652629370802
0 days 00:00:12.670000,0.374512,-0.931396,-0.149414,-32.264709,5.393981,-31.219481,1.014929697248041
0 days 00:00:12.680000,0.144287,-0.982422,-0.138916,13.626098,12.908935,-0.244141,1.0026312280739116
0 days 00:00:12.690000,0.137695,-0.969971,-0.132813,13.824462,10.643004,-2.548218,0.988657143217506
0 days 00:00:12.700000,0.131104,-0.960205,-0.132324,13.885497,8.415222,-4.699707,0.978106099468253
0 days 00:00:12.710000,0.123535,-0.94873,-0.129639,13.740539,6.195068,-6.645202,0.9654821486935945
0 days 00:00:12.720000,0.119141,-0.940674,-0.125732,13.366698,4.112244,-8.522034,0.9564887286220366
0 days 00:00:12.730000,0.119629,-0.936035,-0.122314,12.687682,2.105713,-10.078429,0.951542607276206
0 days 00:00:12.740000,0.113037,-0.930176,-0.113525,12.222289,-0.297546,-11.383056,0.9438711140669578
0 days 00:00:12.750000,0.108887,-0.918701,-0.101563,11.695861,-3.662109,-12.229918,0.9306895020032191
0 days 00:00:12.760000,0.101563,-0.9104,-0.094238,10.879516,-8.201599,-12.481688,0.9208821876944954
0 days 00:00:12.770000,0.102051,-0.907959,-0.08252,9.796143,-13.59558,-11.95526,0.9173949545762718
0 days 00:00:12.780000,0.150879,-0.998535,-0.146973,13.000487,14.976501,1.815796,1.0205085406771468
0 days 00:00:12.790000,0.107178,-0.91333,-0.078369,9.391785,-18.920898,-10.902404,0.922930394312052
0 days 00:00:12.800000,0.121094,-0.916748,-0.070801,8.003235,-28.213499,-8.171082,0.9274176157163503
0 days 00:00:12.810000,0.130371,-0.930664,-0.071045,7.080078,-32.058716,-6.782531,0.9424327406038058
0 days 00:00:12.820000,0.140381,-0.947998,-0.071045,6.240844,-35.484314,-5.432128,0.9609653610770785
0 days 00:00:12.830000,0.1521,-0.96582,-0.07251,4.951477,-38.276672,-4.066467,0.9804082733739042
0 days 00:00:12.840000,0.161621,-0.985107,-0.074219,3.39508,-40.512081,-2.609253,1.0010322717330344
0 days 00:00:12.850000,0.169434,-1.002197,-0.07251,1.25885,-42.549129,-1.274109,1.019001671865655
0 days 00:00:12.860000,0.179199,-1.015137,-0.070801,-1.13678,-43.815609,-0.221252,1.0332609505691193
0 days 00:00:12.870000,0.187744,-1.022949,-0.063721,-3.349304,-44.609066,0.709534,1.0419850440279843
0 days 00:00:12.880000,0.193359,-1.031006,-0.059814,-5.432128,-44.952389,1.358032,1.0506849144786463
0 days 00:00:12.890000,0.199463,-1.030273,-0.051025,-7.011413,-45.082088,2.044678,1.0506433712364058
0 days 00:00:12.900000,0.111816,-0.914307,-0.074463,8.865356,-23.750303,-9.57489,0.9241238263750157
0 days 00:00:12.910000,0.147949,-1.015869,-0.155273,12.367248,16.448975,4.066467,1.038262219427732
0 days 00:00:12.920000,0.201904,-1.021973,-0.04248,-8.44574,-44.998165,2.76947,1.0425922445256344
0 days 00:00:12.930000,0.140869,-1.035645,-0.158936,11.779784,19.424438,7.537841,1.0571969037421554
0 days 00:00:12.940000,0.365967,-0.925049,-0.130615,-32.867432,9.292603,-32.25708,1.0033482823601185
0 days 00:00:12.950000,0.363037,-0.92334,-0.120117,-32.791138,12.092589,-32.76825,0.9993901703829191
0 days 00:00:12.960000,0.354492,-0.931641,-0.116943,-31.623838,14.717101,-33.294678,1.0036409697665796
0 days 00:00:12.970000,0.357178,-0.940674,-0.122314,-29.701231,17.539978,-32.821655,1.0136095957300326
0 days 00:00:12.980000,0.362305,-0.952637,-0.132324,-27.488707,20.278929,-30.876158,1.0277605790114739
0 days 00:00:12.990000,0.361816,-0.967285,-0.142334,-25.032042,22.499083,-27.732847,1.0425018257235812
0 days 00:00:13,0.145996,-1.027344,-0.154297,12.054442,17.753601,6.309509,1.0490748736677473
0 days 00:00:13.010000,0.323975,-1.000732,-0.157715,-19.760132,23.208616,-18.287659,1.0636251020326664
0 days 00:00:13.020000,0.318604,-1.029053,-0.162354,-16.014099,24.620054,-13.763427,1.0894114956897598
0 days 00:00:13.030000,0.319824,-1.047852,-0.164307,-11.482238,29.45709,-9.635925,1.1078257963818139
0 days 00:00:13.040000,0.304688,-1.033936,-0.155518,-7.865905,36.590576,-6.233215,1.0890565998900148
0 days 00:00:13.050000,0.350098,-0.981201,-0.147705,-22.491453,23.28491,-23.29254,1.0522075741173886
0 days 00:00:13.060000,0.236816,-0.976563,-0.104492,-5.508422,46.089169,-2.380371,1.0102849543020027
0 days 00:00:13.070000,0.216553,-0.974365,-0.095215,-4.516602,47.294613,-1.487732,1.0026705596849845
0 days 00:00:13.080000,0.205322,-0.983887,-0.09668,-2.159119,47.439571,-0.366211,1.0097216323586418
0 days 00:00:13.090000,0.191895,-0.999268,-0.097412,1.350403,46.119686,0.999451,1.022178714605719
0 days 00:00:13.100000,0.175049,-1.01001,-0.098145,4.829407,42.92297,2.693176,1.0297547249350207
0 days 00:00:13.110000,0.161377,-1.01416,-0.108154,7.850646,38.375854,4.867554,1.0325988230891026
0 days 00:00:13.120000,0.154053,-1.019043,-0.117188,10.025024,33.447266,6.881713,1.0372627391370037
0 days 00:00:13.130000,0.149902,-1.022217,-0.124512,11.360168,29.075621,7.759094,1.0406255055672042
0 days 00:00:13.140000,0.143066,-1.031982,-0.144775,11.444091,25.474546,7.659912,1.0518624098735536
0 days 00:00:13.150000,0.138672,-1.037354,-0.157227,11.665343,22.109983,7.6828,1.0583258356616834
0 days 00:00:13.160000,0.275391,-1.001953,-0.136719,-6.004333,42.869564,-3.799438,1.04806588631202
0 days 00:00:13.170000,0.953613,0.379395,-0.69165,-73.074341,-216.110214,48.866268,1.2376178902609642
0 days 00:00:13.180000,0.785645,0.316162,-0.806152,-86.013786,-240.386948,31.723021,1.169220904437224
0 days 00:00:13.190000,0.479004,0.298096,-0.834961,-98.350517,-232.894882,23.551939,1.007703294007219
0 days 00:00:13.200000,0.146973,0.272217,-0.765381,-109.420769,-205.772385,35.758972,0.8255369361688185
0 days 00:00:13.210000,-0.098633,0.344238,-1.340332,-101.554863,-45.326229,10.94818,1.3873421133797532
0 days 00:00:13.220000,-0.149658,0.362793,-1.164795,-126.075737,-106.239311,44.792171,1.229131266316987
0 days 00:00:13.230000,-0.0625,0.429932,-1.38623,-112.243645,-53.672787,22.90344,1.4527151777013967
0 days 00:00:13.240000,-0.035645,0.341309,-1.38916,-102.72979,-37.010193,10.803222,1.4309185529253576
0 days 00:00:13.250000,-0.113525,0.262695,-0.816406,-123.184196,-161.262497,46.600338,0.8651100192958119
0 days 00:00:13.260000,0.937744,0.384277,-0.547607,-60.592648,-169.593796,57.746883,1.1519140804391619
0 days 00:00:13.270000,0.392334,0.247559,-0.60498,64.949036,-108.657829,4.318237,0.7623727608178299
0 days 00:00:13.280000,0.788818,0.395996,-0.481934,-33.935547,-68.817139,54.084774,1.0056376332934245
0 days 00:00:13.290000,0.757568,0.390137,-0.525879,-33.454895,-16.784668,47.225948,1.0013315515022985
0 days 00:00:13.300000,0.704834,0.371826,-0.56543,-31.127928,33.554077,35.53772,0.9771164857538737
0 days 00:00:13.310000,0.620361,0.355957,-0.648926,-23.994444,68.16864,23.208616,0.9657422583929938
0 days 00:00:13.320000,0.453369,0.304932,-0.746582,-15.914916,87.799065,15.213012,0.9251549370289281
0 days 00:00:13.330000,0.304199,0.229492,-0.866699,-13.191222,79.727173,9.017944,0.9467685917192226
0 days 00:00:13.340000,0.169189,0.15625,-0.922119,-11.878966,21.240232,9.506226,0.9504432809915593
0 days 00:00:13.350000,-0.027832,0.016602,-0.842529,4.356384,-48.034664,20.400999,0.843152039948312
0 days 00:00:13.360000,0.04834,-0.067139,-0.853516,30.3421,-92.575066,23.41461,0.8575161591346254
0 days 00:00:13.370000,0.23584,0.050781,-0.75708,52.902218,-114.631645,14.450072,0.794587529452231
0 days 00:00:13.380000,-0.020996,0.412598,-1.239502,-94.116203,-61.94305,14.633178,1.3065386139046944
0 days 00:00:13.390000,0.858887,0.370605,-0.4729,-44.197079,-118.789665,59.211727,1.0481742959994773
0 days 00:00:13.400000,0.007324,0.376465,-1.08252,-72.685242,-78.491211,13.191222,1.1461365920347364
0 days 00:00:13.410000,0.224365,0.439453,-0.871094,-5.210876,-18.753052,-30.754087,1.0011310350148974
0 days 00:00:13.420000,0.059326,0.327637,-0.875488,-49.652096,-78.933716,-1.464844,0.9366668651067999
0 days 00:00:13.430000,0.570801,0.315186,-0.597168,68.405151,-81.573479,-0.175476,0.8841751050674296
0 days 00:00:13.440000,0.052979,0.493408,-1.010254,37.361145,33.813477,-3.65448,1.1255538074303688
0 days 00:00:13.450000,0.006348,0.448975,-0.929688,16.014099,24.002073,0.1297,1.0324430372049587
0 days 00:00:13.460000,-0.043945,0.425049,-0.841553,0.587463,19.264221,0.022888,0.943826926525727
0 days 00:00:13.470000,-0.098389,0.409424,-0.856934,-8.18634,12.664794,-5.958557,0.9548006532533375
0 days 00:00:13.480000,-0.104736,0.418945,-0.90918,-17.539978,2.464294,-11.756896,1.0065251189717026
0 days 00:00:13.490000,-0.044678,0.429199,-0.912842,-21.385191,-6.92749,-15.434264,1.0096971933451138
0 days 00:00:13.500000,0.013916,0.426025,-0.848633,-17.059326,-15.11383,-19.012451,0.9496677968479293
0 days 00:00:13.510000,0.053711,0.422607,-0.828613,-14.167785,-17.700195,-21.636961,0.9317086732122869
0 days 00:00:13.520000,0.094727,0.456787,-0.897705,-14.72473,-14.47296,-24.497984,1.0116826750137615
0 days 00:00:13.530000,-0.009766,0.322021,-0.959229,-55.52673,-86.09771,5.805969,1.01188594892804
0 days 00:00:13.540000,0.119629,0.455811,-0.945068,-14.137267,-13.587951,-27.465818,1.0560436970059526
0 days 00:00:13.550000,0.235352,0.425049,-0.919434,-7.034301,-15.655517,-35.896301,1.0399115811745727
0 days 00:00:13.560000,0.182373,0.435059,-0.798096,-2.288818,-22.132872,-23.712156,0.9270887065572528
0 days 00:00:13.570000,0.206787,0.422363,-0.785645,-1.937866,-21.942137,-17.234802,0.9156360811823658
0 days 00:00:13.580000,0.259766,0.416504,-0.802979,-0.907898,-19.40155,-10.498046,0.9411318883201227
0 days 00:00:13.590000,0.25293,0.418213,-0.795898,2.586365,-17.379761,-5.813598,0.9339857197371917
0 days 00:00:13.600000,0.181396,0.428467,-0.770264,1.190186,-16.242981,-3.242492,0.8998861642457894
0 days 00:00:13.610000,0.124023,0.443115,-0.786865,-8.209229,-16.670227,-3.601074,0.9115312040621539
0 days 00:00:13.620000,0.137695,0.45459,-0.848145,-20.240782,-23.307798,-5.615234,0.9720915194311697
0 days 00:00:13.630000,0.1521,0.417236,-0.897949,-30.34973,-39.352417,-7.125854,1.0017647909050307
0 days 00:00:13.640000,0.131836,0.363281,-0.882324,-42.564388,-60.958858,-5.447387,0.963249426074576
0 days 00:00:13.650000,0.195068,0.42749,-0.950684,-10.208129,-14.85443,-32.745361,1.0604712596671348
0 days 00:00:13.660000,0.591309,0.367188,-0.57959,65.704346,-51.200863,-10.002136,0.9057582066561694
0 days 00:00:13.670000,0.060791,0.499268,-0.988525,57.960506,49.072262,-3.410339,1.1091193610833778
0 days 00:00:13.680000,0.402832,0.387207,-0.640137,40.40527,-27.801512,-19.142151,0.8496930385980574
0 days 00:00:13.690000,0.425293,0.064697,-0.833008,-55.549618,-15.60974,-46.981808,0.9375298212441031
0 days 00:00:13.700000,0.509033,0.025391,-0.796143,-50.712582,-23.933409,-45.928951,0.9453057571066623
0 days 00:00:13.710000,0.556152,0.024902,-0.800781,-48.171993,-21.003721,-44.502254,0.9752821984784711
0 days 00:00:13.720000,0.619873,0.049561,-0.821045,-46.943661,-7.072448,-45.234676,1.0299581160780278
0 days 00:00:13.730000,0.637695,0.067139,-0.783203,-42.846676,8.674622,-47.027584,1.0122102042337846
0 days 00:00:13.740000,0.599365,0.069336,-0.736328,-38.696289,22.773741,-51.185604,0.9519584064994647
0 days 00:00:13.750000,0.575928,0.067871,-0.695068,-34.934998,36.247253,-55.404659,0.9052176856695853
0 days 00:00:13.760000,0.562988,0.046631,-0.726807,-33.966064,52.391048,-59.242245,0.9205315603247941
0 days 00:00:13.770000,0.565674,0.030518,-0.797607,-34.507751,70.678711,-61.088558,0.9783125007118124
0 days 00:00:13.780000,0.555908,0.019775,-0.813965,-35.148621,89.668266,-62.438961,0.9858822324770845
0 days 00:00:13.790000,0.438965,0.0896,-0.877197,-56.129452,-5.203247,-49.278255,0.9849837602894781
0 days 00:00:13.800000,0.584229,-0.000732,-0.807129,-35.171509,104.843132,-64.117432,0.9963841041014253
0 days 00:00:13.810000,0.598877,-0.052002,-0.807861,-31.211851,114.082329,-66.337585,1.0069743117150507
0 days 00:00:13.820000,0.549316,-0.067871,-0.779541,-25.032042,102.828972,-65.933228,0.9560537177261538
0 days 00:00:13.830000,0.517334,-0.06543,-0.7229,-18.455505,78.643799,-63.987728,0.8913472737693204
0 days 00:00:13.840000,0.488281,-0.066895,-0.698975,-13.450622,43.80035,-58.814999,0.8552539544550496
0 days 00:00:13.850000,0.423828,-0.087891,-0.702637,-11.100768,2.914428,-53.115841,0.8252598107468944
0 days 00:00:13.860000,0.382813,-0.112061,-0.673828,-11.016845,-44.273373,-47.660824,0.7830374411699609
0 days 00:00:13.870000,0.374268,-0.126465,-0.640625,-8.132935,-98.937981,-40.191647,0.7526422275384235
0 days 00:00:13.880000,0.303467,-0.113037,-0.646729,-2.578735,-167.15239,-31.181334,0.7232758691529809
0 days 00:00:13.890000,0.253662,-0.117432,-0.61377,-4.051208,-235.870346,-28.335569,0.6744244196112712
0 days 00:00:13.900000,0.324951,-0.204834,-0.587402,-8.865356,-249.992355,-30.052183,0.7018484377420812
0 days 00:00:13.910000,0.616211,-0.026367,-0.812012,-34.408569,113.746635,-65.750122,1.0196934359669085
0 days 00:00:13.920000,0.512939,0.103516,-0.860352,-53.38287,2.471924,-57.098385,1.0069893464585413
0 days 00:00:13.930000,0.479004,0.416016,-0.525146,54.176327,-35.766602,-15.808105,0.8235851295330678
0 days 00:00:13.940000,0.70874,0.140869,-0.657227,-45.631405,-12.550353,-60.93597,0.9767823669016553
0 days 00:00:13.950000,0.399414,0.334961,-0.765381,30.34973,-22.796629,-19.020081,0.9260337413280361
0 days 00:00:13.960000,0.410889,0.288818,-0.843506,22.300718,-14.038085,-20.324705,0.9817066667192396
0 days 00:00:13.970000,0.456299,0.258301,-0.883545,16.426086,0.595093,-22.224424,1.0274142061637068
0 days 00:00:13.980000,0.474854,0.263428,-0.887939,11.589049,15.754699,-24.719236,1.0408248172584087
0 days 00:00:13.990000,0.459961,0.282959,-0.820557,5.126953,25.787352,-29.113768,0.9823154826485226
0 days 00:00:14,0.469482,0.272461,-0.761719,0.175476,26.779173,-31.799314,0.9353417449285583
0 days 00:00:14.010000,0.625732,0.085693,-0.844238,-47.782894,-1.953125,-61.264034,1.0543346843943815
0 days 00:00:14.020000,0.511963,0.267334,-0.759277,-9.361267,15.99121,-30.952452,0.9539785865804327
0 days 00:00:14.030000,0.495361,0.250732,-0.750732,-15.1062,9.773254,-32.028198,0.9337277932936343
0 days 00:00:14.040000,0.483398,0.264893,-0.741211,-18.2724,-1.945495,-34.423828,0.9237075697286452
0 days 00:00:14.050000,0.421631,0.284912,-0.692139,-19.523621,-18.608093,-30.265806,0.8590715588506
0 days 00:00:14.060000,0.511475,0.263672,-0.752197,-3.623962,22.262571,-32.722473,0.9470638447422646
0 days 00:00:14.070000,0.516113,0.250732,-0.652832,-20.13397,-32.966614,-27.610777,0.8691540627627533
0 days 00:00:14.080000,0.460205,0.253906,-0.663574,-19.943237,-30.563353,-27.519224,0.8465148270036384
0 days 00:00:14.090000,0.627197,0.238525,-0.500977,-50.643917,-29.563902,-48.515316,0.8374056406324237
0 days 00:00:14.100000,0.528809,0.212891,-0.559814,-59.17358,-35.552979,-37.567139,0.7989701189393756
0 days 00:00:14.110000,0.377686,0.19873,-0.690918,-67.848206,-40.344234,-28.503416,0.8121009852352108
0 days 00:00:14.120000,0.360107,0.231201,-0.76416,-70.075989,-33.683777,-31.440733,0.8758261582357539
0 days 00:00:14.130000,0.648682,0.229004,-0.506348,-47.294613,-21.614073,-57.571407,0.8541776549664596
0 days 00:00:14.140000,0.458008,0.268311,-0.825195,-50.941463,-1.953125,-38.68866,0.9811773075290725
0 days 00:00:14.150000,0.600098,0.252686,-0.755127,-37.92572,-7.270813,-38.360596,0.9970880654831848
0 days 00:00:14.160000,0.568359,0.245605,-0.663818,-27.580259,-18.90564,-37.93335,0.9077489223513294
0 days 00:00:14.170000,0.498291,0.253418,-0.626221,-22.209166,-28.503416,-31.417845,0.8394446641953239
0 days 00:00:14.180000,0.365723,0.270264,-0.790039,-63.003536,-13.801574,-38.406372,0.9115687379161267
0 days 00:00:14.190000,0.55835,0.427002,-0.62915,-10.06317,-27.656553,-7.499694,0.9433531433159058
0 days 00:00:14.200000,0.605469,0.42041,-0.673096,-6.538391,-26.237486,-11.45935,0.9981961246553706
0 days 00:00:14.210000,0.642578,0.425537,-0.643066,-2.799988,-24.253843,-12.237548,1.0037540061235124
0 days 00:00:14.220000,0.69458,0.435791,-0.594238,0.823975,-19.287109,-11.245727,1.0126568879561328
0 days 00:00:14.230000,0.776367,0.452393,-0.562012,2.433777,-7.736206,-10.673522,1.0598408528085714
0 days 00:00:14.240000,0.88501,0.469238,-0.55957,3.494262,10.292052,-11.840819,1.147408203580574
0 days 00:00:14.250000,0.980957,0.509766,-0.516602,5.012512,27.511595,-12.725829,1.2202522841646313
0 days 00:00:14.260000,0.980957,0.548584,-0.494141,7.606506,38.002014,-13.946532,1.2277607131627888
0 days 00:00:14.270000,0.881348,0.57373,-0.552979,10.368346,36.842346,-12.062072,1.1881608411511464
0 days 00:00:14.280000,0.756836,0.589844,-0.66333,8.560181,27.038572,-1.731872,1.166500477553267
0 days 00:00:14.290000,0.375244,0.439697,-0.206543,-15.3656,14.205932,24.772642,0.6138416100216733
0 days 00:00:14.300000,0.448975,0.562256,-1.023193,-3.593445,18.65387,13.298034,1.250853418834517
0 days 00:00:14.310000,0.360596,0.521484,-1.171875,-11.489867,11.665343,17.944336,1.3323911036542535
0 days 00:00:14.320000,0.363037,0.489746,-1.198486,-18.180847,5.958557,16.212463,1.344624743220576
0 days 00:00:14.330000,0.490479,0.493652,-1.237305,-39.520264,29.113768,12.687682,1.4195723333349382
0 days 00:00:14.340000,0.719482,0.405518,-1.251465,-68.527222,87.776176,14.915465,1.4994211692759976
0 days 00:00:14.350000,0.834473,0.259521,-1.084717,-72.32666,158.370972,18.058777,1.3929491402269503
0 days 00:00:14.360000,0.693115,0.227539,-0.890869,-58.265682,200.294479,15.342711,1.1514469049448177
0 days 00:00:14.370000,0.427246,0.269775,-0.719482,-57.609554,188.003525,4.600525,0.8791882866968826
0 days 00:00:14.380000,0.212891,0.325684,-0.446533,-58.013912,132.255554,-4.631042,0.5922705174377668
0 days 00:00:14.390000,0.220459,0.349854,-0.327148,-36.697388,60.295101,9.529114,0.5272815243311679
0 days 00:00:14.400000,0.516113,0.42334,-0.52002,-13.206481,-30.654905,-2.540588,0.8461738502039637
0 days 00:00:14.410000,0.60791,0.580078,-0.828125,4.081726,20.561216,7.705688,1.1797610223299462
0 days 00:00:14.420000,0.524902,0.417236,-0.459229,-16.548157,-32.653809,0.679016,0.8127110579664829
0 days 00:00:14.430000,0.67041,0.454346,-0.590332,1.541138,6.332397,6.362915,1.0021834792292277
0 days 00:00:14.440000,0.620605,0.47583,-0.498779,-23.597715,-30.22003,5.126953,0.9275479749134272
0 days 00:00:14.450000,0.48999,0.581787,-0.079346,-17.417908,8.81958,17.456055,0.764762774450352
0 days 00:00:14.460000,0.649414,0.505615,-0.616455,0.267029,-3.105163,1.556396,1.0283004612689814
0 days 00:00:14.470000,0.652832,0.50708,-0.612549,-2.510071,4.600525,2.983093,1.0288517988636652
0 days 00:00:14.480000,0.661865,0.502441,-0.615234,-5.355834,9.910583,3.234863,1.033936705732996
0 days 00:00:14.490000,0.661133,0.478516,-0.614746,-6.896972,11.108397,2.471924,1.0217568450766552
0 days 00:00:14.500000,0.65625,0.447266,-0.581543,-4.295349,11.291503,1.396179,0.9843288058900846
0 days 00:00:14.510000,0.651367,0.434082,-0.549805,-0.442505,12.413024,1.197815,0.9565519794752401
0 days 00:00:14.520000,0.645264,0.447266,-0.546631,0.923157,12.672423,2.670288,0.9566702434031279
0 days 00:00:14.530000,0.615479,0.471436,-0.557373,1.403808,10.261535,4.104614,0.9548460413417442
0 days 00:00:14.540000,0.596924,0.480713,-0.546875,3.585815,4.03595,4.959106,0.9415282872914653
0 days 00:00:14.550000,0.570313,0.436035,-0.481445,-21.003721,-31.082151,2.868652,0.8643915358325762
0 days 00:00:14.560000,0.613525,0.487549,-0.520508,5.683898,-0.87738,5.485534,0.9407685853014013
0 days 00:00:14.570000,0.692383,0.491455,-0.565918,3.799438,2.525329,6.530761,1.0203849364029245
0 days 00:00:14.580000,0.650635,0.424072,-0.588379,0.305176,10.116576,6.744384,0.974347377504553
0 days 00:00:14.590000,0.604736,0.410889,-0.553467,1.213074,13.870238,7.637023,0.9169847981869711
0 days 00:00:14.600000,0.545166,0.413574,-0.51001,1.655578,14.305114,8.94165,0.8534398755225818
0 days 00:00:14.610000,0.520264,0.430176,-0.450195,3.044128,8.705139,9.284973,0.8114194714800724
0 days 00:00:14.620000,0.515381,0.467529,-0.402832,4.188538,0.160217,8.850098,0.8040364178480972
0 days 00:00:14.630000,0.555664,0.50293,-0.418945,3.791809,-12.947082,7.942199,0.8586128224182306
0 days 00:00:14.640000,0.608643,0.530762,-0.44458,0.106812,-27.084349,7.873535,0.9218492167881903
0 days 00:00:14.650000,0.664063,0.541992,-0.453857,-8.415222,-34.255981,8.155823,0.9699078164867009
0 days 00:00:14.660000,0.675537,0.518311,-0.476074,-19.004822,-33.38623,7.43103,0.9755219036833566
0 days 00:00:14.670000,0.669189,0.497314,-0.535889,5.455017,-0.663757,6.134033,0.9911166190908112
0 days 00:00:14.680000,0.599121,0.584229,-0.220703,-27.404783,12.832641,6.248474,0.865435908251443
0 days 00:00:14.690000,0.682129,0.370361,-0.532227,-24.772642,10.490417,-11.444091,0.9411337962750036
0 days 00:00:14.700000,-0.058838,0.488037,-0.702148,71.586609,72.937012,-1.647949,0.8571195001381079
0 days 00:00:14.710000,0.413086,0.416504,-0.884033,12.145995,-20.26367,-16.189575,1.0609571011596086
0 days 00:00:14.720000,0.504395,0.42041,-0.87085,14.35089,-11.283874,-18.157959,1.0906597116539147
0 days 00:00:14.730000,0.590088,0.450684,-0.835449,14.411925,9.674072,-18.478394,1.1177186350781667
0 days 00:00:14.740000,0.621826,0.505371,-0.800781,8.506775,38.459778,-17.066956,1.1328361010658161
0 days 00:00:14.750000,0.571777,0.533447,-0.713623,-3.135681,65.605164,-13.893126,1.058655952454337
0 days 00:00:14.760000,0.481689,0.481445,-0.66626,-10.2005,84.07592,-8.811951,0.9527412914039151
0 days 00:00:14.770000,0.460205,0.383301,-0.734619,-4.219055,96.30584,-5.332946,0.947825603044674
0 days 00:00:14.780000,0.50415,0.326416,-0.887451,9.384155,106.582634,-4.600525,1.0715800973128422
0 days 00:00:14.790000,0.466553,0.331543,-1.021973,21.316526,114.44091,-4.875183,1.1713331188807905
0 days 00:00:14.800000,0.348877,0.487793,-1.093994,22.796629,121.00219,-1.64032,1.247589693775161
0 days 00:00:14.810000,0.366699,0.433594,-0.874268,8.422852,-18.630981,-17.311096,1.0425048917204178
0 days 00:00:14.820000,0.421631,0.525879,-1.0,25.253294,121.063225,1.235962,1.205952496080173
0 days 00:00:14.830000,0.54126,0.440918,-0.720947,36.582947,113.510124,7.873535,1.0035614814912936
0 days 00:00:14.840000,0.355225,0.349854,-0.696533,45.143124,126.945488,13.908385,0.8565867393498454
0 days 00:00:14.850000,0.265137,0.29126,-0.780273,48.294064,143.333435,12.664794,0.8740457487443092
0 days 00:00:14.860000,0.349854,0.257324,-0.918945,50.315853,148.773193,10.749816,1.016402172034771
0 days 00:00:14.870000,0.392822,0.290527,-0.906006,48.08807,148.506165,10.627746,1.02935024819009
0 days 00:00:14.880000,0.334717,0.301514,-0.89917,44.68536,142.410278,6.538391,1.0057101228410699
0 days 00:00:14.890000,0.156738,0.33374,-0.772461,52.352901,127.250664,-2.243042,0.8559469520741341
0 days 00:00:14.900000,-0.060547,0.406006,-0.621338,56.098934,106.056206,5.775451,0.7446930384319433
0 days 00:00:14.910000,-0.125488,0.449463,-0.561768,67.703247,93.14727,2.532959,0.73030645097589
0 days 00:00:14.920000,0.680176,0.472656,-0.428955,-29.800413,12.229918,-1.708984,0.9327622834018322
0 days 00:00:14.930000,0.568359,0.495117,-0.867432,30.586241,115.249626,1.068115,1.149178433139954
0 days 00:00:14.940000,0.333252,0.437988,-0.88623,3.913879,-10.009766,-18.280029,1.0432133034753726
0 days 00:00:14.950000,0.379883,0.398926,-1.122559,24.627684,119.323723,-5.859375,1.250436626001494
0 days 00:00:14.960000,0.403809,0.418701,-0.82251,-2.998352,18.821716,-14.930724,1.0074199402344584
0 days 00:00:14.970000,0.338623,0.424072,-0.862305,-0.1297,3.227234,-16.50238,1.0188584348858285
0 days 00:00:14.980000,0.539063,0.352051,-0.436279,-17.311096,5.889892,-19.515991,0.7777327242767916
0 days 00:00:14.990000,0.55835,0.367676,-0.43042,-19.546509,7.583618,-16.807556,0.7951111493847889
0 days 00:00:15,0.572998,0.366943,-0.445557,-16.746521,12.260436,-12.046813,0.8133233757257933
0 days 00:00:15.010000,0.500977,0.369629,-0.409912,-16.014099,26.298521,-15.3656,0.7454068687059437
0 days 00:00:15.020000,0.527588,0.373291,-0.363525,-19.508362,47.126766,-21.789549,0.741515808361494
0 days 00:00:15.030000,0.700684,0.360596,-0.401611,-20.355223,60.661312,-17.280579,0.8844653404136309
0 days 00:00:15.040000,0.741455,0.345947,-0.474609,-18.997192,68.54248,-5.805969,0.9458797739221406
0 days 00:00:15.050000,0.669189,0.328857,-0.524902,-18.081665,74.829102,-1.724243,0.9118568713202747
0 days 00:00:15.060000,0.562744,0.324219,-0.566895,-17.601013,75.210571,-5.218505,0.8620723348547963
0 days 00:00:15.070000,0.472656,0.325195,-0.605713,-15.441894,66.474915,-5.249023,0.8342923472800167
0 days 00:00:15.080000,0.615967,0.334961,-0.522217,-18.264771,7.133483,-17.608643,0.874256719561823
0 days 00:00:15.090000,0.380371,0.30542,-0.711182,-8.926392,21.347044,-4.104614,0.8624055375315026
0 days 00:00:15.100000,0.418213,0.311768,-0.660156,-11.520385,47.08099,-3.456115,0.8413722978141127
0 days 00:00:15.110000,0.552734,0.428955,-0.743652,-11.260985,13.267516,-6.187438,1.0210463083939925
0 days 00:00:15.120000,0.562988,0.424072,-0.742676,-11.07788,0.740051,-8.407593,1.0238946187494102
0 days 00:00:15.130000,0.528809,0.375,-0.725342,-6.736755,-12.413024,-3.967285,0.9728231984512911
0 days 00:00:15.140000,0.574219,0.351563,-0.685059,-5.546569,-24.269102,-0.946045,0.9605362233726534
0 days 00:00:15.150000,0.505371,0.400879,-0.831543,-6.584167,24.215696,-11.695861,1.0524103672669707
0 days 00:00:15.160000,0.514648,0.367676,-0.642334,-8.789063,-27.793882,-1.045227,0.9014661238427099
0 days 00:00:15.170000,0.45752,0.36499,-0.632324,-10.345458,-21.202085,-1.266479,0.8616123789013247
0 days 00:00:15.180000,0.395264,0.336914,-0.695801,-9.498596,-3.822326,-4.486084,0.8682647664698827
0 days 00:00:15.190000,0.553955,0.357178,-0.656494,-6.637573,-27.290342,-1.831055,0.9302830954849174
0 days 00:00:15.200000,0.76416,0.182861,-0.45166,-16.906738,-14.60266,-16.960144,0.906297636828542
0 days 00:00:15.210000,0.758789,0.188477,-0.453613,-4.226685,-4.295349,-1.655578,0.9039076721762018
0 days 00:00:15.220000,0.765869,0.188721,-0.46167,-6.652832,-5.523681,-4.096985,0.9139530239033077
0 days 00:00:15.230000,0.751221,0.18457,-0.452148,-8.361816,-8.69751,-6.233215,0.8960116570921385
0 days 00:00:15.240000,0.733154,0.182129,-0.42749,-9.529114,-13.587951,-9.002686,0.8680054495548976
0 days 00:00:15.250000,0.734619,0.186279,-0.408936,-11.45935,-17.684937,-11.680602,0.8611582857396195
0 days 00:00:15.260000,0.74707,0.1875,-0.422363,-13.839721,-19.851685,-13.450622,0.8784419950508969
0 days 00:00:15.270000,0.72998,0.19458,-0.431152,-2.441406,-3.40271,2.090454,0.8698414935515549
0 days 00:00:15.280000,0.760986,0.182861,-0.441162,-16.067505,-20.065308,-14.335631,0.8984218094865017
0 days 00:00:15.290000,0.766113,0.179199,-0.457275,-16.891479,-18.257141,-15.144347,0.9100229865201208
0 days 00:00:15.300000,0.77417,0.189453,-0.44873,-16.906738,-9.475708,-19.432068,0.9146530713931923
0 days 00:00:15.310000,0.839844,0.270996,-0.38916,-6.362915,-20.347593,-22.293089,0.9644803170371079
0 days 00:00:15.320000,0.834473,0.231201,-0.477051,-18.882751,-3.181457,-22.78137,0.9886236628419329
0 days 00:00:15.330000,0.834229,0.242676,-0.470459,-16.387939,-7.873535,-23.529051,0.9880087732899946
0 days 00:00:15.340000,0.820313,0.25708,-0.433838,-10.635375,-15.457152,-23.193357,0.9629220916631833
0 days 00:00:15.350000,0.876709,0.275146,-0.392334,-4.066467,-16.975403,-21.224974,0.9991245966109533
0 days 00:00:15.360000,0.885986,0.279297,-0.451172,-2.799988,-7.995605,-19.515991,1.0327314171598538
0 days 00:00:15.370000,0.868164,0.293701,-0.507324,-4.180908,0.267029,-19.271851,1.0475431491222689
0 days 00:00:15.380000,0.861084,0.294922,-0.54248,-3.64685,5.348205,-19.622803,1.059589161675411
0 days 00:00:15.390000,0.89917,0.289063,-0.571289,-0.282288,8.163452,-17.906189,1.1038275356186764
0 days 00:00:15.400000,0.948486,0.287842,-0.595703,1.411438,11.848449,-13.412475,1.156434508897499
0 days 00:00:15.410000,0.700684,0.212158,-0.388916,-1.060486,-0.732422,5.889892,0.8289901928708204
0 days 00:00:15.420000,0.805908,0.211182,-0.461914,-18.043518,-4.28772,-21.453856,0.9526017452136019
0 days 00:00:15.430000,0.679199,0.22876,-0.357178,1.113892,4.386902,9.19342,0.8007612271364042
0 days 00:00:15.440000,0.956299,0.28125,-0.623291,3.280639,14.633178,-6.759643,1.1756279218281607
0 days 00:00:15.450000,0.703369,0.219238,-0.3125,5.981445,20.202635,13.71765,0.8002808886915893
0 days 00:00:15.460000,0.842529,0.222168,-0.384766,-2.830505,-11.497497,-8.842468,0.9525012392753093
0 days 00:00:15.470000,0.841553,0.242676,-0.380859,-1.853943,-12.420653,-8.552551,0.9550689350334876
0 days 00:00:15.480000,0.844727,0.257324,-0.371338,-1.296997,-13.763427,-7.904052,0.9579515936356074
0 days 00:00:15.490000,0.854492,0.270508,-0.373047,-1.396179,-14.663695,-6.843566,0.9708219302925744
0 days 00:00:15.500000,0.866211,0.2771,-0.398438,-1.518249,-14.579772,-5.203247,0.9929041979793418
0 days 00:00:15.510000,0.878418,0.275635,-0.43042,-1.083374,-13.168334,-3.280639,1.0162943532013744
0 days 00:00:15.520000,0.901611,0.269287,-0.455566,-0.022888,-8.911133,-1.335144,1.0454464424570014
0 days 00:00:15.530000,0.934326,0.261963,-0.473145,0.984192,-1.571655,-0.114441,1.0795628183065589
0 days 00:00:15.540000,0.952881,0.263672,-0.489502,1.815796,7.530212,0.213623,1.1032304073714612
0 days 00:00:15.550000,0.960693,0.280273,-0.493652,2.334595,16.365051,0.900268,1.1158746757060132
0 days 00:00:15.560000,0.677246,0.225586,-0.335693,4.089355,12.222289,11.901855,0.7888225264031195
0 days 00:00:15.570000,0.96875,0.299805,-0.474609,2.838135,23.803709,2.578735,1.1196487410817733
0 days 00:00:15.580000,0.948242,0.332764,-0.384033,4.806519,33.01239,10.002136,1.0758141639470082
0 days 00:00:15.590000,0.896729,0.321777,-0.369385,6.088256,35.209656,14.335631,1.0218163315366418
0 days 00:00:15.600000,0.846436,0.297607,-0.397461,6.683349,35.346985,16.944885,0.9813251627600302
0 days 00:00:15.610000,0.817139,0.279053,-0.439697,5.729675,35.728455,17.082214,0.9689789336920591
0 days 00:00:15.620000,0.814697,0.259521,-0.468018,5.882263,37.17041,16.311646,0.9747426324799793
0 days 00:00:15.630000,0.831055,0.247559,-0.456543,6.462097,37.811279,15.167235,0.9799843786280473
0 days 00:00:15.640000,0.828125,0.246582,-0.424561,5.836486,37.849426,14.282226,0.9627282799783125
0 days 00:00:15.650000,0.806396,0.243164,-0.38916,6.080627,36.102295,14.640807,0.9278193495029083
0 days 00:00:15.660000,0.779053,0.231689,-0.337646,6.896972,31.997679,15.274047,0.8801182823041457
0 days 00:00:15.670000,0.744141,0.220459,-0.301514,7.019042,26.863096,14.86206,0.8326215771633595
0 days 00:00:15.680000,0.967285,0.318848,-0.432617,3.875732,29.350279,5.783081,1.1065540145053923
0 days 00:00:15.690000,0.964111,0.282715,-0.596924,6.54602,13.618468,-0.228882,1.1686556607153367
0 days 00:00:15.700000,0.841064,0.230713,-0.382324,-2.632141,-11.604308,-8.956909,0.9522545780625054
0 days 00:00:15.710000,1.025879,0.276855,-0.445068,18.424988,7.507324,6.217956,1.1520251465527998
0 days 00:00:15.720000,0.492188,0.397461,-0.59375,20.652769,-2.723694,9.391785,0.8676193499254152
0 days 00:00:15.730000,0.492432,0.391113,-0.522949,18.707275,-13.359069,7.92694,0.8178840443449181
0 days 00:00:15.740000,0.496338,0.388916,-0.486572,18.379211,-24.993895,5.485534,0.7964668081495926
0 days 00:00:15.750000,0.515625,0.388428,-0.478027,17.875671,-35.667419,2.555847,0.80327782524977
0 days 00:00:15.760000,0.567139,0.387695,-0.498535,16.891479,-41.389462,0.366211,0.8488175331430189
0 days 00:00:15.770000,0.616455,0.394043,-0.542969,15.937804,-39.146423,-2.105713,0.9110993292912689
0 days 00:00:15.780000,0.642822,0.405518,-0.566895,14.648437,-32.63092,-4.638672,0.9481745161271737
0 days 00:00:15.790000,0.639893,0.420898,-0.557617,12.20703,-25.619505,-6.736755,0.9473937389185133
0 days 00:00:15.800000,0.64624,0.439209,-0.55127,10.2005,-20.843504,-8.69751,0.9562579652902244
0 days 00:00:15.810000,0.662842,0.456787,-0.547119,8.903503,-19.363403,-8.239746,0.9733206462898031
0 days 00:00:15.820000,0.503906,0.400146,-0.677979,23.658751,5.41687,11.238097,0.9347157870673845
0 days 00:00:15.830000,0.676025,0.47168,-0.537842,7.911682,-17.875671,-6.652832,0.9842590309410425
0 days 00:00:15.840000,0.678223,0.496094,-0.5625,5.043029,-5.722045,-3.211975,1.0111883823328867
0 days 00:00:15.850000,0.670654,0.48999,-0.60083,0.328064,1.289368,-2.578735,1.0251164210547015
0 days 00:00:15.860000,0.67749,0.45874,-0.634277,-3.501892,5.432128,-2.937317,1.0352499217237354
0 days 00:00:15.870000,0.685791,0.433105,-0.624512,-3.623962,6.660461,-1.831055,1.023672054346508
0 days 00:00:15.880000,0.667725,0.441406,-0.568604,-1.403808,7.972717,-0.617981,0.9818382969089157
0 days 00:00:15.890000,0.629883,0.464111,-0.525635,1.701355,7.637023,0.762939,0.9425729506170861
0 days 00:00:15.900000,0.591553,0.487793,-0.519775,4.173279,3.265381,1.602173,0.9263061120833652
0 days 00:00:15.910000,0.56958,0.498535,-0.538086,6.408691,-3.608703,0.62561,0.9287061246815378
0 days 00:00:15.920000,0.60498,0.501221,-0.576416,6.614685,-9.635925,0.061035,0.974411974627262
0 days 00:00:15.930000,0.643311,0.505615,-0.604248,3.715515,-9.185791,0.312805,1.0171584028311422
0 days 00:00:15.940000,0.681396,0.486328,-0.538086,7.17926,-13.130187,-5.020141,0.995164295880836
0 days 00:00:15.950000,0.532227,0.41333,-0.726807,24.810789,9.849548,13.153075,0.9911385794519352
0 days 00:00:15.960000,0.988281,0.281494,-0.524902,12.069701,10.604857,4.150391,1.1538892133133924
0 days 00:00:15.970000,0.531738,0.400879,-0.6875,27.664183,16.273499,17.89856,0.9571340153212611
0 days 00:00:15.980000,1.042725,0.28125,-0.386963,20.13397,7.690429,12.260436,1.1472215790744176
0 days 00:00:15.990000,1.036621,0.283447,-0.416504,17.227173,14.86206,20.202635,1.1525627451319083
0 days 00:00:16,0.98877,0.274414,-0.481201,18.516541,30.311583,25.169371,1.1333682361426052
0 days 00:00:16.010000,0.998047,0.264648,-0.54248,24.055479,45.333858,30.105589,1.1663708366180114
0 days 00:00:16.020000,1.036621,0.291748,-0.569336,24.757383,53.947445,37.002563,1.2181311399192618
0 days 00:00:16.030000,1.018066,0.330322,-0.571289,22.727964,61.035152,45.585629,1.213236220016943
0 days 00:00:16.040000,0.54834,0.414063,-0.730225,26.107786,12.123107,15.151977,1.002673164193597
0 days 00:00:16.050000,0.968994,0.343018,-0.471191,32.196045,70.846558,63.285824,1.1307659699694717
0 days 00:00:16.060000,0.97998,0.337402,-0.372803,34.492493,79.185486,68.588257,1.1014458619528242
0 days 00:00:16.070000,0.96875,0.34082,-0.330322,33.821106,88.24157,71.670532,1.0787712725985987
0 days 00:00:16.080000,0.895996,0.34375,-0.311279,33.088684,96.366875,75.248718,1.0088942017659732
0 days 00:00:16.090000,0.980225,0.343506,-0.54541,26.535032,65.704346,55.358883,1.173162175814154
0 days 00:00:16.100000,0.787842,0.318604,-0.252197,39.916992,101.387016,76.377869,0.8864574736494697
0 days 00:00:16.110000,0.837158,0.322998,-0.276855,35.942078,100.669853,76.652527,0.9390473449155798
0 days 00:00:16.120000,0.557861,0.37207,-0.637451,32.600403,21.087645,28.114317,0.9251966048478562
0 days 00:00:16.130000,0.561768,0.359619,-0.5896,31.547544,20.698545,34.454346,0.8902456239628477
0 days 00:00:16.140000,0.515137,0.3396,-0.483154,29.58679,23.54431,40.039063,0.7836657938719795
0 days 00:00:16.150000,0.414307,0.317627,-0.439697,29.258726,33.210754,48.309322,0.6825471801912304
0 days 00:00:16.160000,0.52417,0.387451,-0.650391,29.930113,20.072937,22.018431,0.9208044956352027
0 days 00:00:16.170000,0.34668,0.343506,-0.419678,28.541563,67.596436,64.888,0.6436715141436663
0 days 00:00:16.180000,0.426025,0.341553,-0.454834,33.554077,86.761467,72.761536,0.7106544307819378
0 days 00:00:16.190000,0.543457,0.33252,-0.40918,38.002014,99.868767,78.102112,0.7571943830014852
0 days 00:00:16.200000,0.663086,0.328857,-0.297852,40.611263,102.958672,78.170776,0.7978381939647913
0 days 00:00:16.210000,0.344238,0.327393,-0.411621,27.603148,48.362728,57.151791,0.6285839838350958
0 days 00:00:16.220000,0.880127,0.192627,-0.590088,18.287659,20.866392,-3.013611,1.0770016457749727
0 days 00:00:16.230000,0.836426,0.182861,-0.537842,18.463135,17.372131,-3.700256,1.011098717119649
0 days 00:00:16.240000,0.806152,0.164063,-0.539307,15.647887,8.392334,-0.160217,0.9836919006081122
0 days 00:00:16.250000,0.817139,0.153564,-0.584229,12.21466,1.480102,5.020141,1.0161798914847704
0 days 00:00:16.260000,0.816895,0.155518,-0.585938,8.888245,4.53186,10.398864,1.0172642867971922
0 days 00:00:16.270000,0.791992,0.172852,-0.544189,7.04956,8.674622,14.068603,0.9763558827031259
0 days 00:00:16.280000,0.765625,0.199951,-0.463623,5.020141,6.843566,16.212463,0.9171195827998658
0 days 00:00:16.290000,0.752197,0.209961,-0.396484,3.311157,2.5177,16.311646,0.875833038076322
0 days 00:00:16.300000,0.749268,0.20874,-0.373779,3.334045,-2.059937,15.716552,0.8629517160681703
0 days 00:00:16.310000,0.761719,0.204834,-0.374756,3.692627,-6.324768,15.441894,0.8732782271721883
0 days 00:00:16.320000,0.828857,0.234131,-0.403564,-0.602722,2.746582,-0.091553,0.9511493855888253
0 days 00:00:16.330000,0.800781,0.195068,-0.416748,4.295349,-10.337829,9.056091,0.9235695047417926
0 days 00:00:16.340000,0.82959,0.208496,-0.435303,3.723144,-9.635925,5.981445,0.9597806269794156
0 days 00:00:16.350000,0.85791,0.220947,-0.425537,1.716614,-7.492065,4.798889,0.9828066357519163
0 days 00:00:16.360000,0.8479,0.230957,-0.408203,0.083923,-3.494262,3.791809,0.9689712250928817
0 days 00:00:16.370000,0.829102,0.245605,-0.399658,-0.511169,-0.236511,2.380371,0.9526061407491555
0 days 00:00:16.380000,0.828125,0.254883,-0.397705,-1.411438,1.792908,0.823975,0.95337591029929
0 days 00:00:16.390000,0.841309,0.254883,-0.404297,-2.151489,3.723144,0.37384,0.967585779855719
0 days 00:00:16.400000,0.842773,0.256348,-0.406982,-1.937866,4.402161,1.045227,0.9703684738062135
0 days 00:00:16.410000,0.815674,0.252686,-0.394531,-1.739502,4.318237,1.205444,0.9406534956257804
0 days 00:00:16.420000,0.809082,0.237305,-0.391113,-1.251221,3.166198,0.717163,0.9294604480654354
0 days 00:00:16.430000,0.81958,0.215576,-0.61499,13.130187,20.843504,0.511169,1.0470898186287554
0 days 00:00:16.440000,0.779541,0.187744,-0.388672,4.081726,-9.399414,13.59558,0.8910656001670135
0 days 00:00:16.450000,0.851074,0.229736,-0.561035,16.540527,8.934021,7.408142,1.0449238510039858
0 days 00:00:16.460000,0.730469,-0.110107,-0.79126,-93.818657,-68.305969,100.723259,1.0824975284082639
0 days 00:00:16.470000,1.220703,0.019775,-0.608887,-8.651733,-81.069939,-0.076294,1.3642764542434207
0 days 00:00:16.480000,0.852051,0.240967,-0.409668,0.106812,4.051208,-0.50354,0.975645361754977
0 days 00:00:16.490000,0.591553,0.243164,-0.737793,-90.461723,-182.456955,149.681091,0.9764231631592933
0 days 00:00:16.500000,0.658203,0.237061,-0.670166,-95.466606,-165.2603,144.111633,0.9687887150901378
0 days 00:00:16.510000,0.759766,0.195313,-0.601074,-98.167412,-141.036987,137.878418,0.9882719748131078
0 days 00:00:16.520000,0.830322,0.14624,-0.562256,-100.112907,-113.861076,129.653931,1.0133866837589687
0 days 00:00:16.530000,0.86792,0.121826,-0.560547,-102.737419,-92.750542,121.170036,1.040355535326746
0 days 00:00:16.540000,0.820557,0.124512,-0.594238,-105.003349,-78.109741,117.614738,1.0207525797356576
0 days 00:00:16.550000,0.700195,0.125244,-0.648438,-106.712334,-69.511414,120.376579,0.9625128245405357
0 days 00:00:16.560000,0.621582,0.109863,-0.731934,-109.298698,-68.984985,122.077934,0.9665202749290881
0 days 00:00:16.570000,0.601563,0.097168,-0.804688,-113.082878,-74.562073,116.378777,1.0093772538238615
0 days 00:00:16.580000,1.246826,-0.041748,-0.503662,20.919798,-24.665831,1.159668,1.345359944410417
0 days 00:00:16.590000,0.63208,0.111328,-0.844482,-117.134087,-82.534782,107.467644,1.0606926502564256
0 days 00:00:16.600000,0.707031,0.027344,-0.791504,-111.267082,-85.105888,101.364128,1.0616586604521248
0 days 00:00:16.610000,0.684326,-0.187744,-0.841309,-69.190979,-45.845028,90.965263,1.1006137911606415
0 days 00:00:16.620000,0.634521,-0.155762,-0.799805,-41.694637,-35.15625,71.846008,1.0327471801510764
0 days 00:00:16.630000,0.715332,-0.079834,-0.67749,-15.968322,-41.839596,58.959957,0.9884665082237233
0 days 00:00:16.640000,0.75,0.026367,-0.561279,4.203796,-51.063534,51.002499,0.9371389088763736
0 days 00:00:16.650000,0.780762,0.178223,-0.518066,14.526366,-43.724056,41.839596,0.9538055979752897
0 days 00:00:16.660000,0.831299,0.219482,-0.549805,20.614622,-36.315918,44.143673,1.0205468699427773
0 days 00:00:16.670000,0.680176,0.204102,-0.535645,20.721434,-58.914181,48.301693,0.8895013116375939
0 days 00:00:16.680000,0.445801,0.38208,-0.421875,3.135681,-103.530876,47.897335,0.7229814476361064
0 days 00:00:16.690000,0.572998,0.419678,-0.539307,-22.338865,-116.996758,30.075071,0.8918006346359033
0 days 00:00:16.700000,0.679688,0.11084,-0.838867,-118.545525,-88.203423,102.111809,1.0853382544778378
0 days 00:00:16.710000,0.865479,0.243164,-0.411377,0.75531,4.173279,0.022888,0.988642334955367
0 days 00:00:16.720000,0.613281,0.215576,-0.781982,-83.656303,-194.725021,152.366638,1.016898443828586
0 days 00:00:16.730000,0.846436,0.240234,-0.415771,2.235413,3.593445,2.441406,0.9731555894578214
0 days 00:00:16.740000,0.884521,0.268799,-0.445557,2.670288,0.297546,2.14386,1.0262316220478689
0 days 00:00:16.750000,0.880859,0.264404,-0.424316,3.723144,1.861572,3.479004,1.0128504928927071
0 days 00:00:16.760000,0.869141,0.268799,-0.394287,4.234314,3.746032,4.432678,0.9915246939189161
0 days 00:00:16.770000,0.869873,0.26416,-0.377197,4.943848,6.057739,4.638672,0.9842444404404833
0 days 00:00:16.780000,0.880859,0.257813,-0.362549,4.295349,7.827758,4.989624,0.98682414758203
0 days 00:00:16.790000,0.880127,0.243896,-0.370117,2.754211,8.728027,5.584716,0.9854417225965217
0 days 00:00:16.800000,0.849121,0.231934,-0.394043,2.929687,8.087158,6.690979,0.9644012333287427
0 days 00:00:16.810000,0.819092,0.233398,-0.387207,3.082275,5.500793,7.67517,0.9355830223539758
0 days 00:00:16.820000,0.794434,0.23584,-0.372559,2.113342,3.341675,7.629394,0.9085956715927057
0 days 00:00:16.830000,0.793457,0.227539,-0.38623,0.938415,2.006531,6.843566,0.9113295892650474
0 days 00:00:16.840000,0.869141,0.277832,-0.436279,2.14386,-1.747131,1.121521,1.01140301756817
0 days 00:00:16.850000,0.791504,0.218994,-0.398926,0.419617,1.396179,5.15747,0.9130054257932972
0 days 00:00:16.860000,0.787109,0.215576,-0.408203,0.358582,-1.609802,2.853393,0.9124928925016347
0 days 00:00:16.870000,0.781494,0.2146,-0.396729,-0.099182,-4.005432,1.594543,0.902319196003831
0 days 00:00:16.880000,0.787354,0.215332,-0.394043,-0.564575,-5.104064,-0.297546,0.9064017196524949
0 days 00:00:16.890000,0.793701,0.214355,-0.389893,-0.724792,-6.41632,-1.586914,0.9099043328147195
0 days 00:00:16.900000,0.795166,0.216797,-0.380371,-1.13678,-8.705139,-2.464294,0.9077290368860083
0 days 00:00:16.910000,0.795654,0.219238,-0.373535,-2.120972,-10.940551,-3.547668,0.905902304106243
0 days 00:00:16.920000,0.803467,0.215576,-0.380615,-2.63977,-12.237548,-5.210876,0.9148223926478845
0 days 00:00:16.930000,0.821045,0.211914,-0.389404,-2.792358,-12.695312,-6.774902,0.9330905157791499
0 days 00:00:16.940000,0.834229,0.213623,-0.390381,-3.028869,-12.725829,-7.621765,0.945499939572182
0 days 00:00:16.950000,0.836426,0.218506,-0.391602,-2.883911,-11.978148,-8.285522,0.9490550310261254
0 days 00:00:16.960000,0.785645,0.213623,-0.407715,0.320435,0.862122,3.52478,0.910551686275414
0 days 00:00:16.970000,0.836914,0.281738,-0.423584,2.441406,-3.997802,0.938415,0.9794001986399636
0 days 00:00:16.980000,0.858643,0.243164,-0.422363,1.365662,3.814697,1.564026,0.987313038561732
0 days 00:00:16.990000,0.844727,0.281006,-0.412354,1.518249,-3.974914,-1.113892,0.9811034083525548
0 days 00:00:17,0.836182,0.23584,-0.405518,2.464294,4.585266,2.01416,0.958783443248787
0 days 00:00:17.010000,0.836182,0.231201,-0.410156,1.88446,6.011962,1.63269,0.959626064600686
0 days 00:00:17.020000,0.837158,0.227051,-0.406738,1.403808,6.92749,1.594543,0.9580299965079382
0 days 00:00:17.030000,0.828369,0.222656,-0.400146,1.38092,7.286071,1.38855,0.9465134525261646
0 days 00:00:17.040000,0.820557,0.224609,-0.385498,1.861572,6.431579,1.480102,0.9340084052801666
0 days 00:00:17.050000,0.825195,0.223633,-0.359375,1.914978,4.051208,1.693725,0.9274205612013354
0 days 00:00:17.060000,0.828857,0.286865,-0.414063,2.082825,-4.852295,0.679016,0.9699193897654587
0 days 00:00:17.070000,0.816406,0.217041,-0.374756,0.747681,-0.480652,0.114441,0.9241577852580153
0 days 00:00:17.080000,0.811768,0.224854,-0.387695,0.984192,-2.189636,-0.450134,0.9272723549017301
0 days 00:00:17.090000,0.818359,0.231445,-0.388428,1.045227,-2.410889,-1.266479,0.934962326561878
0 days 00:00:17.100000,0.826172,0.238525,-0.402344,-0.12207,-1.037598,-2.624511,0.9493866670356184
0 days 00:00:17.110000,0.824219,0.215576,-0.349854,1.190186,1.617432,1.075745,0.9209819721650365
0 days 00:00:17.120000,0.826172,0.224365,-0.446045,1.014709,-1.63269,-4.249573,0.9653268714969039
0 days 00:00:17.130000,0.811768,0.227783,-0.414795,1.777649,-3.257751,-4.768372,0.9396314559113057
0 days 00:00:17.140000,0.808105,0.233154,-0.388428,1.518249,-5.172729,-5.371093,0.9264290528286556
0 days 00:00:17.150000,0.810791,0.240479,-0.375732,2.037048,-8.132935,-4.615784,0.9254116548574478
0 days 00:00:17.160000,0.806396,0.246094,-0.358154,2.822876,-11.253356,-3.623962,0.9160300504721447
0 days 00:00:17.170000,0.81958,0.255127,-0.354736,2.044678,-12.08496,-4.188538,0.928783501266576
0 days 00:00:17.180000,0.854004,0.260498,-0.387451,0.061035,-9.292603,-5.28717,0.9732935412407708
0 days 00:00:17.190000,0.873779,0.253662,-0.438477,-0.114441,-5.554199,-5.516052,1.009998133965603
0 days 00:00:17.200000,0.867432,0.255615,-0.445068,0.854492,-3.295898,-4.737854,1.0079002071003855
0 days 00:00:17.210000,0.855957,0.267822,-0.426025,1.312256,-2.89154,-3.39508,0.9929190854032366
0 days 00:00:17.220000,0.830811,0.232178,-0.43335,-0.709534,-0.289917,-3.868103,0.9653733805657788
0 days 00:00:17.230000,0.045898,-0.333496,-1.039063,2.304077,9.025574,27.06146,1.0922353804876492
0 days 00:00:17.240000,0.050537,-0.339844,-1.064453,2.113342,10.513305,26.18408,1.1185294461541906
0 days 00:00:17.250000,0.032959,-0.338867,-1.091797,3.509521,13.763427,24.223326,1.1436510956489307
0 days 00:00:17.260000,0.013428,-0.33252,-1.111328,5.683898,19.920349,22.438047,1.1600861111003786
0 days 00:00:17.270000,0.083496,-0.3396,-1.141113,-1.152039,29.724119,14.831542,1.193498479590569
0 days 00:00:17.280000,0.025146,-0.337891,-1.126465,7.476806,32.440186,19.271851,1.176318853637057
0 days 00:00:17.290000,0.049805,-0.352539,-1.150879,5.310058,34.53064,18.218994,1.2046936362357858
0 days 00:00:17.300000,0.072998,-0.349121,-1.15918,1.655578,33.325195,16.593933,1.212811796217781
0 days 00:00:17.310000,0.00708,-0.327393,-1.111816,7.17163,27.19116,20.523069,1.1590388779954708
0 days 00:00:17.320000,0.030518,-0.324951,-1.02124,3.601074,7.667541,25.756834,1.0721266894938302
0 days 00:00:17.330000,0.072266,-0.305664,-0.828125,-9.735107,-67.398071,7.263183,0.8856883601340824
0 days 00:00:17.340000,0.045898,-0.341309,-0.965576,2.098083,4.364014,18.997192,1.0251514384036147
0 days 00:00:17.350000,0.063965,-0.352295,-0.967529,-0.030518,0.259399,15.480041,1.0316567520696989
0 days 00:00:17.360000,0.057129,-0.344971,-0.95459,-1.495361,-4.882813,13.153075,1.016617323077863
0 days 00:00:17.370000,0.049805,-0.322021,-0.956055,-5.004883,-10.19287,11.825561,1.0100590207958147
0 days 00:00:17.380000,0.071289,-0.304443,-0.948486,-8.995056,-14.427184,10.414123,0.9986958265488046
0 days 00:00:17.390000,0.063232,-0.269775,-0.928955,-10.536193,-18.516541,8.758545,0.9693989005945901
0 days 00:00:17.400000,0.031494,-0.24707,-0.910645,-8.758545,-26.206968,7.606506,0.9440920362766545
0 days 00:00:17.410000,0.036865,-0.227051,-0.87793,-5.859375,-38.30719,7.377624,0.907563920462906
0 days 00:00:17.420000,0.055664,-0.230469,-0.838867,-5.088806,-50.659176,7.385253,0.87172947899334
0 days 00:00:17.430000,0.064697,-0.256104,-0.826904,-7.04956,-60.333248,7.568359,0.8680698047052438
0 days 00:00:17.440000,0.076172,-0.333008,-1.111328,-4.325867,24.887083,14.175414,1.1626463027215113
0 days 00:00:17.450000,0.030518,-0.327637,-0.98877,3.921509,6.301879,22.789,1.0420861120814344
0 days 00:00:17.460000,0.072266,-0.351074,-1.085938,-7.446289,20.179747,15.823363,1.1435631456443496
0 days 00:00:17.470000,0.111572,-0.412598,-1.116211,-5.455017,-9.613037,25.367735,1.195245756030533
0 days 00:00:17.480000,0.104492,-0.394531,-1.142822,-14.999389,15.052794,20.797728,1.2135136635856227
0 days 00:00:17.490000,0.112305,-0.366943,-0.841553,-10.650634,-71.884155,7.019042,0.9249167692733222
0 days 00:00:17.500000,0.215332,-0.377686,-0.973877,10.520934,13.938903,3.456115,1.0665134766841908
0 days 00:00:17.510000,0.230957,-0.381592,-1.013428,6.660461,15.998839,2.952575,1.1072442826662054
0 days 00:00:17.520000,0.213623,-0.354004,-1.071289,0.923157,19.607544,3.14331,1.148309078456667
0 days 00:00:17.530000,0.171875,-0.321289,-1.103271,-2.677917,20.339964,5.844116,1.1618840461022777
0 days 00:00:17.540000,0.14209,-0.319824,-1.071533,-1.075745,16.50238,11.528014,1.1272355251521307
0 days 00:00:17.550000,0.114746,-0.345703,-1.02124,4.684448,12.756347,16.227722,1.084254742357625
0 days 00:00:17.560000,0.107666,-0.355957,-1.010986,9.048462,10.780334,17.494202,1.0772140203325429
0 days 00:00:17.570000,0.137207,-0.35498,-1.03418,7.057189,7.93457,18.15033,1.1019822292800372
0 days 00:00:17.580000,0.167969,-0.366943,-1.080078,1.663208,4.325867,19.813538,1.1530087754627023
0 days 00:00:17.590000,0.084717,-0.384766,-1.113525,-11.268615,17.166138,18.959045,1.1811688153985442
0 days 00:00:17.600000,0.175049,-0.37915,-1.126465,-2.098083,0.907898,20.912169,1.2013826497523594
0 days 00:00:17.610000,0.127197,-0.401123,-1.135742,-3.77655,-6.332397,23.216246,1.211193059962779
0 days 00:00:17.620000,0.111084,-0.406738,-1.117188,-5.40924,-8.666992,26.893614,1.1941040503423477
0 days 00:00:17.630000,0.123047,-0.375244,-1.12085,-2.861023,-3.036499,27.153013,1.188382659855402
0 days 00:00:17.640000,0.11792,-0.321533,-1.12915,-2.052307,3.814697,25.207518,1.1799442016421795
0 days 00:00:17.650000,0.08374,-0.280029,-1.150879,-4.066467,7.064819,23.361204,1.1874136183664055
0 days 00:00:17.660000,0.045654,-0.27832,-1.177002,-6.29425,5.607605,24.360655,1.2103222786183854
0 days 00:00:17.670000,0.04248,-0.294922,-1.182861,-8.102417,2.357483,26.275633,1.2198129700101568
0 days 00:00:17.680000,0.062012,-0.31958,-1.166992,-9.925842,2.296448,25.0473,1.2115474372091255
0 days 00:00:17.690000,0.096191,-0.358154,-1.164551,-11.169433,6.134033,21.911619,1.2221726669329502
0 days 00:00:17.700000,0.116455,-0.382568,-1.153809,-14.09912,11.299132,20.668028,1.2211450569567894
0 days 00:00:17.710000,0.150879,-0.384277,-1.142578,-3.295898,-2.227783,21.720884,1.2148735619207458
0 days 00:00:17.720000,0.187988,-0.340332,-0.981445,13.145446,15.594481,4.196167,1.0556512901488824
0 days 00:00:17.730000,0.167725,-0.378418,-0.869629,-13.549804,-71.426392,8.522034,0.9631128988804999
0 days 00:00:17.740000,0.186523,-0.244873,-0.89209,-15.213012,-58.181759,13.923644,0.9437045002319318
0 days 00:00:17.750000,0.423828,-0.02002,-0.54248,-5.41687,-54.687496,95.680229,0.6887056877825244
0 days 00:00:17.760000,0.432129,-0.015137,-0.545654,-10.94818,-42.121883,97.05352,0.6962060680042942
0 days 00:00:17.770000,0.450439,-0.037354,-0.565186,-15.174865,-31.143187,97.56469,0.7236890413934703
0 days 00:00:17.780000,0.434814,-0.063721,-0.583984,-17.692566,-26.847837,94.955437,0.7308631148806184
0 days 00:00:17.790000,0.445313,-0.080811,-0.606934,-20.233152,-30.6015,91.201775,0.7571016880485738
0 days 00:00:17.800000,0.49585,-0.062988,-0.616211,-25.360106,-39.31427,90.393059,0.7934423149574265
0 days 00:00:17.810000,0.534912,-0.040039,-0.650391,-32.745361,-49.713131,93.872063,0.8430554087045525
0 days 00:00:17.820000,0.542236,0.00415,-0.689941,-41.900631,-60.928341,100.387566,0.8775281680248219
0 days 00:00:17.830000,0.491943,0.026123,-0.699463,-51.177975,-68.893433,106.513969,0.8555342276887582
0 days 00:00:17.840000,0.483643,-0.003906,-0.678955,-61.126705,-70.854187,107.368462,0.8336100409124161
0 days 00:00:17.850000,0.420654,-0.045166,-0.556152,0.389099,-60.638424,94.581596,0.6987809401922751
0 days 00:00:17.860000,0.55835,-0.001953,-0.697998,-61.653133,-71.380615,105.072014,0.8938454814524712
0 days 00:00:17.870000,0.624023,0.029785,-0.722656,-64.460754,-75.164795,112.091057,0.9552609827110076
0 days 00:00:17.880000,0.594482,0.028076,-0.742188,-61.981197,-83.488457,117.248528,0.9513359750603357
0 days 00:00:17.890000,0.526123,0.022705,-0.713135,-56.358334,-96.015923,119.964592,0.8865001164010076
0 days 00:00:17.900000,0.507813,0.024902,-0.655518,-52.078243,-112.197868,121.803276,0.8295770011861466
0 days 00:00:17.910000,0.532471,0.032227,-0.623291,-50.941463,-132.255554,122.451775,0.8203996684854279
0 days 00:00:17.920000,0.582031,0.046387,-0.636963,-53.108212,-154.006958,122.367851,0.8640796850401009
0 days 00:00:17.930000,0.633545,0.072266,-0.689941,-59.028622,-173.995956,126.708977,0.9394786986738977
0 days 00:00:17.940000,0.684814,0.111328,-0.761475,-67.16156,-188.865646,138.137817,1.0301496560233372
0 days 00:00:17.950000,0.686523,0.166504,-0.80127,-75.775146,-197.448715,148.597717,1.0682092606062727
0 days 00:00:17.960000,0.200195,-0.323975,-0.907715,-17.272949,-65.124512,11.054992,0.9843700319874635
0 days 00:00:17.970000,0.599609,0.020996,-0.704346,-63.102718,-71.975708,106.094353,0.9252432505092917
0 days 00:00:17.980000,0.384766,-0.092285,-0.587891,6.118774,-58.410641,93.643181,0.7086446386320862
0 days 00:00:17.990000,0.443848,0.015381,-0.679688,-57.868954,-71.166992,108.77227,0.8119195770573585
0 days 00:00:18,0.339111,-0.164551,-0.645508,15.167235,-50.010677,94.03228,0.7474984147046734
0 days 00:00:18.010000,0.366455,-0.141602,-0.616699,10.932921,-53.688046,93.574516,0.7312031523660165
0 days 00:00:18.020000,0.143311,-0.205322,-0.772217,4.66156,-65.963745,22.705076,0.8117969336564409
0 days 00:00:18.030000,0.164307,-0.259766,-0.754395,8.857727,-74.882507,30.326841,0.8146084832789308
0 days 00:00:18.040000,0.227295,-0.365234,-0.743652,9.597778,-77.796936,36.209106,0.859114188501738
0 days 00:00:18.050000,0.28125,-0.463623,-0.77124,12.580871,-74.493408,40.260311,0.9427931831685038
0 days 00:00:18.060000,0.313721,-0.492432,-0.795166,16.830444,-64.987183,44.357296,0.986508544322349
0 days 00:00:18.070000,0.332275,-0.4646,-0.823242,21.972654,-51.147457,47.46246,1.00199162979987
