t,ax,ay,az,gx,gy,gz,acc_mag
0 days 00:01:55.540000,-0.463135,0.990723,0.114502,9.910583,30.258177,32.142639,1.0996075658879398
0 days 00:01:55.550000,-0.467041,0.983643,0.109863,9.490967,31.394957,33.782959,1.0944179850034446
0 days 00:01:55.560000,-0.462402,0.979004,0.104248,8.499146,30.3421,33.416748,1.087718753687735
0 days 00:01:55.570000,-0.462402,0.973633,0.104248,8.148193,30.143736,33.599854,1.0828871011315075
0 days 00:01:55.580000,-0.431641,0.971436,0.091309,7.095336,33.073425,32.524109,1.0669297954682866
0 days 00:01:55.590000,-0.412842,0.975586,0.078613,4.760742,38.223267,30.46417,1.062255413791335
0 days 00:01:55.600000,-0.427246,0.965088,0.091797,3.814697,39.154053,28.572081,1.0594152545008024
0 days 00:01:55.610000,-0.44165,1.003906,0.13916,10.147094,13.442992,17.14325,1.1055530222182923
0 days 00:01:55.620000,-0.340332,1.028809,0.143555,-13.046264,71.281433,-5.775451,1.0931065212183122
0 days 00:01:55.630000,-0.344238,1.019531,0.118896,3.433227,-68.412781,-3.364563,1.082626214083605
0 days 00:01:55.640000,-0.335449,1.017578,0.145508,-11.642455,67.344666,-5.813598,1.0812786855149787
0 days 00:01:55.650000,-0.291016,1.01001,0.098633,-0.488281,-7.339477,-7.957458,1.0557172827253516
0 days 00:01:55.660000,-0.287842,1.011963,0.100586,0.549316,-8.277893,-7.186889,1.0569009763118775
0 days 00:01:55.670000,-0.279785,1.013916,0.099609,1.113892,-8.087158,-6.614685,1.0565165659666675
0 days 00:01:55.680000,-0.2854,1.006592,0.104736,2.120972,-8.026123,-5.264282,1.051499046200233
0 days 00:01:55.690000,-0.290771,0.995117,0.111084,3.883362,-9.391785,-4.615784,1.0426625883697949
0 days 00:01:55.700000,-0.277588,1.008545,0.111084,4.898071,-9.643555,-5.111694,1.0519304966702887
0 days 00:01:55.710000,-0.298096,1.022705,0.110352,4.325867,-7.293701,-3.112793,1.0709641946139001
0 days 00:01:55.720000,-0.303711,1.009033,0.125488,6.050109,-7.522583,-0.778198,1.061195177502235
0 days 00:01:55.730000,-0.330566,1.030029,0.125488,5.744934,-11.840819,0.602722,1.08902748328084
0 days 00:01:55.740000,-0.321533,1.029297,0.133057,5.340576,-15.2359,2.754211,1.0865265526194008
0 days 00:01:55.750000,-0.297363,1.013428,0.096436,-1.403808,-5.722045,-8.94165,1.0605474845800162
0 days 00:01:55.760000,-0.307617,1.023682,0.15332,5.279541,-16.525269,4.79126,1.0798426173350448
0 days 00:01:55.770000,-0.299561,1.013672,0.1604,4.829407,-18.52417,6.774902,1.0691098523093872
0 days 00:01:55.780000,-0.327881,1.008789,0.155518,4.554749,-22.972105,7.461547,1.072076044413828
0 days 00:01:55.790000,-0.324951,1.001953,0.163574,4.03595,-25.817869,8.384705,1.0659546988901547
0 days 00:01:55.800000,-0.296631,1.008057,0.160889,3.196716,-27.359007,7.614135,1.0630400442744383
0 days 00:01:55.810000,-0.339111,0.990234,0.168457,2.89154,-29.411314,8.033752,1.0601591417924008
0 days 00:01:55.820000,-0.30957,0.994873,0.160156,2.349854,-26.977537,7.67517,1.0541611904092276
0 days 00:01:55.830000,-0.312012,0.993408,0.157959,0.663757,-22.766111,6.973266,1.0531675974359447
0 days 00:01:55.840000,-0.328369,0.988037,0.156006,-1.701355,-19.340515,6.385803,1.0527968396447627
0 days 00:01:55.850000,-0.344727,0.974609,0.169678,-2.700805,-15.403747,5.691528,1.0476115840778013
0 days 00:01:55.860000,-0.345947,0.977539,0.175293,-3.746032,-8.827209,5.302429,1.0516603345087234
0 days 00:01:55.870000,-0.305908,1.022217,0.147705,4.325867,-16.75415,5.676269,1.077183395053043
0 days 00:01:55.880000,-0.29541,1.011963,0.100098,-2.159119,-3.433227,-9.628296,1.0589408817648887
0 days 00:01:55.890000,-0.337158,1.021484,0.144287,-12.268065,69.68689,-5.767822,1.085321987978222
0 days 00:01:55.900000,-0.297363,1.013184,0.098877,-2.929687,0.778198,-10.009766,1.0605391236319386
0 days 00:01:55.910000,-0.338379,1.020508,0.144043,-10.795592,64.231873,-5.630493,1.0847512671363884
0 days 00:01:55.920000,-0.341797,1.019775,0.142334,-9.742737,60.417171,-5.310058,1.0849079257660532
0 days 00:01:55.930000,-0.343018,1.021973,0.146484,-8.743286,55.747982,-4.760742,1.087909795575442
0 days 00:01:55.940000,-0.345215,1.025146,0.146973,-7.507324,50.514217,-3.982544,1.0916495684376006
0 days 00:01:55.950000,-0.337158,1.025635,0.149414,-6.233215,45.021053,-3.27301,1.0899207372946897
0 days 00:01:55.960000,-0.328613,1.020752,0.14917,-4.882813,39.68811,-2.799988,1.0826693115503923
0 days 00:01:55.970000,-0.294434,1.012451,0.099121,-2.830505,-1.548767,-10.032654,1.0590436159091843
0 days 00:01:55.980000,-0.302979,1.013916,0.131104,-3.364563,30.433653,-3.463745,1.0663067983995038
0 days 00:01:55.990000,-0.292969,1.012207,0.122314,-2.914428,26.901243,-4.66156,1.060827299990908
0 days 00:01:56,-0.286621,1.007324,0.115723,-2.838135,24.459837,-6.088256,1.053681665089604
0 days 00:01:56.010000,-0.286377,1.003174,0.105469,-3.219604,23.170469,-7.827758,1.0485673895205783
0 days 00:01:56.020000,-0.316406,1.015625,0.141357,-3.952026,34.751892,-2.76947,1.0731210085120877
0 days 00:01:56.030000,-0.300781,0.992432,0.103271,-4.096985,23.551939,-11.093139,1.042139810210703
0 days 00:01:56.040000,-0.312744,0.994873,0.103271,-4.570007,24.276731,-11.726378,1.0479723255439526
0 days 00:01:56.050000,-0.323486,0.99585,0.106201,-4.646301,24.063108,-11.283874,1.0524443296901742
0 days 00:01:56.060000,-0.323975,0.997314,0.108643,-4.188538,21.728514,-10.292052,1.0542287781454271
0 days 00:01:56.070000,-0.313232,0.998291,0.101563,-3.479004,18.325806,-9.422302,1.0511965798431804
0 days 00:01:56.080000,-0.303711,1.00293,0.095947,-3.318786,15.426635,-9.086609,1.0522902561698462
0 days 00:01:56.090000,-0.298828,1.001953,0.092773,-3.570556,12.748717,-9.162903,1.0496736718247248
0 days 00:01:56.100000,-0.302002,1.005127,0.099854,-3.27301,9.750366,-9.45282,1.054256285468102
0 days 00:01:56.110000,-0.296875,1.01001,0.097412,-3.227234,6.500244,-9.811401,1.057234157350679
0 days 00:01:56.120000,-0.296631,1.009766,0.098633,-3.189087,3.608703,-9.918213,1.0570457859553672
0 days 00:01:56.130000,-0.293213,0.999268,0.103027,-3.768921,23.048399,-9.635925,1.0464821842353553
0 days 00:01:56.140000,-0.375732,0.993652,0.092041,-1.052856,2.494812,-3.990173,1.0662975094264264
0 days 00:01:56.150000,-0.376465,0.991943,0.094482,-0.793457,2.586365,-3.837585,1.065177759718067
0 days 00:01:56.160000,-0.37793,0.993652,0.096924,-0.907898,2.784729,-3.761291,1.0675062734148215
0 days 00:01:56.170000,-0.381348,0.99292,0.098145,-0.953674,3.181457,-3.746032,1.06815207930753
0 days 00:01:56.180000,-0.37915,0.994385,0.103027,-0.907898,5.554199,-3.135681,1.0691916635730003
0 days 00:01:56.190000,-0.378174,0.989014,0.098389,-0.854492,4.714966,-3.532409,1.0634118025454673
0 days 00:01:56.200000,-0.376709,0.990967,0.101318,-0.930786,5.233764,-3.39508,1.064983851001507
0 days 00:01:56.210000,-0.379395,0.993652,0.101563,-0.938415,5.355834,-3.219604,1.0684567871926314
0 days 00:01:56.220000,-0.382568,0.989746,0.098633,-0.907898,3.90625,-3.684997,1.0656847037604509
0 days 00:01:56.230000,-0.376465,0.993652,0.091309,-1.167297,2.250671,-4.058838,1.066493097403823
0 days 00:01:56.240000,-0.382324,0.99707,0.106934,-0.404358,-1.945495,-4.66156,1.0731985399878254
0 days 00:01:56.250000,-0.380615,0.995361,0.092529,-1.365662,1.365662,-4.127502,1.0696601864082818
0 days 00:01:56.260000,-0.375244,0.993652,0.095215,-1.411438,0.740051,-4.15802,1.0664043571108475
0 days 00:01:56.270000,-0.375244,0.993652,0.09375,-1.403808,-0.076294,-4.318237,1.066274551482872
0 days 00:01:56.280000,-0.378174,0.991943,0.096924,-1.403808,-0.930786,-4.295349,1.0660022285628674
0 days 00:01:56.290000,-0.377197,0.990967,0.097412,-1.281738,-1.686096,-4.188538,1.0647921250845163
0 days 00:01:56.300000,-0.372803,0.992676,0.099609,-1.235962,-2.319336,-4.196167,1.0650397507445437
0 days 00:01:56.310000,-0.378174,0.994873,0.102539,-1.00708,-2.731323,-4.211426,1.069253060283673
0 days 00:01:56.320000,-0.378418,0.992432,0.104248,-0.808716,-2.922058,-4.150391,1.0672343242474915
0 days 00:01:56.330000,-0.377686,0.994629,0.103027,-0.610352,-3.112793,-4.249573,1.0689004279941139
0 days 00:01:56.340000,-0.382324,0.998779,0.103516,-0.556946,-2.906799,-4.432678,1.0744518109589651
0 days 00:01:56.350000,-0.378418,0.994629,0.106201,-1.144409,5.615234,-3.059387,1.0694698138638603
0 days 00:01:56.360000,-0.37915,0.993652,0.093262,-1.274109,1.823425,-4.089355,1.0676126733268017
0 days 00:01:56.370000,-0.380371,0.995605,0.109863,-1.274109,5.683898,-2.792358,1.0714388888009432
0 days 00:01:56.380000,-0.56665,0.996094,0.258789,-54.718014,117.72155,-27.229307,1.1748477458194317
0 days 00:01:56.390000,-0.37085,0.984375,0.175781,-3.14331,5.91278,-2.922058,1.0665002686760092
0 days 00:01:56.400000,-0.382813,0.997803,0.110352,-0.358582,-0.488281,-4.760742,1.074399452569667
0 days 00:01:56.410000,-1.044189,1.115234,0.331787,-127.098076,210.334763,-193.206772,1.5633810014983551
0 days 00:01:56.420000,-1.001709,1.144043,0.338379,-128.479004,222.84697,-184.547409,1.557804754830014
0 days 00:01:56.430000,-0.981689,1.167725,0.354004,-128.448486,231.254562,-175.804123,1.5660823095744363
0 days 00:01:56.440000,-0.978271,1.172607,0.404297,-125.457756,233.909592,-164.337143,1.5797080078606298
0 days 00:01:56.450000,-0.965332,1.157471,0.43335,-118.965141,231.369003,-149.375916,1.568246539471712
0 days 00:01:56.460000,-0.939209,1.146973,0.419189,-111.480705,224.716171,-133.872986,1.5405778221599193
0 days 00:01:56.470000,-0.900635,1.125732,0.38916,-104.003899,216.766342,-116.58477,1.4932720598233262
0 days 00:01:56.480000,-0.85791,1.093506,0.347656,-96.336357,206.283554,-98.091118,1.4327001202177656
0 days 00:01:56.490000,-0.790039,1.074219,0.325439,-88.99688,194.900497,-80.032349,1.3725955792596012
0 days 00:01:56.500000,-0.377441,0.994629,0.129395,-1.472473,5.599975,-2.815246,1.071677013911841
0 days 00:01:56.510000,-0.705566,1.054932,0.308594,-79.673767,180.946335,-62.171932,1.3061145285984685
0 days 00:01:56.520000,-0.602051,1.018555,0.275146,-62.744137,139.10675,-35.942078,1.2147530678874616
0 days 00:01:56.530000,-0.525391,0.98291,0.246094,-47.554012,99.014275,-20.545958,1.1413632321995484
0 days 00:01:56.540000,-0.484375,0.986816,0.234131,-40.695187,84.419243,-15.464782,1.1239405160603475
0 days 00:01:56.550000,-0.454102,0.989502,0.235352,-33.859253,72.013855,-11.093139,1.113873151804998
0 days 00:01:56.560000,-0.430176,0.969727,0.205811,-26.748655,59.43298,-7.17926,1.0806387061483593
0 days 00:01:56.570000,-0.410645,0.974609,0.103271,-23.498533,47.416683,-3.860473,1.0626179550275818
0 days 00:01:56.580000,-0.383301,0.984131,0.074463,-22.811888,35.774231,-1.51062,1.0587625891251542
0 days 00:01:56.590000,-0.351563,0.980469,0.134521,-19.386292,23.902891,-1.815796,1.05024373474494
0 days 00:01:56.600000,-0.359375,0.978271,0.190186,-13.09204,14.442443,-2.5177,1.059403254035969
0 days 00:01:56.610000,-0.362549,0.981445,0.200928,-7.369995,8.270264,-2.746582,1.0653863743309278
0 days 00:01:56.620000,-0.653809,1.040283,0.289063,-71.037292,160.644516,-47.599789,1.2622251568317755
0 days 00:01:56.630000,-0.38208,0.995361,0.108887,-0.358582,1.396179,-4.829407,1.0717205911477115
0 days 00:01:56.640000,-0.381836,0.995605,0.104248,-0.366211,3.65448,-4.814148,1.0713989417695913
0 days 00:01:56.650000,-0.385742,0.994141,0.106201,-0.488281,5.714416,-4.600525,1.0716304730857555
0 days 00:01:56.660000,-0.320313,0.999023,0.072998,1.014709,-18.699646,-5.859375,1.0516539737489703
0 days 00:01:56.670000,-0.300781,0.994385,0.068848,0.480652,-18.615723,-7.850646,1.0411583862650293
0 days 00:01:56.680000,-0.307129,1.001953,0.061768,-1.106262,-19.142151,-9.742737,1.0497872749628852
0 days 00:01:56.690000,-0.335693,0.989502,0.06958,-1.274109,-21.90399,-10.276793,1.0472083721270566
0 days 00:01:56.700000,-0.326904,0.993652,0.0625,-1.403808,-23.391722,-10.57434,1.047910670009615
0 days 00:01:56.710000,-0.32666,0.994141,0.057617,-2.487183,-25.199888,-11.360168,1.0480185123221823
0 days 00:01:56.720000,-0.347168,0.987061,0.062256,-2.044678,-28.152464,-12.031554,1.0481845483887844
0 days 00:01:56.730000,-0.346436,0.998047,0.057129,-2.349854,-30.883787,-11.909484,1.0580072962631213
0 days 00:01:56.740000,-0.345703,0.998535,0.054443,-3.196716,-32.821655,-12.077331,1.058086362582469
0 days 00:01:56.750000,-0.354004,0.99707,0.057373,-3.784179,-34.40094,-11.917113,1.0596032644556168
0 days 00:01:56.760000,-0.324707,1.001709,0.074951,0.938415,-15.594481,-4.745483,1.0556861318265955
0 days 00:01:56.770000,-0.34668,0.995117,0.056152,-3.822326,-35.957336,-11.970519,1.0552714879086804
0 days 00:01:56.780000,-0.362305,1.00293,0.053955,-3.578186,-41.702267,-11.291503,1.0677287295703906
0 days 00:01:56.790000,-0.374023,0.998291,0.063232,-2.883911,-46.485897,-10.963439,1.0679309018068537
0 days 00:01:56.800000,-0.364014,1.009521,0.062744,-2.838135,-49.804684,-10.482787,1.0749770468121633
0 days 00:01:56.810000,-0.369385,1.007568,0.067139,-3.036499,-52.612301,-9.757996,1.0752423904264563
0 days 00:01:56.820000,-0.369385,1.004639,0.075439,-2.494812,-55.427547,-8.94928,1.0730497850831526
0 days 00:01:56.830000,-0.374512,1.006836,0.079346,-2.037048,-58.906551,-7.781982,1.077160042313119
0 days 00:01:56.840000,-0.376709,1.003662,0.088867,-1.487732,-63.255306,-6.195068,1.0757064769787341
0 days 00:01:56.850000,-0.370605,1.005859,0.096191,-0.389099,-66.261292,-5.081176,1.0762681368446247
0 days 00:01:56.860000,-0.3479,1.009521,0.099609,0.015259,-67.359924,-4.501343,1.072422030882432
0 days 00:01:56.870000,-0.349609,1.01416,0.103027,0.473022,-67.871094,-4.074097,1.0776648464202587
0 days 00:01:56.880000,-0.358398,0.998047,0.054688,-3.593445,-38.108826,-11.695861,1.0618557896235252
0 days 00:01:56.890000,-0.332275,1.001465,0.077881,0.953674,-10.162353,-3.540039,1.0580190319701248
0 days 00:01:56.900000,-0.347656,1.015625,0.110352,1.670837,-68.79425,-3.456115,1.0791368767978418
0 days 00:01:56.910000,-0.338867,0.999512,0.094482,0.190735,-0.274658,-0.686645,1.0596140477348344
0 days 00:01:56.920000,-0.389648,0.991699,0.10498,-0.434875,7.247924,-4.264832,1.0706602032881394
0 days 00:01:56.930000,-0.389404,0.989014,0.106934,-0.030518,8.720398,-3.822326,1.0682785440923168
0 days 00:01:56.940000,-0.388672,0.991211,0.106689,0.236511,10.31494,-3.700256,1.0700222954807999
0 days 00:01:56.950000,-0.392822,0.991211,0.107666,0.282288,11.520385,-3.036499,1.0716344235610389
0 days 00:01:56.960000,-0.392578,0.989014,0.110596,0.648498,12.008666,-2.449036,1.0698119710939862
0 days 00:01:56.970000,-0.391602,0.987549,0.108154,1.25885,12.557982,-2.128601,1.0678494470294022
0 days 00:01:56.980000,-0.328369,0.995605,0.088867,0.778198,-4.623413,-2.26593,1.052118272759769
0 days 00:01:56.990000,-0.388428,0.990723,0.100342,1.815796,15.136718,-0.961304,1.068867106275144
0 days 00:01:57,-0.391602,0.989502,0.100098,1.747131,16.349792,-0.534058,1.0688713411875164
0 days 00:01:57.010000,-0.391357,0.990234,0.097168,1.907349,17.349243,-0.015259,1.0691890835717506
0 days 00:01:57.020000,-0.382324,0.991699,0.100098,2.166748,18.165588,0.137329,1.0675477306336236
0 days 00:01:57.030000,-0.393799,0.987549,0.105713,1.953125,13.664245,-1.571655,1.068412803260519
0 days 00:01:57.040000,-0.375488,0.993896,0.098877,1.686096,20.111082,0.343323,1.0670506820620096
0 days 00:01:57.050000,-0.373047,0.994629,0.099609,1.327515,20.690916,0.473022,1.0669455772114151
0 days 00:01:57.060000,-0.372803,0.991699,0.100586,1.174927,21.034239,0.709534,1.0642210892507251
0 days 00:01:57.070000,-0.368408,0.992676,0.10083,0.831604,21.01898,1.091003,1.0636243624231254
0 days 00:01:57.080000,-0.362305,0.993164,0.099365,0.640869,20.248411,1.228333,1.0618441727230978
0 days 00:01:57.090000,-0.360107,0.996338,0.096436,0.427246,18.386841,1.083374,1.0637980841254604
0 days 00:01:57.100000,-0.356689,0.998047,0.094727,-0.053406,15.60974,1.144409,1.0640949494565792
0 days 00:01:57.110000,-0.354736,0.99707,0.097412,-0.007629,12.382506,0.915527,1.0627677603032566
0 days 00:01:57.120000,-0.349609,0.999268,0.098633,0.343323,8.43811,0.25177,1.063245718258014
0 days 00:01:57.130000,-0.345215,1.000732,0.098877,0.297546,4.051208,-0.221252,1.0632095716169978
0 days 00:01:57.140000,-0.378418,0.994141,0.099121,1.907349,19.317627,0.190735,1.0683358475900733
0 days 00:01:57.150000,-0.753906,-0.387939,0.883057,-40.077209,-61.56921,37.376404,1.2241979373475516
0 days 00:01:57.160000,-1.103271,-0.507813,0.627197,-43.403622,-48.599239,32.913208,1.3669151470442484
0 days 00:01:57.170000,-1.287598,-0.611816,0.389893,-48.240658,-15.594481,22.315977,1.4779187998361074
0 days 00:01:57.180000,-1.211426,-0.62793,0.156006,-58.41827,0.328064,10.787963,1.3733852010313783
0 days 00:01:57.190000,-1.066895,-0.572021,0.848145,-97.236626,-44.876095,-1.571655,1.4781146459226362
0 days 00:01:57.200000,-1.175049,-0.698242,0.36499,-69.480896,2.250671,0.640869,1.414743702253168
0 days 00:01:57.210000,-1.062012,-0.644287,0.526611,-78.552246,-16.113281,-2.983093,1.3491828533723662
0 days 00:01:57.220000,-1.047363,-0.598389,0.721924,-86.257927,-33.973694,-1.663208,1.4057784003412486
0 days 00:01:57.230000,-1.237793,-0.667236,0.181396,-62.400814,8.308411,5.393981,1.4178292913327049
0 days 00:01:57.240000,-0.496094,-0.413086,1.146973,-14.877318,-36.087036,30.09033,1.3161673005211
0 days 00:01:57.250000,-0.312744,1.913818,1.977783,202.667221,147.140503,-144.538879,2.769861682782915
0 days 00:01:57.260000,-0.55835,-0.199219,1.360352,43.235775,33.676147,22.445677,1.4839139113725566
0 days 00:01:57.270000,-0.488281,0.064453,1.19751,29.594419,81.977837,43.693539,1.294836948912874
0 days 00:01:57.280000,-0.496826,0.094727,1.008789,20.011902,108.634941,56.411739,1.128478854620679
0 days 00:01:57.290000,-0.800049,-0.178955,0.874023,28.427122,82.923882,29.075621,1.198340310160265
0 days 00:01:57.300000,-0.924316,-0.411865,0.41748,52.337643,20.278929,-53.947445,1.0946608591161922
0 days 00:01:57.310000,-0.248291,-0.181396,-0.529297,32.37915,-104.171745,-98.1903,0.6121341713268423
0 days 00:01:57.320000,-1.138916,-0.621338,0.047363,52.841183,-166.526779,-10.864257,1.298242588682485
0 days 00:01:57.330000,-1.719238,-1.573486,0.178955,55.450436,-103.263847,127.55584,2.337447835752704
0 days 00:01:57.340000,0.94873,-2.053223,-0.14502,10.017395,-112.884514,97.099297,2.2664606992023932
0 days 00:01:57.350000,-0.253662,-0.336182,5.313965,-95.375053,91.842644,-178.74144,5.330627239696375
0 days 00:01:57.360000,-1.078369,-0.546631,0.876465,-110.992424,-50.918575,-3.723144,1.4932769490442823
0 days 00:01:57.370000,-0.531738,-0.420898,1.350342,28.640745,-1.602173,20.904539,1.5110671540378342
0 days 00:01:57.380000,-1.079102,-0.517334,0.813965,-123.802177,-55.610653,-8.522034,1.4472852570191543
0 days 00:01:57.390000,-0.675781,-0.560303,-0.052734,-88.958733,-54.542538,-16.00647,0.8794317975408895
0 days 00:01:57.400000,-0.961182,-0.487061,0.555176,-136.962891,-68.519592,-21.217344,1.2121549594919785
0 days 00:01:57.410000,-1.02832,0.212158,-0.189453,249.908432,126.747124,-116.043083,1.0669327432284568
0 days 00:01:57.420000,-0.898193,-0.74292,-0.697021,39.726257,49.354549,2.380371,1.3581307249635435
0 days 00:01:57.430000,-0.847412,-0.769531,-0.617676,23.475645,37.666321,2.578735,1.300695467310085
0 days 00:01:57.440000,-0.818359,-0.781494,-0.54126,10.307311,27.046202,1.716614,1.2543550982544776
0 days 00:01:57.450000,-0.793945,-0.759277,-0.483643,-0.366211,16.525269,0.083923,1.2003169486443988
0 days 00:01:57.460000,-0.786865,-0.7146,-0.391602,-10.505675,3.814697,0.37384,1.1327673259010431
0 days 00:01:57.470000,-0.739014,-0.672852,-0.316162,-21.347044,-9.307861,2.166748,1.0482508842562452
0 days 00:01:57.480000,-0.665283,-0.648926,-0.263916,-32.012939,-19.950867,1.88446,0.9661045898974914
0 days 00:01:57.490000,-0.638184,-0.64209,-0.231201,-41.824337,-27.381895,-0.579834,0.9343512660434512
0 days 00:01:57.500000,-0.642578,-0.643555,-0.209473,-51.094051,-33.187866,-3.936767,0.9332461957265081
0 days 00:01:57.510000,-1.016846,-0.495361,0.695068,-132.209778,-61.614986,-15.853881,1.3275834560060622
0 days 00:01:57.520000,-0.6521,-0.640625,-0.190918,-60.623165,-37.742615,-6.889343,0.9338546371620157
0 days 00:01:57.530000,-0.643311,-0.591064,-0.119385,-80.390923,-48.942562,-13.160705,0.8817360563354547
0 days 00:01:57.540000,-0.707275,-0.529053,0.001709,-97.30529,-57.449337,-16.838074,0.883254166769113
0 days 00:01:57.550000,-0.711426,-0.502686,0.049316,-105.62896,-57.655331,-17.181396,0.8724976996691739
0 days 00:01:57.560000,-0.717285,-0.479004,0.085938,-113.677971,-56.831356,-18.814087,0.8667917530093373
0 days 00:01:57.570000,-0.770752,-0.463135,0.120605,-121.719353,-56.236263,-19.256592,0.9072476176623447
0 days 00:01:57.580000,-0.812012,-0.455811,0.181641,-128.593445,-59.577938,-19.378662,0.948746862311544
0 days 00:01:57.590000,-0.844482,-0.45874,0.238525,-133.361816,-66.505432,-21.102903,0.99019513811622
0 days 00:01:57.600000,-0.888184,-0.461914,0.281738,-136.268616,-73.509216,-24.009703,1.0400056066656564
0 days 00:01:57.610000,-0.939453,-0.471436,0.346191,-138.137817,-77.087402,-25.604246,1.106649018336889
0 days 00:01:57.620000,-0.959473,-0.485352,0.436523,-138.793945,-74.905396,-24.246214,1.1604771997596506
0 days 00:01:57.630000,-0.644287,-0.624023,-0.168457,-70.655823,-42.701717,-9.803772,0.9126270890933493
0 days 00:01:57.640000,-1.11377,0.12915,-0.443115,249.992355,126.472466,-112.853996,1.20561778297477
0 days 00:01:57.650000,-0.960693,-0.69043,-0.763184,58.54797,60.302731,-0.869751,1.4078616562024127
0 days 00:01:57.660000,-1.179688,-0.052002,-0.789307,201.957687,115.722649,-102.310173,1.4203427493379899
0 days 00:01:57.670000,-0.963135,0.200684,0.077637,-24.307249,-86.814873,-216.41539,0.9868792225242154
0 days 00:01:57.680000,-0.936523,0.265869,0.05835,-27.099607,-78.24707,-218.475327,0.9752775898122544
0 days 00:01:57.690000,-0.903076,0.296631,0.043701,-30.960081,-66.246033,-224.044785,0.9515492574417784
0 days 00:01:57.700000,-0.943604,0.331543,0.013672,-35.40802,-50.811764,-228.927597,1.0002480658561654
0 days 00:01:57.710000,-0.992188,0.376709,-0.009033,-40.786739,-36.209106,-233.535751,1.061333262040722
0 days 00:01:57.720000,-1.084473,0.416016,-0.011475,-46.470638,-23.590086,-235.374435,1.1615862755774968
0 days 00:01:57.730000,-1.110107,0.445313,0.031982,-51.727291,-17.127991,-235.252365,1.1965216536870529
0 days 00:01:57.740000,-1.13501,0.488281,0.074219,-55.953976,-14.831542,-234.18425,1.237810363109794
0 days 00:01:57.750000,-1.144287,0.526123,0.126221,-59.585567,-15.296935,-231.903061,1.2657526971486177
0 days 00:01:57.760000,-1.118652,0.581055,0.152344,-64.239502,-16.12854,-231.513962,1.269730642484854
0 days 00:01:57.770000,-0.948486,0.165283,0.071777,-24.42169,-88.333122,-214.492783,0.9654512416554241
0 days 00:01:57.780000,-1.138672,0.626953,0.178467,-69.229126,-14.86206,-230.918869,1.312057337878951
0 days 00:01:57.790000,-1.14917,0.712891,0.200195,-79.76532,-12.229918,-230.522141,1.367071067942702
0 days 00:01:57.800000,-1.161133,0.758057,0.206543,-82.572929,-7.965087,-230.964645,1.4019772714944418
0 days 00:01:57.810000,-1.167725,0.83374,0.208984,-86.769096,6.889343,-230.895981,1.4499580599041477
0 days 00:01:57.820000,-1.148438,0.884766,0.212891,-93.322746,32.066345,-229.65239,1.465279254094932
0 days 00:01:57.830000,-1.102295,0.924805,0.230957,-100.372307,66.047668,-226.806625,1.4572781789689297
0 days 00:01:57.840000,-1.072754,0.971191,0.237793,-107.666008,103.965752,-224.662766,1.466478303230566
0 days 00:01:57.850000,-1.094482,1.010986,0.241455,-113.571159,139.335632,-221.908554,1.5093985747790408
0 days 00:01:57.860000,-1.109619,1.040283,0.277588,-118.644707,164.657578,-218.193039,1.546123585938071
0 days 00:01:57.870000,-1.120361,1.059082,0.321533,-121.963493,181.945786,-211.982712,1.5748799710244588
0 days 00:01:57.880000,-1.095703,1.084473,0.329102,-124.793999,196.266159,-202.949509,1.5763739652576099
0 days 00:01:57.890000,-1.150635,0.670898,0.202148,-74.59259,-13.229369,-229.598984,1.3471929496300818
0 days 00:01:57.900000,-0.94751,0.148193,0.049316,-23.986814,-85.174553,-210.403427,0.960296013323496
0 days 00:01:57.910000,-1.158936,0.050049,-0.651123,240.287766,121.444695,-107.917778,1.3302626491133245
0 days 00:01:57.920000,-0.925537,0.083008,0.041504,-21.240232,-73.547363,-200.996384,0.930178288528065
0 days 00:01:57.930000,-1.130615,-0.17627,-0.824951,166.305527,109.03167,-99.586479,1.4106401183597466
0 days 00:01:57.940000,-1.101563,-0.267822,-0.822754,135.070801,99.739067,-98.228447,1.4007475900993014
0 days 00:01:57.950000,-1.081299,-0.343262,-0.789307,106.391899,89.157097,-95.268242,1.382042643442669
0 days 00:01:57.960000,-1.009521,-0.393311,-0.69873,83.396904,75.668335,-94.421379,1.28920510589355
0 days 00:01:57.970000,-0.953613,-0.40918,-0.530273,67.802429,60.348507,-95.993034,1.165330631493912
0 days 00:01:57.980000,-0.946045,-0.401367,-0.380615,56.579586,48.332211,-98.869316,1.0958852079205195
0 days 00:01:57.990000,-0.900146,0.11499,0.052002,-22.857664,-80.80291,-206.275925,0.9089497947741668
0 days 00:01:58,-0.897949,-0.391113,-0.217041,44.418331,27.297972,-108.825676,1.0031892050111983
0 days 00:01:58.010000,-0.889893,-0.341309,-0.181152,38.43689,12.886046,-113.05999,0.9701636109615739
0 days 00:01:58.020000,-0.820068,-0.310059,-0.137939,34.111023,-3.471374,-117.393486,0.887510718710484
0 days 00:01:58.030000,-0.743164,-0.265137,-0.081055,30.479429,-14.213561,-122.642509,0.7931962384492252
0 days 00:01:58.040000,-0.920898,-0.407227,-0.286865,49.491879,38.887024,-103.256218,1.0469854269081305
0 days 00:01:58.050000,-0.620605,-0.150146,-0.015869,17.875671,-11.314391,-134.742737,0.6387066717218476
0 days 00:01:58.060000,-0.620605,-0.138184,0.02124,12.725829,-8.201599,-145.462036,0.6361576231414664
0 days 00:01:58.070000,-0.703125,-0.102051,0.046875,7.331848,-10.391234,-156.265259,0.7120368233813473
0 days 00:01:58.080000,-0.794922,-0.072998,0.077637,2.189636,-18.318176,-164.184555,0.8020331650605229
0 days 00:01:58.090000,-0.842285,-0.057129,0.082764,-1.991272,-28.160093,-168.571457,0.8482674245554876
0 days 00:01:58.100000,-0.832275,-0.024414,0.087158,-6.286621,-38.467407,-173.164352,0.8371823194412313
0 days 00:01:58.110000,-0.869385,-0.005127,0.066895,-9.643555,-45.700069,-176.322922,0.8719698993537564
0 days 00:01:58.120000,-0.839844,0.023438,0.05957,-12.573241,-53.543087,-181.648239,0.842280160682893
0 days 00:01:58.130000,-0.839111,0.061523,0.0354,-16.098022,-60.997005,-189.941391,0.8421077780486296
0 days 00:01:58.140000,-0.883301,0.074463,0.034668,-19.332886,-67.6651,-197.349533,0.8871117546250867
0 days 00:01:58.150000,-0.679199,-0.216797,-0.036621,25.894163,-15.747069,-127.639763,0.7139000759567126
0 days 00:01:58.160000,-0.17627,-2.675293,-1.172363,117.195122,-8.247375,5.828857,2.9262089386299808
0 days 00:01:58.170000,-2.144287,-1.053467,0.20874,58.639523,-32.112122,20.462034,2.3981934546774992
0 days 00:01:58.180000,-0.185547,-0.776855,0.348633,48.522945,-146.789551,-48.706051,0.8714794024662889
0 days 00:01:58.190000,-0.708984,-0.471191,0.561035,7.820129,-74.21875,-105.583183,1.0195290785269442
0 days 00:01:58.200000,-0.607178,-0.580078,0.772949,38.986206,37.117004,-4.646301,1.1413175571982586
0 days 00:01:58.210000,-0.690674,-0.057373,1.190918,27.687071,92.582695,-5.622863,1.3778998215142493
0 days 00:01:58.220000,-0.156738,-0.101318,1.163818,28.869627,78.956604,-34.248352,1.1786876069985635
0 days 00:01:58.230000,-0.510986,-0.346191,0.937012,41.511532,33.950806,-21.537779,1.1220278021604457
0 days 00:01:58.240000,-1.226074,-0.123047,1.027588,11.314391,29.991148,-29.052732,1.604473469842677
0 days 00:01:58.250000,-0.492432,-1.108887,3.719727,14.617919,-110.687248,-0.198364,3.9126063701734677
0 days 00:01:58.260000,-0.843506,-0.777344,-0.53833,35.591125,25.764463,-2.174377,1.2671090147544528
0 days 00:01:58.270000,-1.012207,-0.031494,-0.273438,249.786362,194.084152,-83.503716,1.0489629272424266
0 days 00:01:58.280000,-1.146729,-0.068359,-0.360596,249.717697,184.608444,-78.453064,1.2040306588862262
0 days 00:01:58.290000,-1.283203,-0.146973,-0.585205,249.992355,173.957809,-67.771912,1.4179830372620825
0 days 00:01:58.300000,-1.344971,-0.204346,-0.727295,243.591293,156.089783,-52.101131,1.542615407540713
0 days 00:01:58.310000,-1.335693,-0.280029,-0.838623,204.406723,131.202698,-38.17749,1.601805408662051
0 days 00:01:58.320000,-1.265137,-0.391602,-0.895264,163.269028,106.803886,-28.923033,1.5985685424369516
0 days 00:01:58.330000,-1.150146,-0.515869,-0.915283,127.723686,90.911858,-22.727964,1.5577867686451825
0 days 00:01:58.340000,-0.997314,-0.618408,-0.86084,97.244255,77.224731,-18.844604,1.4553725209237667
0 days 00:01:58.350000,-0.94043,-0.696777,-0.783691,71.578979,62.927242,-13.732909,1.4085731632080742
0 days 00:01:58.360000,-0.894287,-0.753418,-0.656982,51.322933,45.654293,-7.270813,1.3412730033132705
0 days 00:01:58.370000,-0.331543,-0.559082,0.611816,10.330199,41.725155,-3.532409,0.8926434122475783
0 days 00:01:58.380000,0.634766,1.999268,4.180908,132.530212,165.893539,-60.111996,4.67760538256959
0 days 00:01:58.390000,-0.377686,-0.556885,0.406006,-1.708984,17.112732,7.507324,0.7858807096862729
0 days 00:01:58.400000,-0.518799,-0.327393,0.410889,-6.248474,47.294613,73.318481,0.7383551646538405
0 days 00:01:58.410000,-0.581299,-0.630127,0.36377,5.577087,13.603209,17.929077,0.9312879127477174
0 days 00:01:58.420000,-0.813232,-0.784424,-0.456299,22.90344,6.134033,1.678467,1.21855491259155
0 days 00:01:58.430000,-1.415771,-0.393311,0.322021,6.149292,67.855835,74.508667,1.5042601475818602
0 days 00:01:58.440000,-1.340576,-0.371826,0.322021,4.196167,48.957821,83.930962,1.4279692260314996
0 days 00:01:58.450000,-1.190186,-0.339111,0.329346,1.419067,47.866817,92.063896,1.2806278821863124
0 days 00:01:58.460000,-1.069824,-0.306885,0.346436,-0.579834,58.395382,99.334709,1.165641324034542
0 days 00:01:58.470000,-1.001709,-0.311035,0.389404,0.541687,71.937561,104.660027,1.1188383114293146
0 days 00:01:58.480000,-0.902832,-0.32251,0.440918,4.211426,75.59967,101.562492,1.0552378893159589
0 days 00:01:58.490000,-0.885498,-0.327881,0.468994,8.728027,69.587708,94.436638,1.0543092668667007
0 days 00:01:58.500000,-0.898926,-0.339111,0.471436,11.177062,57.846066,86.227409,1.0701944336862343
0 days 00:01:58.510000,-0.891602,-0.345703,0.460449,10.520934,45.631405,80.909721,1.061356665882869
0 days 00:01:58.520000,-0.584717,-0.625977,0.320557,4.249573,6.370544,18.295288,0.9146026267549203
0 days 00:01:58.530000,-0.843018,-0.342041,0.422607,7.415771,37.948608,79.673767,1.0031291394700883
0 days 00:01:58.540000,-0.614746,-0.318848,0.398438,-2.464294,37.139893,76.690674,0.7989552750085577
0 days 00:01:58.550000,-0.480469,-0.34668,0.418701,-7.591247,58.54034,66.719055,0.7254984560714102
0 days 00:01:58.560000,-0.511475,-0.353271,0.445068,-9.414673,62.606808,59.150692,0.7645211571238562
0 days 00:01:58.570000,-0.526123,-0.374756,0.509033,-11.390685,56.671139,51.269527,0.8224123453317076
0 days 00:01:58.580000,-0.580811,-0.431396,0.494141,-9.95636,45.799252,44.68536,0.8761388328444298
0 days 00:01:58.590000,-0.629639,-0.437988,0.438965,-10.131835,33.432007,40.588375,0.883724521380956
0 days 00:01:58.600000,-0.580811,-0.480225,0.423584,-9.803772,26.405333,35.270691,0.8645119278540927
0 days 00:01:58.610000,-0.581543,-0.532471,0.388428,-8.460999,23.078917,30.868528,0.8789732293272646
0 days 00:01:58.620000,-0.581055,-0.544434,0.344727,-10.093688,18.074036,28.533934,0.8676808156862753
0 days 00:01:58.630000,-0.541748,-0.564941,0.359619,-5.142211,15.953063,22.949217,0.8613797386437645
0 days 00:01:58.640000,-0.725098,-0.328125,0.393555,2.693176,34.225464,78.529358,0.8878731121359629
0 days 00:01:58.650000,-0.785156,-0.784912,-0.400635,10.978698,-12.313842,4.554749,1.1802818287616734
0 days 00:01:58.660000,-1.42041,-0.405762,0.311768,5.973815,102.706902,67.214966,1.509770397963876
0 days 00:01:58.670000,-0.749512,-0.730469,-0.313477,-12.481688,-35.270691,8.216858,1.0925296461121776
0 days 00:01:58.680000,-0.67749,-0.411621,0.955322,-49.446102,-58.898922,5.638122,1.2413962588251182
0 days 00:01:58.690000,-0.644287,-0.43335,1.210938,-9.140015,-29.70886,8.735657,1.438495325231542
0 days 00:01:58.700000,-0.568604,-0.28418,1.26001,13.168334,10.002136,6.065368,1.4112738860037055
0 days 00:01:58.710000,-0.186768,-0.047607,1.281738,8.81958,75.317383,-5.432128,1.2961485304227292
0 days 00:01:58.720000,-0.263672,0.045166,1.219971,7.461547,139.892578,4.272461,1.2489564171663476
0 days 00:01:58.730000,-0.65918,0.013428,1.116699,-0.114441,146.598816,14.877318,1.2968096391471648
0 days 00:01:58.740000,-1.03833,-0.216797,1.005371,28.854368,73.654175,-71.44165,1.461472194655102
0 days 00:01:58.750000,-0.531738,-0.361572,0.342529,66.383362,-93.139641,-172.508224,0.728564154806562
0 days 00:01:58.760000,-1.346924,-0.625732,0.317139,83.44268,-249.992355,-73.326111,1.5186579413814685
0 days 00:01:58.770000,-1.602295,-1.347412,0.215088,33.439636,-191.390976,68.870544,2.10455012116913
0 days 00:01:58.780000,-0.894043,-0.494629,0.651123,-63.049313,-67.733765,6.233215,1.211582392831375
0 days 00:01:58.790000,0.823242,-2.870605,-0.002441,113.258354,-137.786865,115.867607,2.9863198782230276
0 days 00:01:58.800000,-0.02002,1.303955,2.830078,154.571533,168.991074,-70.907593,3.116093857461453
0 days 00:01:58.810000,-1.312256,0.090088,-0.134033,249.923691,183.570847,-55.694576,1.3221560053068626
0 days 00:01:58.820000,-1.265137,-0.029541,-0.458984,249.504074,175.5905,-46.333309,1.3461465788338207
0 days 00:01:58.830000,-1.26709,-0.148926,-0.734131,249.992355,158.065796,-39.756775,1.4719525626653192
0 days 00:01:58.840000,-1.272217,-0.258545,-0.944824,249.504074,135.253906,-33.866882,1.6056381918383729
0 days 00:01:58.850000,-1.250488,-0.338379,-1.000732,216.148361,113.983147,-27.908323,1.6369743802543155
0 days 00:01:58.860000,-1.17627,-0.39624,-0.969971,177.627548,97.839348,-22.842405,1.5752653717202698
0 days 00:01:58.870000,-1.08252,-0.466064,-0.929443,141.151428,87.425224,-17.730713,1.500976179939242
0 days 00:01:58.880000,-1.029541,-0.547119,-0.895996,108.612053,79.032898,-12.039184,1.470409025699312
0 days 00:01:58.890000,-1.004883,-0.622314,-0.836182,81.237785,69.992065,-6.057739,1.4478483675471683
0 days 00:01:58.900000,-1.510986,-0.314453,4.439697,30.876158,-144.676208,32.592773,4.700305185114472
0 days 00:01:58.910000,-0.995605,-0.61499,0.415039,-59.982296,-45.745846,1.693725,1.241651878606077
0 days 00:01:58.920000,-0.755615,-0.768799,-0.367676,-1.075745,-27.023314,6.179809,1.138943181902416
0 days 00:01:58.930000,-0.902588,-0.804443,0.273438,-58.92944,-8.453369,4.753113,1.2395813720111317
0 days 00:01:58.940000,-0.742676,-0.689941,-0.231934,-23.460386,-38.391113,10.795592,1.0398940353771629
0 days 00:01:58.950000,-0.726563,-0.672119,-0.1875,-34.675598,-39.878845,12.931823,1.0073698392993509
0 days 00:01:58.960000,-0.705078,-0.669189,-0.173584,-45.799252,-44.036861,12.96997,0.9874615480417454
0 days 00:01:58.970000,-0.723877,-0.675293,-0.15625,-55.786129,-50.781246,12.4588,1.0022138541638705
0 days 00:01:58.980000,-0.766602,-0.675049,-0.13208,-65.261841,-59.333797,13.351439,1.0299586910187224
0 days 00:01:58.990000,-0.787354,-0.65332,-0.106201,-74.409485,-70.419312,13.565063,1.028606822900276
0 days 00:01:59,-0.890137,-0.717041,0.213867,-56.610104,-21.89636,1.25885,1.162854577382314
0 days 00:01:59.010000,-0.790039,-0.560547,0.021973,-93.063347,-90.644829,13.191222,0.9689465276572283
0 days 00:01:59.020000,-0.738281,-0.522705,0.106689,-101.234428,-95.184319,11.604308,0.9108577796269843
0 days 00:01:59.030000,-0.706055,-0.511475,0.162598,-108.39843,-96.572868,7.247924,0.8868813044900653
0 days 00:01:59.040000,-0.699219,-0.524902,0.206543,-115.158073,-95.634453,3.677368,0.8983815060507423
0 days 00:01:59.050000,-0.793213,-0.610596,-0.055664,-83.938591,-82.305901,12.901305,1.002553150451885
0 days 00:01:59.060000,-0.672363,-0.522705,0.303467,-129.211426,-88.081352,-0.404358,0.9040933253171378
0 days 00:01:59.070000,-0.662598,-0.495605,0.388672,-135.742188,-77.24762,-1.869202,0.914180698337588
0 days 00:01:59.080000,-0.685059,-0.487061,0.521484,-139.053345,-62.522884,-2.998352,0.9891813855193596
0 days 00:01:59.090000,-0.759033,-0.516602,0.698975,-137.199402,-49.041744,-2.02179,1.153938807787484
0 days 00:01:59.100000,-0.798828,-0.544922,0.85376,-130.134583,-40.687557,-2.731323,1.2899505018674164
0 days 00:01:59.110000,-0.81958,-0.583008,0.94873,-117.46978,-34.942627,-5.027771,1.3826417892440543
0 days 00:01:59.120000,-0.831299,-0.631836,0.918701,-103.782646,-23.872374,-4.135132,1.3907862113560083
0 days 00:01:59.130000,-0.800781,-0.664063,0.794434,-95.901482,-12.20703,-7.209777,1.3089519694343257
0 days 00:01:59.140000,-0.922363,-0.755615,0.703857,-85.823051,-3.631592,-4.135132,1.3846018230679171
0 days 00:01:59.150000,-0.989502,-0.831055,0.474609,-71.113586,-1.12915,3.456115,1.3765973717503603
0 days 00:01:59.160000,-0.686279,-0.536377,0.251953,-121.849052,-93.254082,1.373291,0.9067300955515925
0 days 00:01:59.170000,-0.810303,1.259521,0.114746,75.98114,-5.470275,219.856247,1.5020488493274777
0 days 00:01:59.180000,-0.80249,1.279297,0.136719,76.690674,-8.125305,215.164169,1.516338715218338
0 days 00:01:59.190000,-0.790039,1.294434,0.143799,76.568604,-13.076781,209.594711,1.5232856443484264
0 days 00:01:59.200000,-0.775879,1.300293,0.139404,76.072693,-19.943237,203.407272,1.5205865919788981
0 days 00:01:59.210000,-0.703125,1.227539,0.106934,68.649292,-52.61993,150.535583,1.4186865906541868
0 days 00:01:59.220000,-0.749023,1.286133,0.11792,73.791504,-34.790039,186.637863,1.4930099378832011
0 days 00:01:59.230000,-0.726807,1.271729,0.109619,72.509766,-41.290279,176.383957,1.4688632985581063
0 days 00:01:59.240000,-0.715088,1.24707,0.10498,70.808411,-47.019955,164.581284,1.4413726905432889
0 days 00:01:59.250000,-0.766846,1.299561,0.133545,74.897766,-27.664183,195.777878,1.514841855594834
0 days 00:01:59.260000,-0.814697,1.226318,0.090088,74.310303,-4.333496,223.747238,1.475026402027096
0 days 00:01:59.270000,-0.90625,0.623535,0.147949,37.467957,26.573179,208.251938,1.109943181125052
0 days 00:01:59.280000,-0.831299,1.141602,0.046875,67.527771,-3.387451,228.439316,1.4129792707007416
0 days 00:01:59.290000,-0.859863,1.095215,0.032715,63.423153,-3.280639,228.660568,1.3928138950408988
0 days 00:01:59.300000,-0.890625,1.044922,0.032471,59.410091,-4.386902,226.158127,1.373364206083004
0 days 00:01:59.310000,-0.926514,0.995605,0.043457,55.496212,-6.393432,221.679672,1.3607152601003636
0 days 00:01:59.320000,-0.9729,0.945313,0.072266,51.750179,-7.293701,218.856796,1.3584452336126767
0 days 00:01:59.330000,-0.986572,0.893311,0.095459,47.492977,-5.500793,219.299301,1.3343317708073956
0 days 00:01:59.340000,-0.950684,0.83374,0.116943,43.601986,0.602722,220.329269,1.2698811443221762
0 days 00:01:59.350000,-0.88623,0.776367,0.139893,41.107174,9.178162,218.597397,1.1864735070948698
0 days 00:01:59.360000,-0.876465,0.728271,0.141602,39.260864,18.043518,216.003403,1.1483120969797367
0 days 00:01:59.370000,-0.904785,0.674561,0.147461,38.154602,25.3067,213.150009,1.138162196467182
0 days 00:01:59.380000,-0.686035,1.211182,0.107666,65.963745,-58.174129,134.368896,1.3961367504313464
0 days 00:01:59.390000,-0.816895,1.186523,0.065186,71.372986,-3.738403,226.676926,1.4420136910411079
0 days 00:01:59.400000,-0.669922,1.197998,0.11084,63.217159,-63.591,117.09594,1.3770549007530526
0 days 00:01:59.410000,-0.496582,0.956543,0.151367,23.887632,-21.080015,-10.810851,1.0883382572812554
0 days 00:01:59.420000,-0.624756,1.151855,0.099365,56.53381,-74.966431,83.259575,1.3141397961350993
0 days 00:01:59.430000,-0.953125,0.574707,0.146484,37.910461,23.956297,203.971848,1.1225831656184766
0 days 00:01:59.440000,-0.4646,0.919922,0.138916,-14.785766,43.640133,3.265381,1.039907352190569
0 days 00:01:59.450000,-0.46875,0.913574,0.145996,-13.160705,47.393795,2.525329,1.0371397437144139
0 days 00:01:59.460000,-0.4729,0.909668,0.154785,-11.054992,50.163265,1.319885,1.0368648303655594
0 days 00:01:59.470000,-0.474854,0.9104,0.157715,-8.544922,52.185055,-0.190735,1.0388399792754417
0 days 00:01:59.480000,-0.473877,0.914063,0.158691,-6.072998,52.680965,-1.907349,1.0417549676286646
0 days 00:01:59.490000,-0.480225,0.915771,0.16333,-3.349304,50.163265,-4.058838,1.0468664021574101
0 days 00:01:59.500000,-0.489502,0.911377,0.164551,-0.061035,43.708797,-6.034851,1.0475195825062174
0 days 00:01:59.510000,-0.494385,0.914551,0.160156,3.448486,33.584595,-7.93457,1.0518887793688076
0 days 00:01:59.520000,-0.498047,0.921387,0.152832,7.247924,21.232603,-10.2005,1.058471746529873
0 days 00:01:59.530000,-0.648682,1.174316,0.103271,59.982296,-69.458008,100.143425,1.3455375522150987
0 days 00:01:59.540000,-0.501953,0.928223,0.151611,11.512755,8.857727,-12.100219,1.0660866040144206
0 days 00:01:59.550000,-0.496338,0.95166,0.154785,19.836426,-11.924743,-12.046813,1.0844199196201627
0 days 00:01:59.560000,-0.50415,0.966797,0.131836,27.19879,-30.136106,-8.125305,1.0982915790467485
0 days 00:01:59.570000,-0.509033,0.973389,0.119141,30.609129,-39.459229,-4.547119,1.1048960667370482
0 days 00:01:59.580000,-0.513672,0.985596,0.110352,34.088135,-49.171444,0.274658,1.116886727785768
0 days 00:01:59.590000,-0.524658,1.003662,0.101074,37.742615,-58.79974,6.828308,1.1370221548782593
0 days 00:01:59.600000,-0.544434,1.026367,0.0979,41.191097,-67.932129,15.769958,1.1659425410563764
0 days 00:01:59.610000,-0.560547,1.044434,0.097412,44.647213,-75.431824,26.596067,1.1893462142324245
0 days 00:01:59.620000,-0.571289,1.065674,0.098145,47.95837,-79.986572,39.016724,1.2131218557185424
0 days 00:01:59.630000,-0.58667,1.095459,0.10083,50.827023,-81.207268,52.658077,1.2467472873365315
0 days 00:01:59.640000,-0.605713,1.125732,0.101318,53.726192,-79.25415,67.329407,1.282351789220493
0 days 00:01:59.650000,-0.509277,0.94043,0.146973,15.777587,-2.128601,-12.489318,1.0795242981786004
0 days 00:01:59.660000,-0.447998,0.928955,0.131836,-15.731811,38.169861,3.440857,1.0397308935128358
0 days 00:01:59.670000,-0.969971,0.526611,0.155518,38.970947,17.784119,198.608383,1.1146069865589396
0 days 00:01:59.680000,-1.048096,0.420898,0.127197,34.362793,0.88501,192.657455,1.136591143916316
0 days 00:01:59.690000,-0.762695,-0.200439,0.26416,-30.555723,34.011841,43.853756,0.831660965385535
0 days 00:01:59.700000,-0.75708,-0.223877,0.262207,-31.188963,34.01947,37.834167,0.8318915484472721
0 days 00:01:59.710000,-0.760254,-0.239746,0.267578,-31.280516,32.333374,31.799314,0.8408699513694136
0 days 00:01:59.720000,-0.786377,-0.258789,0.265381,-31.425474,29.624937,26.641844,0.8693604590795466
0 days 00:01:59.730000,-0.818604,-0.276611,0.266113,-31.501768,26.870726,22.644041,0.9041251478119608
0 days 00:01:59.740000,-0.851318,-0.292725,0.263672,-31.249998,25.192259,19.973755,0.9380581998644861
0 days 00:01:59.750000,-0.88916,-0.314209,0.266602,-30.387877,24.246214,18.287659,0.980004810031563
0 days 00:01:59.760000,-0.944824,-0.331543,0.26709,-28.984068,21.926878,17.578125,1.0363156951069494
0 days 00:01:59.770000,-0.996094,-0.35083,0.266357,-26.992796,17.562866,17.76123,1.0891423218225431
0 days 00:01:59.780000,-1.076172,-0.392334,0.300049,-19.332886,1.739502,19.935608,1.1841036878335442
0 days 00:01:59.790000,-0.844971,-0.165039,0.286133,-29.953001,33.584595,49.430843,0.907240847873926
0 days 00:01:59.800000,-1.096191,-0.383545,0.311768,-14.541625,-9.32312,19.14978,1.202472769475467
0 days 00:01:59.810000,-1.116699,-0.368896,0.331055,-3.105163,-24.124144,17.936707,1.2217603400184507
0 days 00:01:59.820000,-1.109131,-0.348145,0.317139,0.205994,-22.476194,20.446775,1.2049703986019742
0 days 00:01:59.830000,-1.086182,-0.331543,0.30957,3.318786,-12.802123,25.756834,1.1770920451999496
0 days 00:01:59.840000,-1.041504,-0.299805,0.296387,6.263732,7.316589,33.27179,1.1235919516488182
0 days 00:01:59.850000,-1.003418,-0.27417,0.265625,4.547119,40.618893,43.235775,1.073579765200984
0 days 00:01:59.860000,-0.956543,-0.297363,0.245361,0.175476,86.280815,53.962704,1.0313104697126856
0 days 00:01:59.870000,-0.973877,-0.336182,0.229736,-2.174377,131.103516,61.935421,1.055572535617046
0 days 00:01:59.880000,-1.111816,-0.361816,0.226563,-1.38855,152.22168,64.308167,1.190956098553175
0 days 00:01:59.890000,-1.308594,-0.39917,0.272217,2.876281,138.534546,64.27002,1.3949397982798397
0 days 00:01:59.900000,-0.975342,0.484619,0.138428,36.987305,8.232117,193.054184,1.0978660680196834
0 days 00:01:59.910000,-1.112305,-0.387451,0.332031,-8.636475,-19.058228,17.906189,1.2237586671345786
0 days 00:01:59.920000,-0.957764,-0.126953,0.282227,-29.899595,34.095764,51.055904,1.006519261332837
0 days 00:01:59.930000,-1.046387,-0.374512,0.276855,-24.139402,10.871886,18.959045,1.1453530822143885
0 days 00:01:59.940000,-0.960938,-0.093506,0.240479,-27.084349,37.04071,54.069515,0.9949750556275266
0 days 00:01:59.950000,-0.972168,-0.098633,0.253906,-28.488157,35.28595,50.888058,1.009607520647999
0 days 00:01:59.960000,-0.917969,0.334473,0.14502,32.00531,-16.822815,182.723984,0.9877095084537761
0 days 00:01:59.970000,-0.960449,0.313721,0.11792,28.358458,-22.941587,177.543625,1.0172454344168864
0 days 00:01:59.980000,-0.998535,0.269531,0.118164,24.406431,-25.161741,177.909836,1.0410004020565986
0 days 00:01:59.990000,-0.911133,0.222168,0.139648,20.606993,-28.495787,177.360519,0.9481685123526302
0 days 00:02:00,-0.825684,0.178467,0.147949,17.532349,-32.63092,173.942551,0.8576091443927122
0 days 00:02:00.010000,-0.781982,0.132324,0.167236,15.373229,-36.071777,167.610153,0.8105389373719192
0 days 00:02:00.020000,-0.781738,0.10498,0.168213,12.664794,-40.939327,158.416748,0.8064928483334493
0 days 00:02:00.030000,-0.847412,0.089111,0.162109,10.795592,-46.585079,148.262024,0.8673679703251672
0 days 00:02:00.040000,-0.919189,0.08374,0.162354,9.82666,-51.948544,137.565613,0.937165741284326
0 days 00:02:00.050000,-0.983643,0.088867,0.135742,6.141662,-53.314205,130.409241,0.9969336917277899
0 days 00:02:00.060000,-1.012207,0.36084,0.151123,33.447266,-6.614685,190.788254,1.0851758740305648
0 days 00:02:00.070000,-0.898438,0.014893,0.120605,-4.379272,-33.454895,129.615784,0.9066191081804972
0 days 00:02:00.080000,-1.00708,0.05957,0.11792,0.724792,-45.219418,130.050659,1.0157085397396244
0 days 00:02:00.090000,-0.846436,-0.08374,0.197021,-24.284361,35.148621,67.131042,0.873088520218311
0 days 00:02:00.100000,-0.808838,-0.077881,0.193848,-21.530149,31.242369,75.309753,0.8353809954200538
0 days 00:02:00.110000,-0.752441,-0.069336,0.197266,-18.859863,25.642393,82.771294,0.7809537848893493
0 days 00:02:00.120000,-0.67627,-0.060303,0.200195,-16.63208,19.012451,91.331474,0.70785281148979
0 days 00:02:00.130000,-0.910645,-0.086182,0.205566,-26.336668,37.460327,59.68475,0.9375281507800179
0 days 00:02:00.140000,-0.630859,-0.044922,0.209229,-11.795043,-3.02124,111.106865,0.6661665245312165
0 days 00:02:00.150000,-0.678711,-0.0354,0.19458,-10.124206,-15.182494,119.026176,0.7069392887094336
0 days 00:02:00.160000,-0.778564,-0.015381,0.162354,-7.987976,-23.696898,125.305168,0.7954604318085218
0 days 00:02:00.170000,-0.62207,-0.051758,0.204102,-14.175414,9.246826,101.303093,0.6567401326765405
0 days 00:02:00.180000,-0.409912,0.969238,0.143799,-1.838684,19.40155,5.203247,1.0621338431614917
0 days 00:02:00.190000,-0.454834,0.958984,0.113281,0.770569,-16.365051,12.252807,1.0674066070495347
0 days 00:02:00.200000,-0.452637,0.949951,0.112793,0.602722,-17.951965,12.33673,1.0583049735397638
0 days 00:02:00.210000,-0.427734,0.95752,0.112549,-0.228882,-16.479492,10.894774,1.054736081945147
0 days 00:02:00.220000,-0.416016,0.958008,0.113525,-0.846863,-10.749816,9.864807,1.0505886759074647
0 days 00:02:00.230000,-0.428223,0.95874,0.119629,-1.13678,-4.692078,10.055541,1.0568199576891042
0 days 00:02:00.240000,-0.421875,0.956055,0.125488,-1.213074,0.701904,8.628845,1.0525050673483713
0 days 00:02:00.250000,-0.45459,0.957275,0.116943,1.38855,-13.21411,12.176513,1.0661628201048843
0 days 00:02:00.260000,-0.429199,0.961914,0.137451,-1.411438,6.553649,7.606506,1.0622537843651112
0 days 00:02:00.270000,-0.400879,0.959473,0.132813,-1.434326,13.656615,6.340026,1.0482994340068108
0 days 00:02:00.280000,-0.404297,0.970947,0.156982,-2.6474,24.581907,3.90625,1.0634084301631241
0 days 00:02:00.290000,-0.420654,0.970215,0.186768,-3.715515,31.448362,3.02124,1.0738478568982666
0 days 00:02:00.300000,-0.407959,0.981689,0.174316,-2.89154,33.905029,0.831604,1.0772789361432813
0 days 00:02:00.310000,-0.415527,0.979004,0.184082,-3.707886,35.15625,1.274109,1.079350592934937
0 days 00:02:00.320000,-0.419434,0.974121,0.186279,-4.005432,34.14917,2.120972,1.076817750985746
0 days 00:02:00.330000,-0.420166,0.971924,0.174072,-3.707886,27.183531,4.013062,1.073068865691294
0 days 00:02:00.340000,-0.423584,0.965332,0.164795,-3.189087,22.003172,4.806519,1.066980162563953
0 days 00:02:00.350000,-0.425537,0.966309,0.162109,-2.044678,15.510558,5.523681,1.068229446201049
0 days 00:02:00.360000,-0.426025,0.972168,0.154297,-0.984192,8.514404,6.309509,1.0725742328892673
0 days 00:02:00.370000,-0.402588,0.968018,0.148682,1.602173,1.182556,5.424499,1.0588872854048255
0 days 00:02:00.380000,-0.39917,0.976074,0.13208,4.470825,-7.545471,4.577637,1.0627804424132012
0 days 00:02:00.390000,-0.45459,0.956787,0.118408,2.197266,-10.269164,12.145995,1.0658864320053052
0 days 00:02:00.400000,-0.39624,0.966553,0.172852,-2.159119,29.853819,1.586914,1.0588241843257076
0 days 00:02:00.410000,-0.45166,0.959229,0.122803,2.105713,-7.644653,11.383056,1.0673320040409169
0 days 00:02:00.420000,-0.405518,0.985352,0.104004,4.890442,-14.884948,4.455566,1.070598077825661
0 days 00:02:00.430000,-0.467773,0.95752,0.132324,3.219604,1.144409,10.589599,1.073855563334753
0 days 00:02:00.440000,-0.393311,0.977539,0.132324,-1.068115,-25.260923,1.426697,1.061972542120558
0 days 00:02:00.450000,-0.393311,0.975098,0.13501,-1.213074,-26.206968,1.296997,1.0600647868998385
0 days 00:02:00.460000,-0.396973,0.97583,0.137451,-1.205444,-26.962278,1.235962,1.0624144808077494
0 days 00:02:00.470000,-0.398926,0.974854,0.13916,-1.464844,-27.648924,1.25885,1.06247248453407
0 days 00:02:00.480000,-0.400146,0.973633,0.143799,-1.602173,-28.266905,1.266479,1.0624293823148905
0 days 00:02:00.490000,-0.400635,0.974121,0.147461,-1.686096,-28.396605,1.464844,1.0635623500232603
0 days 00:02:00.500000,-0.401123,0.972168,0.157227,-1.64032,-27.526854,1.571655,1.0633581761955846
0 days 00:02:00.510000,-0.398193,0.974365,0.167236,-1.396179,-25.451658,1.63269,1.0657920520298507
0 days 00:02:00.520000,-0.395752,0.980469,0.173584,-1.38092,-22.02606,1.846313,1.0714805226979163
0 days 00:02:00.530000,-0.398682,0.982666,0.177246,-1.708984,-17.433167,2.128601,1.0751725206663347
0 days 00:02:00.540000,-0.461426,0.962646,0.122314,2.410889,-3.662109,11.413573,1.0745054627073796
0 days 00:02:00.550000,-0.400635,0.981445,0.178467,-2.02179,-11.909484,2.250671,1.0749851912184651
0 days 00:02:00.560000,-0.407227,0.981445,0.179199,-2.243042,2.410889,1.800537,1.0775808086426744
0 days 00:02:00.570000,-0.424316,0.975098,0.179688,-1.937866,8.422852,1.960754,1.0784933726286872
0 days 00:02:00.580000,-0.434814,0.974609,0.171143,-1.373291,12.344359,2.182007,1.080840341551887
0 days 00:02:00.590000,-0.446289,0.974365,0.171143,-0.526428,14.678954,2.876281,1.085288418437698
0 days 00:02:00.600000,-0.451904,0.972168,0.169189,0.167847,16.571045,4.15802,1.0853353229122324
0 days 00:02:00.610000,-0.45166,0.972412,0.162598,0.801086,16.212463,4.959106,1.0844445412043902
0 days 00:02:00.620000,-0.473145,0.968262,0.1604,1.602173,12.657165,6.706237,1.0895529595522193
0 days 00:02:00.630000,-0.461426,0.968262,0.150146,2.113342,9.857178,8.117676,1.0830462018935296
0 days 00:02:00.640000,-0.450928,0.97168,0.147217,2.120972,8.811951,8.460999,1.081282076367217
0 days 00:02:00.650000,-0.461426,0.967285,0.140381,2.624511,6.347656,9.918213,1.0808612537518403
0 days 00:02:00.660000,-0.399414,0.983398,0.177979,-2.166748,-5.111694,2.082825,1.0762340332107139
0 days 00:02:00.670000,-0.401367,0.989258,0.095703,4.631042,-21.446226,3.784179,1.071860962747501
0 days 00:02:00.680000,-0.393066,0.994141,0.08667,3.868103,-26.367186,2.563476,1.0725338675943992
0 days 00:02:00.690000,-0.383545,0.996094,0.083008,2.914428,-29.121397,0.900268,1.070607468648057
0 days 00:02:00.700000,-0.431885,1.019531,0.08252,-19.477844,-24.063108,-25.459288,1.1103052119061676
0 days 00:02:00.710000,-0.422363,1.022949,0.0896,-19.134521,-29.58679,-24.436949,1.1103347785105175
0 days 00:02:00.720000,-0.401611,1.019531,0.091309,-17.814636,-36.079407,-22.674559,1.0995781867438985
0 days 00:02:00.730000,-0.371826,1.022217,0.084961,-17.127991,-42.884823,-21.629332,1.091054783631876
0 days 00:02:00.740000,-0.336914,1.022705,0.07666,-16.746521,-46.874996,-21.438597,1.0794967883328788
0 days 00:02:00.750000,-0.322998,1.023926,0.078613,-16.334534,-48.263546,-22.224424,1.076537117450671
0 days 00:02:00.760000,-0.326904,1.022217,0.078125,-15.800475,-46.630856,-22.994993,1.0760563813899342
0 days 00:02:00.770000,-0.338867,1.025146,0.078613,-15.724181,-43.022152,-23.231504,1.0825595451401275
0 days 00:02:00.780000,-0.339844,1.021973,0.080566,-15.510558,-38.68103,-23.025511,1.0800063136023788
0 days 00:02:00.790000,-0.349121,1.022949,0.077637,-15.586852,-34.317017,-22.6593,1.0836685992548645
0 days 00:02:00.800000,-0.430908,1.02002,0.07666,-19.882202,-19.042969,-25.741575,1.1099546209030349
0 days 00:02:00.810000,-0.366943,1.018555,0.08374,-15.335082,-30.281065,-21.835325,1.0858700847127156
0 days 00:02:00.820000,-0.402832,1.019043,0.090576,-14.839171,-24.948118,-18.867493,1.099511831609374
0 days 00:02:00.830000,-0.415527,1.024658,0.089111,-14.86206,-21.118162,-16.38031,1.1092914292529263
0 days 00:02:00.840000,-0.423584,1.024414,0.084717,-14.778136,-16.265869,-13.626098,1.111766350696494
0 days 00:02:00.850000,-0.432129,1.025391,0.079834,-14.793395,-10.887145,-10.520934,1.1155875775025463
0 days 00:02:00.860000,-0.444092,1.020752,0.079346,-15.144347,-5.828857,-7.293701,1.11599647745143
0 days 00:02:00.870000,-0.445557,1.009766,0.082275,-15.533446,-1.167297,-4.684448,1.1067599516742552
0 days 00:02:00.880000,-0.44458,0.999023,0.090576,-15.769958,4.013062,-2.464294,1.097224836897616
0 days 00:02:00.890000,-0.44043,0.98584,0.098389,-16.082764,9.910583,-0.640869,1.084222987129954
0 days 00:02:00.900000,-0.438721,0.971436,0.104492,-16.25061,16.685486,1.121521,1.071019419058777
0 days 00:02:00.910000,-0.437744,0.95459,0.111572,-16.220093,24.009703,2.616882,1.0560824725465336
0 days 00:02:00.920000,-0.390137,1.018311,0.092041,-15.045165,-27.770994,-20.553587,1.0943654404133019
0 days 00:02:00.930000,-0.43042,1.018555,0.068359,-20.507811,-15.174865,-25.848387,1.1078757228615492
0 days 00:02:00.940000,-0.436523,0.94043,0.12085,-16.082764,31.501768,3.341675,1.0438226079794402
0 days 00:02:00.950000,-0.417969,1.004883,0.050537,-21.331785,-11.505126,-26.30615,1.0895145327250115
0 days 00:02:00.960000,-0.375,0.993408,0.077393,1.579285,-29.701231,-0.907898,1.0646474209394394
0 days 00:02:00.970000,-0.373047,0.995361,0.07251,0.175476,-28.503416,-2.876281,1.065441356729689
0 days 00:02:00.980000,-0.371582,0.991699,0.069824,-0.900268,-26.176451,-4.890442,1.0613272258361226
0 days 00:02:00.990000,-0.372559,0.993164,0.064453,-2.220154,-23.056028,-7.263183,1.0626989830549383
0 days 00:02:01,-0.385498,0.987061,0.058594,-3.356933,-20.683287,-9.384155,1.0612876059584413
0 days 00:02:01.010000,-0.397217,0.981689,0.057617,-4.638672,-20.057678,-11.360168,1.0605726549836179
0 days 00:02:01.020000,-0.42041,1.012451,0.058594,-20.996092,-12.771605,-26.069639,1.0978318871015726
0 days 00:02:01.030000,-0.392334,0.974365,0.051025,-7.957458,-18.035889,-15.914916,1.051625727816698
0 days 00:02:01.040000,-0.399658,0.970459,0.053955,-9.620667,-16.387939,-17.311096,1.050917851056875
0 days 00:02:01.050000,-0.403809,0.966797,0.055908,-10.681151,-16.517639,-18.714905,1.049230123544878
0 days 00:02:01.060000,-0.402588,0.966797,0.050537,-12.039184,-17.112732,-20.248411,1.048488209433945
0 days 00:02:01.070000,-0.395508,0.978516,0.053467,-6.217956,-19.821167,-13.786315,1.056777583226007
0 days 00:02:01.080000,-0.40918,0.970215,0.043457,-14.465331,-17.50946,-22.90344,1.0538661819576527
0 days 00:02:01.090000,-0.416016,0.9729,0.039063,-15.563964,-18.531799,-24.131773,1.0588340947594197
0 days 00:02:01.100000,-0.415527,0.974854,0.034424,-16.548157,-19.226074,-25.321959,1.060277332032049
0 days 00:02:01.110000,-0.416992,0.97876,0.026855,-17.433167,-19.65332,-26.412962,1.0642249088839257
0 days 00:02:01.120000,-0.418457,0.98291,0.030273,-18.119812,-19.439697,-27.06909,1.0687070615832945
0 days 00:02:01.130000,-0.414307,0.986084,0.025391,-18.768311,-18.501282,-27.679441,1.0698862781557672
0 days 00:02:01.140000,-0.410156,0.98877,0.023438,-19.584656,-16.517639,-28.121946,1.070720970692178
0 days 00:02:01.150000,-0.411133,0.988037,0.030762,-20.477293,-13.916015,-28.137205,1.0706043889794212
0 days 00:02:01.160000,-0.414551,0.991211,0.038818,-20.996092,-11.83319,-27.656553,1.075108652763059
0 days 00:02:01.170000,-0.416504,0.996094,0.042969,-21.247862,-11.062621,-26.855467,1.0805207882373205
0 days 00:02:01.180000,-0.4021,0.971924,0.04541,-13.496398,-17.227173,-21.713255,1.0527975778258611
0 days 00:02:01.190000,-0.300293,0.981445,0.163086,3.799438,-9.147644,2.906799,1.039233956946173
0 days 00:02:01.200000,-0.332031,0.980225,0.15918,3.158569,-8.285522,3.288269,1.047102625336218
0 days 00:02:01.210000,-0.297607,0.986084,0.155762,3.349304,-8.033752,1.731872,1.0417261550661958
0 days 00:02:01.220000,-0.288086,0.984375,0.159424,3.829956,-8.399963,1.64032,1.0379805854624642
0 days 00:02:01.230000,-0.266357,1.029297,0.180664,5.126953,-8.68988,1.823425,1.0784423241666656
0 days 00:02:01.240000,-0.266357,1.003906,0.157715,5.210876,-6.607055,1.213074,1.0505462053189283
0 days 00:02:01.250000,-0.271729,1.001221,0.180176,5.958557,-7.92694,2.26593,1.0529689127690331
0 days 00:02:01.260000,-0.30249,1.012451,0.181885,4.78363,-9.635925,2.922058,1.0722123766894318
0 days 00:02:01.270000,-0.323242,0.991455,0.158447,4.173279,-8.277893,1.976013,1.0547861676178731
0 days 00:02:01.280000,-0.344482,0.98999,0.158203,3.585815,-12.290954,4.165649,1.0600831276994271
0 days 00:02:01.290000,-0.334473,0.988525,0.162354,6.126403,-14.488219,4.928589,1.0561309978738433
0 days 00:02:01.300000,-0.300293,0.991211,0.167236,4.623413,-10.215758,3.52478,1.04911534735986
0 days 00:02:01.310000,-0.344727,0.996094,0.161377,4.936218,-9.849548,5.004883,1.06634070422825
0 days 00:02:01.320000,-0.325684,0.993652,0.16748,5.332946,-10.307311,4.882813,1.0589919335670126
0 days 00:02:01.330000,-0.331543,0.99707,0.163818,5.493164,-11.260985,4.78363,1.063440493338955
0 days 00:02:01.340000,-0.334961,0.992432,0.165771,5.867004,-12.092589,4.547119,1.0604716736367832
0 days 00:02:01.350000,-0.336426,0.994873,0.161133,5.844116,-12.847899,4.760742,1.062505803887207
0 days 00:02:01.360000,-0.34082,0.992188,0.159668,5.844116,-14.297484,5.1651,1.0611734872149794
0 days 00:02:01.370000,-0.33374,0.990967,0.163574,6.462097,-14.717101,4.829407,1.058373486140408
0 days 00:02:01.380000,-0.336914,0.993164,0.159424,6.515502,-14.663695,5.096435,1.0608024255571817
0 days 00:02:01.390000,-0.334961,0.98999,0.163574,6.401062,-14.533996,5.149841,1.0578447547239624
0 days 00:02:01.400000,-0.280273,1.023682,0.189941,6.309509,-8.789063,2.540588,1.0782186119400834
0 days 00:02:01.410000,-0.320801,0.985352,0.168701,3.807068,-12.390136,4.425049,1.049900887182214
0 days 00:02:01.420000,-0.289307,1.033936,0.197266,6.355285,-8.911133,3.028869,1.091620844020945
0 days 00:02:01.430000,-0.300049,0.974121,0.193359,-3.730774,10.292052,0.312805,1.0374626874847113
0 days 00:02:01.440000,-0.296143,1.03418,0.206787,5.622863,-6.134033,2.029419,1.0954404649354523
0 days 00:02:01.450000,-0.345459,0.986084,0.164551,6.385803,-15.48767,5.043029,1.0577242586506184
0 days 00:02:01.460000,-0.325928,0.991211,0.219482,0.541687,9.353638,-0.701904,1.0662554365765269
0 days 00:02:01.470000,-0.328613,0.988037,0.213379,0.50354,10.177611,-0.244141,1.0628895590695207
0 days 00:02:01.480000,-0.329346,0.988525,0.205566,0.427246,10.284423,-0.022888,1.0620300578123953
0 days 00:02:01.490000,-0.325928,0.986328,0.197021,0.007629,9.719849,0.030518,1.0573028228511452
0 days 00:02:01.500000,-0.322754,0.980469,0.188965,-0.549316,8.735657,0.144958,1.0493795193837168
0 days 00:02:01.510000,-0.313965,0.980225,0.183105,-0.701904,8.31604,0.144958,1.0454389092027327
0 days 00:02:01.520000,-0.303467,0.986084,0.175781,-1.51062,9.292603,-0.198364,1.0465910543789296
0 days 00:02:01.530000,-0.301514,0.985596,0.170166,-2.716064,10.56671,-0.389099,1.044637082899128
0 days 00:02:01.540000,-0.302979,0.980469,0.169678,-3.456115,10.45227,-0.411987,1.040147277113198
0 days 00:02:01.550000,-0.292969,1.036621,0.201416,5.958557,-8.323669,2.578735,1.0958933970318463
0 days 00:02:01.560000,-0.306885,0.975342,0.179932,-3.64685,9.635925,-0.595093,1.0381935969813145
0 days 00:02:01.570000,-0.295166,0.981689,0.18457,-3.684997,10.673522,-0.114441,1.0415864559300876
0 days 00:02:01.580000,-0.289063,0.982422,0.203857,-3.036499,10.734557,0.076294,1.0441590302736456
0 days 00:02:01.590000,-0.286865,0.996338,0.209961,-2.449036,11.596679,-0.007629,1.0578584782427185
0 days 00:02:01.600000,-0.293945,1.002197,0.217285,-1.502991,11.184691,0.198364,1.0667779811464988
0 days 00:02:01.610000,-0.299561,1.010986,0.220459,-0.732422,9.346008,0.663757,1.0772333338687583
0 days 00:02:01.620000,-0.301025,1.018066,0.223633,1.358032,7.896423,0.938415,1.0849360117859486
0 days 00:02:01.630000,-0.294434,1.037109,0.218018,2.212524,6.942749,1.373291,1.099917408972601
0 days 00:02:01.640000,-0.303711,1.030518,0.2146,2.380371,4.081726,1.869202,1.0955641833525775
0 days 00:02:01.650000,-0.310059,1.028809,0.215576,3.517151,-0.068665,1.976013,1.095927713737544
0 days 00:02:01.660000,-0.299072,1.0271,0.216064,4.943848,-3.341675,1.838684,1.0913579262918283
0 days 00:02:01.670000,-0.294922,0.982178,0.182617,-3.410339,10.246276,-0.587463,1.0416340904833137
0 days 00:02:01.680000,-0.342529,0.98877,0.156006,5.737304,-17.478943,5.271911,1.0579839794519574
0 days 00:02:01.690000,-0.345459,0.977051,0.164063,6.835937,-19.042969,5.027771,1.0492317404896785
0 days 00:02:01.700000,-0.328613,0.990723,0.156494,7.392883,-17.730713,4.447937,1.0554662185659947
0 days 00:02:01.710000,-0.376709,0.986328,0.152832,4.234314,-19.920349,1.670837,1.0668224849941064
0 days 00:02:01.720000,-0.376221,0.986328,0.153076,3.791809,-17.990112,1.663208,1.0666852517031442
0 days 00:02:01.730000,-0.374023,0.981445,0.149902,3.379822,-15.724181,1.708984,1.0609420823767903
0 days 00:02:01.740000,-0.373779,0.97998,0.152832,3.158569,-13.442992,1.777649,1.0599194127220237
0 days 00:02:01.750000,-0.373779,0.979004,0.154785,2.746582,-10.94818,1.899719,1.0593006981409954
0 days 00:02:01.760000,-0.373779,0.980225,0.156494,2.555847,-8.430481,1.991272,1.0606800476590479
0 days 00:02:01.770000,-0.375244,0.982178,0.159668,2.227783,-6.202697,2.105713,1.0634733440213722
0 days 00:02:01.780000,-0.375488,0.982666,0.159424,1.968384,-4.402161,2.197266,1.063973551116756
0 days 00:02:01.790000,-0.374756,0.982422,0.158203,1.739502,-3.051758,2.166748,1.0633076858694288
0 days 00:02:01.800000,-0.373291,0.984131,0.156494,1.525879,-2.27356,1.968384,1.064119527063572
0 days 00:02:01.810000,-0.375732,0.983154,0.151123,4.310608,-21.507261,2.067566,1.063298868930556
0 days 00:02:01.820000,-0.372803,0.987305,0.156006,1.350403,-1.88446,1.724243,1.0668135319117393
0 days 00:02:01.830000,-0.372314,0.988281,0.150391,1.190186,-3.02124,1.167297,1.0667401288214482
0 days 00:02:01.840000,-0.371094,0.987549,0.147949,1.068115,-4.425049,0.816345,1.065294649774418
0 days 00:02:01.850000,-0.371582,0.984619,0.143555,0.923157,-6.080627,0.549316,1.0621467864236092
0 days 00:02:01.860000,-0.373535,0.983887,0.141113,0.564575,-7.575988,0.320435,1.0618262116575385
0 days 00:02:01.870000,-0.375244,0.979492,0.140137,0.259399,-9.529114,0.25177,1.058230133935431
0 days 00:02:01.880000,-0.379639,0.977295,0.131348,-0.053406,-11.856078,0.473022,1.0566378681696014
0 days 00:02:01.890000,-0.386719,0.979492,0.130615,-0.37384,-14.328002,0.717163,1.06113921859952
0 days 00:02:01.900000,-0.388184,0.979492,0.128906,-0.686645,-16.838074,0.961304,1.0614650972858222
0 days 00:02:01.910000,-0.391357,0.981445,0.127197,-0.724792,-19.180298,1.144409,1.0642244435658297
0 days 00:02:01.920000,-0.395264,0.982666,0.12915,-0.709534,-21.545408,1.350403,1.0670266256059406
0 days 00:02:01.930000,-0.372559,0.991211,0.154785,1.296997,-2.128601,1.480102,1.070167207134941
0 days 00:02:01.940000,-0.374512,0.988281,0.149658,4.310608,-22.689817,2.418518,1.0674062441587084
0 days 00:02:01.950000,-0.394287,0.979736,0.131104,-0.793457,-23.704527,1.358032,1.0642053969422445
0 days 00:02:01.960000,-0.371338,0.980225,0.154785,4.814148,-23.986814,3.15094,1.0595713081685443
0 days 00:02:01.970000,-0.330811,0.995605,0.149414,6.019592,-16.899109,4.478455,1.059712119937297
0 days 00:02:01.980000,-0.345947,0.988281,0.150635,5.516052,-17.959595,4.600525,1.0578608438707806
0 days 00:02:01.990000,-0.345703,0.990967,0.153809,5.554199,-18.447876,4.615784,1.0607466086577888
0 days 00:02:02,-0.340576,0.994385,0.149658,5.081176,-18.188477,4.524231,1.0616925435195446
0 days 00:02:02.010000,-0.349609,0.994141,0.148438,4.768372,-18.882751,4.608154,1.0642258315818125
0 days 00:02:02.020000,-0.352539,0.994385,0.147461,5.0354,-19.340515,4.623413,1.065284009673946
0 days 00:02:02.030000,-0.373779,0.985596,0.152588,4.707336,-23.590086,2.63977,1.0650790176324947
0 days 00:02:02.040000,-0.351807,1.001221,0.1521,4.165649,-20.553587,4.447937,1.0720755878621617
0 days 00:02:02.050000,-0.360107,1.000732,0.151855,4.112244,-22.071836,4.692078,1.074337716129337
0 days 00:02:02.060000,-0.353027,0.997559,0.150391,4.646301,-22.842405,4.226685,1.0688168571326895
0 days 00:02:02.070000,-0.352783,1.005127,0.147949,4.188538,-22.598265,4.127502,1.0754650332851368
0 days 00:02:02.080000,-0.350342,0.999023,0.145508,4.508972,-19.470215,4.669189,1.0686248404173468
0 days 00:02:02.090000,-0.359375,0.998047,0.153809,4.089355,-23.468016,4.356384,1.0718700543046251
0 days 00:02:02.100000,-0.36084,1.001221,0.151367,3.837585,-24.215696,4.478455,1.0749702159269343
0 days 00:02:02.110000,-0.363037,0.992432,0.159912,4.318237,-24.696348,4.562378,1.0687792034545769
0 days 00:02:02.120000,-0.36084,0.998047,0.156006,4.570007,-24.54376,4.508972,1.0726794450556978
0 days 00:02:02.130000,-0.364746,0.992676,0.155273,4.40979,-24.185179,4.714966,1.068903639258937
0 days 00:02:02.140000,-0.366699,0.993408,0.15332,4.089355,-24.16992,4.882813,1.0699694544541913
0 days 00:02:02.150000,-0.369141,0.984863,0.15918,4.669189,-24.032591,4.570007,1.0637473755784312
0 days 00:02:02.160000,-0.371582,0.989746,0.154297,4.760742,-23.895262,4.440308,1.0683996871250947
0 days 00:02:02.170000,-0.372314,0.988037,0.150635,4.40979,-23.994444,4.394531,1.0665485132847918
0 days 00:02:02.180000,-0.372559,0.984131,0.155029,4.669189,-24.131773,3.852844,1.0636484496688745
0 days 00:02:02.190000,-0.356934,1.001221,0.152344,3.799438,-22.796629,4.493713,1.073803550717262
0 days 00:02:02.200000,-0.412842,0.979248,0.155762,0.686645,13.916015,-5.462646,1.0740702784790201
0 days 00:02:02.210000,-0.40918,0.975098,0.155518,0.343323,14.343261,-6.011962,1.068845278947332
0 days 00:02:02.220000,-0.404541,0.972168,0.159912,0.457764,13.351439,-6.790161,1.0650520591262194
0 days 00:02:02.230000,-0.396729,0.968994,0.157959,0.770569,11.123656,-7.110595,1.0589118552353638
0 days 00:02:02.240000,-0.394775,0.98291,0.141602,3.158569,-6.286621,-7.843017,1.068648911069019
0 days 00:02:02.250000,-0.401855,0.972168,0.153076,1.579285,5.134582,-7.659912,1.0630288439289877
0 days 00:02:02.260000,-0.402344,0.974854,0.147217,2.243042,1.899719,-8.132935,1.0648445242104596
0 days 00:02:02.270000,-0.39624,0.978027,0.143555,2.807617,-1.937866,-8.18634,1.0649652521814972
0 days 00:02:02.280000,-0.402832,0.970947,0.156494,1.083374,8.041382,-7.202148,1.0627803484582314
0 days 00:02:02.290000,-0.415527,0.98877,0.145264,1.113892,12.290954,-4.959106,1.0823263973150614
0 days 00:02:02.300000,-0.353027,0.936523,0.133789,-0.823975,5.706787,-8.354187,1.0097538753473543
0 days 00:02:02.310000,-0.427246,0.996582,0.126709,1.655578,4.852295,-5.264282,1.0916821872326212
0 days 00:02:02.320000,-0.423584,1.001465,0.114746,1.419067,0.320435,-6.179809,1.0933993761645375
0 days 00:02:02.330000,-0.414307,1.002197,0.108398,1.296997,-2.578735,-7.331848,1.0898620295532826
0 days 00:02:02.340000,-0.408447,0.997559,0.104736,1.159668,-5.111694,-8.163452,1.0830154846473803
0 days 00:02:02.350000,-0.402344,0.988037,0.102295,0.556946,-7.629394,-9.231567,1.0717098836578862
0 days 00:02:02.360000,-0.392822,0.972412,0.105469,0.282288,-8.94165,-9.94873,1.0540483534397271
0 days 00:02:02.370000,-0.384521,0.960938,0.111572,-0.144958,-8.987427,-10.551452,1.0410122720069153
0 days 00:02:02.380000,-0.366699,0.955811,0.114014,-0.831604,-6.744384,-10.56671,1.0300689377502847
0 days 00:02:02.390000,-0.355225,0.944092,0.124268,-0.846863,-3.204345,-10.284423,1.0163351026669305
0 days 00:02:02.400000,-0.356201,0.932617,0.132568,-0.289917,0.946045,-9.849548,1.0070888221572118
0 days 00:02:02.410000,-0.39209,0.989258,0.136475,3.303528,-10.498046,-7.209777,1.072842665207252
0 days 00:02:02.420000,-0.420166,0.99585,0.135986,1.365662,9.216309,-5.0354,1.0893800449117839
0 days 00:02:02.430000,-0.389893,0.993652,0.133057,3.822326,-14.373778,-6.683349,1.0756695653415131
0 days 00:02:02.440000,-0.398438,0.988525,0.119141,4.508972,-22.178648,-2.929687,1.0724407178720883
0 days 00:02:02.450000,-0.390625,1.000244,0.130615,4.112244,-20.606993,-5.081176,1.0817283523999912
0 days 00:02:02.460000,-0.345459,0.936035,0.137695,-1.625061,10.45227,-6.965637,1.0072057162918606
0 days 00:02:02.470000,-0.394043,0.989014,0.122559,3.27301,-11.497497,-3.379822,1.0716525960058136
0 days 00:02:02.480000,-0.39209,0.987305,0.124268,3.318786,-12.626647,-3.684997,1.0695551724661052
0 days 00:02:02.490000,-0.392334,0.985596,0.123291,3.547668,-13.618468,-4.03595,1.0679541719816446
0 days 00:02:02.500000,-0.391357,0.984375,0.120117,3.562927,-14.419555,-4.165649,1.0661062497532785
0 days 00:02:02.510000,-0.387939,0.983643,0.118164,3.547668,-15.136718,-4.325867,1.063960972059596
0 days 00:02:02.520000,-0.392578,0.984131,0.120117,3.593445,-15.495299,-4.333496,1.0663298762268645
0 days 00:02:02.530000,-0.394287,0.983887,0.11792,3.616333,-16.471863,-4.074097,1.0664900344297643
0 days 00:02:02.540000,-0.394043,0.985596,0.114014,3.723144,-17.616272,-3.974914,1.0675525997631217
0 days 00:02:02.550000,-0.395264,0.986572,0.11792,3.974914,-18.554688,-3.837585,1.0693283252958374
0 days 00:02:02.560000,-0.38916,0.994141,0.132813,4.03595,-17.89093,-5.935668,1.0758257881506652
0 days 00:02:02.570000,-0.396973,0.986328,0.117676,4.15802,-19.515991,-3.631592,1.0697093658040953
0 days 00:02:02.580000,-0.39917,0.983398,0.117676,4.432678,-21.461485,-3.135681,1.0678276809860288
0 days 00:02:02.590000,-0.403076,0.993164,0.117432,4.631042,-22.499083,-2.746582,1.0782556595242152
0 days 00:02:02.600000,-0.40332,0.988281,0.12207,4.653931,-22.949217,-2.6474,1.074368392247743
0 days 00:02:02.610000,-0.404297,0.989502,0.123779,4.959106,-23.170469,-2.731323,1.076053675730909
0 days 00:02:02.620000,-0.404297,0.994385,0.119873,4.814148,-23.529051,-2.571106,1.0801051469940322
0 days 00:02:02.630000,-0.404541,0.996338,0.120361,4.692078,-23.994444,-2.708435,1.0820487979966522
0 days 00:02:02.640000,-0.4021,0.994873,0.123779,4.53949,-24.528502,-2.998352,1.0801749566482275
0 days 00:02:02.650000,-0.399414,0.997559,0.125488,4.547119,-24.528502,-3.410339,1.0818515332618428
0 days 00:02:02.660000,-0.397461,0.997314,0.128662,4.53186,-24.04022,-3.997802,1.0812790441699127
0 days 00:02:02.670000,-0.395752,0.999512,0.128662,4.28772,-22.743223,-4.386902,1.0826808365774283
0 days 00:02:02.680000,-0.397705,0.983887,0.118408,4.379272,-20.507811,-3.349304,1.0678124134219453
0 days 00:02:02.690000,-0.341309,0.942871,0.144043,-2.555847,14.869689,-5.737304,1.0130379765689932
0 days 00:02:02.700000,-0.349854,0.948242,0.158447,-2.281189,18.218994,-3.417969,1.0230670377296887
0 days 00:02:02.710000,-0.335449,0.963135,0.162354,-1.998901,21.278379,-1.838684,1.0327215893656914
0 days 00:02:02.720000,-0.291748,1.011475,0.156006,3.479004,-2.288818,-1.693725,1.0642069550444593
0 days 00:02:02.730000,-0.290039,1.009766,0.152344,3.52478,-4.66156,-2.174377,1.0615831058438148
0 days 00:02:02.740000,-0.293945,1.010742,0.154541,3.814697,-6.683349,-2.182007,1.063901299120365
0 days 00:02:02.750000,-0.282959,1.009033,0.151611,3.959656,-7.6828,-2.616882,1.0588669822461179
0 days 00:02:02.760000,-0.287842,1.007324,0.147705,3.990173,-8.880615,-3.044128,1.0580035089568467
0 days 00:02:02.770000,-0.289063,1.007813,0.145508,3.593445,-9.994507,-3.158569,1.058497538495957
0 days 00:02:02.780000,-0.293945,1.005371,0.147217,3.036499,-11.093139,-3.067016,1.057755811023981
0 days 00:02:02.790000,-0.291016,1.002441,0.149658,2.380371,-11.96289,-2.922058,1.0545026257440044
0 days 00:02:02.800000,-0.287354,1.000488,0.151611,1.983642,-12.20703,-2.975464,1.0519194145850719
0 days 00:02:02.810000,-0.283936,0.998535,0.154053,1.419067,-12.252807,-3.173828,1.0494875535850818
0 days 00:02:02.820000,-0.293213,1.009033,0.16333,3.120422,0.305176,-1.373291,1.0633899319431233
0 days 00:02:02.830000,-0.29126,0.999512,0.156982,0.892639,-11.825561,-3.280639,1.0528532538146045
0 days 00:02:02.840000,-0.299805,0.993896,0.170898,-0.274658,-10.414123,-2.799988,1.0521019072528097
0 days 00:02:02.850000,-0.297363,0.990234,0.179932,-0.518799,-9.689331,-2.89917,1.0494587429475253
0 days 00:02:02.860000,-0.30127,0.991699,0.186768,-0.50354,-8.575439,-2.960205,1.0531442471594288
0 days 00:02:02.870000,-0.306885,0.992188,0.195313,-0.480652,-7.087707,-2.784729,1.0567698891139925
0 days 00:02:02.880000,-0.309082,0.993652,0.20166,-0.709534,-5.149841,-2.410889,1.059972988065262
0 days 00:02:02.890000,-0.3125,0.995117,0.205566,-0.953674,-2.593994,-2.26593,1.0630952328201835
0 days 00:02:02.900000,-0.31958,0.997803,0.211914,-0.976562,0.152588,-2.098083,1.0689479625337241
0 days 00:02:02.910000,-0.322266,1.000732,0.218018,-0.740051,2.5177,-1.930237,1.073709345635028
0 days 00:02:02.920000,-0.326416,0.999756,0.222412,-0.213623,4.440308,-1.701355,1.0749542140649526
0 days 00:02:02.930000,-0.327393,1.001953,0.225586,0.1297,6.011962,-1.525879,1.0779540964503083
0 days 00:02:02.940000,-0.29834,1.000977,0.160889,0.106812,-11.009215,-2.975464,1.0568098128092869
0 days 00:02:02.950000,-0.300293,1.009277,0.167236,2.426147,2.960205,-1.533508,1.066200651038068
0 days 00:02:02.960000,-0.325928,0.998047,0.225586,0.442505,7.8125,-1.144409,1.0738789125357664
0 days 00:02:02.970000,-0.302002,1.01123,0.169434,1.022339,8.865356,-2.227783,1.0688775426867196
0 days 00:02:02.980000,-0.335205,0.980469,0.166504,-1.678467,23.963926,-1.235962,1.0494786486641832
0 days 00:02:02.990000,-0.32251,1.0,0.17334,-1.625061,27.046202,-1.724243,1.0649222768352626
0 days 00:02:03,-0.343018,1.009521,0.187012,-0.846863,26.847837,-2.426147,1.0824820949600045
0 days 00:02:03.010000,-0.351563,1.026367,0.190918,0.602722,23.483274,-2.746582,1.1015786147080016
0 days 00:02:03.020000,-0.342041,1.039063,0.187012,2.296448,20.088194,-3.40271,1.1097826146565823
0 days 00:02:03.030000,-0.330566,1.054688,0.171875,3.387451,18.180847,-4.119873,1.118562324291767
0 days 00:02:03.040000,-0.30127,1.01123,0.166748,1.617432,5.973815,-1.89209,1.068248389328999
0 days 00:02:03.050000,-0.333984,1.047852,0.153076,2.571106,17.967224,-4.653931,1.110392447712069
0 days 00:02:03.060000,-0.326904,1.03125,0.152344,3.181457,18.913269,-5.516052,1.0924978178705895
0 days 00:02:03.070000,-0.325928,1.025146,0.148926,2.761841,19.546509,-5.630493,1.085970688359497
0 days 00:02:03.080000,-0.322754,1.01001,0.15332,1.88446,19.073486,-5.050659,1.0713530543270973
0 days 00:02:03.090000,-0.335449,1.060303,0.156738,3.036499,17.753601,-4.28772,1.123091841326434
0 days 00:02:03.100000,-0.299561,1.000977,0.154053,1.853943,18.478394,-5.683898,1.0561363898943166
0 days 00:02:03.110000,-0.302246,0.998535,0.162598,0.63324,18.463135,-5.523681,1.055870683533263
0 days 00:02:03.120000,-0.299072,0.995117,0.165039,0.663757,18.486023,-6.141662,1.0521120550559242
0 days 00:02:03.130000,-0.295166,0.999268,0.165527,0.953674,18.638611,-6.66809,1.0550159672294066
0 days 00:02:03.140000,-0.300537,1.010498,0.16626,0.732422,18.318176,-6.515502,1.067272731766815
0 days 00:02:03.150000,-0.294922,1.008301,0.170166,0.030518,17.807007,-5.91278,1.0642398039168615
0 days 00:02:03.160000,-0.294434,1.015137,0.171631,0.106812,16.967773,-5.340576,1.0708182428806485
0 days 00:02:03.170000,-0.297363,1.01709,0.172119,0.068665,15.594481,-4.325867,1.0735556678766127
0 days 00:02:03.180000,-0.300781,1.016113,0.170654,0.434875,13.710021,-3.379822,1.0733487906761716
0 days 00:02:03.190000,-0.299805,1.012695,0.169678,0.495911,11.428832,-2.670288,1.0696844510106707
0 days 00:02:03.200000,-0.311035,0.994873,0.162354,2.342224,18.318176,-5.477905,1.0549283760853152
0 days 00:02:03.210000,-0.409424,0.976318,0.1521,-0.480652,0.160217,-0.221252,1.0695603110156997
0 days 00:02:03.220000,-0.413574,0.978027,0.1521,-0.473022,0.12207,0.083923,1.0727136972207447
0 days 00:02:03.230000,-0.414063,0.979736,0.150146,-0.579834,0.061035,0.244141,1.0741855607766286
0 days 00:02:03.240000,-0.415039,0.978271,0.147461,-0.564575,-0.183105,0.411987,1.0728542619960084
0 days 00:02:03.250000,-0.409912,0.978516,0.144531,-0.465393,-1.38855,-0.160217,1.0707056644853432
0 days 00:02:03.260000,-0.414795,0.983154,0.141602,-0.38147,-0.534058,0.137329,1.0764282633529276
0 days 00:02:03.270000,-0.415283,0.984131,0.142334,-0.419617,-0.686645,0.099182,1.0776051052245437
0 days 00:02:03.280000,-0.414551,0.981445,0.144043,-0.442505,-1.00708,-0.083923,1.0750977655427436
0 days 00:02:03.290000,-0.418701,0.980957,0.142578,-0.442505,-0.450134,0.335693,1.0760648908564947
0 days 00:02:03.300000,-0.408203,0.977539,0.154053,-0.389099,0.511169,-0.473022,1.070487978698967
0 days 00:02:03.310000,-0.404297,0.978516,0.143555,-1.76239,6.347656,-0.88501,1.0684370194307198
0 days 00:02:03.320000,-0.401611,0.974121,0.153564,-0.686645,2.128601,-0.75531,1.0647934166109405
0 days 00:02:03.330000,-0.40625,0.97583,0.153076,-0.663757,2.883911,-1.13678,1.0680428423878885
0 days 00:02:03.340000,-0.414551,0.977295,0.152344,-0.808716,3.089905,-0.907898,1.0724582709653556
0 days 00:02:03.350000,-0.410645,0.977783,0.146729,-0.75531,3.311157,-0.724792,1.070615855736781
0 days 00:02:03.360000,-0.413574,0.979004,0.143799,-0.862122,3.585815,-0.526428,1.0724599936095518
0 days 00:02:03.370000,-0.412109,0.976563,0.143066,-0.953674,4.348755,-0.541687,1.0695686051890265
0 days 00:02:03.380000,-0.409424,0.974609,0.143311,-1.068115,5.119323,-0.778198,1.0667843068671379
0 days 00:02:03.390000,-0.410156,0.976563,0.14209,-1.205444,5.554199,-0.63324,1.0686874217492222
0 days 00:02:03.400000,-0.407715,0.977051,0.140869,-1.441955,5.958557,-0.648498,1.0680375709622767
0 days 00:02:03.410000,-0.405518,0.979004,0.139404,-1.579285,6.301879,-0.740051,1.068797060042738
0 days 00:02:03.420000,-0.408447,0.977783,0.147461,-0.648498,-1.594543,0.114441,1.069875363497543
0 days 00:02:03.430000,-0.40625,0.973877,0.153076,-0.50354,1.060486,-0.480652,1.0662587563087114
0 days 00:02:03.440000,-0.405762,0.97876,0.150146,-0.617981,-1.914978,0.396728,1.0701204416139334
0 days 00:02:03.450000,-0.409424,0.974609,0.158203,0.244141,-1.144409,2.151489,1.0688867591405555
0 days 00:02:03.460000,-0.404785,0.979004,0.151123,-0.564575,-2.487183,0.556946,1.070111157483184
0 days 00:02:03.470000,-0.404541,0.977783,0.139404,-1.739502,6.011962,-1.190186,1.0673080581472247
0 days 00:02:03.480000,-0.389648,0.976563,0.144775,-0.289917,-4.554749,0.694275,1.0613485089724297
0 days 00:02:03.490000,-0.39624,0.976807,0.146973,-0.25177,-5.180358,0.785828,1.0643115688453264
0 days 00:02:03.500000,-0.400391,0.97583,0.148193,-0.091553,-5.714416,0.831604,1.0651376939297568
0 days 00:02:03.510000,-0.400879,0.977295,0.149902,0.076294,-6.126403,0.946045,1.0669021038830133
0 days 00:02:03.520000,-0.403809,0.979004,0.150879,0.106812,-6.515502,1.13678,1.0697079101969844
0 days 00:02:03.530000,-0.407471,0.980469,0.149414,0.274658,-6.378173,1.304626,1.0722297417988367
0 days 00:02:03.540000,-0.405029,0.981445,0.150146,0.328064,-5.836486,1.571655,1.0722996783464966
0 days 00:02:03.550000,-0.405273,0.977051,0.152832,0.190735,-4.753113,1.792908,1.0687527690509158
0 days 00:02:03.560000,-0.405029,0.974609,0.156738,0.068665,-3.509521,2.037048,1.0669948427082485
0 days 00:02:03.570000,-0.405273,0.978271,0.150879,-0.534058,-2.227783,0.480652,1.069590962289323
0 days 00:02:03.580000,-0.406982,0.973633,0.156982,0.167847,-2.388,2.090454,1.066882802999936
0 days 00:02:03.590000,-0.410645,0.973145,0.156006,0.37384,-1.228333,2.311707,1.0676977002344812
0 days 00:02:03.600000,-0.40625,0.974854,0.161133,0.534058,-1.205444,2.044678,1.0683366639337057
0 days 00:02:03.610000,-0.4021,0.979492,0.154785,0.587463,-0.892639,1.777649,1.0700688689467608
0 days 00:02:03.620000,-0.403564,0.985596,0.150146,0.358582,-0.411987,1.556396,1.0755497192728936
0 days 00:02:03.630000,-0.402588,0.985352,0.14502,0.030518,-0.068665,1.251221,1.0742562366809885
0 days 00:02:03.640000,-0.404785,0.987061,0.138428,-0.343323,-0.457764,1.022339,1.0757800077757533
0 days 00:02:03.650000,-0.404785,0.983643,0.13501,-0.801086,-1.213074,0.892639,1.0722090037739844
0 days 00:02:03.660000,-0.40625,0.981934,0.140137,-0.816345,-1.846313,0.75531,1.0718543845247823
0 days 00:02:03.670000,-0.406494,0.980225,0.149658,-0.732422,-2.39563,0.785828,1.0716696970732167
0 days 00:02:03.680000,-0.404053,0.977539,0.151367,-0.62561,-2.510071,0.701904,1.0685285639696303
0 days 00:02:03.690000,-0.409424,0.974365,0.156494,0.282288,-1.586914,2.204895,1.0684126248959247
0 days 00:02:03.700000,-0.40918,0.976807,0.138916,-1.754761,5.111694,-1.342773,1.0681188336065421
0 days 00:02:03.710000,-0.407227,0.980225,0.138672,-1.716614,4.196167,-1.426697,1.070469431482282
0 days 00:02:03.720000,-0.405273,0.981934,0.141846,-1.846313,3.40271,-1.533508,1.071709322811461
0 days 00:02:03.730000,-0.39624,0.98291,0.126709,-0.244141,-0.602722,-2.082825,1.0673206530284138
0 days 00:02:03.740000,-0.395752,0.984863,0.128418,-0.1297,-1.350403,-2.311707,1.0691426270601132
0 days 00:02:03.750000,-0.393555,0.983643,0.130859,-0.083923,-2.197266,-2.334595,1.0675032399740059
0 days 00:02:03.760000,-0.395508,0.983887,0.12915,-0.053406,-3.105163,-2.380371,1.0682415126426232
0 days 00:02:03.770000,-0.396729,0.983398,0.12793,-0.091553,-3.913879,-2.487183,1.0680971916192834
0 days 00:02:03.780000,-0.393555,0.983154,0.126953,-0.053406,-4.623413,-2.662658,1.0665807001582206
0 days 00:02:03.790000,-0.391602,0.985352,0.126221,0.099182,-5.332946,-2.861023,1.0678026180661855
0 days 00:02:03.800000,-0.39209,0.987549,0.122803,0.015259,-5.935668,-3.028869,1.0696112248429333
0 days 00:02:03.810000,-0.394043,0.985352,0.123535,0.106812,-6.599426,-3.120422,1.068386328056476
0 days 00:02:03.820000,-0.395752,0.983643,0.128174,0.411987,-7.408142,-3.219604,1.067989593221301
0 days 00:02:03.830000,-0.395996,0.979736,0.130615,-0.37384,0.183105,-1.953125,1.0647796673194883
0 days 00:02:03.840000,-0.397217,0.985107,0.128906,0.427246,-7.843017,-3.303528,1.0699691132803786
0 days 00:02:03.850000,-0.397217,0.986328,0.124268,0.816345,-7.911682,-3.356933,1.0705450969001726
0 days 00:02:03.860000,-0.399658,0.98584,0.126221,0.961304,-7.766723,-3.433227,1.0712323573366331
0 days 00:02:03.870000,-0.402588,0.987061,0.125488,1.289368,-7.67517,-3.410339,1.0733656197256367
0 days 00:02:03.880000,-0.402832,0.989014,0.125488,1.571655,-7.408142,-3.295898,1.0752532495017162
0 days 00:02:03.890000,-0.402832,0.986328,0.124512,1.846313,-7.408142,-3.303528,1.0726694653769164
0 days 00:02:03.900000,-0.402832,0.985107,0.126953,1.991272,-7.461547,-3.14331,1.071833236040943
0 days 00:02:03.910000,-0.400391,0.986572,0.127197,2.120972,-7.575988,-3.189087,1.0722948945481368
0 days 00:02:03.920000,-0.401367,0.986816,0.126221,2.532959,-7.904052,-3.082275,1.0727688601865735
0 days 00:02:03.930000,-0.399658,0.988525,0.125,2.861023,-8.415222,-2.960205,1.0735609868978102
0 days 00:02:03.940000,-0.398193,0.990479,0.125244,3.135681,-9.056091,-3.120422,1.0748452792034768
0 days 00:02:03.950000,-0.396729,0.984619,0.127197,0.671387,-8.026123,-3.311157,1.069134019387186
0 days 00:02:03.960000,-0.399902,0.981201,0.13208,-0.297546,0.991821,-2.006531,1.0677650202198048
0 days 00:02:03.970000,-0.397705,0.989014,0.123535,3.250122,-10.147094,-3.196716,1.0731164221304228
0 days 00:02:03.980000,-0.404785,0.983643,0.139893,-0.083923,1.998901,-1.686096,1.0728347958204003
0 days 00:02:03.990000,-0.406494,0.978516,0.141846,-1.724243,2.838135,-1.541138,1.0690421984224945
0 days 00:02:04,-0.405762,0.980469,0.14209,-1.739502,2.380371,-1.449585,1.0705848068719264
0 days 00:02:04.010000,-0.405273,0.97998,0.145264,-1.541138,2.27356,-1.571655,1.0703777999496253
0 days 00:02:04.020000,-0.405518,0.982178,0.145996,-1.220703,2.433777,-1.541138,1.072582539492416
0 days 00:02:04.030000,-0.408203,0.983643,0.143799,-0.991821,2.426147,-1.373291,1.0746447752904214
0 days 00:02:04.040000,-0.409668,0.982422,0.139404,-0.793457,1.88446,-1.38092,1.0735056271505985
0 days 00:02:04.050000,-0.403809,0.980957,0.137451,-0.076294,1.579285,-1.907349,1.0696873943966059
0 days 00:02:04.060000,-0.402588,0.981934,0.131348,-0.701904,-0.114441,-1.625061,1.069356710926714
0 days 00:02:04.070000,-0.400879,0.977051,0.129395,-0.823975,-1.00708,-1.838684,1.0639904582593775
0 days 00:02:04.080000,-0.399902,0.974854,0.132324,-0.976562,-1.846313,-2.166748,1.0619658995918841
0 days 00:02:04.090000,-0.398438,0.972412,0.131592,-1.144409,-2.632141,-2.380371,1.0590818627717125
0 days 00:02:04.100000,-0.407959,0.981934,0.137207,-0.701904,0.892639,-1.541138,1.0721243803244098
0 days 00:02:04.110000,-0.397461,0.972168,0.133057,-1.373291,-3.707886,-2.555847,1.0586737136596904
0 days 00:02:04.120000,-0.400635,0.9729,0.135498,-1.571655,-3.860473,-2.250671,1.0608499051369142
0 days 00:02:04.130000,-0.401611,0.975586,0.137939,-1.708984,-3.349304,-2.059937,1.063995585722986
0 days 00:02:04.140000,-0.401855,0.979004,0.141113,-1.922607,-2.304077,-1.998901,1.0676371817288868
0 days 00:02:04.150000,-0.405518,0.981445,0.140869,-1.770019,-0.869751,-1.686096,1.0712250984316976
0 days 00:02:04.160000,-0.406738,0.986084,0.141846,-1.586914,0.892639,-1.472473,1.0760658638838052
0 days 00:02:04.170000,-0.409912,0.987793,0.145264,-1.358032,2.189636,-1.373291,1.0792888808326526
0 days 00:02:04.180000,-0.412109,0.988037,0.145508,-1.00708,2.914428,-1.350403,1.0803811916698662
0 days 00:02:04.190000,-0.412109,0.986328,0.145264,-0.595093,2.922058,-1.327515,1.0787856048172872
0 days 00:02:04.200000,-0.4104,0.987549,0.144531,-0.183105,2.494812,-1.495361,1.0791526293170952
0 days 00:02:04.210000,-0.397705,0.972168,0.134521,-1.274109,-3.257751,-2.578735,1.0589503230510864
0 days 00:02:04.220000,-0.39502,0.983398,0.148926,-1.609802,6.072998,-0.457764,1.0701828723540665
0 days 00:02:04.230000,-0.39209,0.984375,0.147461,-1.64032,5.577087,-0.473022,1.0698006614533382
0 days 00:02:04.240000,-0.389893,0.983154,0.147461,-1.319885,5.065917,-0.328064,1.0678731599239677
0 days 00:02:04.250000,-0.392578,0.983398,0.147949,-1.159668,4.66156,-0.289917,1.0691482680568678
0 days 00:02:04.260000,-0.390869,0.981445,0.151123,-0.053406,3.105163,0.144958,1.0671696323991795
0 days 00:02:04.270000,-0.391846,0.983643,0.149658,-0.518799,4.173279,-0.274658,1.0693429553370613
0 days 00:02:04.280000,-0.392578,0.981201,0.149658,-0.358582,3.852844,-0.091553,1.0673661065674702
0 days 00:02:04.290000,-0.392334,0.981445,0.151855,-0.12207,3.494262,-0.076294,1.067810936732716
0 days 00:02:04.300000,-0.389893,0.983643,0.148926,-0.846863,4.425049,-0.335693,1.0685265819688343
0 days 00:02:04.310000,-0.394775,0.984131,0.150146,-1.586914,6.362915,-0.572205,1.0709364813573212
0 days 00:02:04.320000,-0.394775,0.97876,0.1521,-1.564026,2.815246,-0.358582,1.0662799108231384
0 days 00:02:04.330000,-0.394531,0.984375,0.148438,-1.64032,6.706237,-0.740051,1.070832708890609
0 days 00:02:04.340000,-0.392334,0.984131,0.145996,-1.686096,6.553649,-0.907898,1.0694646439845499
0 days 00:02:04.350000,-0.39624,0.983887,0.14502,-1.548767,6.278991,-0.923157,1.0705468540745893
0 days 00:02:04.360000,-0.397705,0.981689,0.146973,-1.358032,5.981445,-0.968933,1.069337936517264
0 days 00:02:04.370000,-0.398193,0.981445,0.14624,-1.502991,5.516052,-0.968933,1.0691950668021246
0 days 00:02:04.380000,-0.395996,0.976563,0.147217,-1.365662,5.012512,-0.961304,1.0640305306117865
0 days 00:02:04.390000,-0.397705,0.976563,0.145996,-1.502991,4.371643,-0.823975,1.0644995969985145
0 days 00:02:04.400000,-0.39624,0.975586,0.147949,-1.564026,3.77655,-0.610352,1.0633264257023805
0 days 00:02:04.410000,-0.393555,0.975098,0.150635,-1.556396,3.318786,-0.495911,1.0622582317186344
0 days 00:02:04.420000,-0.394531,0.976807,0.151123,-1.518249,2.990722,-0.404358,1.064257857071772
0 days 00:02:04.430000,-0.394287,0.979736,0.150391,0.007629,2.662658,0.37384,1.066753167769377
0 days 00:02:04.440000,-0.39502,0.985107,0.149414,-1.701355,6.599426,-0.686645,1.0718214148098553
0 days 00:02:04.450000,-0.399902,0.981934,0.148926,0.236511,2.334595,0.411987,1.0706516442970608
0 days 00:02:04.460000,-0.395264,0.979492,0.146484,-0.244141,0.267029,0.38147,1.0663469276065833
0 days 00:02:04.470000,-0.400879,0.980469,0.14917,0.274658,1.754761,0.427246,1.0697079608481934
0 days 00:02:04.480000,-0.394531,0.979736,0.151367,-1.434326,2.662658,-0.152588,1.0669814001874636
0 days 00:02:04.490000,-0.398438,0.97998,0.145264,0.534058,-1.678467,0.228882,1.0678086298302707
0 days 00:02:04.500000,-0.395264,0.980225,0.146729,0.549316,-1.167297,0.404358,1.0670539254236404
0 days 00:02:04.510000,-0.398682,0.981445,0.14502,0.640869,-0.419617,0.411987,1.0692111230009722
0 days 00:02:04.520000,-0.396729,0.983398,0.142334,0.62561,0.152588,0.37384,1.0699179844273112
0 days 00:02:04.530000,-0.392822,0.981445,0.142578,0.556946,0.778198,0.38147,1.0667107845114345
0 days 00:02:04.540000,-0.394287,0.980469,0.146484,0.50354,1.052856,0.366211,1.0668829648026068
0 days 00:02:04.550000,-0.390625,0.976807,0.14624,0.396728,1.098633,0.335693,1.0621327334537807
0 days 00:02:04.560000,-0.392334,0.980225,0.144531,0.259399,0.831604,0.221252,1.0656717262562614
0 days 00:02:04.570000,-0.390869,0.980957,0.141846,0.038147,0.534058,0.25177,1.065446150082678
0 days 00:02:04.580000,-0.400635,0.980713,0.148926,0.190735,2.037048,0.442505,1.0698062184666903
0 days 00:02:04.590000,-0.391846,0.979736,0.142334,-0.061035,0.289917,0.244141,1.0647463946724591
0 days 00:02:04.600000,-0.392822,0.97998,0.146729,-0.175476,0.25177,0.350952,1.0659265094390888
0 days 00:02:04.610000,-0.395752,0.980713,0.148438,-0.205994,0.335693,0.480652,1.0679192262137618
0 days 00:02:04.620000,-0.396729,0.981689,0.145996,-0.1297,0.37384,0.465393,1.0688414401481634
0 days 00:02:04.630000,-0.397461,0.982666,0.148438,0.076294,0.473022,0.457764,1.0703464644314944
0 days 00:02:04.640000,-0.39917,0.982422,0.14917,0.25177,0.518799,0.328064,1.0708601047214337
0 days 00:02:04.650000,-0.399902,0.983887,0.147949,0.25177,0.640869,0.236511,1.0723078592335318
0 days 00:02:04.660000,-0.398438,0.982422,0.147461,0.320435,0.87738,0.198364,1.0703506773244926
0 days 00:02:04.670000,-0.400635,0.980469,0.145508,0.419617,1.12915,0.099182,1.0691119872352008
0 days 00:02:04.680000,-0.401855,0.982178,0.147949,0.488281,1.426697,0.228882,1.0714709381546472
0 days 00:02:04.690000,-0.402344,0.982422,0.149414,0.419617,1.63269,0.404358,1.0720812580285135
0 days 00:02:04.700000,-0.392822,0.980225,0.144531,-0.038147,0.190735,0.267029,1.0658514832142423
0 days 00:02:04.710000,-0.394531,0.979492,0.15332,-1.350403,2.578735,-0.12207,1.0670362273254832
0 days 00:02:04.720000,-0.398438,0.981934,0.145752,0.556946,-1.838684,0.137329,1.0696685775061356
0 days 00:02:04.730000,-0.395264,0.979492,0.161377,-1.152039,2.799988,-0.038147,1.0684946157510575
0 days 00:02:04.740000,-0.392334,0.984863,0.152588,-1.350403,5.66101,0.053406,1.071057512026782
0 days 00:02:04.750000,-0.393066,0.983398,0.151367,-1.38092,5.714416,0.045776,1.069805812028052
0 days 00:02:04.760000,-0.393066,0.980713,0.148926,-1.480102,5.706787,0.152588,1.0669947620307234
0 days 00:02:04.770000,-0.392578,0.981445,0.14917,-1.556396,5.645751,0.236511,1.0675221135925006
0 days 00:02:04.780000,-0.390869,0.980957,0.151123,-1.38092,5.676269,0.312805,1.0667208501473102
0 days 00:02:04.790000,-0.390381,0.980225,0.151855,-1.319885,5.752563,0.404358,1.0659729437518572
0 days 00:02:04.800000,-0.387939,0.979492,0.149414,-1.274109,5.66101,0.465393,1.0640609894085018
0 days 00:02:04.810000,-0.384277,0.979492,0.147461,-1.190186,5.363464,0.38147,1.0624585343974606
0 days 00:02:04.820000,-0.386475,0.982666,0.147217,-1.144409,5.126953,0.358582,1.0661464431634147
0 days 00:02:04.830000,-0.387939,0.984375,0.14502,-1.144409,4.768372,0.25177,1.0679520629438384
0 days 00:02:04.840000,-0.394775,0.985352,0.156006,-1.472473,5.546569,0.167847,1.0728950258832408
0 days 00:02:04.850000,-0.386963,0.984131,0.144531,-1.289368,4.264832,0.205994,1.0673066094103418
0 days 00:02:04.860000,-0.385742,0.97998,0.144287,-1.533508,3.631592,0.289917,1.0630034945064857
0 days 00:02:04.870000,-0.386475,0.981689,0.145752,-1.525879,2.952575,0.419617,1.065044536087576
0 days 00:02:04.880000,-0.386475,0.980957,0.147705,-1.403808,2.296448,0.640869,1.0646390601978681
0 days 00:02:04.890000,-0.388428,0.981445,0.148926,-1.228333,1.365662,0.63324,1.065968832886309
0 days 00:02:04.900000,-0.389404,0.981934,0.150635,-0.999451,0.305176,0.610352,1.0670148821815935
0 days 00:02:04.910000,-0.390137,0.982178,0.151123,-0.694275,-0.823975,0.63324,1.067576069225046
0 days 00:02:04.920000,-0.388428,0.983887,0.150146,-0.434875,-1.899719,0.648498,1.0683883943908226
0 days 00:02:04.930000,-0.387695,0.979736,0.147461,-0.213623,-2.754211,0.686645,1.0639242403677058
0 days 00:02:04.940000,-0.388916,0.97876,0.145996,-0.282288,-3.356933,0.717163,1.0632693095693113
0 days 00:02:04.950000,-0.388184,0.979248,0.14502,-0.38147,-3.90625,0.656128,1.0633175742740264
0 days 00:02:04.960000,-0.384766,0.980469,0.141846,-1.525879,4.051208,0.297546,1.0627721404106338
0 days 00:02:04.970000,-0.39209,0.984131,0.153809,-1.472473,5.40924,0.183105,1.0704698042177556
0 days 00:02:04.980000,-0.39624,0.979736,0.157227,-1.243591,2.578735,-0.099182,1.0684610881192633
0 days 00:02:04.990000,-0.390381,0.980469,0.158936,-1.396179,4.776001,0.511169,1.067228858876108
0 days 00:02:05,-0.395508,0.981445,0.159668,-1.052856,3.250122,0.053406,1.0701190290397606
0 days 00:02:05.010000,-0.395264,0.98291,0.158447,-1.121521,3.700256,-0.030518,1.0711914626270134
0 days 00:02:05.020000,-0.396729,0.983398,0.158203,-1.235962,4.051208,0.0,1.0721444469165524
0 days 00:02:05.030000,-0.397705,0.982666,0.158691,-1.075745,4.562378,0.045776,1.0719069773361867
0 days 00:02:05.040000,-0.396484,0.981934,0.155518,-0.999451,5.187988,0.015259,1.0703176121768716
0 days 00:02:05.050000,-0.398193,0.983643,0.15625,-0.915527,5.79071,-0.030518,1.0726254142047913
0 days 00:02:05.060000,-0.38916,0.981201,0.154541,-1.38092,5.081176,0.350952,1.0668101183818983
0 days 00:02:05.070000,-0.399414,0.982178,0.15332,-1.052856,6.431579,0.289917,1.0713133012709213
0 days 00:02:05.080000,-0.396729,0.978027,0.1521,-1.12915,6.896972,0.274658,1.0663325570243083
0 days 00:02:05.090000,-0.394287,0.97876,0.151855,-1.220703,7.347106,0.366211,1.0660644056500528
0 days 00:02:05.100000,-0.390869,0.980469,0.151123,-1.434326,7.637023,0.25177,1.066272102350521
0 days 00:02:05.110000,-0.398926,0.984863,0.154053,-0.938415,6.072998,0.175476,1.07369893780985
0 days 00:02:05.120000,-0.389404,0.977295,0.153564,-1.373291,7.011413,-0.045776,1.0631664471459772
0 days 00:02:05.130000,-0.389648,0.979492,0.15332,-1.281738,6.195068,-0.282288,1.0652404256166774
0 days 00:02:05.140000,-0.389893,0.979248,0.150635,-1.296997,5.393981,-0.419617,1.0647225461020349
0 days 00:02:05.150000,-0.39209,0.978516,0.152832,-1.281738,4.394531,-0.404358,1.0651693530044883
0 days 00:02:05.160000,-0.392334,0.979492,0.154541,-1.251221,3.768921,-0.205994,1.066402112854715
0 days 00:02:05.170000,-0.391846,0.981689,0.15332,-1.556396,3.959656,-0.404358,1.0680653551337578
0 days 00:02:05.180000,-0.390625,0.982178,0.154297,-1.754761,4.333496,-0.37384,1.0682083497698378
0 days 00:02:05.190000,-0.39502,0.980957,0.152832,-1.564026,4.440308,0.068665,1.0684919543323663
0 days 00:02:05.200000,-0.394775,0.980957,0.155518,-1.457214,4.455566,0.38147,1.0687889336992593
0 days 00:02:05.210000,-0.391846,0.981934,0.157227,-1.495361,4.577637,0.50354,1.068858268247479
0 days 00:02:05.220000,-0.391846,0.979492,0.153564,-1.518249,7.583618,0.061035,1.0660815015166523
0 days 00:02:05.230000,-0.390137,0.983154,0.14917,-0.480652,0.534058,-0.595093,1.0681995859318614
0 days 00:02:05.240000,-0.391602,0.983643,0.146729,-0.717163,0.556946,-0.663757,1.0688475463292229
0 days 00:02:05.250000,-0.391113,0.983643,0.141602,-0.793457,0.350952,-0.564575,1.0679766180127728
0 days 00:02:05.260000,-0.387451,0.981689,0.143799,-0.762939,0.236511,-0.747681,1.0651336641581657
0 days 00:02:05.270000,-0.387207,0.983154,0.143311,-0.732422,1.052856,-1.220703,1.0663297291579186
0 days 00:02:05.280000,-0.386719,0.982178,0.146973,-0.778198,-0.061035,-0.808716,1.0657515054523732
0 days 00:02:05.290000,-0.38623,0.980957,0.145264,-0.740051,0.030518,-0.801086,1.0642142070302387
0 days 00:02:05.300000,-0.388184,0.98291,0.143311,-0.740051,0.495911,-1.022339,1.0664599986295782
0 days 00:02:05.310000,-0.387695,0.983154,0.145264,-0.701904,0.12207,-0.87738,1.066771217476831
0 days 00:02:05.320000,-0.389648,0.978271,0.149658,-0.396728,0.587463,-0.63324,1.063596366254135
0 days 00:02:05.330000,-0.388428,0.983887,0.147217,0.457764,-0.526428,-0.236511,1.0679807044333711
0 days 00:02:05.340000,-0.389893,0.982178,0.152588,-0.396728,0.419617,-0.419617,1.0676953090076775
0 days 00:02:05.350000,-0.391113,0.983643,0.153809,-0.37384,0.152588,-0.38147,1.0696635633221319
0 days 00:02:05.360000,-0.389893,0.981445,0.157227,-0.076294,0.25177,-0.282288,1.0676943237664045
0 days 00:02:05.370000,-0.391113,0.983887,0.154541,0.1297,0.190735,-0.167847,1.0699934243811968
0 days 00:02:05.380000,-0.390869,0.983643,0.151123,0.259399,0.045776,-0.160217,1.069191417726031
0 days 00:02:05.390000,-0.391357,0.984619,0.151611,0.366211,-0.152588,-0.099182,1.0703367563206452
0 days 00:02:05.400000,-0.390137,0.985107,0.149902,0.495911,-0.328064,-0.1297,1.0700996634996198
0 days 00:02:05.410000,-0.387207,0.986572,0.147461,0.495911,-0.442505,-0.167847,1.0700459422632282
0 days 00:02:05.420000,-0.386963,0.984375,0.146973,0.610352,-0.549316,-0.228882,1.0678649571565686
0 days 00:02:05.430000,-0.389893,0.985352,0.143799,0.50354,-0.526428,-0.12207,1.0693985542135356
0 days 00:02:05.440000,-0.385254,0.982666,0.143066,-0.717163,1.419067,-1.296997,1.065138954516264
0 days 00:02:05.450000,-0.392578,0.980957,0.150635,-0.427246,0.663757,-0.518799,1.0672792629663521
0 days 00:02:05.460000,-0.385254,0.982178,0.143311,-0.564575,1.541138,-1.403808,1.064721705856042
0 days 00:02:05.470000,-0.392578,0.983643,0.152344,-1.434326,2.037048,-1.228333,1.0699905288688307
0 days 00:02:05.480000,-0.388184,0.983887,0.147217,-0.442505,2.113342,-1.579285,1.0678919850406219
0 days 00:02:05.490000,-0.388428,0.981445,0.145264,0.63324,-0.602722,-0.274658,1.065463386937815
0 days 00:02:05.500000,-0.391113,0.980957,0.157471,-1.403808,1.312256,-0.831604,1.0677280227000694
0 days 00:02:05.510000,-0.389893,0.982666,0.154541,-1.12915,1.144409,-0.816345,1.0684249808414255
0 days 00:02:05.520000,-0.389648,0.986572,0.151855,-1.00708,0.88501,-0.892639,1.0715455268503529
0 days 00:02:05.530000,-0.39209,0.985352,0.145508,-0.907898,0.701904,-0.976562,1.0704324873937636
0 days 00:02:05.540000,-0.396484,0.984131,0.141846,-0.938415,0.541687,-1.060486,1.07043620787649
0 days 00:02:05.550000,-0.394043,0.985596,0.146973,-1.091003,0.511169,-1.113892,1.0715738069745826
0 days 00:02:05.560000,-0.391602,0.983887,0.149902,-1.014709,0.579834,-1.052856,1.0695122088022184
0 days 00:02:05.570000,-0.393066,0.981934,0.14502,-1.068115,0.663757,-0.953674,1.0675795338577825
0 days 00:02:05.580000,-0.396484,0.984863,0.14624,-1.205444,0.88501,-0.839233,1.071699971365587
0 days 00:02:05.590000,-0.387695,0.983643,0.147949,-0.511169,1.739502,-1.449585,1.0675906851762056
0 days 00:02:05.600000,-0.39502,0.986084,0.145996,-1.342773,1.213074,-0.968933,1.0722487059782353
0 days 00:02:05.610000,-0.392334,0.986084,0.150879,-1.396179,1.846313,-1.106262,1.071938475498011
0 days 00:02:05.620000,-0.391113,0.983643,0.1521,-1.12915,2.243042,-1.213074,1.0694191602070724
0 days 00:02:05.630000,-0.391602,0.983398,0.152588,-0.915527,2.433777,-1.121521,1.0694423081924522
0 days 00:02:05.640000,-0.391357,0.983398,0.152832,-0.679016,2.677917,-1.098633,1.0693874639610286
0 days 00:02:05.650000,-0.389648,0.982422,0.152344,-0.640869,2.929687,-1.083374,1.0677955067914455
0 days 00:02:05.660000,-0.389648,0.984863,0.150391,-0.640869,3.326416,-1.197815,1.0697654628721194
0 days 00:02:05.670000,-0.388916,0.986572,0.150635,-0.656128,3.65448,-1.365662,1.07110730996712
0 days 00:02:05.680000,-0.386963,0.986816,0.149658,-0.534058,3.509521,-1.518249,1.070487598334983
0 days 00:02:05.690000,-0.386475,0.985352,0.147705,-0.526428,3.181457,-1.663208,1.068689972140658
0 days 00:02:05.700000,-0.385986,0.985107,0.144287,-0.450134,2.76947,-1.716614,1.0678200841031227
0 days 00:02:05.710000,-0.39209,0.986328,0.147217,-1.419067,1.586914,-1.00708,1.0715644342609547
0 days 00:02:05.720000,-0.388428,0.98291,0.144531,0.648498,-0.907898,-0.137329,1.0667134522658839
0 days 00:02:05.730000,-0.388428,0.983398,0.144531,0.709534,-0.984192,-0.114441,1.0671631307110454
0 days 00:02:05.740000,-0.386475,0.981934,0.146484,0.808716,-1.121521,-0.198364,1.0653707656196505
0 days 00:02:05.750000,-0.390625,0.986084,0.145264,0.427246,-3.120422,-0.030518,1.070537797266869
0 days 00:02:05.760000,-0.390137,0.983643,0.145752,0.404358,-3.257751,-0.167847,1.0681779232515527
0 days 00:02:05.770000,-0.390137,0.983154,0.145508,0.427246,-3.211975,-0.175476,1.0676943591445072
0 days 00:02:05.780000,-0.393799,0.983398,0.147217,0.358582,-3.39508,-0.144958,1.0694962009722149
0 days 00:02:05.790000,-0.39209,0.985352,0.141357,0.228882,-3.52478,-0.1297,1.069876129957576
0 days 00:02:05.800000,-0.394043,0.982422,0.139648,0.267029,-3.570556,-0.236511,1.0676724384552596
0 days 00:02:05.810000,-0.392822,0.981934,0.143311,0.228882,-3.417969,-0.190735,1.0672588939713739
0 days 00:02:05.820000,-0.392822,0.982422,0.14624,0.205994,-3.097534,-0.114441,1.0681049795633386
0 days 00:02:05.830000,-0.393066,0.981201,0.150635,0.152588,-2.761841,-0.12207,1.0676830924867173
0 days 00:02:05.840000,-0.392578,0.980225,0.148682,0.244141,-2.441406,-0.099182,1.0663324405798598
0 days 00:02:05.850000,-0.390625,0.986084,0.145752,0.488281,-2.838135,0.022888,1.0706041244012652
0 days 00:02:05.860000,-0.392822,0.97876,0.150146,0.236511,-2.01416,-0.030518,1.065281222307049
0 days 00:02:05.870000,-0.394775,0.981445,0.149414,0.404358,-0.938415,0.190735,1.0683661039390946
0 days 00:02:05.880000,-0.393555,0.983643,0.148193,0.274658,-0.358582,0.389099,1.069766448680739
0 days 00:02:05.890000,-0.391113,0.98291,0.14917,0.312805,0.007629,0.305176,1.0683319408166172
0 days 00:02:05.900000,-0.394043,0.983643,0.148193,0.282288,0.030518,0.083923,1.0699460745976874
0 days 00:02:05.910000,-0.393555,0.983154,0.146973,0.274658,-0.37384,0.0,1.069148440802305
0 days 00:02:05.920000,-0.393555,0.983398,0.149902,0.320435,-0.831604,0.015259,1.0697793109015523
0 days 00:02:05.930000,-0.393799,0.983154,0.151123,0.343323,-1.235962,0.0,1.0698166203822037
0 days 00:02:05.940000,-0.392578,0.981934,0.150879,0.541687,-1.647949,-0.083923,1.0682117482414242
0 days 00:02:05.950000,-0.393555,0.980713,0.151123,0.602722,-1.846313,-0.053406,1.0674838113634322
0 days 00:02:05.960000,-0.395264,0.98291,0.149414,0.762939,-1.89209,-0.076294,1.0698926306840326
0 days 00:02:05.970000,-0.396729,0.981201,0.151123,0.259399,-1.464844,0.061035,1.0691059175642983
0 days 00:02:05.980000,-0.388428,0.986572,0.14624,0.473022,-2.670288,0.091553,1.0703208677625602
0 days 00:02:05.990000,-0.397217,0.98584,0.148438,0.63324,-1.89209,0.076294,1.0731708580337989
0 days 00:02:06,-0.388916,0.982178,0.14917,0.518799,-2.716064,0.0,1.0668556451741724
0 days 00:02:06.010000,-0.386963,0.986084,0.146729,0.595093,-1.25885,-0.160217,1.0694070403106573
0 days 00:02:06.020000,-0.387207,0.983643,0.14624,0.656128,-1.495361,-0.068665,1.0671780310229404
0 days 00:02:06.030000,-0.387207,0.983643,0.148193,0.694275,-1.770019,-0.068665,1.0674474120756487
0 days 00:02:06.040000,-0.38623,0.983154,0.147461,0.740051,-2.082825,-0.106812,1.0665412074256673
0 days 00:02:06.050000,-0.385986,0.984863,0.14917,0.854492,-2.426147,-0.1297,1.0682658891235834
0 days 00:02:06.060000,-0.387207,0.985107,0.147949,0.869751,-2.746582,-0.091553,1.068762821630225
0 days 00:02:06.070000,-0.388428,0.984863,0.149414,0.419617,-2.548218,0.038147,1.0691847283556757
0 days 00:02:06.080000,-0.388184,0.984863,0.148926,0.946045,-3.051758,-0.045776,1.0690280165182764
0 days 00:02:06.090000,-0.391846,0.984619,0.148438,0.915527,-3.166198,0.022888,1.0700708867738624
0 days 00:02:06.100000,-0.391357,0.983887,0.146484,0.991821,-3.120422,0.0,1.0689487791629682
0 days 00:02:06.110000,-0.389893,0.984131,0.142822,1.113892,-3.005981,-0.083923,1.0681425468044983
0 days 00:02:06.120000,-0.387939,0.984619,0.148438,0.892639,-2.967834,-0.083923,1.06864637870813
0 days 00:02:06.130000,-0.392822,0.981689,0.140625,0.915527,-2.624511,0.083923,1.066676055337327
0 days 00:02:06.140000,-0.38916,0.981201,0.144043,0.907898,-2.5177,0.152588,1.0653399897919913
0 days 00:02:06.150000,-0.391113,0.981201,0.142578,0.724792,-2.479553,0.083923,1.0658579958202687
0 days 00:02:06.160000,-0.389404,0.984375,0.138916,0.640869,-2.304077,0.045776,1.0676737661369227
0 days 00:02:06.170000,-0.388428,0.985596,0.141846,0.747681,-2.105713,-0.068665,1.0688293007379617
0 days 00:02:06.180000,-0.390137,0.984863,0.143799,0.762939,-1.968384,-0.213623,1.0690370245875491
0 days 00:02:06.190000,-0.388184,0.983887,0.143311,0.457764,-2.01416,-0.274658,1.0673605245398576
0 days 00:02:06.200000,-0.388428,0.98291,0.145508,0.457764,-2.182007,-0.190735,1.0668462669700822
0 days 00:02:06.210000,-0.389404,0.981689,0.144531,0.465393,-2.449036,-0.053406,1.0659446411038427
0 days 00:02:06.220000,-0.388916,0.982178,0.147461,0.595093,-2.662658,0.0,1.0666180315656584
0 days 00:02:06.230000,-0.393311,0.984619,0.140869,1.152039,-2.89154,-0.061035,1.0695850564789133
0 days 00:02:06.240000,-0.402588,0.976318,0.157471,0.114441,-0.869751,-0.465393,1.0677410972276942
0 days 00:02:06.250000,-0.401611,0.978027,0.15918,0.045776,-1.182556,-0.518799,1.069189637272079
0 days 00:02:06.260000,-0.400635,0.979248,0.163086,0.015259,-1.365662,-0.63324,1.0705288843020537
0 days 00:02:06.270000,-0.399414,0.978271,0.157715,-0.015259,-1.274109,-0.640869,1.0683724603629579
0 days 00:02:06.280000,-0.397217,0.977539,0.152832,-0.183105,-0.808716,-0.892639,1.066171403590436
0 days 00:02:06.290000,-0.401611,0.981201,0.153564,-0.1297,-1.274109,-0.595093,1.0712743345278088
0 days 00:02:06.300000,-0.400879,0.979004,0.154053,-0.12207,-1.068115,-0.572205,1.0690580580426863
0 days 00:02:06.310000,-0.39917,0.977295,0.155762,-0.160217,-0.907898,-0.762939,1.0671007480875458
0 days 00:02:06.320000,-0.399658,0.981445,0.154053,-0.068665,-1.182556,-0.671387,1.0708375842292799
0 days 00:02:06.330000,-0.40332,0.976318,0.157471,0.022888,-0.50354,-0.404358,1.0680173104238526
0 days 00:02:06.340000,-0.393066,0.977295,0.152832,0.968933,0.50354,-0.465393,1.0644078248514524
0 days 00:02:06.350000,-0.404297,0.979004,0.154541,0.175476,0.679016,-0.289917,1.0704147873165804
0 days 00:02:06.360000,-0.407227,0.978271,0.156006,0.297546,1.113892,-0.114441,1.0710676220510076
0 days 00:02:06.370000,-0.407959,0.978271,0.158203,0.37384,1.472473,-0.030518,1.0716682715892079
0 days 00:02:06.380000,-0.404541,0.981934,0.155518,0.526428,1.937866,0.076294,1.0733283045559732
0 days 00:02:06.390000,-0.403076,0.97876,0.155029,0.671387,2.204895,0.244141,1.0698015658134923
0 days 00:02:06.400000,-0.401367,0.979248,0.153076,0.778198,2.494812,0.244141,1.069324261376782
0 days 00:02:06.410000,-0.399902,0.978271,0.149902,0.801086,2.746582,0.099182,1.0674297956535597
0 days 00:02:06.420000,-0.397949,0.980225,0.150879,0.747681,2.975464,-0.022888,1.0686294633159803
0 days 00:02:06.430000,-0.395264,0.979248,0.151855,0.839233,2.6474,-0.106812,1.0668740395309093
0 days 00:02:06.440000,-0.394531,0.980713,0.152832,0.854492,1.739502,-0.259399,1.0680872242256247
0 days 00:02:06.450000,-0.39624,0.976563,0.151611,-0.152588,-0.518799,-1.029968,1.0647381489784236
0 days 00:02:06.460000,-0.402832,0.97876,0.158447,0.099182,0.106812,-0.343323,1.0702103576554471
0 days 00:02:06.470000,-0.39917,0.976074,0.151123,-0.289917,-0.160217,-1.075745,1.065314650000177
0 days 00:02:06.480000,-0.393311,0.980713,0.191895,-5.180358,4.074097,-0.419617,1.073925147351993
0 days 00:02:06.490000,-0.395996,0.978027,0.164551,-0.732422,1.13678,-1.327515,1.0679076160164793
0 days 00:02:06.500000,-0.391846,0.974609,0.154053,1.083374,-0.869751,-0.526428,1.0616677057375343
0 days 00:02:06.510000,-0.382568,1.011963,0.433838,-20.545958,-13.229369,-2.059937,1.165608338266761
0 days 00:02:06.520000,-0.378662,0.996094,0.390869,-17.578125,-7.858276,-1.945495,1.1350624397983575
0 days 00:02:06.530000,-0.363281,0.985596,0.353027,-15.640258,-4.585266,-1.914978,1.1081518952318767
0 days 00:02:06.540000,-0.349609,0.974365,0.328613,-14.167785,-2.426147,-2.052307,1.0860939691734781
0 days 00:02:06.550000,-0.358887,0.971924,0.312744,-11.83319,-1.174927,-1.693725,1.0822407080132406
0 days 00:02:06.560000,-0.362549,0.988525,0.273193,-9.895325,-0.061035,-1.075745,1.0877765709349507
0 days 00:02:06.570000,-0.359375,1.000488,0.25293,-9.292603,0.595093,-0.389099,1.0927489252655433
0 days 00:02:06.580000,-0.356934,0.999023,0.262207,-8.132935,0.450134,0.007629,1.09279519844022
0 days 00:02:06.590000,-0.358643,0.996582,0.252441,-6.92749,1.358032,0.076294,1.0888190587301454
0 days 00:02:06.600000,-0.397461,0.975586,0.158936,-0.366211,0.411987,-1.213074,1.0653656377098897
0 days 00:02:06.610000,-0.369385,0.991211,0.237793,-6.767272,3.425598,-0.083923,1.0842001824363432
0 days 00:02:06.620000,-0.387451,0.977783,0.208984,-5.630493,5.149841,-0.320435,1.0723116080440425
0 days 00:02:06.630000,-0.390137,0.981934,0.192871,-4.241943,1.869202,-0.640869,1.0740579508415735
0 days 00:02:06.640000,-0.386475,0.983154,0.190186,-3.051758,0.152588,-1.098633,1.07337105789983
0 days 00:02:06.650000,-0.395264,0.984375,0.180176,-1.976013,-0.282288,-1.182556,1.0759605760886408
0 days 00:02:06.660000,-0.387451,0.983398,0.175781,-1.457214,0.305176,-1.12915,1.0714890870960843
0 days 00:02:06.670000,-0.385742,0.982666,0.170898,-1.296997,1.472473,-1.235962,1.0694089416701171
0 days 00:02:06.680000,-0.387939,0.978516,0.170654,-1.38092,2.578735,-1.38092,1.0663550148487135
0 days 00:02:06.690000,-0.391602,0.972656,0.166504,-1.525879,2.868652,-1.502991,1.0616663330613814
0 days 00:02:06.700000,-0.399414,0.974121,0.160889,-1.464844,2.403259,-1.38092,1.0650486075095351
0 days 00:02:06.710000,-0.397705,0.978271,0.161865,-1.167297,1.869202,-1.296997,1.068355603107411
0 days 00:02:06.720000,-0.378662,0.979736,0.229004,-6.263732,4.882813,-0.244141,1.0750397071531823
0 days 00:02:06.730000,-0.393799,0.973877,0.154297,1.068115,-1.983642,-0.473022,1.0617540335402547
0 days 00:02:06.740000,-0.35376,1.028564,0.482666,-24.085997,-21.636961,-1.647949,1.1899817255958176
0 days 00:02:06.750000,-0.393799,0.978271,0.156006,1.014709,-3.799438,-0.457764,1.0660345556678732
0 days 00:02:06.760000,-0.398193,0.977051,0.147705,-1.373291,1.548767,-1.060486,1.0653652373130071
0 days 00:02:06.770000,-0.398193,0.976074,0.14917,-1.403808,1.457214,-0.991821,1.0646735685763031
0 days 00:02:06.780000,-0.39624,0.979492,0.146729,-1.64032,1.548767,-1.113892,1.0667427595746783
0 days 00:02:06.790000,-0.398926,0.97583,0.150635,-1.777649,1.800537,-1.319885,1.064930535575443
0 days 00:02:06.800000,-0.394775,0.971924,0.147705,-1.808166,2.281189,-1.449585,1.0593867704601565
0 days 00:02:06.810000,-0.395752,0.978271,0.148438,-2.059937,2.998352,-1.617432,1.0656770781005849
0 days 00:02:06.820000,-0.39502,0.978516,0.148438,-2.227783,3.715515,-1.747131,1.0656304249128776
0 days 00:02:06.830000,-0.397217,0.97876,0.145508,-2.258301,4.127502,-1.602173,1.0662668806415212
0 days 00:02:06.840000,-0.39209,0.978516,0.148926,-2.296448,3.952026,-1.541138,1.0646159325465687
0 days 00:02:06.850000,-0.388916,0.977539,0.148682,-2.296448,3.77655,-1.747131,1.0625179945304457
0 days 00:02:06.860000,-0.397705,0.979248,0.144287,-1.251221,1.609802,-1.00708,1.0667308240123183
0 days 00:02:06.870000,-0.396729,0.977783,0.150391,-2.151489,3.387451,-1.678467,1.06586628964941
0 days 00:02:06.880000,-0.399414,0.98584,0.15332,-1.869202,3.379822,-1.541138,1.074671610956575
0 days 00:02:06.890000,-0.40332,0.984863,0.153076,-1.747131,3.799438,-0.854492,1.0751997084007232
0 days 00:02:06.900000,-0.4021,0.986572,0.145996,-1.724243,3.463745,-0.221252,1.0753248593797131
0 days 00:02:06.910000,-0.391602,0.990234,0.145996,-2.120972,3.349304,-0.312805,1.0748164183598983
0 days 00:02:06.920000,-0.392334,0.985596,0.150391,-2.182007,3.692627,-0.564575,1.0714209703253899
0 days 00:02:06.930000,-0.389648,0.98291,0.146729,-2.227783,3.997802,-0.648498,1.0674582106316854
0 days 00:02:06.940000,-0.38916,0.983154,0.145996,-2.151489,3.90625,-0.869751,1.0674043869743086
0 days 00:02:06.950000,-0.38916,0.97876,0.147461,-2.13623,3.356933,-0.984192,1.0635607127573865
0 days 00:02:06.960000,-0.390381,0.979004,0.152588,-1.991272,2.449036,-0.976562,1.0649550483100214
0 days 00:02:06.970000,-0.390869,0.979736,0.157471,-1.64032,1.76239,-0.930786,1.066516910647928
0 days 00:02:06.980000,-0.395996,0.980957,0.154785,-1.89209,2.761841,-1.739502,1.0691341656172062
0 days 00:02:06.990000,-0.399902,0.981445,0.143799,-1.083374,1.609802,-0.930786,1.069501776543639
0 days 00:02:07,-0.392578,0.975342,0.154053,0.991821,-2.906799,-0.450134,1.062610855326163
0 days 00:02:07.010000,-0.398682,0.982422,0.150146,-0.724792,1.159668,-0.892639,1.0708147106404544
0 days 00:02:07.020000,-0.395508,0.97876,0.154297,1.113892,-4.425049,-0.442505,1.0668670394538393
0 days 00:02:07.030000,-0.396484,0.980225,0.156006,1.25885,-4.79126,-0.328064,1.0688210724517926
0 days 00:02:07.040000,-0.397705,0.979004,0.15625,1.625061,-5.050659,-0.320435,1.068191069772164
0 days 00:02:07.050000,-0.400879,0.976563,0.152832,1.739502,-5.065917,-0.297546,1.0666474983957914
0 days 00:02:07.060000,-0.400635,0.979736,0.149902,1.792908,-4.898071,-0.236511,1.0690470721745604
0 days 00:02:07.070000,-0.403809,0.981934,0.145508,1.846313,-4.615784,-0.183105,1.0716476412053544
0 days 00:02:07.080000,-0.398193,0.982178,0.147705,-0.88501,1.441955,-0.968933,1.0700691827905335
0 days 00:02:07.090000,-0.4021,0.986328,0.150635,1.770019,-3.746032,-0.267029,1.0757407851378509
0 days 00:02:07.100000,-0.399414,0.982666,0.149658,1.617432,-2.861023,-0.320435,1.0712429826682648
0 days 00:02:07.110000,-0.397949,0.979248,0.14209,1.098633,-1.808166,-0.473022,1.0665268961470216
0 days 00:02:07.120000,-0.397705,0.976318,0.137695,0.328064,-1.060486,-0.63324,1.0631679157941138
0 days 00:02:07.130000,-0.401611,0.984619,0.14502,1.937866,-4.28009,-0.236511,1.073217951248487
0 days 00:02:07.140000,-0.39624,0.979004,0.149902,-0.701904,-0.465393,-0.839233,1.0667359463428612
0 days 00:02:07.150000,-0.395508,0.980713,0.152832,-0.63324,-0.1297,-0.793457,1.068448495088556
0 days 00:02:07.160000,-0.398682,0.979004,0.153076,-0.63324,0.106812,-0.801086,1.06809570306972
0 days 00:02:07.170000,-0.398438,0.97998,0.15625,-0.640869,0.221252,-0.801086,1.069358547328257
0 days 00:02:07.180000,-0.400391,0.981445,0.158203,-0.404358,0.068665,-0.816345,1.0717161145168062
0 days 00:02:07.190000,-0.400879,0.981201,0.157471,-0.328064,-0.137329,-0.747681,1.071567305810979
0 days 00:02:07.200000,-0.39917,0.983887,0.155029,-0.419617,0.022888,-0.747681,1.0730350919284979
0 days 00:02:07.210000,-0.398926,0.984375,0.155273,-0.419617,0.198364,-0.724792,1.0734271277688112
0 days 00:02:07.220000,-0.398926,0.984863,0.153076,-0.427246,0.442505,-0.854492,1.0735591944653076
0 days 00:02:07.230000,-0.397217,0.983398,0.151367,-0.541687,0.823975,-0.907898,1.0713379206310212
0 days 00:02:07.240000,-0.396484,0.97876,0.141113,-0.366211,-0.686645,-0.816345,1.0654030123033256
0 days 00:02:07.250000,-0.06543,-0.017334,0.806152,14.091491,-6.317138,1.998901,0.8089886275838493
0 days 00:02:07.260000,-0.094971,0.005127,0.834961,18.310547,1.197815,7.919311,0.8403604277278885
0 days 00:02:07.270000,-0.13208,0.032471,0.859619,21.65222,8.483887,11.665343,0.8703127698718433
0 days 00:02:07.280000,-0.157227,0.052002,0.877686,24.063108,15.068053,13.061522,0.893172576901575
0 days 00:02:07.290000,-0.196533,0.070313,0.911133,27.641294,33.813477,12.748717,0.9347365841492458
0 days 00:02:07.300000,-0.171875,0.069824,0.896973,25.398252,24.948118,13.97705,0.9159568599721277
0 days 00:02:07.310000,-0.164307,0.06543,0.902588,27.221678,28.762815,13.893126,0.9197515821639014
0 days 00:02:07.320000,-0.177002,0.055908,0.91626,28.442381,32.234192,13.71765,0.9348731465113328
0 days 00:02:07.330000,-0.162598,0.058105,0.903564,25.184629,20.355223,13.481139,0.9199142366139357
0 days 00:02:07.340000,-0.051514,-0.016602,0.768066,8.453369,-15.052794,-4.501343,0.7699705831757471
0 days 00:02:07.350000,-0.288086,0.200195,0.405762,-59.974667,-21.27075,-7.873535,0.536390139790992
0 days 00:02:07.360000,-0.031494,-0.001465,0.740234,-0.022888,-28.762815,-18.4021,0.740905117418553
0 days 00:02:07.370000,-0.033691,0.017822,0.707031,-4.707336,-25.222776,-22.613523,0.7080575839054334
0 days 00:02:07.380000,-0.035889,0.050293,0.687988,-11.375426,-14.518737,-23.750303,0.6907567548088112
0 days 00:02:07.390000,-0.023193,0.076904,0.66626,-18.058777,-0.808716,-24.497984,0.6710845908415719
0 days 00:02:07.400000,-0.030762,0.104492,0.629883,-25.848387,11.940001,-24.54376,0.6392319394374784
0 days 00:02:07.410000,-0.065186,0.135498,0.608643,-33.424377,22.109983,-22.369383,0.6269411647427533
0 days 00:02:07.420000,-0.088623,0.170166,0.583496,-39.291382,26.031492,-19.966125,0.6142296685288005
0 days 00:02:07.430000,-0.130615,0.200439,0.53418,-45.181271,22.819517,-18.440247,0.5853070504837611
0 days 00:02:07.440000,-0.210938,0.206299,0.474609,-51.063534,13.160705,-16.433716,0.5588450770347718
0 days 00:02:07.450000,-0.282959,0.196533,0.450439,-55.450436,-2.433777,-12.802123,0.5670858034645199
0 days 00:02:07.460000,-0.195068,0.08252,0.929932,26.481627,34.141541,11.20758,0.9537476603630543
0 days 00:02:07.470000,-0.041016,-0.004395,0.748779,3.379822,-23.963926,-11.550902,0.7499144078639908
0 days 00:02:07.480000,-0.220947,0.090576,0.991455,23.826597,35.636902,10.253905,1.0198061608021398
0 days 00:02:07.490000,-0.308838,0.115723,0.865234,-3.120422,50.582882,-19.950867,0.9259603650961524
0 days 00:02:07.500000,-0.323486,0.141113,0.968262,10.536193,48.446651,3.051758,1.0305762327984282
0 days 00:02:07.510000,-0.238525,0.220215,0.36084,-64.77356,-39.611816,-3.799438,0.4853806006115201
0 days 00:02:07.520000,-0.278076,0.071777,0.839844,52.230831,-7.110595,18.936157,0.8875900764660453
0 days 00:02:07.530000,-0.267578,0.054932,0.845703,52.253719,-5.752563,17.730713,0.8887232836586425
0 days 00:02:07.540000,-0.251221,0.041016,0.852539,51.780697,-2.27356,15.525817,0.8897286381914433
0 days 00:02:07.550000,-0.237061,0.037842,0.841064,50.048824,3.967285,12.863158,0.8746534095177358
0 days 00:02:07.560000,-0.222412,0.04834,0.816895,46.684261,12.512206,10.360717,0.8480101970902236
0 days 00:02:07.570000,-0.199219,0.058105,0.795654,42.434689,21.667479,7.164001,0.82227105549326
0 days 00:02:07.580000,-0.172119,0.075195,0.769775,35.995483,30.418394,2.082825,0.7923590024799364
0 days 00:02:07.590000,-0.197998,0.075928,0.770264,28.45764,40.222164,-2.471924,0.7989210842655237
0 days 00:02:07.600000,-0.211182,0.068115,0.774414,21.316526,50.697323,-6.263732,0.805577143261277
0 days 00:02:07.610000,-0.291016,0.115967,1.013916,17.51709,39.978027,7.888793,1.061208891972264
0 days 00:02:07.620000,-0.196777,0.076416,0.765869,13.290404,57.510372,-12.229918,0.7944280445364451
0 days 00:02:07.630000,-0.310547,0.123291,0.801758,-2.082825,58.433529,-18.539429,0.8685942668783855
