t,ax,ay,az,gx,gy,gz,acc_mag
0 days 00:01:49.420000,0.251465,0.952881,-0.025635,1.571655,20.744322,1.907349,0.9858367002759635
0 days 00:01:49.430000,0.23584,0.963379,-0.01416,0.999451,31.829832,9.620667,0.9919274715628154
0 days 00:01:49.440000,0.24292,0.948486,-0.024414,1.327515,20.668028,1.541138,0.9794038298842822
0 days 00:01:49.450000,0.241455,0.949463,-0.023193,1.274109,21.65222,1.434326,0.979958376995166
0 days 00:01:49.460000,0.238525,0.951904,-0.020508,1.312256,22.895811,1.365662,0.981547746625196
0 days 00:01:49.470000,0.233887,0.949463,-0.018799,1.358032,24.436949,1.358032,0.9780268501114885
0 days 00:01:49.480000,0.224365,0.947998,-0.016113,1.205444,27.015684,1.983642,0.974320014162698
0 days 00:01:49.490000,0.225586,0.952393,-0.015869,1.304626,28.900145,2.716064,0.9788734826350135
0 days 00:01:49.500000,0.234131,0.953613,-0.012939,1.274109,29.800413,3.364563,0.9820196009505107
0 days 00:01:49.510000,0.234863,0.957031,-0.010742,1.350403,30.433653,4.203796,0.9854868615532121
0 days 00:01:49.520000,0.228027,0.960693,-0.010498,1.411438,31.509398,5.477905,0.9874399024659678
0 days 00:01:49.530000,0.234863,0.964844,-0.012207,1.617432,32.38678,6.706237,0.9930929382258239
0 days 00:01:49.540000,0.249023,0.950928,-0.024414,1.533508,20.195005,1.739502,0.983296780788486
0 days 00:01:49.550000,0.246338,0.954102,0.07251,-2.258301,4.516602,-1.365662,0.9880540150963407
0 days 00:01:49.560000,0.246094,0.954834,0.07373,-2.258301,4.608154,-1.419067,0.9887903404119601
0 days 00:01:49.570000,0.245605,0.952881,0.072266,-2.250671,4.631042,-1.502991,0.9866744097938286
0 days 00:01:49.580000,0.246094,0.953125,0.071289,-2.204895,4.676819,-1.747131,0.9869608117762326
0 days 00:01:49.590000,0.253174,0.959229,0.064697,-0.938415,2.845764,-2.548218,0.9941846159169835
0 days 00:01:49.600000,0.246094,0.955566,0.067383,-1.777649,4.081726,-2.13623,0.9890445419095139
0 days 00:01:49.610000,0.247559,0.955566,0.067139,-1.548767,3.684997,-2.349854,0.989393493084526
0 days 00:01:49.620000,0.24707,0.957275,0.067383,-1.228333,3.242492,-2.494812,0.9909386859003941
0 days 00:01:49.630000,0.245605,0.957275,0.074463,-2.098083,4.486084,-1.419067,0.9910812176703784
0 days 00:01:49.640000,0.243896,0.95459,0.068848,-1.983642,4.486084,-1.937866,0.9876575185862759
0 days 00:01:49.650000,0.243164,0.960938,0.077393,-1.953125,4.592896,-1.266479,0.9942435552665151
0 days 00:01:49.660000,0.25,0.956543,0.068115,-1.815796,5.584716,-0.938415,0.9910167324894167
0 days 00:01:49.670000,0.24585,0.962402,0.072754,-1.701355,5.607605,-1.220703,0.9959683612545129
0 days 00:01:49.680000,0.248535,0.963867,0.072021,-1.747131,5.79071,-1.144409,0.9979961244188277
0 days 00:01:49.690000,0.250244,0.960449,0.067871,-1.571655,5.783081,-0.953674,0.994832053051167
0 days 00:01:49.700000,0.258789,0.959473,0.06958,-1.89209,5.249023,-0.839233,0.9961935357399184
0 days 00:01:49.710000,0.259033,0.960205,0.067871,-1.777649,4.898071,-0.984192,0.9968441251043214
0 days 00:01:49.720000,0.255615,0.95874,0.067627,-1.846313,4.493713,-0.976562,0.9945324665157995
0 days 00:01:49.730000,0.261475,0.95752,0.071289,-1.945495,3.784179,-1.113892,0.9951360949870124
0 days 00:01:49.740000,0.266113,0.961914,0.072266,-1.983642,2.89917,-1.197815,1.000658306776594
0 days 00:01:49.750000,0.268555,0.962158,0.070313,-2.059937,1.838684,-1.022339,1.0014058732392175
0 days 00:01:49.760000,0.253906,0.958984,0.065674,-0.694275,2.914428,-2.677917,0.9941989958594808
0 days 00:01:49.770000,0.246094,0.959961,0.074463,-1.960754,4.79126,-1.266479,0.9937968186334669
0 days 00:01:49.780000,0.255615,0.954346,0.066406,-0.62561,3.074646,-2.655029,0.9902146599485386
0 days 00:01:49.790000,0.360352,1.031982,0.111084,-19.226074,-65.116882,44.586178,1.0987174647214815
0 days 00:01:49.800000,0.269287,0.961914,0.079346,-0.434875,3.082275,-2.296448,1.0020428231772334
0 days 00:01:49.810000,0.835938,1.034912,0.225098,-76.332092,-35.575867,177.505478,1.3492606483522744
0 days 00:01:49.820000,0.795166,1.056885,0.25,-74.264526,-31.471251,170.989975,1.3460292978910229
0 days 00:01:49.830000,0.793701,1.10498,0.298584,-69.351196,-31.623838,164.833054,1.392872744674473
0 days 00:01:49.840000,0.848389,1.158203,0.314941,-62.164303,-40.336605,162.033066,1.4698251317796276
0 days 00:01:49.850000,0.876953,1.171875,0.295654,-55.7785,-58.631893,155.418396,1.4932343645757686
0 days 00:01:49.860000,0.813232,1.154053,0.260498,-50.186153,-72.479248,145.599365,1.4356335955378725
0 days 00:01:49.870000,0.744141,1.133301,0.194336,-46.943661,-82.923882,136.978149,1.3696289517157556
0 days 00:01:49.880000,0.720459,1.132813,0.128174,-42.137142,-93.429558,126.174919,1.348612263745959
0 days 00:01:49.890000,0.678223,1.118652,0.094238,-37.071228,-99.616997,109.703056,1.3115828359188755
0 days 00:01:49.900000,0.619873,1.10083,0.08252,-32.371521,-97.717278,91.468803,1.266048488577353
0 days 00:01:49.910000,0.26001,0.958496,0.071045,-0.572205,2.967834,-2.6474,0.995674230931483
0 days 00:01:49.920000,0.545898,1.078613,0.088135,-27.725218,-89.416496,73.646545,1.2120966992769184
0 days 00:01:49.930000,0.274414,0.965088,0.069824,-1.968384,0.785828,-1.121521,1.0057699946389334
0 days 00:01:49.940000,0.31665,1.019043,0.108643,-15.899657,-53.863522,34.90448,1.07262256166743
0 days 00:01:49.950000,0.297852,1.010742,0.106934,-13.038634,-43.991085,26.969908,1.059127039039227
0 days 00:01:49.960000,0.280762,0.995605,0.098633,-11.146544,-35.713196,20.774839,1.0391270785414073
0 days 00:01:49.970000,0.257568,0.97876,0.095703,-9.666443,-26.969908,15.426635,1.0165979915546755
0 days 00:01:49.980000,0.230713,0.979736,0.109131,-7.850646,-16.746521,10.932921,1.0124330561701351
0 days 00:01:49.990000,0.22583,0.982422,0.124268,-5.554199,-7.202148,6.66809,1.0156745102679303
0 days 00:01:50,0.24292,0.982422,0.119385,-3.456115,-0.579834,2.89917,1.0190269332598623
0 days 00:01:50.010000,0.264648,0.974609,0.10791,-1.907349,2.479553,0.190735,1.0156504491629983
0 days 00:01:50.020000,0.271973,0.966064,0.094482,-0.816345,3.27301,-1.319885,1.0080554613457535
0 days 00:01:50.030000,0.440674,1.053711,0.098145,-23.300169,-77.796936,57.502743,1.146356352458519
0 days 00:01:50.040000,0.273438,0.9646,0.067139,-1.968384,-0.389099,-1.327515,1.004852797759453
0 days 00:01:50.050000,0.245605,0.961914,0.072266,-1.945495,5.195617,-1.266479,0.9954007907255248
0 days 00:01:50.060000,0.274658,0.963135,0.07251,-2.120972,-2.777099,-1.686096,1.0041532479103974
0 days 00:01:50.070000,0.214111,0.974609,0.065674,-4.356384,4.310608,6.347656,1.0000096486924515
0 days 00:01:50.080000,0.222168,0.976563,0.070068,-3.486633,4.959106,6.889343,1.0039638628043341
0 days 00:01:50.090000,0.234863,0.97583,0.069092,-3.372192,4.676819,6.805419,1.0060708335564648
0 days 00:01:50.100000,0.236816,0.973389,0.071045,-3.120422,4.264832,6.607055,1.004298439310746
0 days 00:01:50.110000,0.237305,0.969727,0.074463,-2.655029,3.936767,6.347656,1.0011138076777284
0 days 00:01:50.120000,0.243164,0.969727,0.076172,-2.26593,3.570556,6.034851,1.0026471757348145
0 days 00:01:50.130000,0.24707,0.977051,0.081055,-1.518249,3.02124,5.874633,1.011059916387748
0 days 00:01:50.140000,0.254639,0.980713,0.076416,-0.679016,2.189636,5.554199,1.016109449688369
0 days 00:01:50.150000,0.258545,0.974854,0.073975,-0.495911,1.243591,4.707336,1.0112656124708286
0 days 00:01:50.160000,0.265869,0.973633,0.075195,-0.488281,-0.152588,4.03595,1.0120779771712256
0 days 00:01:50.170000,0.273438,0.976318,0.072754,0.015259,-1.731872,3.471374,1.0164931487639255
0 days 00:01:50.180000,0.273926,0.974365,0.066895,0.221252,-3.051758,2.624511,1.0143458718435245
0 days 00:01:50.190000,0.275879,0.968262,0.062256,0.358582,-3.890991,1.869202,1.0087201459379107
0 days 00:01:50.200000,0.278564,0.962158,0.059082,0.450134,-4.631042,1.052856,1.0034124783876268
0 days 00:01:50.210000,0.280518,0.961914,0.055664,0.686645,-5.744934,0.358582,1.0035274648040282
0 days 00:01:50.220000,0.282227,0.962646,0.05249,1.014709,-7.164001,-0.404358,1.0045370082505671
0 days 00:01:50.230000,0.281982,0.957275,0.045654,1.121521,-8.651733,-1.00708,0.9989862670052077
0 days 00:01:50.240000,0.282715,0.955811,0.044434,1.083374,-10.2005,-1.670837,0.9977358464553631
0 days 00:01:50.250000,0.281006,0.953857,0.040283,1.075745,-11.787414,-2.319336,0.9952036317126258
0 days 00:01:50.260000,0.277832,0.952637,0.037109,0.984192,-13.046264,-2.998352,0.993018102490584
0 days 00:01:50.270000,0.273926,0.952637,0.034668,0.854492,-14.007567,-3.570556,0.9918440288014038
0 days 00:01:50.280000,0.273193,0.950684,0.028076,0.617981,-14.938354,-3.959656,0.989556842673022
0 days 00:01:50.290000,0.272217,0.961914,0.070068,-2.037048,-1.64032,-1.457214,1.0021427857890313
0 days 00:01:50.300000,0.217773,0.974121,0.057617,-4.577637,3.753662,5.66864,0.9998282456797267
0 days 00:01:50.310000,0.213135,0.973633,0.059082,-4.714966,3.044128,5.455017,0.9984379948890166
0 days 00:01:50.320000,0.270996,0.946289,0.0271,0.152588,-16.036987,-4.417419,0.9847010274885469
0 days 00:01:50.330000,0.210205,0.972656,0.058594,-4.28772,0.717163,4.486084,0.9968345365189751
0 days 00:01:50.340000,0.213135,0.974365,0.061523,-4.516602,1.808166,5.058288,0.9992991348835444
0 days 00:01:50.350000,0.278564,0.962158,0.075195,-1.831055,-5.569458,-2.090454,1.0044900233874898
0 days 00:01:50.360000,0.275879,0.96582,0.078125,-1.693725,-6.988525,-2.243042,1.0074825113449861
0 days 00:01:50.370000,0.270996,0.965576,0.079102,-1.51062,-8.346558,-2.235413,1.0059984941320737
0 days 00:01:50.380000,0.269043,0.9646,0.078613,-1.51062,-9.277344,-2.212524,1.004498531416547
0 days 00:01:50.390000,0.262939,0.960693,0.074707,-1.571655,-10.032654,-2.166748,0.998823855251265
0 days 00:01:50.400000,0.258789,0.962891,0.075928,-1.335144,-11.108397,-1.846313,0.9999479414379531
0 days 00:01:50.410000,0.259766,0.962402,0.075195,-1.296997,-11.787414,-1.739502,0.9996750834071038
0 days 00:01:50.420000,0.255127,0.963623,0.075928,-1.029968,-12.176513,-1.571655,0.9997120252562735
0 days 00:01:50.430000,0.244629,0.960938,0.071777,-0.984192,-11.940001,-1.480102,0.9941816359267556
0 days 00:01:50.440000,0.237549,0.963379,0.072266,-1.091003,-11.466979,-1.419067,0.9948623019282619
0 days 00:01:50.450000,0.276855,0.961182,0.07666,-2.052307,-4.089355,-1.785278,1.0031930441091585
0 days 00:01:50.460000,0.231201,0.96167,0.069336,-1.083374,-10.940551,-1.045227,0.991499153906346
0 days 00:01:50.470000,0.233398,0.960938,0.065918,-1.152039,-10.902404,-0.37384,0.9910709606138199
0 days 00:01:50.480000,0.239258,0.961914,0.063721,-1.350403,-11.291503,0.144958,0.9932689966977728
0 days 00:01:50.490000,0.233154,0.965332,0.057861,-1.464844,-11.108397,0.221252,0.9947736191018537
0 days 00:01:50.500000,0.219482,0.96875,0.053711,-1.808166,-9.750366,0.572205,0.99475312633085
0 days 00:01:50.510000,0.209473,0.968506,0.053955,-2.326965,-7.980346,1.174927,0.9923678510461733
0 days 00:01:50.520000,0.208496,0.96875,0.053467,-2.571106,-6.210327,1.998901,0.9923738532453381
0 days 00:01:50.530000,0.208252,0.962646,0.054932,-3.211975,-4.768372,2.738952,0.9864450017329907
0 days 00:01:50.540000,0.214355,0.962158,0.052002,-3.417969,-3.433227,2.967834,0.9871171617356269
0 days 00:01:50.550000,0.209717,0.963379,0.053223,-3.860473,-2.02179,3.196716,0.9873768305257117
0 days 00:01:50.560000,0.201416,0.969482,0.056885,-4.096985,-0.511169,4.013062,0.9918163421748
0 days 00:01:50.570000,0.800049,-0.551025,0.820313,-34.706116,5.561828,-38.505554,1.2714638693234661
0 days 00:01:50.580000,0.687988,-0.534424,0.811768,-32.356262,21.545408,-35.675049,1.190757651977933
0 days 00:01:50.590000,0.619141,-0.46875,0.678223,-35.720825,12.413024,-30.586241,1.0310424715354845
0 days 00:01:50.600000,0.7229,-0.321045,0.4646,-46.867367,-10.673522,-22.674559,0.9173371583147606
0 days 00:01:50.610000,0.872559,-0.38623,0.705078,-106.735222,55.641171,-9.628296,1.186451772077146
0 days 00:01:50.620000,0.967041,-0.231445,0.252441,-84.991447,-27.610777,-7.209777,1.0258954830717408
0 days 00:01:50.630000,1.011963,-0.294434,0.370117,-94.062798,-9.490967,-3.120422,1.1170260012255757
0 days 00:01:50.640000,0.943359,-0.34375,0.561768,-100.524895,24.078367,-4.135132,1.1505101265112794
0 days 00:01:50.650000,0.828857,-0.216797,0.283936,-67.062378,-27.366636,-13.084411,0.902565519923069
0 days 00:01:50.660000,0.714844,-0.508057,0.755371,-37.117004,-19.393921,-38.772583,1.1574580801160792
0 days 00:01:50.670000,0.811035,-1.079102,0.205566,-9.017944,25.245665,-11.108397,1.365465590187098
0 days 00:01:50.680000,0.278564,-0.402832,0.57959,-18.1427,6.851196,-23.910521,0.7588122893179841
0 days 00:01:50.690000,0.489014,-0.523926,0.404053,-14.198302,26.031492,-27.145384,0.8227344483373722
0 days 00:01:50.700000,0.681396,-0.731934,0.270508,-11.58142,33.004761,-23.094175,1.0359548577211268
0 days 00:01:50.710000,1.768311,3.549805,4.195557,108.283989,12.748717,53.207394,5.773277913888695
0 days 00:01:50.720000,1.191895,-1.314941,0.213623,8.674622,16.921997,-30.937193,1.7875453310713547
0 days 00:01:50.730000,0.87207,-1.787109,0.064697,-54.344173,40.138245,-41.084286,1.9895854755677123
0 days 00:01:50.740000,0.459717,-1.181641,0.03833,-188.858017,58.593746,-14.175414,1.268496890760872
0 days 00:01:50.750000,1.357422,1.480713,0.627686,-27.534483,65.872192,-54.542538,2.104541562680338
0 days 00:01:50.760000,-0.91748,1.897705,2.030518,108.283989,96.42028,-0.770569,2.9267827329251825
0 days 00:01:50.770000,0.802979,3.022217,6.771973,-14.778136,207.450851,108.200066,7.459101097468715
0 days 00:01:50.780000,0.807861,-0.401123,0.758789,-112.289421,72.631836,-12.481688,1.178685625165167
0 days 00:01:50.790000,0.415771,-0.365723,0.713623,-25.863646,-18.585205,-32.180786,0.9032588905175526
0 days 00:01:50.800000,0.736084,-0.414551,0.699951,-115.028374,75.4776,-13.137816,1.0970886878725894
0 days 00:01:50.810000,0.669189,-0.675537,0.068848,-78.575134,11.512755,-4.852295,0.9533646748196621
0 days 00:01:50.820000,0.726563,-0.479248,0.496338,-115.371696,56.755062,-18.257141,1.001960003551539
0 days 00:01:50.830000,0.291504,-0.631836,-1.393799,249.992355,-73.295593,56.426998,1.5578404813436453
0 days 00:01:50.840000,0.875244,-0.829346,-0.490479,74.417114,-47.622677,19.165039,1.3017052264983038
0 days 00:01:50.850000,0.776123,-0.821045,-0.398926,51.902767,-40.115356,11.726378,1.1981751777724325
0 days 00:01:50.860000,0.695313,-0.796631,-0.291748,33.882141,-32.798767,8.010864,1.0969038306223569
0 days 00:01:50.870000,0.661377,-0.77124,-0.192871,19.65332,-24.490355,5.477905,1.0341324365718347
0 days 00:01:50.880000,0.636719,-0.766357,-0.139648,7.362365,-15.35797,3.746032,1.0060893103069926
0 days 00:01:50.890000,0.618164,-0.773193,-0.124023,-4.814148,-7.240295,3.532409,0.9976651996907581
0 days 00:01:50.900000,0.631592,-0.762207,-0.105957,-16.563416,-1.525879,2.555847,0.9955374684872489
0 days 00:01:50.910000,0.633057,-0.740723,-0.077148,-27.687071,1.976013,0.976562,0.9774372316839584
0 days 00:01:50.920000,0.614502,-0.726074,-0.042969,-38.734436,4.356384,0.12207,0.9521777651473489
0 days 00:01:50.930000,0.707275,-0.434814,0.60376,-115.806572,69.267273,-15.243529,1.0265608982525098
0 days 00:01:50.940000,0.606445,-0.713379,-0.002197,-49.09515,6.614685,-0.366211,0.9363172338876392
0 days 00:01:50.950000,0.641357,-0.702637,0.039551,-69.084167,10.612487,-2.830505,0.9521564140512838
0 days 00:01:50.960000,0.68457,-0.641113,0.126221,-86.34948,11.566161,-7.575988,0.9463581269847056
0 days 00:01:50.970000,0.683594,-0.609619,0.174805,-93.032829,11.367797,-9.880066,0.9324660154783122
0 days 00:01:50.980000,0.68335,-0.578369,0.212646,-98.609917,10.917663,-12.252807,0.9201609880759997
0 days 00:01:50.990000,0.689209,-0.563965,0.237549,-103.782646,10.292052,-14.434813,0.921680581496106
0 days 00:01:51,0.696777,-0.568359,0.247803,-108.177177,9.513855,-15.747069,0.9327038476488665
0 days 00:01:51.010000,0.715576,-0.580811,0.250732,-111.198418,10.848998,-16.403198,0.9551214400907353
0 days 00:01:51.020000,0.746582,-0.586426,0.279297,-112.480156,16.746521,-18.173218,0.9895892836975348
0 days 00:01:51.030000,0.749512,-0.573242,0.339844,-114.242546,27.526854,-19.210815,1.0029299940893182
0 days 00:01:51.040000,0.741943,-0.522949,0.407959,-115.135185,41.625973,-19.165039,0.9951811983407846
0 days 00:01:51.050000,0.61792,-0.708984,0.027588,-59.120174,8.94165,-1.373291,0.9408743467647526
0 days 00:01:51.060000,0.218262,-0.11377,0.239502,249.992355,-67.123413,70.602417,0.34342848097966483
0 days 00:01:51.070000,0.940674,0.562256,0.238525,-85.250847,-33.683777,230.102524,1.121558540352219
0 days 00:01:51.080000,0.50708,-0.350098,-0.318848,249.992355,-57.723995,92.994682,0.6938031299352865
0 days 00:01:51.090000,0.73584,0.177734,0.168945,-58.982845,35.03418,217.781052,0.775623809189094
0 days 00:01:51.100000,0.735107,0.216797,0.180664,-58.631893,34.210205,221.649155,0.7874152154702116
0 days 00:01:51.110000,0.700684,0.26416,0.178467,-57.296749,35.354614,227.897629,0.7697980537420187
0 days 00:01:51.120000,0.727295,0.320313,0.17749,-55.610653,38.772583,234.146103,0.814285659393557
0 days 00:01:51.130000,0.818359,0.360107,0.157227,-55.168148,40.924068,237.533554,0.9078044028638548
0 days 00:01:51.140000,0.922363,0.375488,0.142334,-57.174679,38.368225,236.732468,1.0059839509003115
0 days 00:01:51.150000,0.991943,0.378662,0.141357,-63.110348,29.029844,235.839828,1.0711291364452749
0 days 00:01:51.160000,1.047119,0.388184,0.151123,-70.877075,9.086609,235.32103,1.1269353038866072
0 days 00:01:51.170000,1.079346,0.414063,0.183594,-79.277039,-14.755248,233.383163,1.1705309532519848
0 days 00:01:51.180000,0.938721,0.616211,0.254395,-85.060112,-26.893614,227.447495,1.1513600342147543
0 days 00:01:51.190000,0.726563,0.147705,0.152588,-58.013912,37.55188,213.455185,0.7569634454437016
0 days 00:01:51.200000,0.930908,0.647217,0.253418,-85.418694,-11.45172,221.771225,1.1617659972115728
0 days 00:01:51.210000,0.855713,0.767334,0.251709,-85.731499,31.883238,209.86937,1.1766068275367094
0 days 00:01:51.220000,0.866699,0.817871,0.263428,-85.296623,48.637386,206.184372,1.2204402649970214
0 days 00:01:51.230000,0.911621,0.858398,0.279297,-84.9533,55.107113,204.101547,1.2829289880012844
0 days 00:01:51.240000,0.94873,0.89624,0.29248,-83.831779,50.140377,202.659592,1.3374899255321515
0 days 00:01:51.250000,1.017822,0.944092,0.304688,-80.894463,35.91156,201.118454,1.4213043676468458
0 days 00:01:51.260000,1.073975,0.984619,0.278809,-77.476501,15.670775,198.7686,1.4834525048908709
0 days 00:01:51.270000,1.070557,1.002197,0.230469,-76.126099,-7.263183,196.639999,1.4844551448322716
0 days 00:01:51.280000,1.019287,1.014893,0.201904,-76.248169,-27.656553,191.871628,1.4524871823992116
0 days 00:01:51.290000,0.935547,1.021973,0.211914,-76.576233,-36.743164,184.761032,1.4016363812822497
0 days 00:01:51.300000,0.322021,-0.258301,-0.107422,249.656662,-60.722347,83.984367,0.42656349717949377
0 days 00:01:51.310000,0.881104,0.706787,0.245605,-85.243217,9.368896,215.209946,1.1559472039024967
0 days 00:01:51.320000,0.781738,0.11499,0.137207,-55.671688,38.673401,208.908066,0.8019742898578484
0 days 00:01:51.330000,0.992676,0.473145,0.210693,-84.609978,-30.128477,231.231674,1.1196711000333983
0 days 00:01:51.340000,0.744873,0.051514,0.091064,-45.69244,34.461975,205.993637,0.7521849044091486
0 days 00:01:51.350000,0.683105,-0.351074,-0.416016,249.992355,-60.417171,98.785393,0.8734727853556743
0 days 00:01:51.360000,0.801025,0.084229,0.120361,-51.650997,37.887573,207.626328,0.8143846421605702
0 days 00:01:51.370000,0.734375,-0.298828,-0.389648,207.557663,-59.333797,102.333061,0.8834197066587319
0 days 00:01:51.380000,0.7146,-0.314209,-0.403076,183.105453,-53.955074,103.965752,0.878550349983995
0 days 00:01:51.390000,0.736084,-0.345947,-0.474121,157.066345,-50.674435,107.76519,0.9414296067715312
0 days 00:01:51.400000,0.764648,-0.365967,-0.529785,129.386902,-52.192684,110.832207,0.9996452146726857
0 days 00:01:51.410000,0.724854,-0.371094,-0.504883,103.622429,-54.061886,114.059441,0.9581393018976938
0 days 00:01:51.420000,0.709717,-0.349854,-0.432129,80.741875,-53.474422,117.698662,0.9015716910185235
0 days 00:01:51.430000,0.690186,-0.337891,-0.371094,61.401363,-50.025936,120.849602,0.853368501476941
0 days 00:01:51.440000,0.65918,-0.335449,-0.29248,45.57037,-40.336605,122.978203,0.7953545463508711
0 days 00:01:51.450000,0.644531,-0.323242,-0.229736,33.309937,-25.093077,125.640862,0.756759030485266
0 days 00:01:51.460000,0.643311,-0.30249,-0.218994,23.231504,-10.253905,131.42395,0.7438464995259438
0 days 00:01:51.470000,0.742188,-0.318848,-0.415527,234.329208,-62.370296,101.776115,0.9083885524251172
0 days 00:01:51.480000,0.697021,0.022461,0.073975,-40.504452,26.756285,200.523361,0.7012952813095209
0 days 00:01:51.490000,0.755859,-0.250977,-0.150879,2.372742,1.838684,140.50293,0.8106027109817731
0 days 00:01:51.500000,0.699707,-0.228271,-0.099854,-6.614685,1.38092,145.401001,0.7427438028055166
0 days 00:01:51.510000,0.649658,-0.20752,-0.05127,-15.2359,-0.88501,152.809143,0.6839215454012251
0 days 00:01:51.520000,0.627197,-0.162598,-0.005859,-23.056028,-4.394531,162.315353,0.6479571855408349
0 days 00:01:51.530000,0.649902,-0.114746,0.034912,-27.755735,-6.713867,170.745834,0.6608767675323441
0 days 00:01:51.540000,0.650146,-0.077148,0.070801,-31.211851,-3.677368,178.756699,0.6585244238606492
0 days 00:01:51.550000,0.643066,-0.040283,0.071777,-33.7677,4.104614,187.377914,0.6483120685086774
0 days 00:01:51.560000,0.680908,-0.016602,0.063965,-36.659241,15.251159,193.893417,0.6841073395988381
0 days 00:01:51.570000,0.707275,-0.278809,-0.19873,13.038634,-1.556396,137.023926,0.7857900463902556
0 days 00:01:51.580000,2.278809,1.049805,0.350586,32.958984,59.844967,-62.843319,2.533371575569206
0 days 00:01:51.590000,0.712402,-1.511719,-0.147461,-115.913383,46.44775,1.159668,1.6776637598416437
0 days 00:01:51.600000,0.601807,-2.64624,0.125977,-12.092589,5.691528,-4.15802,2.716731125337581
0 days 00:01:51.610000,1.624756,-1.912842,0.418701,70.404053,-17.684937,-8.735657,2.5444266748918114
0 days 00:01:51.620000,0.91333,-0.881348,-0.304443,63.400265,-54.428097,11.528014,1.3052323648504123
0 days 00:01:51.630000,0.625244,-0.604736,0.128418,29.655455,57.601925,40.023804,0.8792763342408347
0 days 00:01:51.640000,0.298828,-0.372314,0.353027,30.654905,81.634514,21.842955,0.5937541165406771
0 days 00:01:51.650000,-0.425293,1.991211,2.192627,56.564327,17.38739,-29.479979,2.992224681319737
0 days 00:01:51.660000,0.125488,-0.350586,0.52832,26.733397,72.807312,2.906799,0.6463588816903502
0 days 00:01:51.670000,1.212402,-1.174316,0.160889,43.30444,11.428832,32.043457,1.6955299902334373
0 days 00:01:51.680000,0.602783,3.667236,7.024414,-28.556822,100.845329,48.011776,7.946971704251942
0 days 00:01:51.690000,0.997559,-0.553711,-0.171387,205.001816,-121.643059,68.504333,1.15373018239578
0 days 00:01:51.700000,0.250488,-0.698975,-0.615479,249.725327,-52.314754,83.061211,0.9644297217578894
0 days 00:01:51.710000,0.431396,-0.544434,0.187256,249.992355,-52.230831,86.364738,0.7194273408121212
0 days 00:01:51.720000,0.749512,-0.588135,-0.068848,247.970566,-70.762634,80.627434,0.9552021060869788
0 days 00:01:51.730000,0.960449,-0.59375,-0.198975,225.532516,-96.748344,71.57135,1.1465567559985854
0 days 00:01:51.740000,0.9646,-0.563232,-0.129639,187.43895,-135.597229,69.831848,1.1244953161952254
0 days 00:01:51.750000,0.907471,-0.673096,-0.211914,165.481552,-129.28772,65.02533,1.1495518189507596
0 days 00:01:51.760000,0.860107,-0.805176,-0.324463,139.045715,-106.536858,53.443905,1.2220346479515218
0 days 00:01:51.770000,0.901367,-0.901367,-0.403809,110.473625,-81.733696,38.520813,1.337156178559184
0 days 00:01:51.780000,0.946045,-0.91748,-0.409668,84.33532,-64.89563,23.643492,1.3800719411135782
0 days 00:01:51.790000,0.152832,-0.355225,0.648193,16.51001,43.312069,-7.17926,0.7547824760141163
0 days 00:01:51.800000,0.36084,1.730713,1.465576,172.294601,-61.294552,86.936943,2.2964071951082627
0 days 00:01:51.810000,0.243652,-0.433594,0.680176,1.88446,18.974304,-10.437011,0.8426205818255331
0 days 00:01:51.820000,0.987305,-0.371826,0.443604,24.993895,-84.648125,-66.459656,1.1444694168552518
0 days 00:01:51.830000,0.367676,-0.44458,0.614258,-12.001037,16.342163,-23.559568,0.8427039266195453
0 days 00:01:51.840000,0.851318,-0.846436,-0.186768,45.3186,-48.347469,3.318786,1.2149397207450252
0 days 00:01:51.850000,0.939453,-0.383301,0.470703,26.275633,-83.335869,-70.983887,1.1185047653090263
0 days 00:01:51.860000,0.952881,-0.375,0.480957,25.436399,-79.734802,-74.356079,1.1313385152154944
0 days 00:01:51.870000,0.986084,-0.358887,0.510986,22.438047,-79.231262,-80.192566,1.1671624677057604
0 days 00:01:51.880000,0.955566,-0.332275,0.558594,21.415709,-78.613281,-84.503166,1.1556557933991418
0 days 00:01:51.890000,0.911377,-0.335449,0.571045,20.042419,-80.566399,-86.448662,1.1265995116965921
0 days 00:01:51.900000,0.874756,-0.370605,0.575439,18.989563,-82.740776,-90.545647,1.1107097587947987
0 days 00:01:51.910000,0.757813,-0.39624,0.552246,21.751402,-80.200195,-91.217033,1.0179697073513534
0 days 00:01:51.920000,0.637207,-0.435303,0.46875,22.90344,-74.996948,-86.570732,0.9029108622438873
0 days 00:01:51.930000,0.617188,-0.449463,0.4104,18.890381,-67.611694,-81.474297,0.8668138068310863
0 days 00:01:51.940000,0.603516,-0.424561,0.405762,12.351989,-58.959957,-77.49176,0.8420964348701401
0 days 00:01:51.950000,0.571777,-0.381348,0.430664,4.974365,-50.048824,-73.158264,0.8110651735397101
0 days 00:01:51.960000,0.543213,-0.35083,0.470215,-1.754761,-43.525692,-68.664551,0.7995399918040372
0 days 00:01:51.970000,0.528076,-0.34082,0.499268,-6.141662,-40.206905,-63.873287,0.8026774383275015
0 days 00:01:51.980000,0.491699,-0.353271,0.48291,-8.19397,-39.512634,-56.930538,0.7744484322032036
0 days 00:01:51.990000,0.460938,-0.381836,0.429443,-10.238647,-37.750244,-49.865719,0.7366707955314912
0 days 00:01:52,0.435303,-0.39502,0.386475,-12.245177,-32.203674,-44.075008,0.7034859116101757
0 days 00:01:52.010000,0.412109,-0.400391,0.337646,-14.373778,-23.445127,-38.581848,0.6664469987013221
0 days 00:01:52.020000,0.39917,-0.393311,0.324463,-17.349243,-12.817382,-33.943176,0.6475387787538288
0 days 00:01:52.030000,0.395996,-0.398926,0.346191,-19.195557,-0.823975,-31.768797,0.6601537654009102
0 days 00:01:52.040000,0.386963,-0.432861,0.38501,-19.050598,10.44464,-31.135557,0.6966647032755428
0 days 00:01:52.050000,0.380859,-0.453125,0.461182,-17.997742,17.738342,-31.135557,0.7503763593224403
0 days 00:01:52.060000,0.375,-0.428223,0.560791,-15.289306,20.576475,-28.610228,0.799053492208125
0 days 00:01:52.070000,0.320068,-0.486328,0.652588,-8.110046,11.589049,-16.738892,0.8745453367047359
0 days 00:01:52.080000,0.818359,-0.81958,-0.101807,29.617308,-43.777462,-3.738403,1.16266396457876
0 days 00:01:52.090000,2.183594,1.259521,1.17334,-47.981258,56.823727,-76.095581,2.7805040301853547
0 days 00:01:52.100000,0.671387,-0.808105,-0.042236,2.853393,-24.04785,-14.953612,1.051464728124534
0 days 00:01:52.110000,0.229736,-0.448486,0.644775,-56.869503,19.042969,-10.223388,0.81832336060814
0 days 00:01:52.120000,0.072266,-0.448242,0.615479,-51.300045,62.721249,-1.205444,0.7648252511266871
0 days 00:01:52.130000,0.137695,-0.54126,0.497803,-48.118587,114.913933,8.224487,0.7481511394324011
0 days 00:01:52.140000,0.486572,-0.625977,0.336426,-49.385067,145.050049,12.20703,0.8612676524687317
0 days 00:01:52.150000,0.932373,-0.874023,0.297119,-52.536007,144.134521,11.650084,1.3120652864164193
0 days 00:01:52.160000,1.47583,-1.231934,0.40918,-36.705017,111.450188,-3.334045,1.9654932820175193
0 days 00:01:52.170000,1.731934,-1.571533,0.456787,-3.761291,77.072144,-40.107727,2.3828482355815277
0 days 00:01:52.180000,0.853027,-2.006104,0.278076,-67.192078,89.515678,-35.03418,2.197597457070107
0 days 00:01:52.190000,0.844238,-1.22583,0.416748,-196.945175,104.629509,-20.858763,1.545663574342101
0 days 00:01:52.200000,-0.359619,2.365967,2.532959,71.357727,-29.800413,-10.032654,3.48468175963473
0 days 00:01:52.210000,1.10791,4.08667,7.234863,32.730103,113.304131,57.525631,8.382814496681231
0 days 00:01:52.220000,0.431885,2.106934,1.619629,177.200302,-27.603148,61.653133,2.6923769482043185
0 days 00:01:52.230000,0.383301,-0.803711,-0.724121,249.992355,-41.725155,53.344723,1.1477030324796567
0 days 00:01:52.240000,0.419922,-0.39917,0.357666,249.755844,-49.705502,56.259151,0.6808789485216884
0 days 00:01:52.250000,0.592041,-0.463623,0.012207,249.992355,-60.867306,57.716366,0.7520690411518081
0 days 00:01:52.260000,0.764404,-0.51709,-0.22876,249.992355,-79.330444,58.326717,0.9508031767490052
0 days 00:01:52.270000,0.887207,-0.518555,-0.343994,239.97496,-99.655144,56.457516,1.0836823431753422
0 days 00:01:52.280000,0.873535,-0.539307,-0.35498,215.515121,-107.093803,52.017208,1.0862440963586408
0 days 00:01:52.290000,0.797607,-0.594727,-0.373779,187.072739,-97.595207,49.072262,1.062820714805183
0 days 00:01:52.300000,0.825439,-0.637451,-0.381592,158.7677,-81.901543,46.287533,1.1105430088861936
0 days 00:01:52.310000,0.915283,-0.723877,-0.449707,130.516052,-67.680359,39.18457,1.2505907672244345
0 days 00:01:52.320000,0.38208,-0.479004,0.62915,-53.665157,3.387451,-16.784668,0.8782139152370565
0 days 00:01:52.330000,0.471924,-0.438477,0.666504,-45.57037,1.403808,-18.539429,0.9269314555677782
0 days 00:01:52.340000,0.926758,-0.807617,-0.525391,101.097099,-56.289669,29.380796,1.33684752763133
0 days 00:01:52.350000,0.512695,-0.291016,0.509277,-55.511471,-22.65167,-6.889343,0.7790439897784976
0 days 00:01:52.360000,0.50708,-0.379639,0.618896,-45.043941,-9.094238,-14.022826,0.8856004491513089
0 days 00:01:52.370000,0.631836,-0.79834,-0.03833,-11.245727,-10.917663,-20.03479,1.0188388858872635
0 days 00:01:52.380000,0.598877,-0.773926,-0.032471,-25.352476,0.968933,-24.787901,0.9791166837747175
0 days 00:01:52.390000,0.564453,-0.746582,-0.002441,-38.589478,10.711669,-28.297422,0.935947557512706
0 days 00:01:52.400000,0.522949,-0.71582,0.030029,-50.148006,18.241882,-29.434202,0.8870037597676799
0 days 00:01:52.410000,0.506836,-0.68457,0.074219,-59.440609,21.537779,-29.121397,0.855001330851011
0 days 00:01:52.420000,0.517578,-0.661133,0.137695,-66.589355,19.378662,-27.412413,0.8508488366319836
0 days 00:01:52.430000,0.539551,-0.653809,0.190674,-71.968079,12.21466,-24.841307,0.8688717191611199
0 days 00:01:52.440000,0.565918,-0.658447,0.234131,-76.316833,2.906799,-22.552488,0.8992402124538249
0 days 00:01:52.450000,0.583252,-0.657227,0.264404,-80.078125,-6.233215,-21.766661,0.917627212025123
0 days 00:01:52.460000,0.591064,-0.660889,0.289063,-83.625786,-11.718749,-22.804258,0.9325708232547273
0 days 00:01:52.470000,0.595459,-0.659424,0.316406,-86.769096,-10.414123,-25.222776,0.9431459003213659
0 days 00:01:52.480000,0.759521,-0.809326,-0.05542,15.998839,-35.713196,-9.971619,1.111283987159448
0 days 00:01:52.490000,0.593018,-0.647217,0.38208,-94.238274,10.627746,-28.778074,0.9573637343314192
0 days 00:01:52.500000,0.59668,-0.627686,0.437744,-98.342888,24.002073,-27.786253,0.9703795888888018
0 days 00:01:52.510000,0.589111,-0.602539,0.514404,-100.58593,36.857605,-25.238035,0.9872773126421979
0 days 00:01:52.520000,0.597412,-0.58252,0.591309,-100.845329,49.774166,-22.102354,1.0226812707901716
0 days 00:01:52.530000,0.597168,-0.570557,0.634766,-101.058952,60.134884,-18.02063,1.041668270242019
0 days 00:01:52.540000,0.637207,-0.541992,0.640625,-101.692192,61.462399,-12.573241,1.0536548199187437
0 days 00:01:52.550000,0.702148,-0.479492,0.581055,-101.631157,47.164913,-5.836486,1.0298297456341994
0 days 00:01:52.560000,0.790771,-0.405029,0.478516,-101.478569,17.440796,-3.341675,1.0091307286660138
0 days 00:01:52.570000,0.799316,-0.327148,0.401367,-95.176689,-12.229918,-4.486084,0.9523798351755459
0 days 00:01:52.580000,0.648682,-0.244385,0.424561,-76.301575,-26.245115,-4.577637,0.8128741649665094
0 days 00:01:52.590000,0.589844,-0.657715,0.348145,-90.293877,-1.701355,-27.526854,0.9495840703097331
0 days 00:01:52.600000,0.554932,0.928955,0.153076,18.669128,-121.894829,-31.593321,1.0928582609034896
0 days 00:01:52.610000,0.63623,0.679932,0.404297,59.158321,45.265194,-170.356735,1.0151611703237078
0 days 00:01:52.620000,0.605957,0.702148,0.398193,59.654232,38.139343,-172.363266,1.0093331288538983
0 days 00:01:52.630000,0.540771,0.726563,0.399658,60.729977,29.327391,-174.148544,0.9899765574870952
0 days 00:01:52.640000,0.76123,0.944336,0.511963,47.760006,-25.718687,-167.755112,1.3165666360518937
0 days 00:01:52.650000,0.51709,0.796875,0.449219,60.44006,2.13623,-179.779037,1.0508042366140327
0 days 00:01:52.660000,0.606934,0.850342,0.471191,57.769772,-12.046813,-179.24498,1.1460677797586842
0 days 00:01:52.670000,0.689453,0.905762,0.496826,53.054806,-20.996092,-174.880966,1.2420089831112333
0 days 00:01:52.680000,0.490967,0.753662,0.421631,61.355587,17.288208,-177.070602,0.9933920200474735
0 days 00:01:52.690000,0.669189,0.648926,0.396484,58.876034,49.201962,-168.884262,1.0129750408835354
0 days 00:01:52.700000,0.750977,0.475586,0.376465,52.345272,28.541563,-167.366013,0.9653364150129218
0 days 00:01:52.710000,0.750732,0.577393,0.388672,57.28912,48.393246,-173.652634,1.0237417329859126
0 days 00:01:52.720000,0.718018,0.53833,0.381592,56.694027,45.372005,-173.774704,0.9751725445724977
0 days 00:01:52.730000,0.715088,0.501465,0.371094,54.931637,38.635254,-170.883163,0.9489619332749866
0 days 00:01:52.740000,0.775146,0.960449,0.501221,44.486996,-29.342649,-159.889221,1.3321171471601136
0 days 00:01:52.750000,0.782715,0.448975,0.394287,50.956722,18.119812,-165.534958,0.9847251191164974
0 days 00:01:52.760000,0.742188,0.416748,0.412598,51.811214,12.977599,-164.276108,0.9459170325414381
0 days 00:01:52.770000,0.664063,0.366699,0.405518,53.306576,15.892028,-161.949142,0.860170141828929
0 days 00:01:52.780000,0.60498,0.320068,0.403076,54.580685,26.481627,-157.455444,0.7943013199032215
0 days 00:01:52.790000,0.57666,0.268066,0.396484,54.100033,39.93988,-151.20697,0.7493968896466011
0 days 00:01:52.800000,0.628174,0.214844,0.381104,50.971981,50.552364,-147.483826,0.765506876146779
0 days 00:01:52.810000,0.673584,0.17627,0.372803,46.06628,57.853695,-146.385193,0.7897902219988545
0 days 00:01:52.820000,0.732178,0.612549,0.385498,57.899471,49.621578,-170.608505,1.029519115455852
0 days 00:01:52.830000,0.717773,0.975098,0.489014,44.128414,-33.485413,-153.411865,1.3058134940829031
0 days 00:01:52.840000,0.430176,0.935791,0.329346,46.57745,-98.518364,-137.016296,1.081307067568228
0 days 00:01:52.850000,0.615723,0.965088,0.439941,43.609615,-50.636288,-146.697998,1.2264003196159075
0 days 00:01:52.860000,0.687256,0.143066,0.339844,38.848877,61.775204,-144.668579,0.7799247619020696
0 days 00:01:52.870000,0.540771,0.91748,0.157959,15.342711,-121.24633,-41.481014,1.0766400840215824
0 days 00:01:52.880000,0.515381,0.935303,0.176514,13.633727,-118.377678,-51.261898,1.0823892410616434
0 days 00:01:52.890000,0.554443,0.9646,0.175781,15.350341,-116.470329,-57.975765,1.1263920987870963
0 days 00:01:52.900000,0.577637,0.969971,0.169189,15.762328,-119.98748,-63.781734,1.1415485808019736
0 days 00:01:52.910000,0.591064,0.976074,0.183838,15.518188,-123.634331,-70.053101,1.1557999462779016
0 days 00:01:52.920000,0.655518,1.000244,0.208008,18.318176,-128.875732,-77.842712,1.21386129187976
0 days 00:01:52.930000,0.662598,1.014404,0.220459,22.598265,-134.338379,-86.654655,1.2315249715296073
0 days 00:01:52.940000,0.614746,1.01123,0.227783,27.000425,-138.183594,-95.336906,1.2051488922556417
0 days 00:01:52.950000,0.59082,0.997803,0.233398,31.410215,-141.456604,-102.615349,1.1828582863610502
0 days 00:01:52.960000,0.65918,0.977539,0.468994,44.05975,-41.145321,-149.459839,1.2688798764883145
0 days 00:01:52.970000,0.581055,0.989746,0.246338,35.804749,-142.730713,-106.910698,1.173841755853403
0 days 00:01:52.980000,0.591064,0.975586,0.245361,43.762203,-140.258789,-115.722649,1.166759065022852
0 days 00:01:52.990000,0.525879,0.943115,0.223877,43.80798,-138.801575,-128.257751,1.1027853539991361
0 days 00:01:53,0.489258,0.936035,0.233154,43.212887,-138.526917,-130.706787,1.0816171686437859
0 days 00:01:53.010000,0.47876,0.94165,0.256104,44.18182,-137.565613,-132.354736,1.086970615479554
0 days 00:01:53.020000,0.458252,0.935059,0.271484,46.218868,-132.591248,-134.460449,1.0761197848013946
0 days 00:01:53.030000,0.432129,0.926025,0.287598,47.431942,-123.451225,-135.726929,1.0615886128204277
0 days 00:01:53.040000,0.419678,0.92627,0.307373,46.844479,-111.999504,-136.512756,1.0623482939756623
0 days 00:01:53.050000,0.463623,0.940918,0.355957,46.112057,-84.510796,-138.313293,1.107690550064412
0 days 00:01:53.060000,0.509766,0.934326,0.380859,44.090267,-71.601868,-140.861511,1.1304335570536643
0 days 00:01:53.070000,0.561279,0.946777,0.409668,43.29681,-60.226437,-143.798828,1.1744141832394566
0 days 00:01:53.080000,0.578125,0.98877,0.255859,40.542599,-141.494751,-109.924309,1.1736091582831143
0 days 00:01:53.090000,0.579346,0.958008,0.238525,44.776913,-139.266968,-122.741692,1.1446900416291739
0 days 00:01:53.100000,0.691406,0.138184,0.327393,31.341551,62.629696,-140.266418,0.7773823069384844
0 days 00:01:53.110000,0.702393,0.104736,0.318848,22.247313,57.91473,-125.671379,0.7784533404443712
0 days 00:01:53.120000,0.704834,-0.144287,0.492676,-14.717101,-16.716003,-28.594969,0.8719743957829267
0 days 00:01:53.130000,0.737061,-0.145264,0.498779,-10.765075,-15.266418,-24.322508,0.9017433328048509
0 days 00:01:53.140000,0.752686,-0.150146,0.49585,-5.996704,-13.755797,-20.89691,0.9137544847561625
0 days 00:01:53.150000,0.766357,-0.16748,0.486084,-1.502991,-11.83319,-18.493652,0.9228381531476687
0 days 00:01:53.160000,0.769775,-0.174561,0.485352,2.479553,-10.82611,-15.373229,0.9266022109028231
0 days 00:01:53.170000,0.796387,-0.187744,0.482178,5.958557,-10.902404,-12.947082,0.9497240056927065
0 days 00:01:53.180000,0.803467,-0.209961,0.475586,8.94165,-9.941101,-12.275695,0.9569874006516491
0 days 00:01:53.190000,0.789551,-0.236328,0.464111,11.497497,-7.93457,-11.352538,0.9458544948912597
0 days 00:01:53.200000,0.811035,-0.25293,0.45874,13.22174,-6.454467,-10.437011,0.9655018092810598
0 days 00:01:53.210000,0.879395,-0.274902,0.490967,15.624999,-5.317688,-11.863708,1.0440092292302785
0 days 00:01:53.220000,0.697021,-0.150146,0.482178,-18.882751,-19.706726,-33.172607,0.8607425395790543
0 days 00:01:53.230000,0.919189,-0.281494,0.505859,16.548157,-6.393432,-13.893126,1.0862967447424299
0 days 00:01:53.240000,0.966553,-0.296387,0.534424,19.706726,-10.780334,-20.03479,1.1435379168851376
0 days 00:01:53.250000,0.975342,-0.299072,0.539307,21.77429,-13.542174,-23.704527,1.1539445906961912
0 days 00:01:53.260000,0.974609,-0.294189,0.541748,24.208067,-15.899657,-28.175352,1.1532132353151345
0 days 00:01:53.270000,0.980225,-0.29126,0.528564,26.214598,-18.859863,-33.355713,1.1511096126438178
0 days 00:01:53.280000,1.005371,-0.293701,0.508057,27.137754,-25.459288,-37.666321,1.1641104072599815
0 days 00:01:53.290000,1.045166,-0.31543,0.492188,26.466368,-37.246704,-41.580196,1.1975462745965184
0 days 00:01:53.300000,1.088135,-0.352539,0.47168,24.772642,-52.009579,-47.851559,1.2372564597309648
0 days 00:01:53.310000,1.089844,-0.370361,0.448486,24.070738,-66.467285,-54.931637,1.235340805953159
0 days 00:01:53.320000,1.030029,-0.375244,0.429688,23.857115,-78.582764,-60.630795,1.1774547030442404
0 days 00:01:53.330000,0.67749,0.126953,0.328857,25.993345,61.378475,-133.026123,0.7637124398345231
0 days 00:01:53.340000,0.948975,-0.290039,0.521729,17.776489,-8.361816,-16.586304,1.121105401640274
0 days 00:01:53.350000,0.740234,-0.133057,0.514404,-22.796629,-25.314329,-36.193848,0.9111871461017215
0 days 00:01:53.360000,0.845215,-0.265625,0.473633,14.633178,-5.638122,-10.711669,1.0046259281638117
0 days 00:01:53.370000,0.820557,-0.131104,0.479492,-31.455992,-32.585144,-38.391113,0.9593824196476606
0 days 00:01:53.380000,0.748291,0.083252,0.320801,19.020081,52.925106,-121.398918,0.818403077820459
0 days 00:01:53.390000,0.788086,-0.134766,0.502197,-27.6947,-31.09741,-37.094116,0.944162721653953
0 days 00:01:53.400000,0.716797,0.058838,0.321533,16.265869,50.765987,-118.423454,0.7878091898055011
0 days 00:01:53.410000,0.647705,0.026367,0.306396,12.176513,51.780697,-113.624565,0.7170045289466448
0 days 00:01:53.420000,0.628418,0.009766,0.296387,6.340026,52.490231,-107.39135,0.6948739534973232
0 days 00:01:53.430000,0.638184,-0.000977,0.294678,-0.25177,51.811214,-101.112358,0.7029330665639509
0 days 00:01:53.440000,0.647217,-0.008545,0.293213,-6.149292,49.583431,-94.66552,0.7105889989881634
0 days 00:01:53.450000,0.699707,-0.022217,0.290527,-14.85443,36.254883,-82.275383,0.757950802273472
0 days 00:01:53.460000,0.718018,-0.051025,0.289795,-19.920349,26.397703,-75.645447,0.775973286250242
0 days 00:01:53.470000,0.76416,-0.06543,0.294678,-24.116514,12.519835,-70.335388,0.8216183506860104
0 days 00:01:53.480000,0.792236,-0.073486,0.322754,-27.099607,-3.707886,-65.246582,0.8586083020842508
0 days 00:01:53.490000,0.683105,-0.010498,0.291016,-10.414123,44.136044,-88.691704,0.7425853225623302
0 days 00:01:53.500000,0.767578,-0.124512,0.397705,-33.592224,-16.838074,-59.661861,0.8734119825448927
0 days 00:01:53.510000,0.818115,-0.128906,0.456299,-34.347534,-30.525206,-40.794369,0.9455885402552211
0 days 00:01:53.520000,0.784912,-0.096436,0.371582,-29.441832,-14.48059,-61.737057,0.8737619427303984
0 days 00:01:53.530000,0.800293,-0.124756,0.439453,-38.42926,-28.556822,-46.417233,0.9214943757799068
0 days 00:01:53.540000,0.811523,-0.119385,0.443359,-40.756222,-28.213499,-48.515316,0.9324106180406785
0 days 00:01:53.550000,0.807373,-0.118652,0.437012,-43.083187,-26.878355,-50.247189,0.9256937649012226
0 days 00:01:53.560000,0.80542,-0.128418,0.446533,-36.506653,-28.808592,-43.67065,0.9298302421479956
0 days 00:01:53.570000,0.772705,-0.109131,0.408447,-42.350765,-20.957945,-54.435726,0.8808016484969814
0 days 00:01:53.580000,0.779053,-0.0979,0.406982,-40.870663,-18.592834,-56.52618,0.8843881134055342
0 days 00:01:53.590000,0.769287,-0.114258,0.403564,-38.269043,-16.784668,-57.929989,0.8761970560490374
0 days 00:01:53.600000,0.792969,-0.121094,0.420898,-43.609615,-24.070738,-52.154537,0.9058800793708844
0 days 00:01:53.610000,0.33667,0.957764,0.11377,-3.257751,-20.683287,6.111145,1.021568490849243
0 days 00:01:53.620000,0.306396,0.929932,0.099609,-1.716614,-10.726928,5.386352,0.9841615651512712
0 days 00:01:53.630000,0.308838,0.931641,0.100098,-1.937866,-10.19287,5.355834,0.9865877927123364
0 days 00:01:53.640000,0.314453,0.937988,0.100586,-2.075195,-9.994507,5.401611,0.9943941475838441
0 days 00:01:53.650000,0.318359,0.941162,0.10376,-2.26593,-10.505675,5.317688,0.9989517008969954
0 days 00:01:53.660000,0.321289,0.943115,0.106445,-2.601623,-11.131286,5.325317,1.0020095123156267
0 days 00:01:53.670000,0.323486,0.947266,0.105225,-2.876281,-12.092589,5.371093,1.0064931035913758
0 days 00:01:53.680000,0.327637,0.94751,0.106445,-3.257751,-13.481139,5.256652,1.0081923139431286
0 days 00:01:53.690000,0.329346,0.950195,0.109619,-3.326416,-15.724181,5.683898,1.011610424472781
0 days 00:01:53.700000,0.332275,0.952148,0.109619,-3.311157,-18.295288,5.92041,1.0144007170196598
0 days 00:01:53.710000,0.332764,0.953857,0.116699,-3.295898,-23.086546,6.530761,1.0169531516967731
0 days 00:01:53.720000,0.309814,0.934326,0.129639,-9.292603,-56.739803,8.850098,0.9928524861191617
0 days 00:01:53.730000,0.327881,0.943848,0.119629,-4.493713,-27.94647,7.247924,1.0063131197127462
0 days 00:01:53.740000,0.333984,0.93335,0.121582,-5.325317,-30.807493,7.30133,0.9987340574347107
0 days 00:01:53.750000,0.331543,0.928467,0.124268,-6.088256,-34.294128,7.446289,0.9936872077077374
0 days 00:01:53.760000,0.327393,0.92627,0.127441,-6.713867,-38.208008,7.8125,0.9906581134932475
0 days 00:01:53.770000,0.324219,0.929199,0.131836,-6.988525,-41.90826,8.087158,0.9929297419545857
0 days 00:01:53.780000,0.317139,0.929688,0.131592,-6.950378,-45.043941,8.384705,0.9910667874210093
0 days 00:01:53.790000,0.3125,0.928711,0.130371,-7.255554,-47.7066,8.499146,0.9885125032906766
0 days 00:01:53.800000,0.310059,0.931152,0.128418,-8.110046,-50.361629,8.720398,0.9897837204707904
0 days 00:01:53.810000,0.312256,0.932129,0.130859,-8.872986,-53.413387,8.880615,0.991711833174335
0 days 00:01:53.820000,0.307617,0.930908,0.100098,-1.457214,-11.45172,5.332946,0.9855138419915775
0 days 00:01:53.830000,0.330078,0.946289,0.115479,-3.791809,-25.459288,6.942749,1.0088358424669497
0 days 00:01:53.840000,0.306396,0.929443,0.098633,-1.434326,-12.451171,5.40924,0.9836011731154045
0 days 00:01:53.850000,0.383789,0.914063,0.058838,0.160217,-13.557433,1.579285,0.9931097999385566
0 days 00:01:53.860000,0.304443,0.934326,0.098633,-1.457214,-15.441894,5.683898,0.9876128204990051
0 days 00:01:53.870000,0.30835,0.941162,0.130127,-9.58252,-60.462948,8.895874,0.9988987280365312
0 days 00:01:53.880000,0.381348,0.916992,0.061768,-0.244141,-17.189026,2.563476,0.9950456828668722
0 days 00:01:53.890000,0.378174,0.915527,0.061279,-0.595093,-20.477293,3.448486,0.9924517005104077
0 days 00:01:53.900000,0.373779,0.912354,0.057129,-1.701355,-23.399351,4.165649,0.987605328457679
0 days 00:01:53.910000,0.369385,0.910156,0.059326,-2.426147,-26.229856,4.898071,0.9840471517346108
0 days 00:01:53.920000,0.368164,0.909912,0.062988,-2.853393,-28.785704,5.432128,0.9835914125204633
0 days 00:01:53.930000,0.36377,0.905762,0.067871,-3.440857,-31.059263,5.981445,0.9784374717809002
0 days 00:01:53.940000,0.361328,0.904053,0.075195,-3.997802,-32.997131,6.370544,0.9764855546386746
0 days 00:01:53.950000,0.358398,0.907959,0.081787,-4.501343,-34.591675,6.752014,0.9795548914961325
0 days 00:01:53.960000,0.351074,0.912109,0.083252,-4.722595,-35.270691,7.118225,0.98088056197531
0 days 00:01:53.970000,0.347412,0.914307,0.082275,-5.233764,-35.209656,7.247924,0.9815404034567299
0 days 00:01:53.980000,0.345947,0.919189,0.08374,-5.531311,-34.77478,7.377624,0.9856977894517164
0 days 00:01:53.990000,0.343506,0.922852,0.082764,-5.91278,-34.011841,7.400512,0.9881811906912619
0 days 00:01:54,0.337158,0.92627,0.085205,-5.851745,-33.035278,7.240295,0.9893995764548316
0 days 00:01:54.010000,0.332275,0.927734,0.084961,-5.523681,-31.776426,7.087707,0.989098287280895
0 days 00:01:54.020000,0.329834,0.927246,0.084961,-5.401611,-30.364988,6.835937,0.987822850309204
0 days 00:01:54.030000,0.328857,0.928223,0.087402,-5.012512,-29.144285,6.462097,0.9886273179424085
0 days 00:01:54.040000,0.327393,0.928955,0.087402,-4.318237,-27.938841,6.050109,0.9888289427792858
0 days 00:01:54.050000,0.320313,0.930664,0.092285,-3.578186,-26.367186,6.011962,0.9885607821929818
0 days 00:01:54.060000,0.316162,0.936523,0.095459,-2.929687,-24.375914,5.828857,0.9930489214807093
0 days 00:01:54.070000,0.313477,0.941406,0.098633,-2.334595,-21.987913,5.760192,0.997116620588585
0 days 00:01:54.080000,0.310547,0.941162,0.097168,-1.792908,-19.78302,5.699157,0.99582476855971
0 days 00:01:54.090000,0.307129,0.935547,0.098145,-1.495361,-17.631531,5.691528,0.9895498233414021
0 days 00:01:54.100000,0.303467,0.930176,0.098877,-1.594543,-13.694762,5.615234,0.9834105308537223
0 days 00:01:54.110000,0.300537,0.946533,0.130371,-9.727478,-63.598629,8.934021,1.001620589893698
0 days 00:01:54.120000,0.209229,0.979736,0.123779,18.64624,127.037041,3.929138,1.0094457117537328
0 days 00:01:54.130000,0.266602,0.957275,0.138184,-9.841919,-65.582275,9.040833,1.0032680947209474
0 days 00:01:54.140000,0.27002,0.991943,0.062256,10.932921,74.577332,23.254393,1.0299211257106051
0 days 00:01:54.150000,0.257568,0.990723,0.057373,10.391234,75.248718,22.842405,1.0252633800550959
0 days 00:01:54.160000,0.267822,0.996338,0.063965,11.260985,77.62146,18.226624,1.0336873585146524
0 days 00:01:54.170000,0.219971,1.0,0.080811,12.847899,81.17675,19.355774,1.0270918452417
0 days 00:01:54.180000,0.215576,0.9729,0.074951,11.940001,86.013786,18.074036,0.9993123006232836
0 days 00:01:54.190000,0.207275,0.972656,0.096191,12.832641,96.04644,14.205932,0.9991372920885297
0 days 00:01:54.200000,0.189453,0.976074,0.099854,14.762877,104.606621,11.909484,0.9992916060895338
0 days 00:01:54.210000,0.18042,0.975342,0.10376,16.464233,114.265434,8.651733,0.997301123514859
0 days 00:01:54.220000,0.184326,0.974365,0.103271,17.089844,121.742241,6.591796,0.9970095922015997
0 days 00:01:54.230000,0.193115,0.979004,0.111816,17.982483,125.679008,4.806519,1.0041140637880739
0 days 00:01:54.240000,0.25293,0.973877,0.043701,9.048462,73.188782,26.046751,1.007134436622043
0 days 00:01:54.250000,0.246826,0.98291,0.135986,19.691467,124.076836,3.852844,1.0225103102521753
0 days 00:01:54.260000,0.370605,0.962402,0.128418,20.065308,103.446953,1.968384,1.0392578401691275
0 days 00:01:54.270000,0.414307,0.962158,0.131836,18.371582,87.142937,0.968933,1.0558309704251907
0 days 00:01:54.280000,0.494873,0.975342,0.127441,17.669678,64.804077,1.289368,1.1011051319351846
0 days 00:01:54.290000,0.597168,0.980225,0.11084,17.951965,34.614563,-0.152588,1.153141871778577
0 days 00:01:54.300000,0.64209,0.995361,0.108887,20.202635,1.63269,-2.609253,1.1894870605391217
0 days 00:01:54.310000,0.617188,1.009521,0.112549,24.55139,-29.983519,-5.531311,1.1885793848902142
0 days 00:01:54.320000,0.605225,0.99292,0.111816,27.076719,-59.616085,-10.398864,1.1681995740801312
0 days 00:01:54.330000,0.580811,0.974854,0.111816,26.473997,-85.311882,-15.388488,1.1402563557783838
0 days 00:01:54.340000,0.543213,0.956299,0.124512,24.261473,-104.148857,-20.469664,1.106838461074605
0 days 00:01:54.350000,0.537842,0.949219,0.152588,21.789549,-114.982597,-25.314329,1.1016232680317715
0 days 00:01:54.360000,0.311279,0.982422,0.136719,20.942686,115.898125,3.585815,1.039586305645664
0 days 00:01:54.370000,0.230713,0.985107,0.046143,10.528563,75.233459,25.291441,1.0128146258160966
0 days 00:01:54.380000,0.285645,0.952393,0.133301,-9.841919,-65.376282,8.956909,1.0032021975030756
0 days 00:01:54.390000,0.194824,0.989746,0.066895,10.231017,83.549492,20.256041,1.0109542405653185
0 days 00:01:54.400000,0.21582,1.001465,0.057373,11.924743,78.811646,23.04077,1.0260614405356046
0 days 00:01:54.410000,0.2229,0.963623,0.14624,-8.857727,-59.722897,8.56781,0.9998199006466114
0 days 00:01:54.420000,0.196045,0.964844,0.146729,-7.797241,-52.986141,8.262634,0.995433064450845
0 days 00:01:54.430000,0.17749,0.966797,0.139648,-6.629943,-44.281002,7.736206,0.9928246084848018
0 days 00:01:54.440000,0.163574,0.967529,0.13501,-5.53894,-34.675598,7.255554,0.9905031647687956
0 days 00:01:54.450000,0.14917,0.970703,0.133545,-4.974365,-25.184629,7.385253,0.9911358484758787
0 days 00:01:54.460000,0.144287,0.972656,0.133545,-4.402161,-17.173767,7.67517,0.9923269117231478
0 days 00:01:54.470000,0.135986,0.971191,0.132813,-3.990173,-9.613037,7.705688,0.9896178270655799
0 days 00:01:54.480000,0.112305,0.974609,0.136475,-3.257751,-1.358032,8.399963,0.9905051951055077
0 days 00:01:54.490000,0.103516,0.984863,0.144775,-1.708984,7.186889,9.155273,1.0008149137827633
0 days 00:01:54.500000,0.131104,0.980469,0.142334,-0.732422,12.115478,10.025024,0.9993831529163377
0 days 00:01:54.510000,0.246826,0.959229,0.139648,-9.559631,-63.903805,8.888245,1.0002724192043886
0 days 00:01:54.520000,0.063721,0.946045,0.133301,-2.197266,26.626585,14.793395,0.957512748984054
0 days 00:01:54.530000,0.075439,0.988037,0.146484,2.5177,41.290279,11.604308,1.0016814455434422
0 days 00:01:54.540000,0.082275,0.99585,0.144775,6.347656,49.781796,14.328002,1.0096762841376439
0 days 00:01:54.550000,0.114502,0.947754,0.126221,2.883911,53.810116,17.364502,0.9629538376064556
0 days 00:01:54.560000,0.10791,0.974609,0.126953,5.210876,62.057491,15.007018,0.9887488736731891
0 days 00:01:54.570000,0.103271,0.995361,0.122803,8.583069,69.602966,17.372131,1.00821078975133
0 days 00:01:54.580000,0.158936,0.983887,0.117676,9.872437,74.874878,18.791199,1.0035646077064495
0 days 00:01:54.590000,0.160889,0.969971,0.098389,9.712219,77.476501,19.859314,0.9881343058931817
0 days 00:01:54.600000,0.164307,0.961426,0.090332,9.162903,81.542961,19.042969,0.9795389803111462
0 days 00:01:54.610000,0.167969,0.974609,0.084229,9.45282,85.235588,18.2724,0.9925577123185331
0 days 00:01:54.620000,0.105225,0.967041,0.148682,-0.740051,17.311096,12.21466,0.9840462049263744
0 days 00:01:54.630000,0.366455,0.908691,0.021729,5.569458,-13.076781,-0.175476,0.9800411980865906
0 days 00:01:54.640000,0.381836,0.894287,-0.006836,5.1651,-14.945983,-4.699707,0.9724169374095663
0 days 00:01:54.650000,0.384277,0.897217,-0.008789,5.340576,-14.404296,-4.562378,0.976086268901986
0 days 00:01:54.660000,0.380859,0.898682,-0.010498,5.531311,-13.961791,-4.577637,0.9761112247121226
0 days 00:01:54.670000,0.40625,0.935303,-0.020996,5.508422,-11.901855,-6.568908,1.019937055079871
0 days 00:01:54.680000,0.38916,0.907227,-0.016602,5.477905,-13.877868,-5.027771,0.987310468663733
0 days 00:01:54.690000,0.390869,0.912354,-0.017822,5.363464,-14.038085,-5.241394,0.9927164852872143
0 days 00:01:54.700000,0.401123,0.919434,-0.020264,5.645751,-13.328551,-5.729675,1.0033290443224494
0 days 00:01:54.710000,0.404785,0.93042,-0.020752,5.798339,-12.390136,-6.149292,1.0148708874181975
0 days 00:01:54.720000,0.385986,0.901123,-0.013916,5.393981,-13.954162,-4.905701,0.980408847563607
0 days 00:01:54.730000,0.366211,0.89917,0.000488,5.424499,-15.388488,-3.456115,0.9708848662766353
0 days 00:01:54.740000,0.36792,0.913086,0.005615,5.645751,-15.350341,-1.945495,0.9844402968291169
0 days 00:01:54.750000,0.376953,0.907227,0.006836,5.393981,-16.296387,-3.410339,0.9824464996293691
0 days 00:01:54.760000,0.375,0.907471,0.006104,5.523681,-17.158508,-2.593994,0.9819194848138009
0 days 00:01:54.770000,0.372559,0.9104,0.00708,5.737304,-16.242981,-2.410889,0.983706508508
0 days 00:01:54.780000,0.366943,0.915039,0.00708,5.599975,-14.434813,-1.625061,0.9858973897774556
0 days 00:01:54.790000,0.36792,0.911865,0.010254,5.569458,-14.404296,-1.052856,0.9833453356481638
0 days 00:01:54.800000,0.365723,0.906494,0.013916,5.516052,-14.511107,-0.549316,0.9775880215208245
0 days 00:01:54.810000,0.363525,0.902588,0.018311,5.447387,-13.938903,-0.328064,0.97321673644158
0 days 00:01:54.820000,0.366211,0.904297,0.018799,5.41687,-13.351439,-0.335693,0.9758160498428995
0 days 00:01:54.830000,0.416504,0.94165,-0.028076,5.363464,-10.581969,-7.469177,1.0300332840699857
0 days 00:01:54.840000,0.37915,0.897705,-0.000488,5.714416,-14.305114,-4.295349,0.97448921372635
0 days 00:01:54.850000,0.423828,0.947998,-0.029785,5.470275,-7.148742,-8.773804,1.0388539492214486
0 days 00:01:54.860000,0.418457,0.906494,-0.022217,4.348755,1.724243,-3.440857,0.9986647225040044
0 days 00:01:54.870000,0.411865,0.951416,-0.037354,5.363464,-5.615234,-9.239197,1.03741048028107
0 days 00:01:54.880000,0.378418,0.937256,-0.036865,1.419067,13.679503,-2.174377,1.0114385895767473
0 days 00:01:54.890000,0.381104,0.928467,-0.033936,2.098083,13.542174,-1.869202,1.00421256763745
0 days 00:01:54.900000,0.38501,0.923584,-0.032471,2.937317,13.122558,-1.586914,1.001146578177741
0 days 00:01:54.910000,0.386719,0.917725,-0.030029,3.517151,12.741088,-1.022339,0.9963295144815294
0 days 00:01:54.920000,0.389404,0.914063,-0.029297,4.013062,11.825561,-0.465393,0.9939843848843903
0 days 00:01:54.930000,0.393066,0.908203,-0.030029,4.455566,10.56671,-0.198364,0.9900683362303837
0 days 00:01:54.940000,0.392334,0.900146,-0.030762,4.493713,9.231567,0.144958,0.9824128915664737
0 days 00:01:54.950000,0.391357,0.895508,-0.025879,4.570007,8.087158,0.282288,0.9776321405078701
0 days 00:01:54.960000,0.396729,0.895264,-0.022217,4.829407,7.278442,0.267029,0.979482069374422
0 days 00:01:54.970000,0.397705,0.89209,-0.022705,4.837036,6.599426,-0.091553,0.9769899447537831
0 days 00:01:54.980000,0.404541,0.948486,-0.034424,5.371093,-6.057739,-8.842468,1.0317287069055507
0 days 00:01:54.990000,0.402588,0.894531,-0.022949,4.890442,6.156921,-0.87738,0.9812183570979499
0 days 00:01:55,0.412598,0.901367,-0.025635,4.592896,3.311157,-2.540588,0.9916434497933218
0 days 00:01:55.010000,0.365967,0.911133,0.021729,5.638122,-12.550353,-0.289917,0.9821238914816195
0 days 00:01:55.020000,0.425537,0.916504,-0.022949,4.417419,-0.167847,-4.928589,1.010736353846046
0 days 00:01:55.030000,0.419922,0.926025,-0.023682,4.562378,-2.288818,-5.958557,1.0170632349234732
0 days 00:01:55.040000,0.41333,0.933838,-0.025391,4.684448,-4.165649,-6.477355,1.0215379591698979
0 days 00:01:55.050000,0.422363,0.939697,-0.031982,4.882813,-5.226135,-7.583618,1.0307491469324628
0 days 00:01:55.060000,0.419678,0.946045,-0.037354,5.187988,-6.851196,-8.239746,1.0356283537181667
0 days 00:01:55.070000,0.405273,0.948975,-0.036621,5.210876,-6.988525,-8.415222,1.0325409690636977
0 days 00:01:55.080000,0.40625,0.947021,-0.035889,5.027771,-5.218505,-9.231567,1.0311041932132756
0 days 00:01:55.090000,0.417725,0.951416,-0.038574,5.294799,-4.699707,-9.803772,1.0397954289940883
0 days 00:01:55.100000,0.40918,0.898926,-0.026855,4.66156,4.844666,-1.724243,0.9880371536035475
0 days 00:01:55.110000,0.364746,0.915527,0.024414,5.821228,-12.054442,-0.259399,0.9858120386975399
0 days 00:01:55.120000,0.38208,0.900146,0.003174,5.271911,-13.755797,-5.111694,0.9778844624964649
0 days 00:01:55.130000,0.366211,0.91748,0.025146,6.187438,-12.20703,0.152588,0.988186403588412
0 days 00:01:55.140000,0.334229,0.929199,0.049316,0.671387,-14.839171,-0.045776,0.9887122300740495
0 days 00:01:55.150000,0.331787,0.931396,0.048096,0.953674,-12.290954,0.12207,0.98989612960199
0 days 00:01:55.160000,0.331787,0.934082,0.049072,1.358032,-9.963989,0.328064,0.9924715901611492
0 days 00:01:55.170000,0.332031,0.931885,0.047363,1.525879,-8.209229,0.480652,0.9904026918153039
0 days 00:01:55.180000,0.333496,0.925781,0.049072,1.609802,-6.851196,0.640869,0.9852401246198818
0 days 00:01:55.190000,0.333008,0.925293,0.053955,1.930237,-5.554199,0.892639,0.98487187285352
0 days 00:01:55.200000,0.333984,0.925537,0.053955,2.281189,-4.478455,1.159668,0.9854314753700534
0 days 00:01:55.210000,0.335449,0.924561,0.052246,2.357483,-3.379822,1.144409,0.9849206662660703
0 days 00:01:55.220000,0.337646,0.92749,0.051514,2.593994,-2.151489,1.152039,0.9883806015963689
0 days 00:01:55.230000,0.342041,0.93042,0.051025,3.135681,0.053406,1.205444,0.9926111890896656
0 days 00:01:55.240000,0.336426,0.92749,0.046631,0.480652,-17.356873,-0.244141,0.9877219263218774
0 days 00:01:55.250000,0.345703,0.932129,0.051514,3.509521,0.747681,1.251221,0.9955042586779828
0 days 00:01:55.260000,0.350586,0.934082,0.04834,4.005432,2.082825,0.770569,0.9988776109814455
0 days 00:01:55.270000,0.353027,0.926025,0.046387,3.570556,2.479553,0.434875,0.9921200114517397
0 days 00:01:55.280000,0.353516,0.925293,0.044189,3.303528,2.13623,0.473022,0.9915106483674293
0 days 00:01:55.290000,0.362061,0.919922,0.04248,2.975464,1.426697,0.289917,0.9895196835864358
0 days 00:01:55.300000,0.365723,0.914795,0.045654,2.532959,0.328064,0.045776,0.9862492040402365
0 days 00:01:55.310000,0.372314,0.916504,0.045166,2.120972,-1.655578,0.061035,0.9902713083635212
0 days 00:01:55.320000,0.378906,0.91748,0.049316,1.876831,-4.333496,0.267029,0.9938668799653201
0 days 00:01:55.330000,0.38208,0.92041,0.055908,1.76239,-7.034301,0.518799,0.9981309528133069
0 days 00:01:55.340000,0.382813,0.914551,0.058594,0.938415,-10.086059,0.854492,0.9931679522648725
0 days 00:01:55.350000,0.36499,0.917969,0.021973,6.271362,-11.840819,0.328064,0.98811315029707
0 days 00:01:55.360000,0.34668,0.934814,0.052734,3.746032,1.495361,0.976562,0.9984213097445387
0 days 00:01:55.370000,0.338623,0.929688,0.046631,0.1297,-19.851685,-0.320435,0.9905350895521067
0 days 00:01:55.380000,0.338623,0.929688,0.054443,2.876281,-0.991821,1.12915,0.9909335768466017
0 days 00:01:55.390000,0.343018,0.919189,0.047363,-0.587463,-24.665831,-0.442505,0.9822489602000096
0 days 00:01:55.400000,0.3396,0.924316,0.048584,-0.358582,-22.369383,-0.335693,0.9859252674072209
0 days 00:01:55.410000,0.365234,0.923584,0.023682,6.462097,-10.627746,-0.083923,0.9934606770959784
0 days 00:01:55.420000,0.369141,0.925781,0.026123,6.645202,-10.131835,-0.37384,0.9970044879392469
0 days 00:01:55.430000,0.369873,0.926514,0.027344,6.683349,-9.490967,-0.900268,0.997988939147624
0 days 00:01:55.440000,0.370361,0.929932,0.026367,6.858825,-9.040833,-1.152039,1.001317139388915
0 days 00:01:55.450000,0.374756,0.930176,0.03125,7.118225,-8.796692,-1.571655,1.0033175035909618
0 days 00:01:55.460000,0.375488,0.932617,0.031006,7.095336,-8.895874,-1.808166,1.0058464489518268
0 days 00:01:55.470000,0.37793,0.930664,0.0271,6.92749,-9.483337,-1.686096,1.0048387809972303
0 days 00:01:55.480000,0.384033,0.930176,0.032227,6.637573,-10.009766,-1.968384,1.006850195209794
0 days 00:01:55.490000,0.384766,0.927979,0.030029,6.263732,-11.390685,-1.777649,1.0050331537009114
0 days 00:01:55.500000,0.387451,0.924805,0.02832,5.767822,-13.389586,-1.38855,1.0030875274999684
0 days 00:01:55.510000,0.390869,0.921631,0.03125,5.195617,-15.419005,-1.228333,1.001578173595052
0 days 00:01:55.520000,0.364502,0.921143,0.022705,6.317138,-11.138915,0.106812,0.9908994154191433
0 days 00:01:55.530000,0.347168,0.917725,0.046875,-0.656128,-26.679991,-0.221252,0.9823146448434942
0 days 00:01:55.540000,0.391113,0.911865,0.032471,3.921509,-19.889832,-0.602722,0.9927343667039034
0 days 00:01:55.550000,0.386719,0.904541,0.034424,3.334045,-21.781919,-0.617981,0.9843429368964863
0 days 00:01:55.560000,0.382568,0.901611,0.037842,2.616882,-23.445127,-0.076294,0.9801493186800673
0 days 00:01:55.570000,0.375732,0.9021,0.040283,2.151489,-24.810789,0.190735,0.9780499301738127
0 days 00:01:55.580000,0.367432,0.900879,0.035645,1.304626,-25.787352,0.289917,0.9735809228256272
0 days 00:01:55.590000,0.364746,0.901855,0.040039,0.579834,-26.473997,0.442505,0.9736453189236828
0 days 00:01:55.600000,0.363281,0.90625,0.043213,-0.030518,-27.175901,0.366211,0.9773072755433677
0 days 00:01:55.610000,0.361084,0.909668,0.043945,-0.228882,-27.496336,0.022888,0.9796982639083321
0 days 00:01:55.620000,0.35498,0.913818,0.045898,-0.526428,-27.534483,-0.053406,0.9814177316148308
0 days 00:01:55.630000,0.389648,0.918457,0.030762,4.646301,-17.593384,-0.823975,0.9981658807016998
0 days 00:01:55.640000,0.285645,0.946289,0.059326,-4.081726,13.626098,-5.836486,0.9902401283638228
0 days 00:01:55.650000,0.2854,0.94458,0.059814,-4.463196,12.321471,-6.492614,0.9885657545130723
0 days 00:01:55.660000,0.287842,0.941895,0.063965,-4.653931,10.581969,-6.462097,0.9869704804167144
0 days 00:01:55.670000,0.283936,0.939941,0.067627,-5.073547,8.422852,-6.233215,0.9842165141400545
0 days 00:01:55.680000,0.280029,0.93042,0.062256,-7.476806,-7.43103,-2.998352,0.9736392693277115
0 days 00:01:55.690000,0.27832,0.934082,0.067871,-5.889892,3.410339,-5.0354,0.9770249115375718
0 days 00:01:55.700000,0.277588,0.931396,0.066406,-6.446838,0.167847,-4.272461,0.9741475059743262
0 days 00:01:55.710000,0.276123,0.931641,0.067627,-6.805419,-3.700256,-3.623962,0.9740494213021227
0 days 00:01:55.720000,0.293457,0.951904,0.056885,-3.77655,14.404296,-4.53949,0.9977345034075948
0 days 00:01:55.730000,0.28125,0.934082,0.067383,-5.561828,6.072998,-5.737304,0.9778298491624194
0 days 00:01:55.740000,0.298584,0.95752,0.053467,-3.295898,14.961242,-3.105163,1.0044180780656031
0 days 00:01:55.750000,0.299316,0.923096,0.040771,-0.144958,21.934507,9.407043,0.9712664760574207
0 days 00:01:55.760000,0.300537,0.963135,0.054199,-2.029419,16.365051,1.274109,1.0103905424116952
0 days 00:01:55.770000,0.302002,0.956787,0.052002,-1.38855,17.26532,3.784179,1.004664510857729
0 days 00:01:55.780000,0.30249,0.948242,0.049561,-0.968933,18.493652,6.011962,0.996553753384633
0 days 00:01:55.790000,0.303223,0.937744,0.047363,-0.419617,20.050049,7.965087,0.9866870076341332
0 days 00:01:55.800000,0.301514,0.909668,0.038574,-0.274658,23.483274,10.368346,0.9591113156959415
0 days 00:01:55.810000,0.307861,0.897705,0.038574,-0.465393,24.246214,10.917663,0.9498108315985873
0 days 00:01:55.820000,0.311279,0.889404,0.039307,-0.694275,24.375914,11.093139,0.9431220129474235
0 days 00:01:55.830000,0.321045,0.886475,0.0354,-1.152039,23.750303,10.551452,0.9434834273319272
0 days 00:01:55.840000,0.334717,0.886963,0.037842,-1.38855,21.995543,9.254456,0.9487733398562588
0 days 00:01:55.850000,0.341309,0.887451,0.02832,-1.739502,19.943237,7.583618,0.9512429412521284
0 days 00:01:55.860000,0.300781,0.962646,0.054688,-2.738952,15.548705,-1.060486,1.0100234198378768
0 days 00:01:55.870000,0.284424,0.930664,0.059814,-8.049011,-10.902404,-2.708435,0.974992413954078
0 days 00:01:55.880000,0.348633,0.891357,0.022461,-2.586365,18.028259,5.66101,0.9573749352573421
0 days 00:01:55.890000,0.299316,0.930176,0.056885,-8.926392,-16.967773,-2.189636,0.978802003500708
0 days 00:01:55.900000,0.338867,0.929443,0.086426,-6.858825,-15.48767,0.457764,0.9930581994092793
0 days 00:01:55.910000,0.337158,0.929932,0.085938,-6.820678,-15.968322,0.679016,0.9928919283748862
0 days 00:01:55.920000,0.335205,0.931641,0.084961,-6.713867,-16.326904,0.793457,0.9937483164398319
0 days 00:01:55.930000,0.336182,0.9375,0.08252,-6.446838,-16.616821,1.113892,0.9993668683341468
0 days 00:01:55.940000,0.337646,0.938477,0.081787,-6.233215,-16.88385,1.464844,1.0007162505995393
0 days 00:01:55.950000,0.337891,0.9375,0.081787,-6.011962,-17.234802,1.487732,0.9998828387616221
0 days 00:01:55.960000,0.335449,0.934814,0.077637,-5.905151,-17.402649,1.38092,0.996208186056509
0 days 00:01:55.970000,0.337646,0.931152,0.07959,-5.767822,-17.623901,1.304626,0.9936716945349706
0 days 00:01:55.980000,0.338867,0.927002,0.077148,-5.882263,-17.936707,1.083374,0.9900077603721094
0 days 00:01:55.990000,0.341553,0.924316,0.073242,-6.256103,-18.539429,0.732422,0.9881208985893376
0 days 00:01:56,0.294434,0.929688,0.057861,-8.499146,-14.213561,-2.403259,0.9769130222394417
0 days 00:01:56.010000,0.342529,0.922363,0.070068,-6.477355,-19.348145,0.236511,0.9864021209598041
0 days 00:01:56.020000,0.340332,0.91748,0.060303,-7.30133,-21.011351,-0.701904,0.9804243328442027
0 days 00:01:56.030000,0.337402,0.921143,0.060791,-7.942199,-21.690367,-1.235962,0.9828733803161016
0 days 00:01:56.040000,0.334717,0.924072,0.060547,-8.407593,-22.216795,-1.63269,0.9846880066711486
0 days 00:01:56.050000,0.336182,0.925781,0.057373,-8.834839,-22.689817,-1.976013,0.9866004552066657
0 days 00:01:56.060000,0.33374,0.930908,0.059326,-9.002686,-23.002623,-1.960754,0.9907026124624887
0 days 00:01:56.070000,0.327637,0.929443,0.056641,-9.101868,-23.124693,-2.059937,0.9871263834479352
0 days 00:01:56.080000,0.323242,0.929443,0.055176,-9.429932,-22.811888,-2.227783,0.9855932587984761
0 days 00:01:56.090000,0.317627,0.931152,0.057617,-9.605408,-22.201536,-2.159119,0.9855205106551563
0 days 00:01:56.100000,0.313232,0.932617,0.056396,-9.437561,-21.102903,-2.052307,0.9854284668757038
0 days 00:01:56.110000,0.305176,0.931641,0.056641,-9.19342,-19.363403,-1.983642,0.9819855124888555
0 days 00:01:56.120000,0.34082,0.917725,0.067139,-6.790161,-20.172117,-0.228882,0.9812670856326529
0 days 00:01:56.130000,0.336426,0.931396,0.085449,-6.973266,-14.991759,0.328064,0.9939730850948632
0 days 00:01:56.140000,0.356689,0.899658,0.018799,-3.334045,15.937804,3.593445,0.9679695047293587
0 days 00:01:56.150000,0.367432,0.936035,0.011475,-4.554749,12.977599,-0.404358,1.0056338655166701
0 days 00:01:56.160000,0.381592,0.92334,-0.027588,-7.369995,-8.399963,-2.868652,0.9994650107972766
0 days 00:01:56.170000,0.37793,0.926514,-0.028076,-7.545471,-9.910583,-2.357483,1.0010232459198936
0 days 00:01:56.180000,0.370605,0.925293,-0.029297,-7.774353,-10.627746,-2.029419,0.9971827897045757
0 days 00:01:56.190000,0.367432,0.924072,-0.027832,-7.8125,-10.513305,-1.724243,0.9948316219501669
0 days 00:01:56.200000,0.362549,0.920898,-0.024902,-7.93457,-10.139464,-1.38855,0.9900075825007605
0 days 00:01:56.210000,0.359131,0.922119,-0.022705,-7.850646,-9.597778,-0.968933,0.9898454638715075
0 days 00:01:56.220000,0.355225,0.923584,-0.023193,-7.606506,-8.636475,-0.480652,0.9898131747607727
0 days 00:01:56.230000,0.350098,0.922607,-0.021729,-7.568359,-7.362365,0.12207,0.9870382137962036
0 days 00:01:56.240000,0.348633,0.925049,-0.018799,-7.087707,-6.004333,0.541687,0.9887436591407299
0 days 00:01:56.250000,0.350342,0.929688,-0.019775,-6.591796,-5.020141,1.075745,0.9937053612278641
0 days 00:01:56.260000,0.383301,0.919189,-0.029297,-7.041931,-6.507873,-3.250122,0.9963364835892542
0 days 00:01:56.270000,0.352295,0.926514,-0.017334,-6.202697,-4.173279,1.472473,0.9913830878005736
0 days 00:01:56.280000,0.343994,0.933838,-0.022949,-5.172729,-1.037598,1.747131,0.9954455981524053
0 days 00:01:56.290000,0.344482,0.934082,-0.026123,-4.638672,1.235962,1.480102,0.9959214036142611
0 days 00:01:56.300000,0.34668,0.936523,-0.026855,-4.112244,3.372192,1.182556,0.9989912627015314
0 days 00:01:56.310000,0.349609,0.938477,-0.028076,-3.65448,5.302429,0.701904,1.0018751390198282
0 days 00:01:56.320000,0.355957,0.938965,-0.030273,-3.219604,6.820678,0.190735,1.0046278473161094
0 days 00:01:56.330000,0.364258,0.941895,-0.032471,-2.601623,8.094788,-0.541687,1.0103981628199847
0 days 00:01:56.340000,0.36499,0.946533,-0.035156,-1.731872,9.376526,-1.045227,1.0150755462156498
0 days 00:01:56.350000,0.368164,0.947021,-0.036621,-0.839233,10.856627,-1.617432,1.0167273985577452
0 days 00:01:56.360000,0.370361,0.944824,-0.039307,-0.1297,12.298583,-2.105713,1.0155809674988991
0 days 00:01:56.370000,0.374023,0.942627,-0.03833,0.717163,13.298034,-2.14386,1.0148438572302638
0 days 00:01:56.380000,0.3479,0.93042,-0.016602,-5.699157,-2.975464,1.678467,0.9934744147707077
0 days 00:01:56.390000,0.38501,0.914063,-0.026367,-6.66809,-4.295349,-3.669739,0.9921890378138634
0 days 00:01:56.400000,0.363281,0.915771,0.015137,-4.013062,14.266967,1.495361,0.9853114929660569
0 days 00:01:56.410000,0.383057,0.908203,-0.028809,-5.752563,-0.63324,-4.096985,0.9861010662903676
0 days 00:01:56.420000,0.382568,0.907715,-0.026855,-6.362915,-2.288818,-4.02832,0.98540650843903
0 days 00:01:56.430000,0.376953,0.95459,0.005615,-4.844666,11.695861,-1.777649,1.0263367676031099
0 days 00:01:56.440000,0.383301,0.966797,0.001465,-5.149841,10.032654,-2.76947,1.0400087701721559
0 days 00:01:56.450000,0.387207,0.977051,-0.00293,-5.41687,8.514404,-3.189087,1.0509835880497849
0 days 00:01:56.460000,0.390869,0.983398,-0.007813,-5.53894,7.507324,-3.540039,1.0582585905788813
0 days 00:01:56.470000,0.394531,0.984863,-0.012207,-5.455017,6.645202,-3.334045,1.061017836597953
0 days 00:01:56.480000,0.390869,0.981689,-0.012939,-5.210876,6.16455,-2.883911,1.0567210065116526
0 days 00:01:56.490000,0.383301,0.956299,-0.020752,-4.753113,5.958557,-2.380371,1.030464982183286
0 days 00:01:56.500000,0.379883,0.947266,-0.018555,-4.554749,6.179809,-2.26593,1.020768463692918
0 days 00:01:56.510000,0.378174,0.931885,-0.018799,-4.432678,6.217956,-2.372742,1.005872074322575
0 days 00:01:56.520000,0.374023,0.915771,-0.017334,-4.600525,6.324768,-2.89917,0.9893584772598858
0 days 00:01:56.530000,0.388428,0.971924,-0.018311,-4.920959,6.057739,-2.593994,1.046827524323372
0 days 00:01:56.540000,0.373535,0.914063,-0.014648,-4.486084,6.645202,-3.845215,0.9875495572871267
0 days 00:01:56.550000,0.378418,0.919189,-0.014648,-4.264832,6.515502,-4.302979,0.9941444383735193
0 days 00:01:56.560000,0.379883,0.918213,-0.014893,-4.188538,6.248474,-4.638672,0.9938048140892657
0 days 00:01:56.570000,0.383057,0.911377,-0.029541,-5.210876,0.87738,-4.15802,0.9890466986239831
0 days 00:01:56.580000,0.381592,0.915039,-0.018066,-4.226685,5.859375,-4.821777,0.991582173267047
0 days 00:01:56.590000,0.380859,0.919434,-0.020508,-4.127502,5.386352,-4.91333,0.9954059655743479
0 days 00:01:56.600000,0.382324,0.925293,-0.025391,-4.074097,4.806519,-4.814148,1.0014906288657923
0 days 00:01:56.610000,0.384521,0.927734,-0.030029,-4.165649,3.982544,-4.66156,1.0047131506245948
0 days 00:01:56.620000,0.383789,0.920166,-0.035156,-4.53949,3.082275,-4.486084,0.9976148597595167
0 days 00:01:56.630000,0.383301,0.91333,-0.032959,-4.905701,2.029419,-4.28772,0.9910487582263549
0 days 00:01:56.640000,0.375,0.910645,-0.015869,-4.722595,6.538391,-3.40271,0.9849625075026968
0 days 00:01:56.650000,0.359131,0.919434,0.084717,0.88501,-0.595093,0.045776,0.9907123324184473
0 days 00:01:56.660000,0.356934,0.918457,0.082764,0.915527,-0.488281,0.183105,0.9888452967481819
0 days 00:01:56.670000,0.35498,0.918945,0.082764,0.740051,-0.679016,0.358582,0.98859526254226
0 days 00:01:56.680000,0.358643,0.919678,0.078613,0.724792,-2.174377,0.450134,0.9902587686569607
0 days 00:01:56.690000,0.355225,0.918213,0.078369,0.740051,-1.617432,0.50354,0.9876444776107443
0 days 00:01:56.700000,0.356201,0.919189,0.081543,0.709534,-2.075195,0.534058,0.9891596589888814
0 days 00:01:56.710000,0.356689,0.920166,0.081787,0.679016,-2.326965,0.495911,0.9902634112426855
0 days 00:01:56.720000,0.361572,0.919922,0.08667,0.938415,-0.747681,-0.282288,0.992220986558942
0 days 00:01:56.730000,0.35376,0.919922,0.080078,0.778198,-1.113892,0.411987,0.9888453416829146
0 days 00:01:56.740000,0.360352,0.923096,0.085205,1.205444,-0.778198,-0.442505,0.9945952348292244
0 days 00:01:56.750000,0.35376,0.919189,0.078857,0.564575,2.082825,-0.999451,0.98806527201901
0 days 00:01:56.760000,0.358154,0.925049,0.081055,1.281738,-0.63324,-0.358582,0.9952687341326462
0 days 00:01:56.770000,0.358398,0.923096,0.079834,1.289368,-0.236511,-0.312805,0.9934429118857309
0 days 00:01:56.780000,0.358398,0.918457,0.077881,1.327515,0.0,-0.396728,0.9889781784316578
0 days 00:01:56.790000,0.357422,0.91748,0.078125,1.365662,0.221252,-0.511169,0.987736580323418
0 days 00:01:56.800000,0.356689,0.919678,0.080811,1.327515,0.366211,-0.63324,0.9897298035959108
0 days 00:01:56.810000,0.356201,0.919189,0.076904,1.296997,0.518799,-0.709534,0.9887880436868157
0 days 00:01:56.820000,0.355713,0.919922,0.080566,1.304626,0.915527,-0.816345,0.9895853196207995
0 days 00:01:56.830000,0.353516,0.920166,0.079102,1.25885,1.350403,-0.915527,0.9889065457443388
0 days 00:01:56.840000,0.353516,0.918457,0.080078,1.022339,1.785278,-0.991821,0.9873952142830144
0 days 00:01:56.850000,0.354004,0.919922,0.078613,0.740051,1.976013,-0.961304,0.9888151100529361
0 days 00:01:56.860000,0.358398,0.91748,0.07959,0.823975,-2.029419,0.343323,0.9882070860421918
0 days 00:01:56.870000,0.358643,0.92334,0.080811,1.235962,-0.747681,-0.434875,0.9938369960763185
0 days 00:01:56.880000,0.358887,0.917969,0.077393,1.029968,-1.731872,0.404358,0.9886640684170737
0 days 00:01:56.890000,0.359131,0.921387,0.070557,2.937317,-5.805969,0.648498,0.9914168493519766
0 days 00:01:56.900000,0.356201,0.917236,0.074951,1.350403,-1.235962,0.457764,0.9868225192495357
0 days 00:01:56.910000,0.374512,0.922119,0.064697,3.181457,-4.974365,-0.701904,0.9973707385491115
0 days 00:01:56.920000,0.35376,0.919434,0.077393,0.526428,2.090454,-0.984192,0.9881774609881567
0 days 00:01:56.930000,0.370605,0.92041,0.069336,3.051758,-5.844116,-0.434875,0.994640696443193
0 days 00:01:56.940000,0.366455,0.921631,0.070068,3.295898,-6.263732,-0.099182,0.9942849148056104
0 days 00:01:56.950000,0.365234,0.921875,0.069824,3.242492,-6.431579,0.213623,0.9940446576271108
0 days 00:01:56.960000,0.36499,0.920654,0.069336,3.14331,-6.401062,0.198364,0.9927884813554194
0 days 00:01:56.970000,0.363281,0.921631,0.06958,3.295898,-6.118774,0.183105,0.9930851733471807
0 days 00:01:56.980000,0.363281,0.919678,0.067871,3.341675,-5.760192,0.061035,0.991154468933072
0 days 00:01:56.990000,0.361572,0.917969,0.069824,3.112793,-5.531311,0.083923,0.9890787567838064
0 days 00:01:57,0.362549,0.918213,0.06665,3.044128,-5.455017,-0.030518,0.9894438403820602
0 days 00:01:57.010000,0.36084,0.921631,0.070068,3.051758,-5.424499,-0.015259,0.992229172311014
0 days 00:01:57.020000,0.361816,0.92334,0.072021,3.059387,-5.622863,0.144958,0.9943111172550573
0 days 00:01:57.030000,0.363037,0.922852,0.072266,3.082275,-5.683898,0.228882,0.9943208999256729
0 days 00:01:57.040000,0.358643,0.925049,0.073242,3.14331,-5.950927,0.640869,0.9948391047873018
0 days 00:01:57.050000,0.355957,0.920898,0.071777,2.6474,-5.325317,0.762939,0.9899042630386031
0 days 00:01:57.060000,0.352051,0.914795,0.067871,2.563476,-5.104064,0.831604,0.9825458112815911
0 days 00:01:57.070000,0.351563,0.913086,0.068604,2.235413,-4.470825,0.701904,0.9808308188372753
0 days 00:01:57.080000,0.352295,0.909668,0.070068,1.861572,-3.89862,0.465393,0.9780169537758535
0 days 00:01:57.090000,0.351807,0.912598,0.07373,1.701355,-3.219604,0.419617,0.98083606568733
0 days 00:01:57.100000,0.355225,0.919189,0.076172,1.731872,-2.777099,0.473022,0.9883801859254364
0 days 00:01:57.110000,0.355469,0.921143,0.077148,1.922607,-2.39563,0.442505,0.9903607677578914
0 days 00:01:57.120000,0.354736,0.918701,0.074219,1.853943,-1.907349,0.442505,0.9876019527410828
0 days 00:01:57.130000,0.355713,0.917725,0.07251,1.594543,-1.51062,0.457764,0.9869187474630321
0 days 00:01:57.140000,0.359619,0.918945,0.074951,1.25885,-1.296997,0.442505,0.9896481145270778
0 days 00:01:57.150000,0.373535,0.921631,0.068604,3.135681,-5.516052,-0.686645,0.996814228029476
0 days 00:01:57.160000,0.352539,0.920898,0.076172,0.335693,2.388,-0.87738,0.9890091235721741
0 days 00:01:57.170000,0.352539,0.919189,0.077148,0.061035,3.051758,-0.62561,0.9874937863834892
0 days 00:01:57.180000,0.361328,0.91626,0.084717,-4.28009,-14.915465,1.76239,0.9885682987396469
0 days 00:01:57.190000,0.358643,0.916504,0.085205,-4.631042,-15.579223,1.953125,0.9878584288702507
0 days 00:01:57.200000,0.359619,0.922852,0.083008,-4.905701,-16.082764,1.937866,0.9939174850705667
0 days 00:01:57.210000,0.358643,0.924072,0.084229,-5.111694,-16.677856,2.090454,0.9948006770574697
0 days 00:01:57.220000,0.355957,0.922607,0.087646,-5.058288,-17.288208,2.288818,0.9927693002979091
0 days 00:01:57.230000,0.35083,0.92041,0.085449,-5.149841,-17.38739,2.075195,0.9887051069965199
0 days 00:01:57.240000,0.349365,0.921143,0.08252,-5.424499,-17.112732,1.922607,0.9886201899991724
0 days 00:01:57.250000,0.3479,0.920898,0.080078,-5.577087,-16.967773,1.770019,0.9876740466813938
0 days 00:01:57.260000,0.348145,0.921875,0.077393,-5.805969,-16.76178,1.609802,0.988457451334654
0 days 00:01:57.270000,0.348633,0.924561,0.076172,-6.141662,-16.616821,1.525879,0.991039951260291
0 days 00:01:57.280000,0.363037,0.915039,0.084961,-4.096985,-13.900756,1.625061,0.9880843113879504
0 days 00:01:57.290000,0.346436,0.92041,0.077881,-6.126403,-16.51001,1.289368,0.9865282156922831
0 days 00:01:57.300000,0.345459,0.923584,0.080566,-6.507873,-15.86151,0.923157,0.9893635358618186
0 days 00:01:57.310000,0.344238,0.922852,0.07959,-6.66809,-15.686034,0.63324,0.9881751781177263
0 days 00:01:57.320000,0.342041,0.923584,0.076904,-6.774902,-15.411376,0.518799,0.9878834323709452
0 days 00:01:57.330000,0.340088,0.924561,0.078613,-6.889343,-15.159606,0.320435,0.9882575040109738
0 days 00:01:57.340000,0.338379,0.924561,0.077881,-6.92749,-15.029906,0.205994,0.9876126976315158
0 days 00:01:57.350000,0.337402,0.924316,0.079346,-6.91986,-14.793395,0.114441,0.9871656219581393
0 days 00:01:57.360000,0.337158,0.926025,0.079834,-7.156372,-14.511107,0.068665,0.9887220464544118
0 days 00:01:57.370000,0.335693,0.928711,0.082275,-7.156372,-14.526366,0.137329,0.9909405064861361
0 days 00:01:57.380000,0.33667,0.93042,0.083984,-7.095336,-14.648437,0.320435,0.9930163027644612
0 days 00:01:57.390000,0.354004,0.92041,0.077393,0.190735,2.830505,-0.823975,0.9891729255115103
0 days 00:01:57.400000,0.343262,0.922852,0.079102,-6.332397,-16.159058,1.083374,0.9877964066304352
0 days 00:01:57.410000,0.364258,0.912598,0.083008,-3.761291,-12.672423,1.403808,0.986108172682896
0 days 00:01:57.420000,0.350098,0.924805,0.076904,-5.91278,-16.609192,1.556396,0.9918402708324562
0 days 00:01:57.430000,0.363525,0.9104,0.078613,-2.952575,-10.559081,1.060486,0.9834422145677904
0 days 00:01:57.440000,0.364014,0.911865,0.07959,-3.379822,-11.535644,1.152039,0.9850576320809864
0 days 00:01:57.450000,0.354736,0.918213,0.074463,-0.053406,2.975464,-0.350952,0.9871663899434583
0 days 00:01:57.460000,0.355713,0.91748,0.077637,-0.236511,2.616882,-0.167847,0.9870809452815913
0 days 00:01:57.470000,0.355957,0.91748,0.080078,-0.602722,2.304077,0.030518,0.9873638753433306
0 days 00:01:57.480000,0.355713,0.917725,0.079346,-0.854492,2.052307,0.274658,0.9874445309535114
0 days 00:01:57.490000,0.357666,0.918701,0.079102,-1.182556,1.571655,0.579834,0.9890367138589952
0 days 00:01:57.500000,0.359619,0.918213,0.081055,-1.396179,1.075745,0.953674,0.9894497721233756
0 days 00:01:57.510000,0.361816,0.919678,0.084961,-1.464844,0.63324,1.213074,0.9919358916084244
0 days 00:01:57.520000,0.361328,0.921387,0.083496,-1.571655,0.1297,1.419067,0.9932187620907087
0 days 00:01:57.530000,0.364258,0.92041,0.082031,-1.785278,-0.228882,1.419067,0.9932610651913222
0 days 00:01:57.540000,0.365967,0.921387,0.08374,-1.808166,-0.648498,1.289368,0.9949362976884499
0 days 00:01:57.550000,0.354004,0.918457,0.075439,-0.007629,3.089905,-0.442505,0.9872047080448917
0 days 00:01:57.560000,0.370117,0.92334,0.087891,-1.411438,-2.14386,0.915527,0.9986331544516235
0 days 00:01:57.570000,0.368408,0.922119,0.087158,-1.556396,-1.350403,1.075745,0.9968071135325028
0 days 00:01:57.580000,0.370117,0.917236,0.079834,-2.128601,-8.758545,0.656128,0.9923114132876837
0 days 00:01:57.590000,0.371094,0.919678,0.079346,-1.739502,-7.8125,0.572205,0.9948940487489107
0 days 00:01:57.600000,0.371826,0.923584,0.079834,-1.419067,-6.950378,0.228882,0.9988170237275694
0 days 00:01:57.610000,0.371338,0.922852,0.081787,-1.441955,-6.187438,-0.076294,0.9981166452459351
0 days 00:01:57.620000,0.366699,0.913818,0.080322,-2.410889,-9.620667,0.709534,0.9879185783297123
0 days 00:01:57.630000,0.374512,0.923096,0.080322,-1.342773,-4.798889,0.25177,0.9994083685080889
0 days 00:01:57.640000,0.373779,0.92041,0.081543,-1.365662,-4.043579,0.419617,0.9967520101760516
0 days 00:01:57.650000,0.370117,0.918945,0.086182,-1.38092,-3.089905,0.732422,0.9944213613142067
0 days 00:01:57.660000,0.372803,0.921387,0.082275,-1.25885,-5.615234,0.022888,0.9973491145045449
0 days 00:01:57.670000,0.353027,0.92749,0.050537,3.425598,4.714966,-2.059937,0.9936899673429335
0 days 00:01:57.680000,0.355469,0.925781,0.05127,2.26593,1.945495,-1.487732,0.9930041705964784
0 days 00:01:57.690000,0.35376,0.924561,0.053711,2.334595,2.159119,-1.724243,0.9913849160855737
0 days 00:01:57.700000,0.354248,0.924805,0.051758,2.456665,2.548218,-1.800537,0.9916828243410288
0 days 00:01:57.710000,0.352051,0.925781,0.05127,2.632141,2.838135,-1.899719,0.991785752802489
0 days 00:01:57.720000,0.352539,0.92627,0.053955,2.731323,3.189087,-2.037048,0.9925578076092093
0 days 00:01:57.730000,0.355469,0.928955,0.049316,2.288818,1.831055,-1.419067,0.995865286995184
0 days 00:01:57.740000,0.353027,0.927246,0.052979,2.937317,3.64685,-2.098083,0.9935894432239103
0 days 00:01:57.750000,0.352783,0.927246,0.054199,3.234863,4.241943,-2.166748,0.9935685790150572
0 days 00:01:57.760000,0.352539,0.92627,0.049805,3.562927,5.195617,-2.105713,0.9923408675681962
0 days 00:01:57.770000,0.360352,0.922607,0.050293,3.639221,5.554199,-2.479553,0.991759359019112
0 days 00:01:57.780000,0.355713,0.924805,0.049805,3.860473,6.088256,-2.14386,0.9921071335390146
0 days 00:01:57.790000,0.356201,0.924805,0.048584,3.807068,6.271362,-2.311707,0.9922216715442169
0 days 00:01:57.800000,0.355957,0.922363,0.045654,3.753662,6.210327,-2.464294,0.9897187364771873
0 days 00:01:57.810000,0.358887,0.923828,0.050781,3.64685,5.950927,-2.548218,0.9923894206983466
0 days 00:01:57.820000,0.359619,0.92627,0.050049,3.486633,5.172729,-2.494812,0.994890366051456
0 days 00:01:57.830000,0.359619,0.925049,0.050293,3.486633,4.745483,-2.456665,0.9937660003295544
0 days 00:01:57.840000,0.35791,0.926758,0.051514,3.570556,4.730225,-2.288818,0.9948033227025329
0 days 00:01:57.850000,0.357422,0.92627,0.049316,3.669739,4.653931,-2.098083,0.9940617017268093
0 days 00:01:57.860000,0.358398,0.926025,0.049072,3.746032,4.608154,-1.976013,0.9941727657771561
0 days 00:01:57.870000,0.355713,0.931396,0.053467,2.128601,1.770019,-1.419067,0.9984432719358671
0 days 00:01:57.880000,0.342529,0.925049,0.047607,0.411987,-1.907349,0.0,0.9875769310241101
0 days 00:01:57.890000,0.355469,0.929688,0.05249,1.945495,1.907349,-1.411438,0.9967111855522641
0 days 00:01:57.900000,0.358398,0.924316,0.050293,3.814697,4.455566,-1.808166,0.9926422216030305
0 days 00:01:57.910000,0.354248,0.930908,0.050049,1.724243,2.449036,-1.480102,0.9972894526510344
0 days 00:01:57.920000,0.342773,0.927246,0.050781,0.389099,-1.602173,-0.205994,0.9898773580631087
0 days 00:01:57.930000,0.346436,0.929688,0.052002,0.511169,-1.342773,-0.305176,0.9934998175359671
0 days 00:01:57.940000,0.346924,0.929199,0.051758,0.75531,-1.243591,-0.572205,0.9931998459227629
0 days 00:01:57.950000,0.346924,0.931152,0.051758,0.991821,-1.121521,-0.732422,0.9950272355287567
0 days 00:01:57.960000,0.344971,0.932373,0.050537,1.12915,-0.640869,-0.892639,0.9954287469924706
0 days 00:01:57.970000,0.343506,0.93042,0.049072,1.38855,0.007629,-1.091003,0.9930185343788908
0 days 00:01:57.980000,0.342773,0.929199,0.050781,1.647949,0.411987,-1.281738,0.9917070238185268
0 days 00:01:57.990000,0.343262,0.929443,0.050537,1.808166,0.793457,-1.373291,0.9920922735622932
0 days 00:01:58,0.342529,0.931152,0.052002,1.88446,1.449585,-1.38855,0.9935161654190634
0 days 00:01:58.010000,0.340332,0.930176,0.048584,2.159119,2.197266,-1.38855,0.9916721566404897
0 days 00:01:58.020000,0.353516,0.929443,0.050293,1.831055,2.090454,-1.480102,0.9956742631774711
0 days 00:01:58.030000,0.341064,0.928955,0.047852,2.311707,2.952575,-1.426697,0.9907430837633942
0 days 00:01:58.040000,0.3396,0.927734,0.047852,2.029419,4.249573,-1.51062,0.9890947116732552
0 days 00:01:58.050000,0.343506,0.928955,0.04834,2.182007,4.402161,-1.464844,0.991610064320144
0 days 00:01:58.060000,0.344482,0.927246,0.051025,2.220154,4.394531,-1.487732,0.9904829849447188
0 days 00:01:58.070000,0.345215,0.927002,0.049561,1.991272,4.371643,-1.487732,0.9904354582455134
0 days 00:01:58.080000,0.344971,0.928223,0.047852,2.01416,4.234314,-1.525879,0.9914094726569844
0 days 00:01:58.090000,0.349365,0.927002,0.046143,1.945495,4.226685,-1.609802,0.9917246531563083
0 days 00:01:58.100000,0.350342,0.925293,0.049805,1.731872,4.127502,-1.617432,0.9906498830757515
0 days 00:01:58.110000,0.351807,0.925049,0.04834,1.594543,3.90625,-1.663208,0.990868595349555
0 days 00:01:58.120000,0.353271,0.929932,0.050293,1.525879,3.417969,-1.586914,0.9960438293137506
0 days 00:01:58.130000,0.356689,0.929932,0.053223,1.609802,2.960205,-1.502991,0.9974132819819475
0 days 00:01:58.140000,0.3396,0.927246,0.046387,2.182007,3.631592,-1.548767,0.9885671743918064
0 days 00:01:58.150000,0.357178,0.922363,0.050537,3.707886,4.142761,-1.63269,0.9903956864920203
0 days 00:01:58.160000,0.355225,0.925781,0.050049,3.700256,5.683898,-2.120972,0.9928545527855528
0 days 00:01:58.170000,0.358154,0.922119,0.051758,3.707886,3.883362,-1.548767,0.9905839835374888
0 days 00:01:58.180000,0.364502,0.914795,0.051514,3.295898,4.745483,-0.556946,0.9860858442473455
0 days 00:01:58.190000,0.367188,0.914795,0.052246,3.044128,4.852295,-0.724792,0.9871203391101816
0 days 00:01:58.200000,0.370117,0.916992,0.054199,2.914428,4.577637,-0.892639,0.9903526913953433
0 days 00:01:58.210000,0.370117,0.91748,0.057617,2.937317,4.058838,-0.953674,0.9909974080581644
0 days 00:01:58.220000,0.374023,0.921631,0.059082,2.998352,3.639221,-0.930786,0.9963872677899893
0 days 00:01:58.230000,0.374756,0.922363,0.058838,3.059387,3.410339,-0.808716,0.9973251593883512
0 days 00:01:58.240000,0.371338,0.921631,0.057373,3.074646,3.173828,-0.732422,0.9952825084035185
0 days 00:01:58.250000,0.370117,0.919922,0.057373,3.280639,3.097534,-0.556946,0.993244552414963
0 days 00:01:58.260000,0.370605,0.920166,0.061279,3.227234,3.074646,-0.335693,0.9938856319627526
0 days 00:01:58.270000,0.373779,0.922119,0.063477,3.265381,2.815246,-0.419617,0.9970173120518019
0 days 00:01:58.280000,0.362549,0.916504,0.05249,3.593445,4.684448,-0.404358,0.9870038295351239
0 days 00:01:58.290000,0.374756,0.922852,0.062012,3.250122,2.426147,-0.335693,0.997969619569654
0 days 00:01:58.300000,0.377441,0.916748,0.062012,3.425598,2.044678,-0.587463,0.9933449008924342
0 days 00:01:58.310000,0.378662,0.916992,0.063965,3.425598,1.457214,-0.747681,0.9941583171371651
0 days 00:01:58.320000,0.382324,0.919434,0.068359,3.578186,0.595093,-0.816345,0.9980999319772544
0 days 00:01:58.330000,0.379883,0.920654,0.067139,3.799438,-0.083923,-0.961304,0.9982096607056055
0 days 00:01:58.340000,0.378174,0.922607,0.065674,3.890991,-0.816345,-0.930786,0.9992658930439886
0 days 00:01:58.350000,0.379883,0.92334,0.067383,3.936767,-1.373291,-1.197815,1.0007039112434808
0 days 00:01:58.360000,0.378418,0.919189,0.067139,3.761291,-1.899719,-1.319885,0.9963012826279007
0 days 00:01:58.370000,0.379395,0.917725,0.065186,3.723144,-2.952575,-1.068115,0.9951929241338084
0 days 00:01:58.380000,0.379883,0.916504,0.064941,3.471374,-3.555298,-1.159668,0.9942374008183358
0 days 00:01:58.390000,0.376465,0.916504,0.063965,3.280639,-4.264832,-0.984192,0.9928731034054654
0 days 00:01:58.400000,0.375244,0.917969,0.060791,3.387451,2.243042,-0.343323,0.9935646381479164
0 days 00:01:58.410000,0.363037,0.919189,0.055176,3.77655,4.608154,-0.358582,0.9898225457454484
0 days 00:01:58.420000,0.361816,0.922607,0.05249,3.677368,3.578186,-1.419067,0.9924060128823283
0 days 00:01:58.430000,0.361816,0.920898,0.054443,4.013062,4.455566,-0.62561,0.9909227944239652
0 days 00:01:58.440000,0.361328,0.926025,0.049805,3.677368,3.257751,-1.38092,0.9952691908393427
0 days 00:01:58.450000,0.360352,0.925537,0.051025,3.829956,3.15094,-1.38855,0.9945229272862441
0 days 00:01:58.460000,0.361816,0.926025,0.049072,3.868103,3.105163,-1.457214,0.9954100560397208
0 days 00:01:58.470000,0.361084,0.926758,0.047852,3.715515,3.135681,-1.525879,0.9957669704925947
0 days 00:01:58.480000,0.360352,0.924805,0.048584,3.845215,3.189087,-1.609802,0.9937194055592353
0 days 00:01:58.490000,0.359619,0.925049,0.048828,3.890991,3.250122,-1.686096,0.9936929360451346
0 days 00:01:58.500000,0.362793,0.918945,0.056152,3.936767,4.562378,-0.465393,0.989561378075155
0 days 00:01:58.510000,0.356689,0.924072,0.049316,3.982544,3.601074,-1.525879,0.9917500550849493
0 days 00:01:58.520000,0.354492,0.920654,0.048828,3.936767,4.135132,-1.472473,0.9877512537901433
0 days 00:01:58.530000,0.353027,0.920166,0.048584,3.822326,4.78363,-1.350403,0.9867593097311016
0 days 00:01:58.540000,0.354248,0.919189,0.047363,3.692627,5.477905,-1.152039,0.9862268080892955
0 days 00:01:58.550000,0.357666,0.923828,0.051025,3.974914,3.318786,-1.663208,0.9919610333904251
0 days 00:01:58.560000,0.359863,0.919678,0.050781,3.562927,5.821228,-1.167297,0.9888820518211462
0 days 00:01:58.570000,0.356445,0.919922,0.050537,3.662109,5.889892,-1.274109,0.987858042675161
0 days 00:01:58.580000,0.363525,0.926514,0.052734,3.913879,4.249573,-1.167297,0.9966742158684551
0 days 00:01:58.590000,0.363525,0.926514,0.054199,3.761291,4.081726,-1.312256,0.9967528025654103
0 days 00:01:58.600000,0.364258,0.927979,0.051758,3.669739,4.020691,-1.495361,0.998252375689134
0 days 00:01:58.610000,0.366943,0.927979,0.051025,3.555298,4.112244,-1.586914,0.9991975481930487
0 days 00:01:58.620000,0.361572,0.923096,0.055908,3.921509,4.432678,-0.953674,0.9929583278587275
0 days 00:01:58.630000,0.368164,0.922119,0.052002,3.311157,4.608154,-1.495361,0.9942597191181991
0 days 00:01:58.640000,0.366699,0.919189,0.051758,3.379822,4.981995,-1.327515,0.9909871164076757
0 days 00:01:58.650000,0.362793,0.919922,0.052002,3.440857,5.340576,-1.205444,0.9902421193511212
0 days 00:01:58.660000,0.361328,0.921387,0.052246,3.494262,5.622863,-1.037598,0.9910810117588773
0 days 00:01:58.670000,0.368408,0.924072,0.051758,3.379822,4.333496,-1.579285,0.9961487871859304
0 days 00:01:58.680000,0.353271,0.928223,0.051758,0.488281,-0.076294,-0.404358,0.9945236184897772
0 days 00:01:58.690000,0.349609,0.925049,0.053223,0.366211,0.076294,-0.579834,0.9903407459107194
0 days 00:01:58.700000,0.347412,0.925293,0.053223,0.411987,0.068665,-0.610352,0.9897953936657818
0 days 00:01:58.710000,0.353271,0.925781,0.056152,0.343323,-0.190735,-0.610352,0.9924837059146109
0 days 00:01:58.720000,0.354004,0.926758,0.058105,0.473022,-0.473022,-0.709534,0.9937682896958425
0 days 00:01:58.730000,0.350342,0.92627,0.056641,0.579834,-0.617981,-0.694275,0.9919293486660227
0 days 00:01:58.740000,0.349365,0.925781,0.054443,0.541687,-0.762939,-0.572205,0.9910047444058984
0 days 00:01:58.750000,0.351318,0.927979,0.055908,0.358582,-0.862122,-0.549316,0.9938284892419819
0 days 00:01:58.760000,0.352783,0.926758,0.054688,0.389099,-1.00708,-0.595093,0.9931399765375473
0 days 00:01:58.770000,0.351318,0.930176,0.055176,0.328064,-1.266479,-0.564575,0.9958394042595422
0 days 00:01:58.780000,0.352051,0.926514,0.050781,0.701904,-0.305176,-0.762939,0.9924448643415914
0 days 00:01:58.790000,0.348145,0.927246,0.054932,0.526428,-1.091003,-0.465393,0.9919715772969506
0 days 00:01:58.800000,0.346924,0.928955,0.053467,0.541687,-0.923157,-0.419617,0.9930621198545436
0 days 00:01:58.810000,0.34668,0.925537,0.053467,0.549316,-0.648498,-0.442505,0.989780016396573
0 days 00:01:58.820000,0.347168,0.92627,0.053467,0.617981,-0.389099,-0.465393,0.9906363879915778
0 days 00:01:58.830000,0.3479,0.925537,0.054932,0.564575,-0.221252,-0.595093,0.990288176740993
0 days 00:01:58.840000,0.350586,0.926758,0.054199,0.62561,-0.144958,-0.671387,0.9923348555608635
0 days 00:01:58.850000,0.351074,0.92627,0.054932,0.839233,-0.106812,-0.701904,0.9920920274853539
0 days 00:01:58.860000,0.350098,0.926758,0.052734,0.869751,-0.114441,-0.732422,0.9920836027896035
0 days 00:01:58.870000,0.352051,0.927246,0.052734,0.808716,-0.236511,-0.709534,0.9932300468033577
0 days 00:01:58.880000,0.352295,0.926514,0.048828,0.793457,-0.282288,-0.75531,0.992433439987287
0 days 00:01:58.890000,0.351318,0.932617,0.051025,0.350952,-0.091553,-0.305176,0.9978989710576919
0 days 00:01:58.900000,0.348633,0.927246,0.057373,0.396728,-1.235962,-0.526428,0.992281096430845
0 days 00:01:58.910000,0.349854,0.933594,0.049561,0.236511,0.015259,-0.541687,0.9982243589859947
0 days 00:01:58.920000,0.348633,0.927246,0.054688,0.167847,-0.343323,-0.022888,0.9921294726743078
0 days 00:01:58.930000,0.349854,0.929443,0.053467,0.045776,0.305176,-0.816345,0.9945455402614805
0 days 00:01:58.940000,0.353516,0.928467,0.05127,0.640869,-0.526428,-0.808716,0.9948131207643978
0 days 00:01:58.950000,0.347412,0.928223,0.05249,0.610352,-1.663208,-0.076294,0.9924959624970774
0 days 00:01:58.960000,0.3479,0.928467,0.053711,0.534058,-1.502991,0.091553,0.9929603474509947
0 days 00:01:58.970000,0.347168,0.928955,0.054199,0.610352,-1.441955,0.1297,0.9931870638756829
0 days 00:01:58.980000,0.346924,0.926025,0.054932,0.694275,-1.373291,0.0,0.9904019825429471
0 days 00:01:58.990000,0.3479,0.92627,0.056641,0.587463,-1.373291,0.007629,0.9910694858489995
0 days 00:01:59,0.345459,0.92627,0.055176,0.526428,-1.358032,0.022888,0.9901325287844047
0 days 00:01:59.010000,0.347412,0.927246,0.05127,0.419617,-1.350403,0.076294,0.9915184593137942
0 days 00:01:59.020000,0.344238,0.92749,0.050537,0.320435,-1.098633,0.190735,0.9906015794016281
0 days 00:01:59.030000,0.346436,0.927246,0.048828,0.389099,-0.808716,0.190735,0.9910535909808309
0 days 00:01:59.040000,0.346191,0.929688,0.048584,0.366211,-0.419617,0.205994,0.9932413558048214
0 days 00:01:59.050000,0.345215,0.92627,0.049316,0.190735,-0.167847,0.137329,0.9897381355596035
0 days 00:01:59.060000,0.348877,0.926514,0.048828,0.221252,-0.175476,-0.015259,0.9912252654714769
0 days 00:01:59.070000,0.351563,0.928955,0.053467,0.221252,-0.831604,-0.144958,0.9946922413907731
0 days 00:01:59.080000,0.351074,0.927734,0.051758,0.190735,-1.167297,-0.12207,0.9932885878716214
0 days 00:01:59.090000,0.35083,0.928223,0.050781,-0.091553,-1.251221,0.0,0.9936087442197759
0 days 00:01:59.100000,0.349121,0.929443,0.051758,-0.114441,-1.091003,-0.1297,0.9941974921784906
0 days 00:01:59.110000,0.347656,0.928955,0.051758,-0.061035,-0.823975,-0.106812,0.9932275554599761
0 days 00:01:59.120000,0.345947,0.928711,0.05127,-0.076294,-0.564575,-0.152588,0.9923769753626894
0 days 00:01:59.130000,0.345703,0.928467,0.050781,-0.022888,-0.228882,-0.350952,0.9920384288216864
0 days 00:01:59.140000,0.344727,0.927002,0.050781,0.038147,0.244141,-0.541687,0.9903272804956955
0 days 00:01:59.150000,0.347412,0.92627,0.05249,0.106812,0.350952,-0.732422,0.990669677916913
0 days 00:01:59.160000,0.350342,0.92749,0.054443,0.12207,0.335693,-0.946045,0.9929457474167459
0 days 00:01:59.170000,0.351318,0.932861,0.05127,0.190735,0.175476,-0.694275,0.9981395670671512
0 days 00:01:59.180000,0.354004,0.928711,0.051514,0.63324,-0.671387,-0.816345,0.9952269317763662
0 days 00:01:59.190000,0.354248,0.926025,0.05249,0.686645,-0.915527,-0.915527,0.9928590767218679
0 days 00:01:59.200000,0.355713,0.925781,0.052246,0.724792,-1.235962,-0.991821,0.9931424081399404
0 days 00:01:59.210000,0.347412,0.930908,0.054932,-0.160217,-4.53949,0.106812,0.9951393504590198
0 days 00:01:59.220000,0.345459,0.93042,0.049805,-0.244141,-4.394531,0.25177,0.9937322753669623
0 days 00:01:59.230000,0.343994,0.93042,0.045166,-0.152588,-4.142761,0.274658,0.9930021228537229
0 days 00:01:59.240000,0.343994,0.929443,0.045898,-0.137329,-3.639221,0.068665,0.9921203499016639
0 days 00:01:59.250000,0.341797,0.927979,0.048096,-0.221252,-3.044128,0.045776,0.9900926415573443
0 days 00:01:59.260000,0.342529,0.929688,0.047119,-0.144958,-2.449036,-0.068665,0.991900243646507
0 days 00:01:59.270000,0.341309,0.930664,0.047119,-0.167847,-2.113342,-0.007629,0.9923948380246645
0 days 00:01:59.280000,0.341797,0.928955,0.049561,-0.297546,-1.899719,0.083923,0.9910796506613381
0 days 00:01:59.290000,0.343506,0.928711,0.050049,-0.221252,-1.861572,0.1297,0.9914662858403204
0 days 00:01:59.300000,0.344482,0.928955,0.050537,-0.137329,-1.976013,0.297546,0.9920580772908408
0 days 00:01:59.310000,0.348389,0.928467,0.055908,-0.099182,-4.402161,0.091553,0.9932530240950692
0 days 00:01:59.320000,0.344971,0.926758,0.050537,-0.282288,-1.815796,0.305176,0.9901713840411669
0 days 00:01:59.330000,0.342773,0.927246,0.048096,-0.259399,-1.274109,-0.053406,0.9897432491616197
0 days 00:01:59.340000,0.343994,0.928467,0.047607,-0.205994,-0.976562,-0.137329,0.9912866732555221
0 days 00:01:59.350000,0.346436,0.92627,0.047607,-0.137329,-0.869751,-0.305176,0.9900810277169239
0 days 00:01:59.360000,0.347656,0.926514,0.047607,-0.022888,-0.854492,-0.656128,0.9907367526144368
0 days 00:01:59.370000,0.350098,0.928955,0.050537,0.12207,-1.075745,-0.75531,0.9940221275193022
0 days 00:01:59.380000,0.350098,0.931641,0.050293,0.053406,-1.373291,-0.862122,0.9965204204300081
0 days 00:01:59.390000,0.348633,0.933838,0.05249,0.12207,-1.731872,-0.602722,0.9981751244310789
0 days 00:01:59.400000,0.34668,0.935547,0.053223,0.328064,-1.998901,-0.396728,0.9991335743222726
0 days 00:01:59.410000,0.347656,0.937256,0.046387,0.343323,-2.311707,-0.183105,1.0007323606444432
0 days 00:01:59.420000,0.345215,0.933105,0.044189,0.297546,-2.456665,0.137329,0.9958970855319338
0 days 00:01:59.430000,0.345947,0.925293,0.047852,-0.343323,-1.518249,0.114441,0.989007723206447
0 days 00:01:59.440000,0.349365,0.929932,0.052002,-0.160217,-4.142761,0.091553,0.9947530526985077
0 days 00:01:59.450000,0.34375,0.932373,0.044434,0.38147,-2.27356,0.236511,0.9947149611748081
0 days 00:01:59.460000,0.351807,0.929688,0.05127,-0.350952,-3.555298,-0.320435,0.9953474546574176
0 days 00:01:59.470000,0.35498,0.927734,0.051514,0.656128,-1.708984,-0.930786,0.9946631929211013
0 days 00:01:59.480000,0.353271,0.928711,0.05127,0.663757,-2.120972,-0.785828,0.9949538350406012
0 days 00:01:59.490000,0.351807,0.92749,0.051758,0.679016,-2.502441,-0.816345,0.9933200672054301
0 days 00:01:59.500000,0.35376,0.928955,0.053711,0.572205,-2.784729,-0.770569,0.9954840034606283
0 days 00:01:59.510000,0.351074,0.930664,0.051758,0.610352,-2.914428,-0.732422,0.9960257651968648
0 days 00:01:59.520000,0.346436,0.929199,0.05127,0.602722,-3.005981,-0.63324,0.9930041775325017
0 days 00:01:59.530000,0.350342,0.933105,0.05249,-0.267029,-3.814697,-0.1297,0.998088001174746
0 days 00:01:59.540000,0.348389,0.929688,0.051025,0.556946,-2.746582,-0.556946,0.994131894312822
0 days 00:01:59.550000,0.346191,0.931641,0.050537,0.62561,-2.502441,-0.434875,0.9951668954155378
0 days 00:01:59.560000,0.345215,0.929932,0.048828,0.595093,-2.418518,-0.320435,0.9931420313494943
0 days 00:01:59.570000,0.345459,0.929688,0.046143,0.511169,-2.082825,-0.244141,0.9928700189219131
0 days 00:01:59.580000,0.3479,0.92627,0.050293,0.587463,-2.883911,-0.663757,0.990726959736637
0 days 00:01:59.590000,0.343506,0.92627,0.048828,0.236511,-1.655578,-0.205994,0.9891191326225574
0 days 00:01:59.600000,0.347168,0.92749,0.048828,0.221252,-1.525879,-0.267029,0.9915379437560622
0 days 00:01:59.610000,0.349365,0.92749,0.048584,0.205994,-1.464844,-0.160217,0.9922973386949095
0 days 00:01:59.620000,0.349609,0.927002,0.04834,0.106812,-1.564026,-0.106812,0.991915276868443
0 days 00:01:59.630000,0.350342,0.926758,0.049072,-0.099182,-1.64032,-0.282288,0.9919818389023056
0 days 00:01:59.640000,0.352783,0.929199,0.049805,-0.030518,-1.937866,-0.411987,0.9951618786483936
0 days 00:01:59.650000,0.353516,0.929199,0.051025,0.007629,-2.090454,-0.50354,0.9954837489793593
0 days 00:01:59.660000,0.351318,0.927979,0.050293,-0.068665,-2.471924,-0.473022,0.9935284331180462
0 days 00:01:59.670000,0.353271,0.929932,0.049561,-0.228882,-2.960205,-0.38147,0.9960071369151929
0 days 00:01:59.680000,0.353027,0.929688,0.051025,-0.320435,-3.326416,-0.366211,0.9957667350830715
0 days 00:01:59.690000,0.344238,0.92749,0.047852,0.38147,-1.838684,-0.190735,0.9904682300043753
0 days 00:01:59.700000,0.353271,0.929443,0.058594,1.564026,-4.730225,-0.518799,0.9960411369647341
0 days 00:01:59.710000,0.355957,0.927979,0.0625,1.495361,-4.707336,-0.50354,0.995869800872584
0 days 00:01:59.720000,0.355713,0.923096,0.063232,1.419067,-4.402161,-0.511169,0.9912801064325866
0 days 00:01:59.730000,0.358643,0.923584,0.060547,1.449585,-3.852844,-0.556946,0.9926218543403122
0 days 00:01:59.740000,0.360596,0.926758,0.057861,0.976562,-0.50354,-1.014709,0.9961213586210266
0 days 00:01:59.750000,0.361328,0.931396,0.060059,1.235962,-2.380371,-0.617981,1.0008314123172792
0 days 00:01:59.760000,0.360107,0.928955,0.057861,1.106262,-1.88446,-0.694275,0.9979891476338808
0 days 00:01:59.770000,0.361084,0.928223,0.058105,1.052856,-1.342773,-0.854492,0.9976751895331467
0 days 00:01:59.780000,0.359863,0.927246,0.059326,1.373291,-3.074646,-0.63324,0.9963965563775299
0 days 00:01:59.790000,0.350342,0.928467,0.055908,1.541138,-4.570007,-0.465393,0.993939732336423
0 days 00:01:59.800000,0.352051,0.924561,0.054199,1.182556,-1.014709,-0.740051,0.9908029475748443
0 days 00:01:59.810000,0.345703,0.925781,0.052979,1.487732,-3.349304,-0.587463,0.9896402369603814
0 days 00:01:59.820000,0.345947,0.925537,0.053223,1.571655,-2.853393,-0.610352,0.9895103601817418
0 days 00:01:59.830000,0.345947,0.924805,0.055176,1.495361,-2.487183,-0.587463,0.9889327610156314
0 days 00:01:59.840000,0.345947,0.922607,0.053223,1.449585,-2.243042,-0.534058,0.9867703334550548
0 days 00:01:59.850000,0.345215,0.924561,0.050293,1.281738,-2.105713,-0.450134,0.9881881525271389
0 days 00:01:59.860000,0.345947,0.924316,0.052734,1.213074,-1.838684,-0.495911,0.9883421823543707
0 days 00:01:59.870000,0.344727,0.924561,0.051758,1.152039,-1.411438,-0.411987,0.9880934357711318
0 days 00:01:59.880000,0.344971,0.925049,0.052734,1.182556,-0.946045,-0.465393,0.9886867643485473
0 days 00:01:59.890000,0.348877,0.925293,0.052979,1.182556,-0.640869,-0.610352,0.9902974661277287
0 days 00:01:59.900000,0.350586,0.926025,0.053223,1.159668,-0.762939,-0.709534,0.9915974645742092
0 days 00:01:59.910000,0.361084,0.927734,0.056396,0.839233,0.343323,-1.121521,0.9971221282410695
0 days 00:01:59.920000,0.346924,0.926025,0.054199,1.64032,-3.929138,-0.541687,0.9903615976005935
0 days 00:01:59.930000,0.36084,0.926025,0.057617,0.762939,1.052856,-1.159668,0.9955136990087078
0 days 00:01:59.940000,0.34375,0.929443,0.070068,-1.426697,3.456115,-1.907349,0.9934474708674838
0 days 00:01:59.950000,0.351807,0.926025,0.053955,0.709534,2.113342,-1.091003,0.9920693563955093
0 days 00:01:59.960000,0.356934,0.928223,0.056885,1.159668,-1.480102,-0.953674,0.996110295755445
0 days 00:01:59.970000,0.371826,0.970459,0.239014,-7.568359,21.934507,-3.967285,1.06638310993423
0 days 00:01:59.980000,0.375244,0.960205,0.216797,-5.989074,20.622252,-3.417969,1.0534717085759826
0 days 00:01:59.990000,0.375,0.948486,0.186279,-5.119323,19.996643,-3.097534,1.0367982243604588
0 days 00:02:00,0.371094,0.937256,0.160156,-4.776001,20.088194,-3.14331,1.0206907027635748
0 days 00:02:00.010000,0.374023,0.933105,0.145264,-4.554749,19.325256,-3.295898,1.0157163852424553
0 days 00:02:00.020000,0.380859,0.936279,0.134277,-3.89862,17.51709,-3.555298,1.0196579114835524
0 days 00:02:00.030000,0.374268,0.938477,0.12793,-3.166198,15.2359,-3.616333,1.0184211801867633
0 days 00:02:00.040000,0.372314,0.939697,0.121338,-2.662658,12.763976,-3.257751,1.0180231218636442
0 days 00:02:00.050000,0.384033,0.940186,0.120117,-2.204895,9.391785,-2.914428,1.0226725543271413
0 days 00:02:00.060000,0.358154,0.92627,0.055176,0.701904,1.724243,-1.029968,0.9946329934161645
0 days 00:02:00.070000,0.38623,0.939697,0.111572,-1.701355,6.17218,-2.89917,1.0220823723619343
0 days 00:02:00.080000,0.355469,0.935059,0.07959,-1.052856,3.486633,-2.365112,1.0035079030789942
0 days 00:02:00.090000,0.344482,0.924561,0.080566,-1.472473,3.173828,-1.228333,0.9899352359629391
0 days 00:02:00.100000,0.354004,0.927246,0.083496,-1.197815,2.311707,-0.62561,0.9960298984207252
0 days 00:02:00.110000,0.365479,0.930908,0.079834,-0.915527,0.75531,-0.228882,1.0032637098295742
0 days 00:02:00.120000,0.377686,0.934082,0.079346,-0.679016,-1.564026,0.068665,1.010668929489771
0 days 00:02:00.130000,0.380371,0.936523,0.071777,-0.221252,-3.837585,-0.457764,1.013365365946064
0 days 00:02:00.140000,0.35498,0.933594,0.057617,0.648498,-3.982544,-1.098633,1.0004640303004402
0 days 00:02:00.150000,0.318848,0.92334,0.048096,0.976562,-2.029419,-0.846863,0.9780255763117854
0 days 00:02:00.160000,0.322754,0.924316,0.048584,0.762939,0.411987,-0.839233,0.9802502830542821
0 days 00:02:00.170000,0.3396,0.924316,0.051758,0.717163,1.815796,-0.938415,0.986086770228665
0 days 00:02:00.180000,0.368896,0.940186,0.097412,-1.174927,3.913879,-2.76947,1.0146541633265986
0 days 00:02:00.190000,0.35498,0.928955,0.059326,1.098633,-2.105713,-0.991821,0.996236802522874
0 days 00:02:00.200000,0.358154,0.930664,0.057129,1.25885,-2.990722,-1.13678,0.99883606825795
0 days 00:02:00.210000,0.358398,0.929443,0.057617,1.205444,-2.655029,-1.045227,0.9978141787637617
0 days 00:02:00.220000,0.347168,0.924316,0.057129,-0.106812,-0.915527,0.167847,0.989014363253133
0 days 00:02:00.230000,0.3479,0.928467,0.057373,-0.061035,-0.75531,0.236511,0.9931651631113528
0 days 00:02:00.240000,0.345459,0.929932,0.057129,0.076294,-0.495911,0.259399,0.993669546653212
0 days 00:02:00.250000,0.345459,0.925049,0.053955,0.022888,-0.106812,0.1297,0.9889230076740049
0 days 00:02:00.260000,0.344971,0.925781,0.05249,0.030518,0.38147,0.038147,0.9893587068914893
0 days 00:02:00.270000,0.345703,0.925781,0.054688,0.167847,0.930786,-0.030518,0.9897331971364808
0 days 00:02:00.280000,0.345703,0.927979,0.056641,0.282288,1.304626,-0.137329,0.991899083340135
0 days 00:02:00.290000,0.348877,0.927246,0.055908,0.228882,1.525879,-0.144958,0.9922832307909875
0 days 00:02:00.300000,0.348877,0.928955,0.054688,0.37384,1.754761,-0.1297,0.9938125228120241
0 days 00:02:00.310000,0.352539,0.929199,0.056152,0.488281,2.02179,-0.190735,0.9954132685603503
0 days 00:02:00.320000,0.348633,0.926514,0.054932,-0.045776,-1.197815,0.144958,0.9914588672804333
0 days 00:02:00.330000,0.350098,0.928223,0.057617,0.495911,1.922607,-0.144958,0.9937234353792811
0 days 00:02:00.340000,0.353271,0.928467,0.055176,0.534058,1.38092,-0.12207,0.9949350534110254
0 days 00:02:00.350000,0.351807,0.929443,0.053711,0.549316,1.220703,-0.259399,0.9952473697624125
0 days 00:02:00.360000,0.352051,0.931152,0.05542,0.595093,1.052856,-0.190735,0.9970232344860374
0 days 00:02:00.370000,0.35376,0.927734,0.056396,0.640869,0.816345,-0.335693,0.99449334898329
0 days 00:02:00.380000,0.352783,0.927246,0.056641,0.602722,0.442505,-0.38147,0.9937047813541002
0 days 00:02:00.390000,0.35376,0.927979,0.058838,0.511169,0.015259,-0.38147,0.9948633435226167
0 days 00:02:00.400000,0.352783,0.927979,0.056885,0.465393,-0.518799,-0.457764,0.9944027216148396
0 days 00:02:00.410000,0.351807,0.929443,0.055664,0.434875,-0.984192,-0.366211,0.9953546786919726
0 days 00:02:00.420000,0.352295,0.930908,0.055908,0.411987,-1.419067,-0.198364,0.9969088102494631
0 days 00:02:00.430000,0.348877,0.930908,0.055176,0.518799,-1.716614,-0.12207,0.9956652331828203
0 days 00:02:00.440000,0.349121,0.92749,0.055908,0.50354,1.701355,-0.091553,0.9925970366694634
0 days 00:02:00.450000,0.347412,0.927734,0.054199,0.068665,-1.304626,0.221252,0.9921305378331018
0 days 00:02:00.460000,0.350586,0.92749,0.054688,0.450134,1.815796,-0.183105,0.9930453266795026
0 days 00:02:00.470000,0.35083,0.927734,0.055908,0.175476,-1.502991,0.198364,0.9934272837606182
0 days 00:02:00.480000,0.347656,0.927734,0.056885,0.114441,-1.449585,0.221252,0.9923663498512029
0 days 00:02:00.490000,0.352051,0.933105,0.050537,1.770019,-3.738403,-0.785828,0.9985884217208809
0 days 00:02:00.500000,0.3479,0.928955,0.05249,1.770019,-3.486633,-0.770569,0.9933513991156402
0 days 00:02:00.510000,0.343506,0.926025,0.054932,1.76239,-3.036499,-0.732422,0.989209885355479
0 days 00:02:00.520000,0.342529,0.924072,0.055176,1.754761,-2.609253,-0.640869,0.987056010569309
0 days 00:02:00.530000,0.344238,0.925781,0.05542,1.686096,-2.26593,-0.480652,0.9892631788381694
0 days 00:02:00.540000,0.344971,0.925537,0.055908,1.693725,-1.953125,-0.450134,0.9893176606500058
0 days 00:02:00.550000,0.344727,0.928955,0.055908,1.770019,-1.670837,-0.259399,0.9924312575780753
0 days 00:02:00.560000,0.34375,0.927246,0.053467,1.571655,-1.419067,-0.152588,0.9903574744025513
0 days 00:02:00.570000,0.343994,0.92749,0.050781,1.365662,-1.014709,-0.12207,0.9905292939115936
0 days 00:02:00.580000,0.343506,0.925781,0.052002,1.235962,-0.778198,-0.083923,0.9888230579840864
0 days 00:02:00.590000,0.354492,0.933838,0.053467,1.586914,-3.540039,-0.999451,1.0002883126364117
0 days 00:02:00.600000,0.347168,0.924072,0.053711,0.953674,-0.480652,-0.007629,0.9885947364461335
0 days 00:02:00.610000,0.347412,0.926025,0.053955,1.068115,-0.671387,-0.061035,0.9905193286322079
0 days 00:02:00.620000,0.350586,0.924805,0.053711,0.152588,-1.159668,0.1297,0.9904845798607872
0 days 00:02:00.630000,0.351563,0.926514,0.055908,0.350952,-0.976562,0.213623,0.992547449560473
0 days 00:02:00.640000,0.351563,0.926514,0.05542,0.305176,-0.869751,0.205994,0.9925200811897963
0 days 00:02:00.650000,0.351807,0.928711,0.05249,0.427246,-0.717163,0.213623,0.9944986107933986
0 days 00:02:00.660000,0.35083,0.92627,0.053711,0.091553,-1.365662,0.167847,0.991938845555007
0 days 00:02:00.670000,0.348389,0.927002,0.053223,0.50354,-0.587463,0.12207,0.9917359986679922
0 days 00:02:00.680000,0.348389,0.927246,0.053955,0.579834,-0.37384,0.022888,0.9920036198835164
0 days 00:02:00.690000,0.347412,0.927002,0.052979,0.694275,-0.411987,0.038147,0.9913801390934761
0 days 00:02:00.700000,0.349854,0.926758,0.053711,0.480652,-0.602722,0.198364,0.9920499399732857
0 days 00:02:00.710000,0.154541,0.063477,0.828857,-14.900207,39.161682,12.046813,0.8455271590309799
0 days 00:02:00.720000,0.140137,0.069336,0.869629,1.708984,3.692627,-1.38092,0.8835725535042382
0 days 00:02:00.730000,0.121094,0.082275,0.849121,1.373291,7.194519,-0.656128,0.8616492355372922
0 days 00:02:00.740000,0.094727,0.094727,0.827881,2.197266,14.175414,0.38147,0.8386497237935514
0 days 00:02:00.750000,0.088379,0.089355,0.831543,1.991272,23.483274,1.808166,0.8409868753524041
0 days 00:02:00.760000,0.100586,0.076904,0.840332,0.091553,32.516479,3.120422,0.8498174149992455
0 days 00:02:00.770000,0.112305,0.073975,0.839111,-2.494812,38.55896,4.844666,0.8498187947856884
0 days 00:02:00.780000,0.145996,0.070557,0.881104,3.700256,2.349854,-1.571655,0.8959003187191084
0 days 00:02:00.790000,0.127197,0.073975,0.843262,-6.156921,40.985104,7.720947,0.8560036086828139
0 days 00:02:00.800000,0.148682,0.065918,0.842041,-10.307311,40.672298,10.261535,0.857603967766591
0 days 00:02:00.810000,0.11792,0.073242,0.803467,-18.913269,39.703369,14.587401,0.8153703067030342
0 days 00:02:00.820000,0.148682,0.118164,0.59082,-33.866882,55.221554,25.573729,0.6205943444956616
0 days 00:02:00.830000,0.050293,0.105957,0.71582,-20.523069,51.132198,22.842405,0.7253651108910601
0 days 00:02:00.840000,0.093994,0.098145,0.656982,-22.430418,56.961056,23.803709,0.6708894554134831
0 days 00:02:00.850000,0.145508,0.100586,0.619873,-27.732847,58.868404,23.353575,0.6446182262308443
0 days 00:02:00.860000,0.148682,0.141357,0.55542,-40.634151,46.272274,29.098509,0.5920975552837556
0 days 00:02:00.870000,0.160645,0.180176,0.499756,-47.58453,33.706665,30.929564,0.5550011410231513
0 days 00:02:00.880000,0.141602,0.215088,0.417969,-53.817745,22.491453,31.433104,0.4909297904069379
0 days 00:02:00.890000,0.0896,0.223145,0.322021,-59.501644,17.280579,31.654356,0.401894731821655
0 days 00:02:00.900000,0.053223,0.21167,0.241699,-65.711975,17.700195,30.4718,0.3256613014007037
0 days 00:02:00.910000,0.068848,0.208008,0.194092,-74.363708,20.095823,27.648924,0.2927098898773323
0 days 00:02:00.920000,0.138916,0.076416,0.883057,6.187438,0.366211,-1.00708,0.897177086957196
0 days 00:02:00.930000,0.068604,0.093018,0.768555,-20.683287,44.18182,18.89801,0.7771973013109348
0 days 00:02:00.940000,0.130127,0.08374,0.876953,8.255005,-2.418518,-0.205994,0.8905009758209139
0 days 00:02:00.950000,0.045166,0.321045,0.168213,-98.777763,30.410765,27.618406,0.3652471395507431
0 days 00:02:00.960000,0.108643,0.104492,0.853271,10.437011,-11.245727,0.900268,0.8664832825588731
0 days 00:02:00.970000,0.086914,0.243652,0.186279,-83.412163,22.521971,25.665281,0.3187792438992853
0 days 00:02:00.980000,0.143066,0.049072,0.762695,29.83856,10.749816,2.792358,0.7775471719227073
0 days 00:02:00.990000,0.150146,0.050293,0.77002,29.846189,9.32312,2.532959,0.7861323091980128
0 days 00:02:01,0.157715,0.056152,0.768311,29.411314,6.568908,2.677917,0.7863388970730114
0 days 00:02:01.010000,0.14624,0.075195,0.765137,29.434202,3.097534,3.196716,0.7826078547995796
0 days 00:02:01.020000,0.130127,0.092285,0.759766,29.266356,-1.068115,5.348205,0.7763336474158518
0 days 00:02:01.030000,0.133057,0.095459,0.755371,28.137205,-5.973815,8.468628,0.7729178051843547
0 days 00:02:01.040000,0.154297,0.086182,0.756836,25.253294,-10.864257,10.490417,0.7771972929887236
0 days 00:02:01.050000,0.172363,0.091064,0.768799,22.506712,-14.007567,11.299132,0.7931289669820414
0 days 00:02:01.060000,0.171631,0.102051,0.783936,21.423338,-13.908385,11.039733,0.8089667847680768
0 days 00:02:01.070000,0.17627,0.118652,0.792236,20.606993,-11.550902,9.475708,0.8202361182610773
0 days 00:02:01.080000,0.183105,0.126709,0.808594,19.309998,-10.047912,7.484436,0.8386935486469418
0 days 00:02:01.090000,0.176758,0.122559,0.828613,18.074036,-11.062621,6.805419,0.8560745311092954
0 days 00:02:01.100000,0.162354,0.101807,0.826172,16.967773,-14.175414,7.415771,0.8481059250759896
0 days 00:02:01.110000,0.163086,0.089355,0.807373,15.190124,-17.784119,7.5531,0.8285122331927273
0 days 00:02:01.120000,0.161133,0.090088,0.802002,13.565063,-20.751951,7.095336,0.8229744221037493
0 days 00:02:01.130000,0.150146,0.09375,0.810547,12.512206,-22.880552,6.378173,0.8296501208491445
0 days 00:02:01.140000,0.137451,0.108154,0.818604,12.092589,-24.200438,5.271911,0.8370797894663328
0 days 00:02:01.150000,0.123535,0.109375,0.824219,11.970519,-24.841307,4.501343,0.840571678568223
0 days 00:02:01.160000,0.127686,0.099121,0.818604,11.070251,-26.44348,3.707886,0.8344106878827716
0 days 00:02:01.170000,0.124268,0.089844,0.822266,9.69696,-27.412413,4.089355,0.8364423799138827
0 days 00:02:01.180000,0.116211,0.08374,0.825928,8.842468,-25.039671,4.470825,0.8382567895967202
0 days 00:02:01.190000,0.110596,0.098389,0.839111,9.658813,-18.844604,2.983093,0.8520675682467912
0 days 00:02:01.200000,0.115967,0.093994,0.867676,9.719849,-5.737304,0.205994,0.8804231131115312
0 days 00:02:01.210000,0.127441,0.050781,0.76001,28.991697,11.093139,3.463745,0.7722921199533244
0 days 00:02:01.220000,0.513916,1.098877,0.36792,-198.448166,20.256041,79.521179,1.267677183901722
0 days 00:02:01.230000,0.053467,0.362305,0.158447,-105.514519,36.712646,28.282164,0.39903519258706993
0 days 00:02:01.240000,0.621582,1.203369,0.921387,-129.776001,43.41888,11.741637,1.6381132856594502
0 days 00:02:01.250000,0.61499,1.180908,0.908447,-123.054497,39.451599,10.154723,1.6118412937919788
0 days 00:02:01.260000,0.617432,1.164795,0.888184,-116.401665,34.912109,8.377075,1.589603876601023
0 days 00:02:01.270000,0.602295,1.165039,0.882324,-109.161369,31.311033,6.866455,1.5806868062718813
0 days 00:02:01.280000,0.562012,1.166748,0.866455,-101.234428,29.70886,6.17218,1.5581728564806279
0 days 00:02:01.290000,0.533691,1.168945,0.838867,-93.414299,28.945921,6.17218,1.5345867001231959
0 days 00:02:01.300000,0.534912,1.162354,0.81665,-85.792534,29.006956,5.493164,1.517931122139605
0 days 00:02:01.310000,0.507568,1.128418,0.762939,-78.399658,32.249451,3.082275,1.453625940560019
0 days 00:02:01.320000,0.062988,0.286377,0.181152,-91.590874,25.588987,26.260374,0.3446669716944169
0 days 00:02:01.330000,0.447998,1.057861,0.647461,-66.596985,47.889706,-0.221252,1.3187030938941486
0 days 00:02:01.340000,0.643066,1.223877,0.935059,-136.520386,45.997616,11.932372,1.6690548597832247
0 days 00:02:01.350000,0.465332,1.040771,0.639648,-60.607906,51.506039,-3.684997,1.3072443186218097
0 days 00:02:01.360000,0.492676,1.029785,0.583984,-48.133846,47.142025,-6.210327,1.2822730206383506
0 days 00:02:01.370000,0.509277,1.023926,0.537598,-43.281551,37.834167,-4.776001,1.2636451740140504
0 days 00:02:01.380000,0.514893,1.029297,0.491699,-39.382935,26.44348,-3.707886,1.251533068783642
0 days 00:02:01.390000,0.485107,1.028809,0.434814,-33.798218,17.860413,-4.402161,1.217719168990125
0 days 00:02:01.400000,0.414795,0.995361,0.368408,-28.602598,16.227722,-4.653931,1.139527475232607
0 days 00:02:01.410000,0.371826,0.962158,0.323486,-24.963377,20.149229,-4.882813,1.0810392145690184
0 days 00:02:01.420000,0.371094,0.956299,0.304688,-21.232603,23.925779,-5.844116,1.0700716385275333
0 days 00:02:01.430000,0.37085,0.965088,0.292236,-17.211914,25.390623,-6.332397,1.0743958534637037
0 days 00:02:01.440000,0.365234,0.975098,0.273926,-13.09204,25.169371,-5.874633,1.0766835365305816
0 days 00:02:01.450000,0.363281,0.980469,0.254395,-9.689331,24.063108,-4.989624,1.076108433638079
0 days 00:02:01.460000,0.476807,1.029297,0.616455,-54.328915,51.589962,-6.027221,1.2910515080673581
0 days 00:02:01.470000,0.704346,1.231445,0.963867,-143.806458,50.300594,12.031554,1.715109229591515
0 days 00:02:01.480000,0.453125,1.083252,0.682861,-72.036743,40.054321,1.724243,1.3583284972531497
0 days 00:02:01.490000,0.700928,1.271484,0.989502,-155.799866,74.798584,16.494751,1.757010481313074
0 days 00:02:01.500000,0.734131,1.242188,0.986084,-150.009155,60.653683,14.205932,1.7476673045980462
0 days 00:02:01.510000,0.047852,0.452393,0.121338,-120.300285,51.094051,32.409668,0.47082072022904853
0 days 00:02:01.520000,0.063965,0.507813,0.100586,-128.395081,58.853146,36.514282,0.5216158620958531
0 days 00:02:01.530000,0.098145,0.57373,0.091553,-136.543274,64.659119,41.183468,0.5892202523114765
0 days 00:02:01.540000,0.12915,0.647461,0.102539,-144.187927,67.207336,47.653194,0.6681315106638812
0 days 00:02:01.550000,0.170654,0.711182,0.136963,-152.496338,65.513611,55.725094,0.7440843286946716
0 days 00:02:01.560000,0.2146,0.752686,0.160156,-162.841782,59.326168,64.002991,0.7988988164542491
0 days 00:02:01.570000,0.255859,0.804932,0.175049,-173.683151,50.201412,71.632385,0.8625668118505372
0 days 00:02:01.580000,0.305664,0.880371,0.196777,-182.830795,40.145874,78.62854,0.9524729740344343
0 days 00:02:01.590000,0.366211,0.959717,0.237305,-189.933762,31.555174,83.045952,1.0542679354106337
0 days 00:02:01.600000,0.446045,1.036133,0.298096,-194.931015,24.955748,83.106987,1.1667857390840874
0 days 00:02:01.610000,0.053711,0.404297,0.149414,-112.800591,43.716427,29.33502,0.43435639643730356
