ax,ay,az,gx,gy,gz,acc_mag
-0.44043,-0.910645,0.004883,-1.716614,-2.13623,0.099182,1.011571423387395
-0.441162,-0.908936,0.001709,-1.716614,-1.976013,0.297546,1.0103422603360703
-0.439453,-0.911133,0.000488,-1.625061,-1.777649,0.556946,1.0115742785589203
-0.440918,-0.912354,0.002686,-1.525879,-1.716614,0.63324,1.013314225024005
-0.44043,-0.910156,0.000488,-1.426697,-1.88446,0.717163,1.0111195613674973
-0.441406,-0.909668,0.000977,-1.327515,-1.991272,0.862122,1.0111063651213952
-0.442627,-0.911133,0.001953,-1.274109,-2.02179,0.976562,1.012958942419188
-0.442383,-0.910156,0.001953,-1.144409,-2.082825,1.091003,1.011973555600145
-0.442871,-0.909668,0.002197,-1.091003,-1.800537,1.159668,1.011748693932441
-0.442871,-0.910645,0.00293,-1.083374,-1.480102,1.167297,1.0126290651398466
-0.444092,-0.908691,0.003418,-0.953674,-1.335144,1.213074,1.0114092745614902
-0.44165,-0.906738,0.004395,-0.892639,-1.075745,1.220703,1.008587050863236
-0.44458,-0.907471,0.00293,-0.785828,-0.579834,1.319885,1.010526386167625
-0.441895,-0.906738,0.003174,-0.656128,-0.259399,1.304626,1.0086897768615484
-0.440674,-0.909668,0.000488,-0.640869,0.038147,1.159668,1.0107866652484094
-0.440918,-0.909424,0.002441,-0.610352,0.160217,0.946045,1.0106763344320475
-0.439941,-0.909668,0.000244,-0.549316,0.419617,0.869751,1.0104672252186113
-0.435303,-0.909424,0.002686,-0.335693,0.62561,0.732422,1.0082400151655357
-0.436279,-0.908936,0.002197,-0.267029,0.770569,0.495911,1.008220632969788
-0.436523,-0.908936,0.003906,-0.137329,0.961304,0.320435,1.0083314130091354
-0.437256,-0.910156,0.001465,-0.045776,1.159668,0.236511,1.0097419967976968
-0.437012,-0.908447,0.00293,0.167847,1.518249,0.160217,1.0080992137944558
-0.438477,-0.909912,0.002686,0.228882,1.747131,0.053406,1.0100540291830928
-0.437012,-0.909424,0.003662,0.198364,1.998901,0.030518,1.0089821158791668
-0.434082,-0.90918,0.004639,0.244141,2.090454,0.106812,1.007500360022268
-0.434326,-0.909424,0.00293,0.312805,2.098083,-0.015259,1.0078192650232483
-0.434326,-0.911377,0.002197,0.480652,1.976013,-0.038147,1.0095800796440073
-0.434326,-0.911865,0.004395,0.427246,1.876831,-0.061035,1.010027805818236
-0.436523,-0.910645,0.002686,0.534058,1.876831,-0.152588,1.0098682390044753
-0.437256,-0.911377,0.001953,0.648498,1.838684,-0.12207,1.0108435387704666
-0.435547,-0.911865,0.001465,0.801086,1.937866,-0.228882,1.0105449587519597
-0.437744,-0.914307,0.0,0.892639,2.243042,-0.267029,1.013694776441607
-0.436523,-0.913818,0.0,0.793457,2.365112,-0.297546,1.0127268470091035
-0.435547,-0.913818,0.000488,0.686645,2.235413,-0.167847,1.0123066553554807
-0.43457,-0.910889,-0.001221,0.579834,2.090454,-0.25177,1.0092429569048278
-0.432617,-0.910889,-0.002686,0.564575,1.968384,-0.274658,1.0084063930806864
-0.43457,-0.908936,-0.002441,0.297546,1.846313,-0.205994,1.0074828512074039
-0.43457,-0.907959,0.000488,0.228882,1.701355,-0.190735,1.0065986631845882
-0.433594,-0.907715,-0.000244,0.289917,1.525879,-0.068665,1.0059574233520026
-0.435303,-0.906982,0.004395,0.25177,1.068115,-0.068665,1.0060439186029602
-0.4375,-0.908447,0.005615,0.312805,0.892639,-0.167847,1.0083222352174923
-0.439697,-0.908691,0.005127,0.389099,0.991821,-0.175476,1.00949446329289
-0.441895,-0.91333,0.007813,0.335693,1.228333,-0.061035,1.0146447274263046
-0.443359,-0.916016,0.005615,0.411987,1.365662,-0.175476,1.0176856309106463
-0.444824,-0.91626,0.00293,0.389099,1.51062,-0.244141,1.0185329466816475
-0.441895,-0.915527,0.000732,0.38147,1.716614,-0.114441,1.0165930427550642
-0.438477,-0.916504,-0.001953,0.465393,1.838684,0.099182,1.0159948207318776
-0.436035,-0.922119,-0.00708,0.434875,1.426697,0.526428,1.0200392628649155
-0.428955,-0.925049,-0.013184,0.50354,0.740051,1.25885,1.0197508824619863
-0.421387,-0.925293,-0.018555,0.457764,-0.556946,2.250671,1.0168964684976538
-0.419678,-0.917725,-0.01709,0.350952,-2.059937,3.051758,1.0092773986417214
-0.424072,-0.913086,-0.01709,0.404358,-2.746582,3.532409,1.0069037554205464
-0.424561,-0.912354,-0.017578,0.305176,-2.502441,3.639221,1.006454594167566
-0.423828,-0.911133,-0.012695,-0.045776,-1.983642,3.631592,1.0049650144646827
-0.418701,-0.910645,-0.010742,-0.534058,-2.166748,3.234863,1.002347361940959
-0.420654,-0.908447,-0.007324,-1.159668,-3.204345,2.319336,1.001139041542682
-0.423096,-0.907227,-0.000732,-1.785278,-4.608154,1.625061,1.0010352594034837
-0.424316,-0.909668,0.001465,-2.426147,-5.950927,1.167297,1.0037639584608524
-0.421631,-0.909424,-0.002441,-3.448486,-8.293152,0.831604,1.0024124253110591
-0.409912,-0.908691,-0.018066,-5.676269,-13.168334,1.220703,0.9970323773985477
-0.383057,-0.910889,-0.038574,-9.407043,-22.270201,2.593994,0.9889081802907689
-0.370605,-0.909912,-0.042236,-13.84735,-35.964966,4.310608,0.9833980849406817
-0.402832,-0.908691,-0.033447,-17.990112,-50.292965,6.431579,0.9945409270180892
-0.44873,-0.906738,-0.015381,-20.240782,-59.577938,8.43811,1.0118147007752951
-0.485352,-0.909424,-0.009033,-19.966125,-61.614986,10.780334,1.0308734989168167
-0.503906,-0.904053,-0.034424,-19.470215,-58.448788,12.931823,1.0355762142020257
-0.497314,-0.89502,-0.064209,-18.981934,-54.367062,15.647887,1.0259165710119902
-0.479004,-0.893066,-0.096436,-18.417358,-54.466244,19.477844,1.0179939167146335
-0.490723,-0.91333,-0.10083,-19.073486,-60.592648,24.948118,1.0417041041145034
-0.52832,-0.936523,-0.086426,-21.438597,-68.710327,31.684874,1.0787338899863117
-0.583008,-0.960449,-0.0896,-23.384092,-73.379517,38.909912,1.1271152424064719
-0.605225,-0.987549,-0.11084,-26.489256,-75.820923,47.874447,1.1635445129542745
-0.575684,-0.999512,-0.126221,-31.791685,-81.024162,58.311459,1.160331007446151
-0.575928,-0.99707,-0.133301,-37.651062,-93.116753,68.397522,1.159142270252017
-0.63916,-0.982666,-0.121582,-41.893002,-107.89489,79.124451,1.1785330525191053
-0.729004,-0.967285,-0.119873,-42.556759,-115.226738,90.484612,1.2171510339189626
-0.797607,-0.968018,-0.127686,-41.389462,-114.242546,104.217522,1.2607694037249635
-0.833252,-0.968018,-0.137695,-40.763851,-110.771172,116.989128,1.284650791792462
-0.881348,-0.981689,-0.139648,-39.810181,-105.8731,129.112244,1.3266458282936708
-0.920898,-0.985596,-0.135986,-40.641781,-101.539604,142.700195,1.3557082259158864
-0.95459,-0.994141,-0.114502,-42.076107,-98.81591,158.187866,1.382992806917303
-0.997314,-0.979492,-0.07373,-42.816158,-97.396843,172.668442,1.399812810900086
-1.050537,-0.961182,-0.030029,-41.481014,-94.970695,186.325058,1.4242192830930216
-1.069092,-0.925781,0.005859,-38.848877,-92.720024,197.151169,1.414235656567179
-1.106934,-0.911621,0.036865,-34.614563,-90.309135,210.510239,1.434473686137881
-1.155518,-0.849854,0.045898,-33.874512,-88.912956,221.031174,1.4351237911915475
-1.230469,-0.826904,0.060059,-28.549192,-84.70153,230.773911,1.4837220995381852
-1.317627,-0.788818,0.072021,-26.550291,-73.371887,241.546616,1.537387970778359
-1.364258,-0.737793,0.081299,-24.04785,-56.236263,249.519333,1.5531091168407969
-1.361816,-0.69751,0.099854,-21.40045,-36.964417,249.992355,1.5333081357874547
-1.324219,-0.64917,0.126953,-19.096375,-21.52252,249.893173,1.48023468175489
-1.293213,-0.599609,0.147217,-15.396117,-12.397765,249.977097,1.433040006887107
-1.271729,-0.560547,0.150391,-10.910033,-8.598328,249.992355,1.397900225885596
-1.223389,-0.516846,0.166748,-6.805419,-7.827758,249.992355,1.3385123565141266
-1.19458,-0.444824,0.187744,-2.372742,-8.178711,249.992355,1.2884632617626317
-1.201172,-0.366699,0.187988,3.204345,-7.942199,249.992355,1.2698904749343543
-1.189941,-0.315674,0.179688,9.048462,-5.546569,249.992355,1.244145262861616
-1.15625,-0.275879,0.182861,13.96942,-2.365112,249.992355,1.202689249333343
-1.130615,-0.230469,0.190674,17.539978,0.839233,249.992355,1.1695139214485648
-1.111328,-0.178955,0.199463,21.163939,5.897521,249.992355,1.1431799088411239
-1.101074,-0.146973,0.190186,25.634764,12.367248,249.992355,1.127002986154429
-1.059326,-0.136963,0.199463,29.075621,20.103453,249.992355,1.0866075308104577
-0.986572,-0.113037,0.20166,31.494139,24.787901,249.992355,1.0132958255874738
-0.92041,-0.072754,0.205566,34.126282,23.178099,249.992355,0.9458885203722477
-0.884766,-0.046143,0.240967,37.727356,16.746521,249.038681,0.9181531170202496
-0.88501,-0.023438,0.273682,42.839046,8.94928,241.561874,0.9266573676758848
-0.885742,0.004883,0.30542,49.484249,3.501892,231.544479,0.9369333544350954
-0.882568,0.04541,0.320557,57.777401,-0.709534,222.328171,0.9400771952201584
-0.86084,0.097656,0.307861,66.627502,-4.91333,213.066086,0.9194349325846827
-0.824463,0.149902,0.286865,75.248718,-6.614685,202.644333,0.8857208229447923
-0.827881,0.187012,0.24585,81.398003,-3.890991,190.933212,0.8836303869859841
-0.852051,0.199463,0.209717,82.908623,5.996704,179.519638,0.899865331624127
-0.83667,0.1875,0.187744,80.00946,22.02606,170.471176,0.877736149669136
-0.783936,0.19165,0.177734,74.150085,35.064697,163.177475,0.826362359592933
-0.717773,0.213135,0.174316,68.450928,38.452148,156.654358,0.7687721870684449
-0.691162,0.226807,0.168213,65.422058,33.027649,149.505615,0.7466203445272571
-0.68042,0.231934,0.165283,63.705441,21.423338,140.518188,0.7376199745431248
-0.692383,0.231934,0.150635,62.644955,9.162903,131.729126,0.7455726002677404
-0.717773,0.230469,0.136719,61.851498,0.267029,123.802177,0.7661632492171626
-0.748291,0.218994,0.117432,60.577389,-5.432128,116.027824,0.7884719825973526
-0.769043,0.213379,0.094971,57.91473,-9.857178,109.062187,0.8037270832384585
-0.769287,0.224609,0.07959,54.855343,-14.953612,103.424065,0.805348532841527
-0.757813,0.265869,0.075439,52.886959,-22.865294,97.831718,0.8066336906248088
-0.763672,0.321289,0.043457,52.696224,-31.204222,91.941826,0.8296445359031783
-0.785889,0.352539,-0.001953,53.344723,-35.118103,85.884087,0.8613414427803877
-0.798096,0.365479,-0.031738,50.666805,-33.01239,78.643799,0.8783731697296998
-0.791748,0.378662,-0.042969,44.845577,-26.473997,71.968079,0.878690014003232
-0.786377,0.397461,-0.02832,39.016724,-18.806458,66.28418,0.8815702212813226
-0.773926,0.423584,-0.008057,33.927917,-13.740539,60.844418,0.8822980073540913
-0.752197,0.457275,-0.012695,30.258177,-13.084411,56.426998,0.8803760079982871
-0.755615,0.474854,-0.050049,28.060911,-18.096924,52.139278,0.8938373744378784
-0.783936,0.481201,-0.111328,26.031492,-25.474546,47.447201,0.9265548974998729
-0.827637,0.484375,-0.143311,23.246763,-31.044004,42.236324,0.9696082647724286
-0.856689,0.50293,-0.155273,19.981384,-32.539368,37.17804,1.0054672208232351
-0.85791,0.53125,-0.145264,17.13562,-30.799864,33.187866,1.019479161285801
-0.850342,0.575195,-0.125977,16.059875,-29.434202,29.220579,1.0343118531265123
-0.818848,0.631592,-0.107178,16.990662,-29.541014,25.154112,1.0396670742367482
-0.793945,0.683105,-0.088867,18.699646,-30.929564,20.26367,1.051131983976798
-0.798096,0.712891,-0.081543,20.294188,-32.836914,14.915465,1.073228803166408
-0.832764,0.723877,-0.123047,22.216795,-30.540464,9.643555,1.1102406743738042
-0.874756,0.7146,-0.149658,22.438047,-22.354124,5.928039,1.1394071864351216
-0.884033,0.719727,-0.14502,19.309998,-10.391234,4.837036,1.1491527748815646
-0.878906,0.745117,-0.114258,16.044617,1.296997,5.126953,1.1578989554745267
-0.864502,0.762939,-0.081055,14.282226,8.811951,6.263732,1.1558587884123217
-0.846436,0.763916,-0.05957,13.481139,11.337279,8.430481,1.1417399625361284
-0.820313,0.770752,-0.062012,12.5885,6.805419,10.498046,1.1273054384757486
-0.819336,0.782959,-0.076904,11.58142,-2.120972,12.893676,1.1358919410723012
-0.841553,0.787354,-0.062744,9.765625,-9.742737,15.075683,1.154155354647285
-0.863525,0.785156,-0.05249,6.896972,-11.054992,16.777039,1.1682895916941998
-0.857666,0.7771,-0.054932,4.043579,-5.844116,18.386841,1.1586599596861886
-0.831543,0.769287,-0.060059,1.167297,1.541138,19.493103,1.1344043955746117
-0.78833,0.761963,-0.036133,-2.26593,7.873535,20.347593,1.096976479218219
-0.76001,0.772949,0.009033,-5.126953,8.964539,20.317076,1.0840419511208963
-0.734619,0.792236,0.053223,-5.340576,3.799438,20.454405,1.0817280816295747
-0.704102,0.818848,0.086426,-3.410339,-5.455017,20.744322,1.08339333899743
-0.682861,0.838867,0.116455,-0.709534,-17.425537,20.477293,1.0879148661706026
-0.664551,0.844727,0.144287,2.120972,-29.281614,20.233152,1.0844401663987737
-0.653076,0.859375,0.19043,5.859375,-38.154602,19.775391,1.0960370601859228
-0.611328,0.900391,0.289307,10.490417,-41.206356,17.562866,1.1261103039729279
-0.501465,0.988525,0.444092,15.846251,-41.244503,13.298034,1.1940965314052294
-0.370117,1.102295,0.623779,24.658201,-46.19598,7.019042,1.3195230583642712
-0.25293,1.197266,0.8396,38.879395,-61.180111,0.198364,1.4840308688352812
-0.212646,1.263428,1.047852,60.623165,-83.831779,-7.17163,1.655132153758122
-0.211914,1.281982,1.23291,88.73748,-107.963554,-13.633727,1.7912153583028478
-0.218018,1.275391,1.427002,120.979301,-129.798889,-19.218445,1.9262628998163778
-0.25,1.263916,1.631348,159.484863,-149.734497,-26.100157,2.0787688549138887
-0.300781,1.246826,1.839844,205.879196,-168.746933,-37.940979,2.242781805832436
-0.369873,1.237305,2.008789,248.680099,-187.637314,-52.726742,2.388087717332636
-0.441895,1.181641,2.046143,249.992355,-210.128769,-64.849854,2.4037986230870088
-0.487305,1.038574,1.962158,249.389633,-234.756454,-76.751709,2.272920177539238
-0.624023,0.821045,1.757568,249.893173,-249.992355,-88.760368,2.0377843043801276
-0.797363,0.536621,1.477051,249.992355,-249.992355,-99.090569,1.76222288828939
-2.375977,-0.919678,-0.778076,249.992355,-241.99675,-104.415886,2.663921280741794
-4.406982,-7.645996,-1.310059,189.773544,-198.600754,-104.721062,8.921827153886193
0.31665,-3.491699,-0.063965,-225.013718,100.746147,25.489805,3.5066109921583832
-0.154053,4.29248,0.54834,-246.665939,71.678162,247.390732,4.330103189625971
-1.657227,4.262939,-0.794678,159.126282,2.479553,151.550293,4.642258434311257
-1.209961,0.124512,-0.627686,218.322739,77.384949,-5.393981,1.368758040802318
0.108398,-0.5,-0.672852,-16.00647,80.497734,-95.596306,0.8452691525827735
-0.280762,-0.220215,-0.913818,-71.792603,-60.56213,-46.264645,0.9810123770845096
-0.918945,-0.488037,-0.640869,21.995543,-151.153564,-53.344723,1.2220282736315882
-1.087891,0.199219,-0.187256,24.108885,-113.716118,-54.603573,1.121721822636076
-1.024414,1.439941,-0.161133,-23.574827,-11.726378,-44.036861,1.7744909046163069
-0.696533,1.635742,-0.236572,-32.112122,64.620972,-86.479179,1.7935374046383867
-0.536621,0.906982,-0.179199,-16.540527,54.222103,-111.160271,1.0689671311906648
-0.744629,0.555664,-0.133545,-19.348145,-0.862122,-92.048637,0.9386528088500028
-0.887695,0.62085,-0.114502,-34.347534,-37.67395,-80.093384,1.0892969491965907
-0.935791,0.618896,-0.060547,-36.064148,-66.627502,-72.525024,1.1235670846487094
-1.114502,0.572021,-0.007324,-32.13501,-91.51458,-59.837337,1.2527475298003985
-1.357422,0.5354,-0.000244,-30.84564,-80.619804,-52.284237,1.4591941973637368
-1.45459,0.455322,-0.003662,-30.563353,-33.828735,-53.489681,1.5241927706258156
-1.414551,0.386963,-0.020264,-33.248901,19.615173,-52.719112,1.4666647621955058
-1.307373,0.377197,-0.060303,-38.665771,55.694576,-45.295712,1.3620345772949378
-1.249268,0.397217,-0.117188,-43.846127,70.983887,-36.91864,1.3161249592105606
-1.206055,0.416016,-0.141846,-46.890255,69.396973,-25.978086,1.2836503663369556
-1.229736,0.462646,-0.116211,-46.882626,61.531063,-13.671874,1.3190136267427262
-1.284912,0.533691,-0.126221,-42.655941,60.844418,-1.335144,1.397052852280829
-1.382324,0.528076,-0.179443,-36.911011,71.357727,5.775451,1.4905984345225243
-1.406006,0.47168,-0.210938,-36.071777,89.172356,12.863158,1.4979418327425136
-1.380127,0.489502,-0.284912,-39.405823,105.743401,19.630432,1.4918235793407344
-1.404785,0.449463,-0.375977,-46.089169,114.105217,27.923582,1.5221026867866043
-1.417725,0.378906,-0.437012,-59.455868,113.380424,38.673401,1.531173870141794
-1.332275,0.335449,-0.428223,-77.903748,112.060539,51.559444,1.4390474783533032
-1.277344,0.347168,-0.38623,-94.40612,105.567924,60.829159,1.3788788661300166
-1.243652,0.368652,-0.30835,-105.705254,98.007195,68.916321,1.3332870346283279
-1.174805,0.391357,-0.212646,-113.021843,96.641533,75.393677,1.2564017712459659
-1.094971,0.414551,-0.147461,-115.844719,98.678581,77.598572,1.180067273066667
-1.042725,0.423096,-0.107666,-116.554253,102.905266,76.629639,1.1304324917468533
-1.008301,0.427002,-0.064453,-118.171684,110.923759,74.272156,1.096884590015741
-0.952393,0.446045,-0.014648,-121.063225,119.86541,71.182251,1.0517714259181985
-0.883789,0.480713,0.050781,-122.901909,126.075737,68.916321,1.0073463629015593
-0.821045,0.520996,0.087891,-122.673027,126.625053,66.635132,0.9763588233441638
-0.765869,0.554199,0.111816,-119.918816,121.948235,64.315796,0.9519425794752538
-0.703857,0.578613,0.144775,-116.409294,114.19677,61.508175,0.9225873838520664
-0.63208,0.623291,0.175293,-112.762444,105.163567,56.999203,0.9048449772916906
-0.564697,0.683105,0.211182,-108.604424,96.061699,51.498409,0.9111053616119268
-0.496582,0.743408,0.266357,-104.194633,87.440483,45.56274,0.9328425315330556
-0.425781,0.79541,0.337402,-99.639885,79.38385,38.993835,0.9632271994005359
-0.382324,0.841309,0.409912,-93.185417,71.06781,31.929014,1.0109403158451047
-0.371582,0.856201,0.455566,-84.793083,63.476559,24.566648,1.0386018079519215
-0.361328,0.847656,0.466064,-75.210571,58.448788,18.15033,1.0326152574971956
-0.36084,0.850586,0.47583,-65.39917,53.0014,13.000487,1.0392864080204263
-0.383301,0.888672,0.498779,-55.427547,46.470638,10.093688,1.0887782469474674
-0.394531,0.959229,0.545898,-45.196529,39.306641,9.231567,1.172083448738186
-0.39209,1.043701,0.589355,-33.958435,29.273985,10.040282,1.261104936762203
-0.395752,1.10498,0.626709,-21.316526,14.907836,12.741088,1.3305504938126174
-0.366211,1.140381,0.675293,-7.987976,-4.699707,17.601013,1.3749908936174815
-0.32373,1.179199,0.744141,6.240844,-28.32794,23.887632,1.4314528362408592
-0.271484,1.227539,0.845215,22.575377,-53.794857,30.784605,1.5149072430356916
-0.193115,1.284668,0.973877,42.678829,-76.652527,37.55188,1.6236076141044669
-0.114014,1.331299,1.126953,68.000793,-97.518913,38.757324,1.747964325667432
-0.04834,1.340332,1.331787,97.55706,-119.1101,33.424377,1.8901013833106943
-0.007568,1.369385,1.595703,131.782532,-144.393921,22.53723,2.102745970643625
-0.026123,1.405273,1.821045,177.406296,-173.423752,8.621216,2.300365081390995
-0.086426,1.356445,1.941895,232.109055,-207.824692,-9.063721,2.370309828382357
-0.200928,1.205566,1.975342,249.992355,-244.422897,-29.136656,2.3228726737606604
-0.334229,1.070313,1.971191,249.992355,-249.992355,-48.927303,2.267790312372597
-0.470947,0.975342,1.852783,249.519333,-249.68718,-64.811707,2.1461332528205235
-0.606445,0.771973,1.613281,249.992355,-249.80925,-81.611626,1.8884897234867337
-3.87207,-1.167236,-3.434814,249.992355,-249.992355,-97.244255,5.305969579557726
-4.717529,-7.844482,-3.248047,111.717216,-241.569504,-21.598814,9.712918563870183
1.501709,-2.536865,2.022461,-249.992355,-64.468384,124.39727,3.5750751664023794
-0.97876,5.329102,2.091064,-249.992355,-114.929192,196.311935,5.807740345099805
-3.158936,5.940918,-0.24707,154.327393,-56.03027,138.191223,6.733084502642158
-2.055908,0.101563,-0.544678,249.992355,124.114983,51.87225,2.1292597002519447
-0.039307,-1.101318,-0.741455,116.928093,219.665512,-51.589962,1.328232620589481
0.099609,-0.177734,-1.324951,-29.357908,125.236504,-16.876221,1.3405247032554082
-0.43457,-0.59082,-1.251709,45.936581,-37.155151,-27.107237,1.4507566225873312
-0.818115,-0.463623,-0.727295,71.144104,-124.565117,-16.204834,1.1887878096527573
-0.891846,0.847656,-0.449707,3.326416,-81.642143,11.291503,1.3100176975525941
-0.591064,1.86084,-0.408203,-42.716976,13.420104,-8.712769,1.9946708617977555
-0.443359,1.56543,-0.39624,-18.15033,31.150816,-33.14209,1.6745579791040381
-0.58374,0.736084,-0.393311,6.866455,9.07135,-32.196045,1.0184623632599292
-0.71875,0.435791,-0.432129,-15.159606,12.405395,-30.838011,0.9451194796542921
-0.740723,0.447754,-0.440918,-34.210205,16.723633,-37.54425,0.9713716538838263
-0.797607,0.473877,-0.412598,-35.957336,-4.196167,-38.871765,1.0153686262545243
-0.963379,0.52002,-0.37207,-44.616695,-28.778074,-34.873962,1.1562681276161684
-1.148438,0.544189,-0.295166,-57.952877,-30.136106,-31.822203,1.3046740877019825
-1.293213,0.520752,-0.275635,-64.956665,-4.653931,-29.441832,1.421111241985651
-1.342773,0.434814,-0.357666,-66.871643,35.583496,-26.679991,1.4560314253754965
-1.392334,0.254883,-0.52832,-72.013855,73.272705,-23.994444,1.5108545044593142
-1.389404,0.09082,-0.560547,-85.853569,96.900932,-17.837524,1.500967916654117
-1.38916,0.190186,-0.461426,-102.752678,115.150444,-11.421203,1.4760928743381967
-1.367676,0.364746,-0.348389,-106.925957,131.500244,-6.057739,1.4577215717732244
-1.248779,0.532715,-0.19751,-103.004448,144.088745,-0.785828,1.3719491470772522
-1.278076,0.692871,-0.153809,-95.222466,144.134521,0.923157,1.4619184973513402
-1.293701,0.715088,-0.247559,-88.035576,129.486084,6.790161,1.4987656866988914
-1.304932,0.599365,-0.401855,-89.309685,117.85125,18.157959,1.4911651044984924
-1.268799,0.480225,-0.501221,-103.889458,114.212029,27.44293,1.446267417826662
-1.218506,0.460938,-0.477295,-127.723686,118.240349,31.60095,1.3874549466216912
-1.171143,0.517334,-0.352295,-148.300171,122.192375,37.017822,1.3279014123909954
-1.145264,0.567139,-0.207764,-159.584045,128.036499,44.830318,1.2947749436535294
-1.072266,0.590576,-0.071777,-164.840683,136.985779,50.689693,1.2262488834902154
-0.924805,0.622559,0.064941,-167.800888,142.982483,53.413387,1.1167190022503424
-0.797607,0.679688,0.183838,-167.083725,140.144348,54.809566,1.0639309724023454
-0.72876,0.732178,0.264893,-161.643967,129.920959,56.243893,1.0664633433611304
-0.670166,0.778809,0.344971,-153.388977,118.545525,57.03735,1.0838223640790958
-0.605225,0.832275,0.403076,-144.561768,110.099785,56.488033,1.1051919462364896
-0.552246,0.873535,0.432373,-135.169983,106.452934,55.221554,1.1202613319533974
-0.471191,0.894775,0.473145,-126.67083,105.37719,54.13055,1.116471876103917
-0.373291,0.922607,0.517334,-120.628349,101.97448,53.199764,1.1216881539385177
-0.297607,0.947266,0.568604,-115.310661,95.115654,52.11639,1.1441998558036093
-0.245361,0.948486,0.616211,-109.489433,88.127129,50.125118,1.1573865858208312
-0.188721,0.942871,0.657471,-102.287285,81.268303,47.07336,1.164855980077795
-0.112305,0.961426,0.719482,-91.896049,70.144653,43.334957,1.206070775213876
-0.053467,1.02832,0.791016,-75.843811,52.772518,39.909363,1.2984633436277668
0.004395,1.111572,0.829834,-52.421566,31.272886,34.812927,1.3871683728967439
0.040527,1.143066,0.849854,-26.046751,6.469726,26.321409,1.4249540832605798
0.032959,1.134277,0.861328,-3.158569,-20.683287,17.105103,1.4246250496162138
-0.014648,1.114014,0.894531,17.364502,-47.157284,9.971619,1.4287853113960125
-0.071777,1.093994,0.979004,38.574219,-71.029663,6.103515,1.4698379644644506
-0.105225,1.104004,1.064453,64.041138,-90.080254,4.089355,1.5371913745041637
-0.063232,1.148438,1.171143,92.567436,-105.178825,0.25177,1.6414883649045462
0.013916,1.219482,1.290039,122.75695,-124.214165,-6.050109,1.7752550872764734
0.046387,1.280518,1.447754,155.685425,-151.222229,-14.305114,1.9333571182295834
0.005371,1.304443,1.554199,193.7332,-180.984482,-23.399351,2.0290724283502057
-0.065186,1.280029,1.659912,234.588608,-211.685165,-35.820007,2.0971483741454726
-0.155029,1.233887,1.727539,249.992355,-239.997849,-49.194332,2.1285915803955913
-0.226807,1.137451,1.728516,249.992355,-249.992355,-62.286373,2.0815868357832206
-0.365479,0.977295,1.675293,249.610886,-249.992355,-78.598022,1.9736481581870158
-0.544678,0.799316,1.604004,249.992355,-249.748215,-97.129814,1.873074751192808
-0.879883,0.606201,1.478027,249.992355,-249.992355,-116.912834,1.8237975651971354
-4.010254,-1.174316,-3.135498,249.992355,-249.992355,-131.141663,5.224222709683804
-5.168457,-7.844238,-3.312744,142.555237,-236.709579,-52.787777,9.960888031246462
0.27832,-3.527344,1.167969,-247.207626,-65.910339,109.725945,3.726093034492966
-0.774902,3.378906,1.734375,-249.992355,-77.384949,170.692429,3.87627856417273
-2.041016,5.235107,-0.253662,65.925598,-24.063108,160.713181,5.624627634248244
-1.641846,1.276855,-0.702881,249.992355,88.401787,51.87225,2.1954632037230777
-0.202881,-0.498779,-0.967041,147.407532,81.947319,-72.502136,1.1068466409954905
0.216064,-0.081787,-1.121826,-36.590576,-11.688231,15.205382,1.1453673383421583
-0.413574,-0.405029,-0.924561,-8.262634,-130.104065,20.26367,1.0908276614745336
-0.908203,-0.435791,-0.480713,41.732784,-172.103867,-39.848328,1.1161682101094799
-0.965332,0.583008,-0.289307,9.468079,-122.154228,-20.729063,1.1642434189365212
-0.688721,1.630127,-0.373047,-30.456541,-10.383605,-11.085509,1.8085393875110933
-0.412109,1.718262,-0.43042,-14.22882,43.029781,-38.528442,1.8186587104030816
-0.396729,1.02002,-0.384766,12.695312,27.9541,-47.981258,1.1601205000330783
-0.544434,0.570557,-0.350586,3.112793,7.6828,-43.334957,0.8630493693879858
-0.657959,0.560303,-0.334717,-8.865356,-0.495911,-43.197628,0.9267604693657363
-0.745117,0.674561,-0.26416,-10.0708,-9.346008,-41.725155,1.0392364466328152
-0.828369,0.803223,-0.192627,-16.63208,-20.568846,-36.010742,1.1698151772904128
-0.872314,0.803223,-0.158447,-22.628782,-24.391172,-30.4718,1.1963295340891655
-0.859131,0.67627,-0.126709,-23.048399,-19.989014,-27.511595,1.1006826784963957
-0.83252,0.593018,-0.098877,-25.520323,-14.701842,-25.68054,1.0269063052942076
-0.82666,0.602295,-0.071045,-30.197142,-10.360717,-24.597166,1.0252674844400362
-0.837158,0.636475,-0.05127,-33.126831,-5.577087,-25.817869,1.0528829733113743
-0.862549,0.663086,-0.03125,-34.629822,-1.556396,-27.984617,1.0884164567374934
-0.885742,0.679443,0.001953,-36.109924,-1.945495,-28.07617,1.1163267868424551
-0.879639,0.699707,-0.002441,-34.584045,-7.43103,-25.657652,1.123993155962704
-0.86499,0.699219,-0.025146,-28.999327,-15.769958,-24.452208,1.1125408897550688
-0.873779,0.67627,-0.033936,-23.117064,-25.093077,-25.344847,1.105433175654232
-0.905762,0.65332,-0.048828,-17.967224,-30.738829,-25.222776,1.1178622440300952
-0.929443,0.62793,-0.056152,-11.741637,-29.022215,-24.871824,1.1230821084199498
-0.927246,0.601318,-0.022461,-7.019042,-21.64459,-25.688169,1.1053836339303202
-0.902344,0.607422,0.036377,-4.310608,-15.228271,-26.344297,1.0883517200560673
-0.855469,0.655029,0.105469,0.114441,-14.976501,-25.772093,1.0825959129624498
-0.836914,0.717773,0.13623,8.140564,-20.660398,-24.452208,1.1109373230857806
-0.865967,0.749023,0.129395,18.852234,-27.458189,-23.170469,1.152248829742517
-0.936523,0.74707,0.107178,28.968809,-28.549192,-21.667479,1.2027784659333571
-1.016846,0.734863,0.057861,36.895752,-21.797178,-17.021179,1.2559248830268472
-1.034912,0.721191,0.017822,39.321899,-7.392883,-11.688231,1.2615375261596462
-1.007324,0.712158,0.002686,39.672852,6.874084,-6.584167,1.2336441433963037
-0.948242,0.726807,0.014893,39.237976,11.932372,3.814697,1.194836016891858
-0.909912,0.823975,0.002686,33.958435,8.049011,15.129088,1.227551165110848
-0.9021,0.871582,-0.020264,37.506104,-2.243042,21.835325,1.2545318738158868
-0.934082,0.842285,-0.044434,43.945309,-11.009215,28.717039,1.258541848452009
-0.970215,0.81665,-0.081787,47.447201,-10.856627,33.828735,1.2707963967898241
-0.970703,0.796631,-0.12207,51.673885,-2.388,37.628174,1.2616601560127036
-0.930176,0.783936,-0.16748,56.091305,9.681702,40.359493,1.2279383508433963
-0.901367,0.782471,-0.253906,62.744137,19.271851,41.038509,1.2203243795671708
-0.876709,0.760254,-0.368164,70.732117,26.344297,41.198727,1.2174356435118039
-0.853516,0.719727,-0.457764,76.927185,34.446716,39.642334,1.206666646792311
-0.837891,0.686523,-0.484131,79.811096,41.625973,36.04126,1.1864897734793165
-0.833984,0.673828,-0.495361,80.13916,46.531673,32.669067,1.1810825568777994
-0.81958,0.665527,-0.481445,79.902649,51.002499,29.739378,1.1603563470563687
-0.787842,0.658936,-0.449463,78.643799,55.343624,26.100157,1.1211193769750838
-0.74585,0.671143,-0.425537,75.798035,57.403561,20.561216,1.0898655363474892
-0.717285,0.67334,-0.425293,72.372437,55.984493,15.014647,1.0718015966931567
-0.697998,0.649658,-0.424561,68.305969,49.34692,10.94818,1.0437953667692723
-0.709229,0.618652,-0.419434,62.141415,41.15295,6.904602,1.0303693279115989
-0.718994,0.601318,-0.421387,54.13055,35.476685,3.532409,1.0276685812697595
-0.700928,0.605469,-0.433105,46.775814,31.562803,0.015259,1.022483599951608
-0.740967,0.605225,-0.464355,43.365475,31.455992,-5.226135,1.0634636626321559
-0.755127,0.584717,-0.436279,40.618893,33.7677,-9.971619,1.0499762483308848
-0.730957,0.600098,-0.397705,34.294128,35.690308,-14.343261,1.0259556581441518
-0.702881,0.627441,-0.353516,28.526304,33.813477,-17.860413,1.0063287091691264
-0.678955,0.629639,-0.316895,23.330687,28.228758,-19.317627,0.9786968904471904
-0.670166,0.626709,-0.294922,16.265869,20.835875,-20.1416,0.9637767502492474
-0.687988,0.623047,-0.270752,8.880615,11.909484,-20.805357,0.9668617780515476
-0.744385,0.615479,-0.236572,2.380371,5.302429,-19.439697,0.9944293533730789
-0.78125,0.626953,-0.222412,-2.792358,5.729675,-16.273499,1.0261036616507124
-0.782471,0.650635,-0.222412,-5.638122,11.039733,-13.244628,1.0416591893752967
-0.773682,0.669189,-0.241943,-6.179809,16.143799,-11.20758,1.051158489521918
-0.760986,0.66748,-0.251221,-6.370544,18.447876,-9.628296,1.0429483368973749
-0.756592,0.664795,-0.25,-7.56073,17.822266,-8.178711,1.037730141457306
-0.775879,0.668945,-0.258301,-9.216309,15.457152,-6.561279,1.0565013214695946
-0.792725,0.674561,-0.269531,-11.215209,13.191222,-4.043579,1.0752173865349277
-0.794434,0.674805,-0.274658,-13.626098,11.070251,-1.243591,1.077925871915597
-0.796631,0.666016,-0.28418,-15.457152,8.529663,1.716614,1.0765484358899047
-0.791748,0.658936,-0.291504,-16.708374,5.378723,4.91333,1.0705307700463356
-0.78833,0.657227,-0.299072,-17.486572,2.494812,7.713317,1.0690442365089483
-0.800537,0.65332,-0.312012,-16.777039,0.526428,10.078429,1.0793692597591429
-0.81665,0.652588,-0.317871,-15.029906,1.373291,12.451171,1.0926254128863193
-0.814697,0.657471,-0.329102,-12.985229,5.752563,13.786315,1.0974094240774497
-0.791016,0.666992,-0.325684,-10.44464,10.032654,13.946532,1.0847371608717018
-0.77417,0.682861,-0.31958,-7.614135,11.619567,13.687133,1.0806339392324305
-0.771484,0.699707,-0.317627,-4.356384,10.330199,13.778686,1.088882160398452
-0.776123,0.704346,-0.320068,-1.38855,8.369446,14.10675,1.0958620914462733
-0.780273,0.704834,-0.322266,1.075745,7.324218,14.366149,1.0997601087696351
-0.793701,0.70874,-0.337158,4.135132,7.492065,14.793395,1.1162209377918872
-0.797852,0.712402,-0.37085,7.995605,9.063721,15.594481,1.1320839836372565
-0.786133,0.70874,-0.399414,11.45172,9.628296,15.403747,1.1313041256377527
-0.782227,0.698975,-0.408936,13.59558,10.253905,15.663146,1.1259102016812887
-0.771973,0.694092,-0.409668,14.778136,11.352538,16.082764,1.116034895250592
-0.754883,0.686523,-0.405029,15.197753,11.970519,15.800475,1.0978208706610564
-0.745117,0.682617,-0.400879,15.243529,10.765075,15.319823,1.0871381168089913
-0.734375,0.668457,-0.400391,14.564513,8.148193,15.045165,1.0707260874542097
-0.73291,0.654053,-0.413086,13.336181,5.41687,14.312743,1.0656371044145376
-0.735596,0.642334,-0.421387,12.237548,3.875732,13.328551,1.0636077503201073
-0.733398,0.638184,-0.42334,10.795592,5.256652,12.313842,1.0603622965100183
-0.741455,0.642334,-0.429932,9.468079,9.536743,10.963439,1.0710695631960605
-0.731201,0.638428,-0.440918,8.964539,13.862609,9.361267,1.0661397170676084
-0.718994,0.628906,-0.457031,8.026123,15.724181,7.270813,1.0589393107411775
-0.714111,0.618652,-0.452148,6.973266,14.503478,5.28717,1.0474362182629546
-0.709229,0.623779,-0.438965,5.546569,12.527465,3.318786,1.0415355426038038
-0.709473,0.639648,-0.435059,4.142761,11.024474,0.968933,1.0496560556267944
-0.713623,0.644531,-0.429688,3.211975,10.581969,-1.541138,1.0532377573150327
-0.720215,0.644531,-0.435059,2.288818,11.268615,-4.234314,1.0599085760889946
-0.718994,0.641113,-0.435547,1.319885,12.33673,-6.217956,1.0572035944008136
-0.710938,0.646973,-0.432617,0.518799,13.85498,-8.750916,1.0541178165945209
-0.711426,0.658691,-0.432861,0.320435,14.930724,-11.375426,1.0617765453606518
-0.702881,0.661865,-0.422852,-0.190735,15.769958,-13.427733,1.0539975295464405
-0.697754,0.670654,-0.408936,-0.854492,16.418457,-15.785216,1.0506503149611672
-0.708496,0.679443,-0.408447,-0.839233,16.50238,-17.608643,1.0632207315858735
-0.708496,0.672607,-0.407227,-0.473022,16.555786,-19.233704,1.0583952891023278
-0.710205,0.662109,-0.409912,-0.305176,17.288208,-21.01898,1.0539484416469336
-0.709961,0.657959,-0.414795,-0.656128,17.906189,-22.125242,1.0530952279955503
-0.70752,0.64917,-0.409668,-0.320435,18.196106,-23.262022,1.0439512007388085
-0.713379,0.648438,-0.401855,0.221252,18.234253,-24.406431,1.0444466853363075
-0.715332,0.650146,-0.401855,0.991821,17.875671,-24.940489,1.046841503077233
-0.715576,0.653076,-0.397217,2.044678,17.181396,-25.321959,1.0470618981898825
-0.717285,0.653809,-0.389648,3.288269,15.747069,-25.672911,1.0458439384583151
-0.718018,0.655273,-0.391113,4.127502,14.144897,-25.794981,1.0478081559245471
-0.715576,0.65332,-0.39502,4.943848,12.855529,-26.18408,1.0463827380915647
-0.720459,0.649658,-0.394775,5.104064,11.497497,-26.359556,1.0473604863035457
-0.7146,0.649658,-0.387451,5.104064,9.674072,-26.458738,1.0405897147122876
-0.701904,0.648682,-0.378418,5.500793,6.828308,-26.229856,1.0279385901229703
-0.693115,0.652588,-0.372803,5.607605,2.563476,-25.451658,1.0223803488809828
-0.69458,0.65332,-0.375,5.203247,-3.341675,-24.192808,1.0246430592162328
-0.720215,0.641357,-0.373535,4.165649,-8.842468,-23.16284,1.0342034828306275
-0.74585,0.625977,-0.378662,3.799438,-11.672973,-21.90399,1.0447604209927748
-0.746582,0.605225,-0.391357,4.264832,-12.107848,-20.03479,1.037710115975555
-0.747803,0.596436,-0.399414,4.501343,-11.566161,-18.516541,1.0365697141538528
-0.748291,0.597656,-0.409424,4.53186,-10.841369,-17.234802,1.0415181836113088
-0.746338,0.602783,-0.412842,4.28009,-9.933472,-15.99121,1.0444167139111666
-0.750244,0.611084,-0.411621,3.868103,-9.590149,-15.3656,1.0515329582248005
-0.757813,0.619385,-0.41626,3.158569,-9.223938,-15.312194,1.063574496118631
-0.758057,0.62793,-0.416748,2.01416,-9.002686,-15.075683,1.0689365723245696
-0.756836,0.640137,-0.419189,1.525879,-8.956909,-15.174865,1.0762413889950524
-0.757324,0.655029,-0.425781,0.686645,-8.308411,-14.938354,1.0880680547548485
-0.76001,0.656006,-0.4375,0.328064,-7.202148,-15.289306,1.0951553872104176
-0.773193,0.64624,-0.455566,0.221252,-6.248474,-15.388488,1.1058905611338765
-0.778076,0.628174,-0.471924,-0.061035,-5.050659,-15.335082,1.1057653900479976
-0.768311,0.615234,-0.473633,-1.228333,-3.623962,-14.869689,1.092310801084563
-0.765625,0.606934,-0.473877,-2.464294,-2.578735,-14.60266,1.0858682848808137
-0.766113,0.595459,-0.466797,-3.417969,-2.044678,-14.526366,1.0767543771255355
-0.75293,0.581299,-0.451172,-4.814148,-1.88446,-14.900207,1.0527907132402907
-0.745117,0.573242,-0.439453,-6.469726,-3.417969,-15.342711,1.0377498125569573
-0.744141,0.564941,-0.443848,-8.171082,-6.340026,-15.686034,1.0343622230466463
-0.742432,0.548096,-0.448975,-10.078429,-9.498596,-16.487122,1.0262519429774541
-0.738281,0.526367,-0.461182,-12.489318,-11.764525,-18.280029,1.017256059590701
-0.734863,0.498535,-0.467529,-14.595031,-12.397765,-20.751951,1.0035657132619669
-0.724609,0.470459,-0.471924,-16.708374,-11.352538,-23.719786,0.9844298529290951
-0.706299,0.447754,-0.473877,-19.325256,-9.735107,-28.099058,0.9611978636295443
-0.688477,0.432861,-0.474609,-22.3999,-8.842468,-33.439636,0.9416065673788602
-0.684326,0.432617,-0.455566,-27.084349,-9.925842,-39.115906,0.9289778917288612
-0.683838,0.445068,-0.410889,-31.547544,-15.518188,-45.211788,0.9135369205396134
-0.72583,0.477783,-0.390137,-34.576416,-23.307798,-50.941463,0.9525296125360092
-0.769287,0.516357,-0.385254,-36.003113,-29.487608,-54.786678,1.003418000802258
-0.805908,0.537354,-0.364258,-38.002014,-30.639647,-57.853695,1.0348530892566346
-0.830322,0.548584,-0.343018,-41.099545,-29.067991,-60.920712,1.0526349685736267
-0.850586,0.569092,-0.349365,-43.342587,-26.893614,-62.232967,1.0813963894358996
-0.851318,0.587891,-0.349609,-44.43359,-25.848387,-62.232967,1.0920552265732717
-0.850342,0.59082,-0.325684,-44.876095,-27.763365,-61.645504,1.0854583627297731
-0.867432,0.621094,-0.280762,-45.486446,-32.485962,-59.700008,1.1031878045482555
-0.916748,0.670898,-0.262451,-43.769833,-37.117004,-55.587765,1.1659380555196748
-0.952148,0.689941,-0.268311,-39.787292,-39.451599,-50.384518,1.2060659974089312
-0.968262,0.662354,-0.2771,-36.315918,-39.535522,-45.600887,1.205416331380988
-0.990723,0.63208,-0.283447,-34.103394,-37.200928,-40.855404,1.2088835307580297
-1.013184,0.609619,-0.280273,-31.761168,-33.325195,-36.16333,1.2152078412954717
-1.02002,0.590576,-0.26709,-29.525755,-29.273985,-31.394957,1.2085354278116964
-1.020264,0.57373,-0.26001,-26.840208,-25.718687,-26.351927,1.199045429788213
-1.000977,0.557373,-0.255615,-23.612974,-22.369383,-21.751402,1.1738648320326324
-0.981445,0.540527,-0.250732,-20.851133,-20.935057,-18.737793,1.1481595105114968
-0.974365,0.521729,-0.246338,-18.65387,-22.575377,-16.212463,1.132373928042323
-0.959961,0.496338,-0.247314,-17.082214,-24.848936,-13.839721,1.1086211013511333
-0.951416,0.48291,-0.243408,-16.456604,-26.19171,-12.664794,1.0943682778754142
-0.948242,0.474854,-0.231201,-16.616821,-26.870726,-11.978148,1.0854045855260608
-0.94043,0.463379,-0.228516,-16.807556,-26.473997,-11.283874,1.0730089677150887
-0.934814,0.445557,-0.2229,-17.234802,-24.452208,-11.268615,1.059284034074431
-0.923096,0.428711,-0.225342,-18.600464,-21.331785,-11.894225,1.0424386618410697
-0.893555,0.411621,-0.215576,-21.087645,-18.65387,-12.847899,1.0071471577887712
-0.862061,0.398926,-0.200928,-24.406431,-18.127441,-14.297484,0.9709084315119526
-0.842285,0.389648,-0.189453,-27.94647,-21.080015,-15.678405,0.9471863725466071
-0.820801,0.373535,-0.183105,-31.394957,-26.702879,-16.822815,0.9202011295640752
-0.802979,0.358154,-0.177002,-35.743713,-33.39386,-18.341064,0.8968719363214572
-0.796387,0.354736,-0.176758,-40.985104,-40.618893,-20.614622,0.8895579093173193
-0.794189,0.347656,-0.182617,-45.677181,-47.187801,-23.300169,0.8859739447331395
-0.799072,0.345947,-0.177734,-50.262447,-51.719662,-26.710508,0.8886983530698142
-0.821533,0.33374,-0.181152,-55.412289,-54.214474,-31.547544,0.9050496697933212
-0.842285,0.313965,-0.187012,-60.264584,-54.595943,-36.529541,0.9181457022684363
-0.845703,0.292969,-0.187012,-64.964294,-53.070065,-41.732784,0.9143401376479106
-0.839844,0.281982,-0.172852,-69.961548,-52.925106,-48.011776,0.902623734766597
-0.834961,0.260742,-0.165527,-75.881958,-57.182308,-54.534908,0.890250217531004
-0.85083,0.219727,-0.175049,-81.17675,-62.927242,-61.111446,0.896009930653673
-0.865967,0.169189,-0.19751,-86.616508,-67.588806,-67.779541,0.9041758473383372
-0.851563,0.105713,-0.2229,-94.345085,-69.412231,-74.790955,0.8865772337128898
-0.830322,0.070313,-0.17749,-105.400078,-64.445496,-83.518974,0.8519866441165612
-0.815186,0.121338,-0.123047,-117.332451,-57.373043,-92.193596,0.8333016794948873
-0.843994,0.14917,-0.08252,-123.588554,-49.888607,-103.912346,0.8610383913252649
-0.87207,0.14502,-0.047852,-127.960197,-37.513733,-115.386955,0.8853398777893154
-0.848877,0.117188,-0.006592,-132.751465,-24.375914,-127.92968,0.8569531159503418
-0.829102,0.133301,0.023682,-135.475159,-14.450072,-141.433716,0.8400834006984068
-0.837646,0.156006,0.059326,-131.370544,-12.374877,-155.609131,0.8541125614507727
-0.835449,0.135742,0.077148,-123.718254,-17.89856,-169.128403,0.8499133697436463
-0.824219,0.098145,0.10791,-115.867607,-26.115416,-181.304916,0.8370268628222156
-0.825439,0.077637,0.130859,-107.13195,-35.896301,-193.35173,0.839345652500208
-0.854492,0.059326,0.138672,-98.44207,-40.008545,-205.505356,0.8677016053482902
-0.915039,0.052002,0.166992,-92.094414,-32.936096,-218.81102,0.9316044802323571
-1.013428,0.057861,0.232666,-89.424126,-20.195005,-232.353195,1.041401783204254
-1.124023,0.02124,0.22998,-83.091728,-4.829407,-238.922104,1.1475058355097807
-1.170654,-0.063477,0.202148,-71.784973,17.845154,-239.761337,1.1896738759630725
-1.113525,-0.116699,0.172119,-61.058041,41.084286,-242.095932,1.1327760292251068
-1.003174,-0.123779,0.151611,-52.658077,53.428646,-246.437057,1.0220886509682026
-0.923096,-0.150391,0.106934,-44.93713,52.429195,-249.992355,0.9413599515875956
-0.931396,-0.216064,0.071045,-40.451046,45.951839,-249.992355,0.9587645972484591
-0.994629,-0.28418,0.070801,-41.854855,37.406921,-249.93132,1.0368499899416501
-1.081787,-0.337158,0.077881,-45.127865,25.29907,-249.992355,1.1357834654959544
-1.161621,-0.393555,0.101563,-45.219418,10.253905,-249.992355,1.230676207877198
-1.185059,-0.455078,0.144043,-42.854305,-7.492065,-246.52861,1.277579432134848
-1.137695,-0.49585,0.164307,-40.801998,-28.770445,-236.488327,1.2518841503006577
-1.086182,-0.531738,0.17334,-39.0625,-52.070614,-227.653488,1.2217133024437443
-1.064453,-0.578857,0.171387,-39.245605,-72.982788,-220.970139,1.2237275511432273
-1.068359,-0.630127,0.167236,-44.967648,-83.70208,-215.881332,1.251566565830999
-1.090088,-0.658203,0.15332,-55.091854,-80.322258,-213.058456,1.2825872521403758
-1.118164,-0.665283,0.133545,-65.65094,-63.934322,-212.486252,1.3079474255527246
-1.133057,-0.667969,0.125488,-74.066162,-39.680481,-210.906967,1.3212675687967217
-1.099854,-0.666992,0.117188,-79.078674,-15.243529,-207.46611,1.29162307842652
-1.024658,-0.6875,0.107422,-79.803467,5.142211,-203.735336,1.2385958796346772
-0.92334,-0.736328,0.09082,-78.384399,20.706175,-201.225266,1.1844762351284217
-0.865234,-0.798096,0.067871,-77.125549,31.051634,-201.896652,1.1790647024709884
-0.859619,-0.849609,0.055908,-77.667236,37.04834,-204.635605,1.2099198248255956
-0.90625,-0.893066,0.053711,-78.674316,43.571468,-206.130966,1.2734758789930023
-0.953369,-0.950928,0.070557,-80.436699,53.75671,-204.81871,1.348389706870384
-0.928955,-0.997559,0.093994,-83.32061,60.615536,-200.469955,1.3663514271745758
-0.848145,-1.018066,0.099365,-84.060661,58.090206,-194.854721,1.3287895712286426
-0.748779,-1.050781,0.08667,-80.596916,43.601986,-188.095078,1.293183045706214
-0.665771,-1.095215,0.078369,-74.562073,18.692017,-179.24498,1.284090581239112
-0.588623,-1.129883,0.067139,-70.091248,-13.687133,-168.685898,1.2757822208899918
-0.503662,-1.154297,0.061279,-68.077087,-50.331112,-159.919739,1.2608854390046702
-0.45166,-1.157959,0.056641,-68.130493,-90.431206,-154.953003,1.244216220824178
-0.474609,-1.144043,0.054443,-66.574097,-128.40271,-151.191711,1.239779064583283
-0.538818,-1.114502,0.058838,-62.33215,-155.845642,-145.530701,1.2393149137212867
-0.606201,-1.062744,0.064209,-55.892941,-170.944199,-137.001038,1.225164175781352
-0.656006,-0.998047,0.056641,-47.004696,-175.521835,-124.046318,1.1956796766383546
-0.67334,-0.932617,0.026123,-36.575317,-172.424301,-107.109062,1.1505840410061319
-0.678955,-0.881836,-0.001953,-25.466917,-165.176376,-87.921135,1.1129323596382665
-0.681641,-0.86499,-0.005615,-16.479492,-157.272339,-68.42041,1.1013054441007726
-0.668945,-0.866943,-0.000977,-9.178162,-148.712158,-50.079342,1.0950244439294494
-0.657715,-0.866455,0.01123,-1.945495,-139.10675,-33.905029,1.0878692022251573
-0.648193,-0.864014,0.028564,5.500793,-128.250122,-20.179747,1.080504631892432
-0.646973,-0.871338,0.04248,12.649535,-116.012566,-9.086609,1.0860978424492886
-0.650146,-0.884277,0.047607,18.760681,-102.905266,-0.450134,1.0985909432058867
-0.65625,-0.887939,0.048096,23.651121,-89.462273,6.446838,1.1051755315048375
-0.654785,-0.882813,0.049316,27.465818,-76.515198,12.33673,1.1002428173135237
-0.645752,-0.878418,0.055176,30.708311,-64.956665,17.242432,1.0916309904010604
-0.637451,-0.871338,0.054443,33.119202,-54.359432,21.133421,1.0809892357900701
-0.623047,-0.876221,0.050049,35.888672,-45.501705,24.085997,1.0763158028436635
-0.615723,-0.873779,0.047607,37.284851,-38.452148,26.43585,1.0699864391752822
-0.615723,-0.874512,0.044922,39.215088,-31.585691,27.229307,1.0704690733304723
-0.62085,-0.868164,0.044922,40.733334,-24.063108,27.122496,1.0682609416617272
-0.616943,-0.870605,0.039307,42.472836,-15.098571,26.123045,1.0677625070787042
-0.62793,-0.870117,0.047119,43.815609,-5.134582,24.612425,1.0740669805696479
-0.655762,-0.867188,0.045166,44.761654,8.743286,22.819517,1.0881538473690198
-0.659912,-0.866699,0.014893,45.417782,27.565001,21.820066,1.0894369214387771
-0.634277,-0.88623,-0.030029,47.264095,49.018856,19.371033,1.0902351427421517
-0.574951,-0.917236,-0.114258,46.70715,65.490723,13.763427,1.0885519843631724
-0.498291,-0.97168,-0.239746,41.90826,69.496155,9.040833,1.118004511438572
-0.452148,-0.964111,-0.331299,31.303404,57.273861,4.432678,1.1152160605129393
-0.466309,-0.937012,-0.380371,20.774839,44.021603,-0.518799,1.1136057063727718
-0.477295,-0.931396,-0.374512,11.45172,34.805298,-3.204345,1.1115611831946095
-0.475586,-0.94043,-0.319824,5.66864,29.678343,-5.973815,1.1013074136098422
-0.477783,-0.924561,-0.233887,2.593994,31.654356,-10.437011,1.0666736926441
-0.480957,-0.895996,-0.153564,2.128601,36.186218,-13.015746,1.0284504703489614
-0.489258,-0.893799,-0.096191,2.738952,37.475586,-14.266967,1.0234758186913846
-0.508301,-0.911865,-0.044922,3.471374,37.727356,-13.96942,1.0449333332371018
-0.535156,-0.924072,-0.003906,4.196167,41.061398,-11.848449,1.067855918350411
-0.539307,-0.931152,0.027344,5.256652,47.21069,-8.369446,1.076403168747194
-0.518555,-0.925293,0.054199,5.249023,53.215023,-4.562378,1.0620753059340944
-0.48999,-0.92041,0.077881,5.767822,56.961056,-1.731872,1.0456147561893911
-0.470947,-0.92041,0.092041,6.004333,57.357784,0.12207,1.0379870859456777
-0.463379,-0.917236,0.100342,6.187438,55.221554,1.922607,1.0325262680924878
-0.458496,-0.914307,0.108887,6.111145,52.070614,3.486633,1.028606946813991
-0.457275,-0.908203,0.11084,5.844116,49.171444,4.844666,1.0228482880828416
-0.451416,-0.90332,0.110596,5.607605,46.531673,5.783081,1.0158714990942506
-0.446289,-0.898193,0.10791,5.432128,43.411251,6.233215,1.0087463035223474
-0.437256,-0.892578,0.106445,5.233764,39.390564,6.523132,0.9996093405150833
-0.431885,-0.888184,0.103027,4.852295,34.77478,6.774902,0.992980379368092
-0.427979,-0.88208,0.101318,4.455566,29.800413,6.942749,0.985645214042558
-0.424805,-0.876221,0.10083,4.211426,24.635313,6.950378,0.9789735531494199
-0.423584,-0.872314,0.100098,3.77655,19.355774,6.996154,0.9748716475803366
-0.423584,-0.869629,0.098877,3.440857,14.129638,6.904602,0.9723449304778629
-0.42627,-0.869141,0.10083,3.02124,9.338379,6.591796,0.9732825281905558
-0.431641,-0.866699,0.101074,2.700805,5.1651,6.233215,0.9734973358761697
-0.434814,-0.866455,0.098877,2.624511,1.960754,5.813598,0.9744660808617198
-0.442139,-0.867676,0.096436,2.708435,-0.167847,5.043029,0.9785951350752772
-0.448486,-0.87085,0.095459,3.059387,-0.991821,4.119873,0.984190954732363
-0.454102,-0.876465,0.090088,3.608703,-0.63324,3.120422,0.9912191333771762
-0.456299,-0.88208,0.084229,4.310608,0.610352,2.098083,0.9966786985995035
-0.457031,-0.888916,0.078369,4.882813,1.998901,1.319885,1.002591985893564
-0.456055,-0.893066,0.069336,5.41687,3.242492,0.762939,1.0051669136402173
-0.454346,-0.900879,0.057617,6.057739,4.585266,0.137329,1.0106102013367964
-0.450195,-0.906006,0.046875,6.729125,5.859375,-0.465393,1.0127781966877052
-0.445801,-0.910889,0.034912,7.232666,6.637573,-1.159668,1.0147295943580241
-0.442139,-0.914551,0.018066,7.331848,6.622314,-1.579285,1.0159807120600273
-0.437256,-0.92041,0.002686,7.217407,5.729675,-1.663208,1.0189968558499087
-0.437988,-0.927734,-0.012939,6.782531,3.921509,-1.747131,1.0260074466693698
-0.438721,-0.929199,-0.02832,5.767822,1.281738,-1.663208,1.0279537537467336
-0.436523,-0.928955,-0.043945,4.402161,-1.586914,-1.373291,1.0273465260461048
-0.440186,-0.928223,-0.055176,2.89154,-4.577637,-1.083374,1.0287886290686732
-0.446045,-0.925781,-0.056885,1.586914,-6.874084,-0.915527,1.029204792648674
-0.453613,-0.923096,-0.055664,0.663757,-8.155823,-0.801086,1.0300337178369454
-0.45874,-0.920166,-0.051514,-0.106812,-8.018494,-0.854492,1.0294666324616841
-0.465332,-0.91626,-0.041016,-0.511169,-7.087707,-0.816345,1.028469041867571
-0.472656,-0.911377,-0.027344,-0.572205,-5.554199,-0.831604,1.0270148123571539
-0.479736,-0.905029,-0.010742,-0.167847,-3.410339,-0.587463,1.0243727403152623
-0.482178,-0.902832,0.000244,0.244141,-0.915527,-0.38147,1.0235239632973914
-0.478027,-0.901855,0.007324,0.495911,1.182556,-0.038147,1.0207379167690402
-0.47583,-0.896484,0.017334,0.518799,2.723694,0.12207,1.0150853258283266
-0.474365,-0.89502,0.02832,0.640869,3.791809,0.053406,1.0133533322711286
-0.47583,-0.891113,0.0354,0.587463,4.638672,-0.091553,1.0108163669376353
-0.47583,-0.888672,0.040771,0.549316,5.317688,-0.190735,1.0088678738690215
-0.47998,-0.889893,0.046631,0.564575,5.714416,-0.396728,1.012158486606717
-0.478027,-0.888184,0.054932,0.610352,5.836486,-0.534058,1.0101475908049278
-0.476074,-0.886963,0.056885,0.579834,5.569458,-0.740051,1.0082587565054915
-0.475098,-0.885254,0.060547,0.457764,5.0354,-0.88501,1.0065081685356558
-0.477051,-0.885742,0.060059,0.358582,4.264832,-0.984192,1.0078311518533252
-0.474854,-0.887695,0.061035,0.297546,3.433227,-0.999451,1.008570277950922
-0.471436,-0.888916,0.063477,0.259399,2.426147,-0.862122,1.008192881685345
-0.47168,-0.890381,0.061523,0.205994,1.51062,-0.686645,1.0094777992061044
-0.473145,-0.889404,0.062744,0.099182,0.785828,-0.457764,1.009377271280169
-0.473877,-0.890137,0.05957,0.297546,0.617981,-0.358582,1.0101741804253364
-0.47168,-0.890137,0.055664,0.526428,0.846863,-0.175476,1.0089223865417003
-0.468506,-0.89502,0.050293,0.640869,1.228333,0.167847,1.0114781551200205
-0.46582,-0.899414,0.041992,0.938415,1.487732,0.465393,1.0137539858663935
-0.462646,-0.898193,0.036865,1.289368,1.63269,0.610352,1.0110148440008189
-0.46167,-0.900146,0.030762,1.434326,1.647949,0.770569,1.0121009390668503
-0.461426,-0.903076,0.024902,1.419067,1.564026,0.862122,1.0144359639011227
-0.45874,-0.904541,0.019531,1.358032,1.266479,0.930786,1.0144053766823202
-0.459717,-0.909912,0.012695,1.220703,0.87738,0.732422,1.0195296615881266
-0.460938,-0.912109,0.008301,1.075745,0.480652,0.473022,1.0219958778419802
-0.460693,-0.90918,0.004639,0.694275,0.358582,0.328064,1.0192486610096674
-0.461182,-0.907959,0.002686,0.205994,0.205994,0.175476,1.0183739968209125
-0.462646,-0.906982,0.000732,-0.068665,0.015259,0.099182,1.0181641348348507
-0.459717,-0.906494,0.003174,-0.427246,-0.228882,-0.045776,1.0164060047053047
-0.462646,-0.904785,0.007813,-0.75531,-0.427246,-0.030518,1.0162373052146827
-0.465332,-0.903076,0.010742,-0.770569,-0.617981,0.091553,1.0159702370463417
-0.467285,-0.900635,0.01416,-0.808716,-0.63324,0.259399,1.0147409423345448
-0.469482,-0.901855,0.022705,-0.831604,-0.473022,0.289917,1.0169913010316263
-0.472168,-0.901855,0.023682,-0.892639,-0.099182,0.297546,1.0182563028889142
-0.476074,-0.899414,0.026367,-0.87738,0.267029,0.38147,1.0179819328264132
-0.475586,-0.896484,0.032471,-0.732422,0.663757,0.450134,1.0153422927727378
-0.473877,-0.894775,0.033936,-0.556946,0.961304,0.480652,1.0130811240221584
-0.47168,-0.89502,0.039795,-0.75531,0.915527,0.602722,1.0124852911647655
-0.4729,-0.892578,0.041504,-0.709534,0.671387,0.640869,1.0109661112520043
-0.471191,-0.890869,0.041748,-0.63324,0.427246,0.732422,1.0086681461937816
-0.470459,-0.890381,0.038574,-0.62561,0.144958,0.801086,1.0077687975513034
-0.472168,-0.890869,0.038818,-0.518799,-0.1297,0.839233,1.0090079447204565
-0.471436,-0.889893,0.036865,-0.411987,-0.457764,0.88501,1.0077303616394617
-0.471924,-0.890137,0.032715,-0.267029,-0.785828,0.854492,1.0080309577438582
-0.472656,-0.891357,0.029053,-0.1297,-1.091003,0.785828,1.0093389285041967
-0.4729,-0.893555,0.026611,-0.167847,-1.373291,0.671387,1.011327391770835
-0.474854,-0.895264,0.026367,-0.259399,-1.449585,0.526428,1.0137451206792563
-0.476563,-0.896484,0.023193,-0.244141,-1.373291,0.495911,1.0155460454720897
-0.479492,-0.895264,0.021973,-0.297546,-1.182556,0.434875,1.0158213526447453
-0.476318,-0.897217,0.018799,-0.312805,-1.174927,0.396728,1.0159874923511607
-0.476074,-0.900146,0.015625,-0.366211,-1.167297,0.320435,1.0184072934818367
-0.476074,-0.898438,0.018311,-0.289917,-1.037598,0.320435,1.0169427643879472
-0.478027,-0.897705,0.018066,-0.335693,-0.770569,0.358582,1.0172071864227072
-0.478027,-0.895264,0.016357,-0.328064,-0.534058,0.434875,1.0150246272253693
-0.477539,-0.892822,0.016357,-0.312805,-0.305176,0.37384,1.0126411860348166
-0.478516,-0.894287,0.016357,-0.213623,-0.015259,0.259399,1.0143935883442876
-0.479248,-0.894043,0.017578,-0.213623,0.205994,0.221252,1.0145444876578849
-0.481445,-0.892822,0.020752,-0.175476,0.511169,0.1297,1.014569394971581
-0.482422,-0.893066,0.022217,-0.099182,0.709534,0.1297,1.0152790067410042
-0.480957,-0.894043,0.02417,-0.091553,1.045227,0.045776,1.0154884098787145
-0.480713,-0.892334,0.022217,-0.038147,1.449585,-0.061035,1.013823727782103
-0.479004,-0.892334,0.023193,0.030518,1.579285,-0.091553,1.0130363837597345
-0.477539,-0.891602,0.025146,0.015259,1.693725,-0.038147,1.0117459880034119
-0.476563,-0.891602,0.023438,0.068665,1.647949,-0.007629,1.0112446584368195
-0.475098,-0.892578,0.026855,0.152588,1.770019,-0.068665,1.0115012539354562
-0.474854,-0.892578,0.029785,0.297546,1.754761,-0.175476,1.0114687111448382
-0.474365,-0.891846,0.027832,0.404358,1.831055,-0.328064,1.0105375110133221
-0.470703,-0.894287,0.025146,0.465393,1.899719,-0.495911,1.010911902142813
-0.472412,-0.892578,0.026855,0.579834,1.831055,-0.701904,1.0102424337024256
-0.4729,-0.89624,0.024902,0.617981,1.876831,-0.839233,1.0136570708104393
-0.471924,-0.897217,0.020752,0.564575,1.716614,-0.87738,1.0139730037673587
-0.470947,-0.895264,0.017334,0.396728,1.434326,-0.961304,1.0117258393759645
-0.470459,-0.895508,0.017334,0.25177,1.12915,-1.052856,1.0117147405771056
-0.469971,-0.896484,0.017578,0.137329,0.778198,-1.113892,1.0123563054483338
-0.46875,-0.89624,0.02002,0.114441,0.564575,-1.121521,1.0116192468018785
-0.469238,-0.898438,0.022217,0.061035,0.038147,-1.045227,1.013838614167462
-0.473145,-0.897461,0.020996,0.083923,-0.37384,-1.00708,1.0147626666181604
-0.472412,-0.896729,0.024414,0.030518,-0.679016,-0.717163,1.013850107550914
-0.47168,-0.897461,0.023926,0.0,-0.976562,-0.511169,1.0141453162131155
-0.475586,-0.898682,0.023438,-0.167847,-1.00708,-0.434875,1.017035260138015
-0.476807,-0.899658,0.021484,-0.328064,-1.00708,-0.289917,1.0184257432277524
-0.476807,-0.895264,0.022217,-0.450134,-1.144409,-0.312805,1.0145620434621039
-0.477539,-0.892822,0.020264,-0.534058,-1.083374,-0.213623,1.0127118296440503
-0.477783,-0.891846,0.02002,-0.465393,-0.991821,-0.160217,1.011961799281475
-0.475586,-0.893555,0.023438,-0.389099,-1.197815,-0.183105,1.012507738866721
-0.472656,-0.893311,0.025635,-0.328064,-1.579285,-0.160217,1.010972497292582
-0.477295,-0.892578,0.0271,-0.259399,-2.037048,0.068665,1.0125415611761326
-0.477539,-0.894531,0.024414,-0.076294,-2.128601,0.076294,1.0143102335469163
-0.477051,-0.894287,0.022949,-0.015259,-1.945495,0.137329,1.013831125765529
-0.477783,-0.89209,0.019531,0.1297,-1.655578,0.091553,1.0121672901008014
-0.477539,-0.894531,0.018311,0.1297,-1.487732,0.076294,1.0141816894437603
-0.478271,-0.891846,0.018799,0.038147,-1.480102,0.12207,1.012168878971291
-0.479004,-0.889893,0.019043,-0.053406,-1.441955,0.007629,1.0108001876305723
-0.479004,-0.889893,0.019531,0.022888,-1.335144,-0.183105,1.0108094990778431
-0.480225,-0.890869,0.02002,-0.076294,-1.228333,-0.343323,1.012257094905242
-0.481445,-0.889404,0.020508,-0.114441,-1.243591,-0.473022,1.0115578783762202
-0.480713,-0.887451,0.022217,-0.144958,-1.121521,-0.541687,1.009528533949883
-0.482666,-0.886963,0.022705,-0.045776,-0.907898,-0.587463,1.0100422505766775
-0.483398,-0.888184,0.020752,0.083923,-0.679016,-0.602722,1.0114223102957538
-0.483154,-0.890137,0.023438,0.198364,-0.549316,-0.602722,1.0130799604814025
-0.484131,-0.892822,0.021973,0.297546,-0.450134,-0.679016,1.0158724140235327
-0.487305,-0.894287,0.024414,0.358582,-0.221252,-0.846863,1.0187303101361027
-0.487549,-0.89624,0.026367,0.183105,0.015259,-0.839233,1.0206102996197912
-0.489502,-0.893799,0.025391,0.12207,0.137329,-0.762939,1.019379008654779
-0.489746,-0.894531,0.023926,0.312805,0.389099,-0.717163,1.0201025967778927
-0.487549,-0.895752,0.02124,0.25177,0.488281,-0.610352,1.020062160118196
-0.487793,-0.89502,0.023926,0.152588,0.534058,-0.411987,1.0195956378511042
-0.485107,-0.892334,0.022949,0.259399,0.701904,-0.25177,1.0159308173325583
-0.484131,-0.892334,0.020752,0.442505,0.801086,-0.099182,1.015417863847687
-0.480225,-0.888916,0.018311,0.495911,0.915527,0.076294,1.0105063079476546
-0.478516,-0.886963,0.02002,0.457764,1.159668,0.213623,1.0080087926327825
-0.476318,-0.887451,0.022461,0.38147,1.243591,0.190735,1.007448564962996
-0.475586,-0.892578,0.023438,0.450134,1.38092,-0.030518,1.0116456243784184
-0.475586,-0.893799,0.021484,0.549316,1.63269,-0.358582,1.012679741109202
-0.474365,-0.89502,0.02002,0.679016,1.739502,-0.656128,1.0131553454554736
-0.4729,-0.89502,0.02124,0.572205,1.495361,-0.869751,1.0124951101116488
-0.471924,-0.897217,0.021729,0.564575,1.190186,-1.152039,1.0139934695578665
-0.471924,-0.899658,0.025146,0.572205,0.854492,-1.365662,1.016232798159949
-0.471924,-0.898438,0.024902,0.450134,0.62561,-1.556396,1.0151468914516755
-0.474609,-0.898438,0.023438,0.518799,0.427246,-1.609802,1.0163630663148873
-0.479004,-0.899658,0.023926,0.549316,0.488281,-1.502991,1.019510570056044
-0.479004,-0.896729,0.024902,0.572205,0.595093,-1.419067,1.0169502647922366
-0.479004,-0.895996,0.020752,0.63324,0.75531,-1.365662,1.0162107603917605
-0.47998,-0.894043,0.023682,0.610352,0.778198,-1.342773,1.0150145434293047
-0.479492,-0.895508,0.02417,0.747681,0.671387,-1.365662,1.0160862881802903
-0.481445,-0.896729,0.023682,0.793457,0.671387,-1.441955,1.018073192157617
-0.477295,-0.896973,0.023438,0.686645,0.534058,-1.358032,1.0163269255500418
-0.478516,-0.896973,0.026855,0.595093,0.419617,-1.228333,1.016985405996566
-0.480225,-0.893311,0.024658,0.602722,0.236511,-1.197815,1.014509048904937
-0.477783,-0.89209,0.023926,0.419617,0.12207,-1.121521,1.0122616344922888
-0.477539,-0.889893,0.024414,0.518799,0.320435,-0.900268,1.0102222979948523
-0.477295,-0.891357,0.0271,0.617981,0.465393,-0.770569,1.0114653866910126
-0.475098,-0.892578,0.026123,0.63324,0.480652,-0.671387,1.0114820842788073
-0.475342,-0.894531,0.023682,0.686645,0.526428,-0.50354,1.0132603634056747
-0.475342,-0.895264,0.024902,0.694275,0.328064,-0.488281,1.0139367614718384
-0.473877,-0.895752,0.025879,0.617981,0.038147,-0.366211,1.0137064561666753
-0.474121,-0.89502,0.025146,0.518799,-0.030518,-0.50354,1.0131553900350134
-0.473877,-0.894287,0.025879,0.488281,0.007629,-0.617981,1.0124121552702734
-0.475098,-0.892822,0.025391,0.495911,0.114441,-0.63324,1.0116787712357118
-0.475342,-0.891602,0.026611,0.480652,0.358582,-0.785828,1.0107483805027837
-0.474365,-0.891602,0.029541,0.602722,0.62561,-0.915527,1.0103706994514439
-0.473877,-0.894531,0.028076,0.724792,0.900268,-0.968933,1.0126862213272183
-0.472412,-0.895508,0.028809,0.785828,1.037598,-1.106262,1.0128857952844437
-0.474854,-0.895996,0.030518,0.831604,1.152039,-1.13678,1.014508009655912
-0.475586,-0.894531,0.026855,0.892639,1.205444,-1.00708,1.0134539675693217
-0.476074,-0.895752,0.028809,0.923157,1.213074,-1.075745,1.0148142970322207
-0.473145,-0.896729,0.026611,0.961304,1.304626,-1.304626,1.014247127571481
-0.473877,-0.895264,0.025391,0.839233,1.411438,-1.274109,1.0132629193383127
-0.475342,-0.896484,0.025146,0.785828,1.411438,-1.106262,1.0150201478473222
-0.473877,-0.897217,0.023682,0.740051,1.373291,-1.13678,1.0149475815735511
-0.474609,-0.896729,0.026367,0.831604,1.312256,-1.014709,1.014924539564888
-0.474609,-0.89624,0.025391,0.808716,1.426697,-0.915527,1.0144676157285653
-0.474609,-0.89502,0.025879,0.808716,1.464844,-0.808716,1.013402302110075
-0.473877,-0.895264,0.026123,0.839233,1.365662,-0.663757,1.0132815265038635
-0.474121,-0.895752,0.029053,0.892639,1.319885,-0.564575,1.0139065267340968
-0.473145,-0.895508,0.027832,0.75531,1.228333,-0.457764,1.013200567169699
-0.473633,-0.895752,0.02832,0.701904,1.060486,-0.350952,1.013657677222937
-0.47168,-0.89624,0.026611,0.709534,1.022339,-0.259399,1.0131319288824137
-0.471191,-0.898438,0.024658,0.572205,1.029968,-0.190735,1.0148003819909608
-0.470215,-0.897217,0.026123,0.579834,0.946045,-0.183105,1.0133029667592017
-0.471191,-0.895996,0.024658,0.50354,0.793457,-0.083923,1.0126390311759665
-0.471924,-0.894043,0.025391,0.473022,0.907898,0.022888,1.011271402990315
-0.469727,-0.893799,0.024902,0.595093,1.068115,0.0,1.010019908979026
-0.469238,-0.895752,0.022705,0.686645,1.167297,-0.068665,1.0114699516906076
-0.470947,-0.895996,0.026855,0.549316,1.12915,-0.183105,1.0125814040609278
-0.469238,-0.896729,0.025879,0.480652,1.060486,-0.274658,1.0124114394484092
-0.470459,-0.896973,0.029053,0.579834,0.930786,-0.366211,1.0132799762252287
-0.472412,-0.898682,0.0271,0.663757,0.854492,-0.488281,1.015646023409731
-0.474609,-0.902832,0.026611,0.679016,0.968933,-0.595093,1.0203271379444927
-0.474121,-0.901855,0.026855,0.602722,1.106262,-0.785828,1.0192420491183634
-0.474365,-0.902344,0.024414,0.518799,1.091003,-0.930786,1.0197268707634413
-0.476318,-0.89917,0.026123,0.640869,1.213074,-1.075745,1.0178742246235533
-0.473145,-0.897217,0.023926,0.823975,1.586914,-1.159668,1.0146117432742439
-0.473389,-0.896729,0.023438,0.88501,1.770019,-1.167297,1.014282694620193
-0.4729,-0.896729,0.019775,0.892639,1.846313,-1.228333,1.0139765086361714
-0.470703,-0.896484,0.022705,0.785828,2.006531,-1.121521,1.0127982985224648
-0.469971,-0.894043,0.02417,0.793457,2.090454,-1.113892,1.0103315374618373
-0.469482,-0.892578,0.02417,0.846863,2.243042,-1.014709,1.0088077236559998
-0.468262,-0.895264,0.018555,0.801086,2.349854,-0.656128,1.0105004791512966
-0.466797,-0.896484,0.025391,0.823975,2.311707,-0.488281,1.0110527703072674
-0.46582,-0.89502,0.026611,0.762939,2.449036,-0.38147,1.0093350375970311
-0.463623,-0.89624,0.025391,0.762939,2.204895,-0.404358,1.0093746215404864
-0.464355,-0.898438,0.025146,0.602722,1.853943,-0.411987,1.011656427442143
-0.464355,-0.89917,0.026123,0.434875,1.541138,-0.404358,1.0123313025161278
-0.462646,-0.900146,0.029785,0.37384,1.159668,-0.434875,1.0125173029914107
-0.462891,-0.900146,0.02832,0.343323,0.846863,-0.541687,1.012587241474531
-0.46167,-0.899414,0.02832,0.198364,0.556946,-0.694275,1.0113786406168563
-0.462646,-0.897949,0.027344,0.259399,0.320435,-0.831604,1.0104956319811582
-0.465088,-0.898193,0.029297,0.183105,0.0,-0.846863,1.0118872601243678
-0.465332,-0.896484,0.027832,0.038147,-0.289917,-0.976562,1.0104415137473322
-0.468018,-0.898926,0.026123,0.144958,-0.213623,-0.900268,1.0138003812038148
-0.467285,-0.897705,0.022949,0.12207,-0.144958,-0.953674,1.0123024226242867
-0.469482,-0.895508,0.023926,0.175476,0.015259,-1.174927,1.011395263912186
-0.469238,-0.898682,0.023682,0.137329,0.183105,-1.304626,1.0140880015521336
-0.471924,-0.899902,0.025879,0.091553,0.205994,-1.426697,1.0164672124672787
-0.471191,-0.900146,0.024902,0.25177,0.190735,-1.449585,1.016318793194832
-0.470215,-0.900391,0.023193,0.221252,0.221252,-1.38092,1.0160433132278368
-0.470703,-0.898926,0.020752,0.106812,0.175476,-1.274109,1.0149186731896305
-0.469727,-0.897705,0.021729,-0.099182,0.053406,-1.228333,1.0134050873145448
-0.469727,-0.901367,0.021973,-0.137329,-0.1297,-1.144409,1.0166556624280416
-0.470215,-0.903076,0.021729,0.022888,-0.106812,-1.083374,1.0183911613137655
-0.4729,-0.900146,0.019287,-0.068665,0.183105,-1.220703,1.0169902751182038
-0.471191,-0.896484,0.017822,-0.198364,0.427246,-1.197815,1.0129275119281733
-0.467773,-0.897705,0.020752,-0.083923,0.404358,-1.144409,1.0124803662580326
-0.465576,-0.897949,0.023926,-0.1297,0.167847,-1.167297,1.0117538593220192
-0.46582,-0.89917,0.022705,-0.160217,-0.152588,-1.152039,1.0129217533082207
-0.464355,-0.898682,0.022949,-0.228882,-0.37384,-1.113892,1.011820912884291
-0.465332,-0.897461,0.025391,-0.25177,-0.541687,-1.12915,1.0112441938651613
-0.469482,-0.898926,0.026367,-0.274658,-0.541687,-1.251221,1.0144833761521181
-0.466064,-0.898438,0.028076,-0.190735,-0.343323,-1.38092,1.0125190140022062
-0.464355,-0.899414,0.025879,-0.106812,-0.236511,-1.502991,1.0125417680579898
-0.465576,-0.897949,0.027588,-0.1297,-0.419617,-1.663208,1.0118470813917486
-0.466064,-0.895752,0.024658,-0.175476,-0.770569,-1.785278,1.010047184325564
-0.469238,-0.895752,0.022705,-0.144958,-1.182556,-1.777649,1.0114699516906076
-0.468018,-0.896729,0.024902,-0.053406,-1.365662,-1.754761,1.0118220482718292
-0.47168,-0.895508,0.026123,-0.053406,-1.274109,-1.739502,1.0124717337254407
-0.47168,-0.895996,0.025879,-0.038147,-0.984192,-1.625061,1.0128971206677408
-0.468994,-0.897705,0.023926,-0.015259,-0.701904,-1.556396,1.0131150440779173
-0.469238,-0.900146,0.020264,0.091553,-0.579834,-1.464844,1.0153116524772086
-0.469971,-0.899414,0.020996,0.144958,-0.602722,-1.449585,1.0150168058968285
-0.46875,-0.900391,0.020508,0.068665,-0.709534,-1.281738,1.0153083735717934
-0.466309,-0.901367,0.018555,-0.137329,-0.984192,-1.220703,1.015012729080281
-0.465332,-0.898682,0.016846,-0.236511,-1.38092,-1.12915,1.0121496900478704
-0.465332,-0.897705,0.016357,-0.366211,-1.724243,-1.091003,1.0112742895466096
-0.466309,-0.896484,0.017334,-0.465393,-1.991272,-1.045227,1.0106572679662478
-0.466797,-0.894775,0.019287,-0.37384,-2.128601,-0.968933,1.0094026591024021
-0.468262,-0.896729,0.020996,-0.297546,-2.120972,-0.87738,1.0118463480692115
-0.468018,-0.896973,0.021484,-0.358582,-1.991272,-0.900268,1.0119599662580532
-0.470459,-0.895508,0.025635,-0.221252,-1.731872,-1.00708,1.0118910030087231
-0.472412,-0.895752,0.024658,-0.076294,-1.647949,-1.014709,1.0129919842782567
-0.470947,-0.895752,0.021484,0.0,-1.51062,-0.968933,1.0122372669334991
-0.472412,-0.897217,0.021729,0.015259,-1.38092,-0.953674,1.01422068223538
-0.472656,-0.896973,0.02124,-0.061035,-1.228333,-0.869751,1.0141081770033216
-0.472412,-0.89624,0.023193,-0.045776,-1.014709,-0.846863,1.0133889433938974
-0.471924,-0.894531,0.020996,0.144958,-0.938415,-0.869751,1.0116020975428037
-0.469727,-0.894043,0.02124,0.198364,-0.75531,-0.793457,1.010152205352243
-0.469238,-0.895264,0.020508,0.190735,-0.740051,-0.778198,1.0109908547578461
-0.470459,-0.89624,0.020996,0.152588,-0.770569,-0.602722,1.012432042310495
-0.470703,-0.898438,0.022705,0.205994,-0.63324,-0.564575,1.014528299791583
-0.468506,-0.897461,0.020264,0.061035,-0.564575,-0.610352,1.012593081278457
-0.467285,-0.896484,0.021484,0.091553,-0.434875,-0.541687,1.011187616487168
-0.469238,-0.897217,0.021484,0.061035,-0.648498,-0.526428,1.0127409382408712
-0.468506,-0.897949,0.021973,0.183105,-0.671387,-0.427246,1.013061247588713
-0.467773,-0.898682,0.020264,0.274658,-0.564575,-0.38147,1.0133368375564957
-0.468018,-0.899902,0.024658,0.297546,-0.50354,-0.37384,1.0146292302570432
-0.468018,-0.897705,0.022217,0.427246,-0.541687,-0.228882,1.0126246641465928
-0.46875,-0.895752,0.020264,0.480652,-0.457764,-0.099182,1.0111917907597945
-0.46875,-0.895508,0.020508,0.419617,-0.320435,0.0,1.010980572824226
-0.466797,-0.89624,0.021973,0.434875,-0.221252,0.038147,1.0107563452870332
-0.463867,-0.893311,0.022705,0.404358,-0.160217,0.099182,1.0068230497138015
-0.465576,-0.897461,0.025635,0.350952,-0.282288,0.091553,1.0113626508438998
-0.465088,-0.895752,0.026611,0.320435,-0.389099,0.083923,1.0096467890153467
-0.466309,-0.897217,0.026123,0.450134,-0.602722,-0.038147,1.011496336967663
-0.467285,-0.899902,0.025879,0.434875,-0.762939,-0.190735,1.0143217455373812
-0.469971,-0.899658,0.0271,0.38147,-0.686645,-0.320435,1.0153775986326465
-0.469971,-0.89917,0.025879,0.289917,-0.541687,-0.289917,1.0149133718608696
-0.471191,-0.89917,0.026123,0.442505,-0.37384,-0.320435,1.0154851345588474
-0.46875,-0.897705,0.027832,0.534058,-0.099182,-0.289917,1.0131018950475812
-0.46875,-0.898193,0.027588,0.63324,0.091553,-0.198364,1.0135276639011883
-0.467041,-0.900391,0.028076,0.617981,0.25177,-0.228882,1.0147016853923128
-0.467773,-0.903076,0.023438,0.62561,0.343323,-0.152588,1.017303878469457
-0.468018,-0.901367,0.020264,0.747681,0.587463,-0.022888,1.015831652740256
-0.464111,-0.897461,0.019287,0.823975,0.762939,0.167847,1.0105479974800802
-0.462402,-0.896973,0.018066,0.801086,0.770569,0.267029,1.009307957309859
-0.460205,-0.897461,0.017334,0.717163,0.534058,0.335693,1.0087246185664351
-0.457764,-0.896729,0.019287,0.549316,0.068665,0.38147,1.0069969054103394
-0.460449,-0.895264,0.022949,0.411987,-0.38147,0.305176,1.0069943236672192
-0.461426,-0.895996,0.022461,0.228882,-0.602722,0.160217,1.0080809898083587
-0.464844,-0.897705,0.021973,0.083923,-0.617981,0.053406,1.0111562807449697
-0.4646,-0.900391,0.025391,0.061035,-0.556946,-0.12207,1.0135096525253224
-0.466797,-0.898926,0.030029,0.091553,-0.518799,-0.312805,1.0133455153727182
-0.466309,-0.898926,0.029541,0.244141,-0.450134,-0.343323,1.0131064641181597
-0.468506,-0.900879,0.032471,0.343323,-0.419617,-0.221252,1.0159405546182316
-0.46875,-0.902832,0.031738,0.198364,-0.404358,-0.137329,1.0177619974080383
-0.469971,-0.903809,0.030762,0.25177,-0.457764,0.061035,1.0191612973254036
-0.468262,-0.90332,0.031982,0.259399,-0.404358,0.213623,1.0179779817697434
-0.469727,-0.902588,0.0271,0.167847,-0.274658,0.228882,1.0178619563934002
-0.46875,-0.901855,0.026855,0.144958,-0.37384,0.312805,1.0167547366744845
-0.469482,-0.903076,0.025635,0.175476,-0.38147,0.457764,1.018143783227595
-0.468262,-0.900391,0.024414,0.213623,-0.335693,0.549316,1.0151695902266773
-0.463379,-0.899658,0.023438,0.152588,-0.419617,0.595093,1.0122519224229707
-0.461914,-0.895996,0.019531,0.015259,-0.518799,0.541687,1.008243440530609
-0.461182,-0.895508,0.018555,0.045776,-0.587463,0.495911,1.007456055226728
-0.461426,-0.897705,0.020996,-0.099182,-0.732422,0.404358,1.0095687458103089
-0.462402,-0.899414,0.022217,-0.297546,-0.999451,0.289917,1.011560550876219
-0.463135,-0.902344,0.024902,-0.236511,-0.854492,0.038147,1.0145633702066126
-0.466064,-0.903076,0.0271,-0.244141,-0.541687,-0.175476,1.0166102123586993
-0.46582,-0.903076,0.028076,-0.137329,-0.289917,-0.267029,1.0165248624367236
-0.464111,-0.899658,0.02832,-0.099182,-0.137329,-0.244141,1.012711982591793
-0.465088,-0.900879,0.029541,-0.022888,-0.221252,-0.274658,1.01427929638044
-0.466553,-0.902588,0.029785,0.015259,-0.320435,-0.228882,1.0164762396524574
-0.466553,-0.901855,0.031738,0.045776,-0.579834,-0.144958,1.0158845620827202
-0.467529,-0.900146,0.029053,-0.083923,-0.587463,-0.244141,1.014736549044135
-0.469482,-0.901367,0.0271,-0.114441,-0.534058,-0.267029,1.0166662318642241
-0.472168,-0.900635,0.028076,-0.106812,-0.411987,-0.358582,1.0172877101513613
-0.471436,-0.899658,0.028076,-0.114441,-0.366211,-0.442505,1.0160830088314636
-0.46875,-0.898682,0.026367,-0.183105,-0.335693,-0.495911,1.0139285568091077
-0.469482,-0.901367,0.025635,-0.213623,-0.488281,-0.656128,1.016628236002719
-0.470459,-0.898926,0.026367,-0.366211,-0.816345,-0.679016,1.0149358811501346
-0.47168,-0.899414,0.029297,-0.335693,-0.823975,-0.549316,1.0160147046204597
-0.471436,-0.896729,0.029785,-0.274658,-0.595093,-0.465393,1.0135393173241973
-0.471436,-0.89624,0.029297,-0.297546,-0.328064,-0.312805,1.01309247055982
-0.468506,-0.898193,0.028076,-0.144958,0.053406,-0.328064,1.0134282407062674
-0.466553,-0.897949,0.024902,-0.1297,0.12207,-0.213623,1.0122273549030376
-0.467285,-0.897217,0.025391,-0.236511,-0.022888,-0.160217,1.0119280207578996
-0.467041,-0.897705,0.024414,-0.267029,-0.274658,-0.12207,1.0122240888765688
-0.466797,-0.895508,0.022461,-0.244141,-0.617981,-0.083923,1.0101180692344829
-0.468018,-0.897705,0.025146,-0.343323,-0.923157,-0.12207,1.0126931601748872
-0.467285,-0.896973,0.026123,-0.396728,-1.159668,-0.099182,1.011730322310743
-0.468994,-0.897461,0.024414,-0.404358,-1.091003,-0.007629,1.0129104905928261
-0.46875,-0.895508,0.025879,-0.358582,-1.197815,-0.022888,1.011103784586429
-0.469238,-0.896973,0.02832,-0.335693,-1.022339,0.099182,1.0126928881813084
-0.468506,-0.897949,0.026611,-0.297546,-0.839233,0.106812,1.013172455191119
-0.470215,-0.89624,0.027832,-0.076294,-0.75531,0.030518,1.012483532729792
-0.468018,-0.897705,0.027588,0.007629,-0.648498,-0.083923,1.0127567393471149
-0.465088,-0.895752,0.026611,-0.015259,-0.564575,-0.289917,1.0096467890153467
-0.466064,-0.895752,0.026367,0.152588,-0.389099,-0.724792,1.010090350557315
-0.46875,-0.897217,0.026123,0.366211,-0.068665,-1.075745,1.0126239769618335
-0.467285,-0.895508,0.023926,0.419617,0.167847,-1.419067,1.010377307130856
-0.470215,-0.896973,0.021484,0.442505,0.328064,-1.64032,1.012977922370473
-0.471924,-0.898926,0.02002,0.457764,0.236511,-1.838684,1.0154708344664558
-0.472168,-0.898438,0.020508,0.37384,0.160217,-1.914978,1.015162074809732
-0.474609,-0.901123,0.018311,0.198364,0.022888,-1.678467,1.0186322480321346
-0.473389,-0.898926,0.020508,0.25177,-0.022888,-1.472473,1.0161622295977153
-0.473877,-0.896484,0.021484,0.144958,0.061035,-1.167297,1.0142507262215787
-0.471924,-0.896484,0.023682,0.12207,0.015259,-0.854492,1.0133887019086012
-0.471191,-0.894531,0.026611,0.190735,0.068665,-0.63324,1.0113925122142244
-0.467773,-0.893799,0.027588,0.228882,0.007629,-0.411987,1.0091825056321577
-0.467529,-0.89624,0.02832,0.228882,0.0,-0.297546,1.0112524540593215
-0.468994,-0.896973,0.025635,0.205994,-0.137329,-0.335693,1.012508315022647
-0.468994,-0.897217,0.02832,0.083923,-0.312805,-0.518799,1.0127960009424406
-0.470947,-0.897705,0.030273,-0.083923,-0.679016,-0.747681,1.0141902180375237
-0.472168,-0.897705,0.030273,-0.061035,-0.747681,-0.88501,1.0147577749285788
-0.472412,-0.896729,0.030273,-0.068665,-0.740051,-0.778198,1.0140081122525597
-0.474121,-0.89624,0.031494,-0.1297,-0.808716,-0.679016,1.0144105343878287
-0.476563,-0.897461,0.031494,-0.038147,-0.732422,-0.473022,1.01663189578431
-0.474609,-0.895508,0.027344,0.190735,-0.534058,-0.167847,1.0138717745755623
-0.470459,-0.896973,0.02417,0.152588,-0.358582,0.038147,1.0131517271909474
-0.470703,-0.895508,0.025635,0.205994,-0.282288,0.190735,1.0120044691096972
-0.469971,-0.896973,0.022461,0.366211,-0.289917,0.175476,1.0128858771307852
-0.470703,-0.897705,0.019287,0.450134,-0.068665,-0.1297,1.0138084481809175
-0.471191,-0.898682,0.019043,0.305176,0.213623,-0.343323,1.0148955273593436
-0.47168,-0.901611,0.018555,0.183105,0.511169,-0.747681,1.0177075737882666
-0.469971,-0.900146,0.01709,0.038147,0.747681,-1.060486,1.015592255906375
-0.46875,-0.899414,0.01709,-0.068665,0.816345,-1.235962,1.0143787132999196
-0.469238,-0.899902,0.02417,-0.068665,0.709534,-1.251221,1.0151808209122155
-0.471191,-0.901611,0.025146,0.076294,0.579834,-1.121521,1.0176225602442195
-0.473633,-0.9021,0.023682,0.030518,0.679016,-0.991821,1.0191533082971376
-0.474365,-0.897949,0.024658,0.213623,1.022339,-0.816345,1.0158457445842848
-0.471436,-0.894531,0.020264,0.389099,1.464844,-0.488281,1.0113596006134515
-0.468262,-0.892578,0.023438,0.511169,1.701355,-0.213623,1.0082232523464234
-0.467529,-0.89209,0.021729,0.511169,1.792908,-0.083923,1.0074125686043431
-0.464844,-0.893311,0.02002,0.190735,1.38092,0.022888,1.0072166040415538
-0.4646,-0.893799,0.022461,-0.053406,0.854492,-0.114441,1.0075883628357365
-0.466797,-0.895996,0.026367,-0.144958,0.1297,-0.511169,1.0106450860287206
-0.468994,-0.900879,0.027344,-0.289917,-0.579834,-0.816345,1.0160147828712929
-0.47168,-0.9021,0.029297,-0.267029,-0.953674,-1.029968,1.0183932180690325
-0.47583,-0.901855,0.030762,-0.114441,-0.816345,-1.220703,1.0201484845692808
-0.476807,-0.901367,0.029541,0.190735,-0.137329,-1.243591,1.0201372724388615
-0.476318,-0.901367,0.026367,0.358582,0.694275,-1.289368,1.0198218101717573
-0.476074,-0.900146,0.021484,0.602722,1.365662,-1.152039,1.018514033800222
-0.473145,-0.898193,0.017822,0.663757,2.006531,-0.976562,1.0153494373652847
-0.472168,-0.897949,0.018555,0.701904,2.532959,-0.900268,1.0146917339024695
-0.472656,-0.897217,0.018066,0.930786,3.028869,-0.854492,1.0142625004312247
-0.468262,-0.896484,0.016113,0.953674,3.494262,-0.732422,1.0115396639128889
-0.464111,-0.897461,0.014404,0.869751,3.715515,-0.556946,1.0104665962108792
-0.462402,-0.899658,0.012695,0.62561,3.456115,-0.610352,1.0116132114563352
-0.458984,-0.898193,0.014893,0.495911,2.89154,-0.549316,1.008780837919714
-0.455566,-0.897949,0.018555,0.320435,1.899719,-0.488281,1.0070735201473624
-0.455811,-0.897705,0.023438,0.25177,0.976562,-0.450134,1.0070686543577851
-0.458252,-0.896973,0.0271,-0.007629,0.12207,-0.350952,1.0076159328995349
-0.45874,-0.900146,0.030518,-0.053406,-0.427246,-0.389099,1.0107603856701153
-0.461182,-0.9021,0.032959,-0.1297,-0.457764,-0.518799,1.0136861165099382
-0.460449,-0.899414,0.03418,-0.091553,-0.335693,-0.686645,1.0110030155231982
-0.459717,-0.898193,0.031982,-0.076294,-0.228882,-0.686645,1.0095113836217995
-0.45874,-0.895752,0.031738,0.083923,-0.534058,-0.434875,1.0068869518213055
-0.459717,-0.89502,0.031006,0.175476,-1.014709,-0.358582,1.0066587766095323
-0.46167,-0.895508,0.029785,0.106812,-1.449585,-0.404358,1.007948864372097
-0.463623,-0.895996,0.0271,0.091553,-1.838684,-0.434875,1.0092024217891078
-0.46875,-0.897705,0.027344,-0.045776,-1.953125,-0.495911,1.013088606125348
-0.470703,-0.900635,0.0271,0.167847,-1.777649,-0.740051,1.0165820810116613
-0.473389,-0.89917,0.023438,0.12207,-1.441955,-0.968933,1.0164414267752964
-0.473877,-0.899414,0.02417,0.053406,-0.999451,-1.091003,1.0169017373497795
-0.474609,-0.899658,0.022217,0.053406,-0.63324,-1.174927,1.0174142789119878
-0.475098,-0.89917,0.02002,-0.076294,-0.457764,-1.228333,1.0171654727250625
-0.473633,-0.898438,0.019531,0.091553,-0.221252,-1.037598,1.0158250432500668
-0.473877,-0.896973,0.019043,0.213623,-0.015259,-0.808716,1.0146342245888418
-0.474854,-0.897949,0.018066,0.244141,0.343323,-0.572205,1.0159355827379017
-0.472168,-0.898438,0.018311,0.419617,0.785828,-0.228882,1.0151200681638601
-0.472168,-0.900635,0.019043,0.518799,1.213074,0.007629,1.017078492201069
-0.467773,-0.901123,0.019287,0.50354,1.556396,0.114441,1.015483249013493
-0.463135,-0.9021,0.018555,0.450134,1.411438,0.289917,1.0142103954554993
-0.463379,-0.900391,0.018311,0.526428,1.152039,0.335693,1.012797780034593
-0.463135,-0.899658,0.019775,0.579834,0.686645,0.305176,1.0120620513654288
-0.460205,-0.899658,0.020508,0.488281,0.221252,0.213623,1.0107392032829239
-0.461182,-0.897461,0.022461,0.488281,-0.144958,0.137329,1.0092718068815751
-0.460205,-0.896729,0.025879,0.62561,-0.343323,-0.030518,1.0082565467712075
-0.463623,-0.895264,0.028076,0.656128,-0.63324,-0.114441,1.0085792867201864
-0.465332,-0.895752,0.030029,0.579834,-0.762939,-0.137329,1.0098550671106226
-0.466797,-0.894531,0.027832,0.602722,-0.62561,-0.152588,1.009385837722127
-0.46875,-0.893799,0.027832,0.648498,-0.610352,-0.106812,1.0096424293407047
-0.468018,-0.894531,0.027832,0.579834,-0.442505,-0.007629,1.0099510772849347
-0.470947,-0.893311,0.026611,0.694275,-0.50354,0.0,1.010199863814582
-0.474365,-0.895264,0.025635,0.648498,-0.541687,0.0,1.013497378460349
-0.474365,-0.897217,0.023926,0.488281,-0.457764,0.137329,1.0151812408580057
-0.474609,-0.896484,0.025391,0.610352,-0.25177,0.099182,1.0146831860329606
-0.477539,-0.901367,0.024902,0.549316,-0.1297,0.160217,1.0203558569508973
-0.474854,-0.900635,0.026123,0.274658,0.030518,0.297546,1.0184852162255473
-0.472412,-0.899902,0.024658,0.259399,0.099182,0.236511,1.0166635256130712
-0.472168,-0.900879,0.023438,0.152588,0.137329,0.282288,1.017386324219566
-0.471191,-0.89917,0.021729,0.190735,0.137329,0.434875,1.0153816015774564
-0.468262,-0.897949,0.022949,0.328064,0.1297,0.450134,1.0129700705578621
-0.466309,-0.897949,0.025146,0.434875,0.137329,0.419617,1.0121209470206611
-0.466309,-0.898926,0.02417,0.450134,0.038147,0.541687,1.0129640792530603
-0.463379,-0.897461,0.022705,0.434875,-0.12207,0.465393,1.01028305993271
-0.464844,-0.89917,0.022461,0.427246,-0.083923,0.473022,1.0124678413446029
-0.4646,-0.898438,0.022217,0.37384,-0.289917,0.389099,1.0117003483902731
-0.466309,-0.898193,0.022217,0.289917,-0.236511,0.175476,1.0122689088473478
-0.464355,-0.900879,0.021484,0.320435,-0.244141,0.038147,1.0137406477605602
-0.466309,-0.89917,0.022949,0.320435,-0.274658,-0.015259,1.0131522239930186
-0.467529,-0.89917,0.024658,0.305176,-0.404358,-0.137329,1.013754443494577
-0.470459,-0.897705,0.025635,0.274658,-0.595093,-0.25177,1.0138358303645614
-0.473389,-0.900635,0.023682,0.305176,-0.648498,-0.312805,1.017743280827734
-0.475342,-0.900391,0.025391,0.236511,-0.50354,-0.473022,1.0184786069063994
-0.474365,-0.898926,0.024902,0.213623,-0.396728,-0.343323,1.0167154057576782
-0.473633,-0.895752,0.026367,0.25177,-0.167847,-0.312805,1.0136049935167053
-0.474854,-0.896729,0.025146,0.419617,-0.045776,-0.350952,1.0150081487717229
-0.474121,-0.893799,0.025635,0.579834,0.274658,-0.343323,1.0120891898775521
-0.474609,-0.89624,0.025391,0.671387,0.62561,-0.228882,1.0144676157285653
-0.474365,-0.898682,0.024658,0.740051,0.976562,-0.205994,1.016493732057901
-0.47168,-0.898926,0.023193,0.839233,1.335144,-0.244141,1.0154249805500157
-0.470703,-0.897217,0.022461,0.770569,1.564026,-0.236511,1.0134417377525953
-0.467773,-0.895996,0.021729,0.808716,1.541138,-0.045776,1.0109859351079025
-0.467285,-0.899902,0.02002,0.701904,1.266479,-0.061035,1.0141891742811102
-0.466309,-0.901611,0.019043,0.534058,0.961304,0.022888,1.0152384521140834
-0.466553,-0.901123,0.021729,0.38147,0.549316,0.061035,1.0149711879551064
-0.466309,-0.898682,0.022705,0.305176,0.221252,0.0,1.0127136503622334
-0.467041,-0.897217,0.021729,0.091553,0.015259,0.0,1.0117300975116832
-0.466797,-0.895752,0.026611,0.007629,-0.198364,-0.061035,1.0104351686446784
-0.468262,-0.895264,0.025635,0.022888,-0.091553,-0.1297,1.0106552743467971
-0.468262,-0.89624,0.025635,0.030518,-0.015259,-0.205994,1.011519941211739
-0.468994,-0.895752,0.028809,0.053406,-0.053406,-0.297546,1.0115122223784545
-0.46875,-0.899414,0.03125,0.099182,-0.183105,-0.106812,1.0147160530887447
-0.469971,-0.900879,0.03125,0.106812,-0.312805,-0.030518,1.0165787111591507
-0.472412,-0.899902,0.03125,-0.007629,-0.419617,-0.030518,1.0168447619218972
-0.47168,-0.898926,0.029053,-0.106812,-0.259399,0.007629,1.0155757247418824
-0.471436,-0.900879,0.025879,-0.068665,-0.114441,0.022888,1.0171059912211706
-0.4729,-0.902344,0.026367,0.068665,0.099182,0.1297,1.0190948547730971
-0.4729,-0.900146,0.023926,0.091553,0.106812,0.083923,1.017088828368496
-0.471924,-0.89917,0.024658,-0.038147,0.099182,0.167847,1.0157888400843946
-0.471436,-0.896484,0.021973,0.015259,0.144958,0.259399,1.0131230315618138
-0.468506,-0.893799,0.020752,-0.038147,-0.030518,0.236511,1.0093587914815028
-0.466553,-0.89624,0.021484,-0.274658,-0.320435,0.221252,1.0106331686942598
-0.466553,-0.900391,0.025879,-0.305176,-0.762939,0.1297,1.0144187386533237
-0.468262,-0.900879,0.023682,-0.297546,-0.907898,0.076294,1.0155851074178865
-0.468994,-0.895752,0.022461,-0.335693,-0.854492,0.0,1.011351330676437
-0.467773,-0.893799,0.023193,-0.205994,-0.709534,-0.091553,1.0090719236897834
-0.467285,-0.894531,0.023926,-0.167847,-0.679016,-0.1297,1.0095114831749068
-0.466309,-0.895996,0.025635,-0.106812,-0.732422,-0.152588,1.0104009445373654
-0.467041,-0.89502,0.022461,-0.076294,-0.732422,-0.205994,1.00979829302787
-0.468994,-0.894775,0.024414,-0.1297,-0.87738,-0.236511,1.0105314028059693
-0.47168,-0.896973,0.026855,-0.198364,-0.831604,-0.343323,1.013786849467875
-0.470703,-0.896973,0.026855,-0.114441,-0.709534,-0.549316,1.0133326541481824
-0.469482,-0.897217,0.025146,-0.144958,-0.663757,-0.656128,1.0129383074644773
-0.470459,-0.898926,0.023193,-0.267029,-0.62561,-0.709534,1.014858383916692
-0.468994,-0.898193,0.025146,-0.335693,-0.823975,-0.732422,1.0135770116774552
-0.469727,-0.898193,0.02417,-0.442505,-1.296997,-0.679016,1.0138926514567508
-0.472412,-0.897705,0.024902,-0.617981,-1.876831,-0.450134,1.0147253196668544
-0.472412,-0.895508,0.025879,-0.663757,-2.197266,-0.267029,1.0128066935249787
-0.4729,-0.89209,0.029053,-0.816345,-2.403259,0.12207,1.01010051723034
-0.472412,-0.894775,0.031006,-0.946045,-2.624511,0.289917,1.012302706903918
-0.470459,-0.895264,0.031738,-1.197815,-2.723694,0.465393,1.0118481116358324
-0.471191,-0.892334,0.033936,-1.083374,-2.807617,0.572205,1.0096695390735526
-0.471191,-0.890137,0.035645,-0.946045,-2.784729,0.518799,1.0077873799939152
-0.471924,-0.893066,0.032715,-0.869751,-2.578735,0.343323,1.0106183321892592
-0.471924,-0.896484,0.030762,-0.732422,-2.5177,0.099182,1.013578869489691
-0.469971,-0.897705,0.026123,-0.663757,-2.388,-0.167847,1.0136219309954773
-0.470459,-0.900879,0.024414,-0.63324,-2.365112,-0.289917,1.0166172764211712
-0.471191,-0.900391,0.019043,-0.724792,-2.449036,-0.62561,1.0164091436085176
-0.473145,-0.899414,0.016846,-0.740051,-2.342224,-0.923157,1.0164130666894244
-0.473633,-0.897949,0.016357,-0.595093,-1.823425,-1.121521,1.0153364844912252
-0.475586,-0.897217,0.016113,-0.419617,-1.251221,-1.319885,1.015598354298588
-0.474609,-0.898926,0.015381,-0.411987,-0.923157,-1.327515,1.0166406599767688
-0.476074,-0.897949,0.012695,-0.38147,-0.617981,-1.266479,1.0164251192793299
-0.476318,-0.899658,0.01416,-0.465393,-0.343323,-1.167297,1.018068691045943
-0.477539,-0.897461,0.01709,-0.648498,-0.144958,-1.022339,1.0167456963970882
-0.477539,-0.898438,0.020752,-0.762939,-0.076294,-1.060486,1.0176762657490839
-0.475586,-0.899414,0.022949,-0.701904,-0.167847,-1.037598,1.017670989757004
-0.473633,-0.900879,0.025391,-0.717163,-0.350952,-0.930786,1.0181138905893583
-0.471924,-0.901855,0.029053,-0.808716,-0.50354,-0.740051,1.0182822691228597
-0.473145,-0.901123,0.029785,-0.62561,-0.793457,-0.518799,1.0182219789314115
-0.472412,-0.896973,0.030273,-0.526428,-1.121521,-0.305176,1.0142238978657523
-0.469971,-0.895264,0.029297,-0.640869,-1.464844,-0.114441,1.0115476680542543
-0.468994,-0.892822,0.026855,-0.747681,-1.747131,0.175476,1.0088645532205995
-0.468018,-0.891602,0.024902,-0.62561,-2.044678,0.282288,1.0072810354275512
-0.469971,-0.891602,0.022705,-0.602722,-2.334595,0.404358,1.0081380779784086
-0.469482,-0.889893,0.025879,-0.595093,-2.563476,0.434875,1.0064753461530989
-0.469971,-0.88916,0.024658,-0.450134,-2.578735,0.244141,1.0060249815014535
-0.473145,-0.890625,0.022705,-0.152588,-2.471924,0.053406,1.008758939824079
-0.479004,-0.893066,0.023438,-0.068665,-2.288818,-0.244141,1.0136868610256327
-0.480469,-0.894775,0.019775,0.015259,-1.792908,-0.511169,1.015806975370321
-0.481445,-0.895996,0.022705,-0.076294,-1.205444,-0.732422,1.017405345506893
-0.480713,-0.896484,0.02124,0.007629,-0.915527,-0.938415,1.017457462612074
-0.483643,-0.898438,0.016113,0.022888,-0.694275,-1.045227,1.0204709795295503
-0.484863,-0.900391,0.01709,0.175476,-0.320435,-0.999451,1.0227845079732094
-0.485352,-0.897949,0.018066,0.267029,0.190735,-0.900268,1.0208845923320617
-0.484375,-0.898926,0.01709,0.25177,0.823975,-0.953674,1.0212635126161123
-0.481445,-0.895508,0.015625,0.419617,1.426697,-0.907898,1.0168421739453966
-0.476563,-0.895752,0.014648,0.518799,1.899719,-0.801086,1.014740608420201
-0.471191,-0.894287,0.017822,0.564575,2.02179,-0.640869,1.0109835906353772
-0.469238,-0.893555,0.019287,0.534058,1.869202,-0.495911,1.0094537270415123
-0.467773,-0.891846,0.022705,0.495911,1.51062,-0.556946,1.0073313180230226
-0.466309,-0.889648,0.026367,0.450134,1.190186,-0.679016,1.0047949373250245
-0.465576,-0.893555,0.026855,0.335693,0.984192,-0.801086,1.0079299285297565
-0.469971,-0.895996,0.028809,0.297546,0.724792,-0.923157,1.0121815703410135
-0.469971,-0.895264,0.029541,0.236511,0.709534,-1.037598,1.0115547643197575
-0.469971,-0.895752,0.029541,0.312805,0.534058,-0.984192,1.0119866881664008
-0.470947,-0.897217,0.029785,0.305176,0.190735,-0.923157,1.0137438375265222
-0.471436,-0.898682,0.031738,0.274658,-0.007629,-0.831604,1.0153268143134997
-0.470703,-0.898682,0.032715,0.38147,-0.167847,-0.656128,1.0150176956871244
-0.4729,-0.900146,0.027588,0.312805,-0.167847,-0.366211,1.0171815615021735
-0.471924,-0.899902,0.025635,0.289917,-0.091553,-0.205994,1.0164610295554866
-0.471191,-0.9021,0.021484,0.221252,0.099182,-0.267029,1.0179719695242104
-0.468506,-0.903564,0.02002,0.198364,0.106812,-0.12207,1.0180012645041263
-0.467041,-0.901855,0.018311,0.137329,0.083923,-0.152588,1.0157780414180058
-0.464355,-0.901855,0.017822,0.167847,0.045776,-0.305176,1.014537150987582
-0.463135,-0.899658,0.015869,0.091553,-0.007629,-0.511169,1.0119932659607969
-0.460205,-0.895996,0.014648,-0.053406,-0.091553,-0.617981,1.0073787956598055
-0.458984,-0.896973,0.014404,-0.160217,-0.427246,-0.671387,1.0076876253090539
-0.459717,-0.894775,0.016357,-0.343323,-0.778198,-0.747681,1.0060962042285022
-0.462646,-0.898438,0.020996,-0.312805,-0.984192,-0.88501,1.0107784095319805
-0.465576,-0.902344,0.022949,-0.297546,-1.159668,-0.976562,1.0156339708344735
-0.464844,-0.900635,0.022705,-0.335693,-1.25885,-0.923157,1.0137745630000783
-0.467285,-0.899658,0.028564,-0.450134,-1.411438,-0.88501,1.0141773465646922
-0.468506,-0.897705,0.027588,-0.289917,-1.525879,-0.923157,1.0129823477262572
-0.46875,-0.89624,0.025879,-0.289917,-1.533508,-0.900268,1.0117521547992867
-0.469238,-0.898438,0.029785,-0.25177,-1.63269,-1.045227,1.0140326852291301
-0.468506,-0.898193,0.031006,-0.205994,-1.792908,-0.923157,1.0135136453551081
-0.469971,-0.895508,0.030029,-0.228882,-2.037048,-0.976562,1.0117850857499333
-0.469482,-0.896973,0.029053,-0.289917,-2.13623,-1.091003,1.0128267314116468
-0.47168,-0.895752,0.026367,-0.267029,-2.029419,-1.235962,1.0126938760518895
-0.472412,-0.894531,0.021729,-0.289917,-1.976013,-1.541138,1.0118453227376207
-0.474121,-0.895752,0.020996,-0.358582,-1.937866,-1.63269,1.013707650242909
-0.477783,-0.896729,0.020264,-0.335693,-1.89209,-1.548767,1.016272662343133
-0.477783,-0.899414,0.020264,-0.267029,-1.792908,-1.403808,1.0186426106250417
-0.475586,-0.897461,0.019531,-0.320435,-1.533508,-1.289368,1.0158738848292144
-0.474854,-0.897705,0.02002,-0.221252,-1.411438,-1.121521,1.0157565597824116
-0.475586,-0.894287,0.019531,-0.25177,-1.281738,-1.022339,1.013070946047709
-0.476807,-0.893311,0.02002,-0.221252,-1.12915,-0.75531,1.0127932949866918
-0.47583,-0.895264,0.019287,-0.083923,-1.022339,-0.50354,1.0140432963956716
-0.471436,-0.893066,0.017334,-0.091553,-1.00708,-0.320435,1.010009529661973
-0.47168,-0.892578,0.016846,-0.083923,-1.113892,-0.366211,1.0096837604913729
-0.470459,-0.894531,0.018555,-0.144958,-1.144409,-0.511169,1.0108717370007927
-0.472168,-0.895508,0.019775,-0.137329,-1.365662,-0.62561,1.012555306594657
-0.47168,-0.897461,0.023926,-0.106812,-1.365662,-0.75531,1.0141453162131155
-0.474365,-0.894531,0.027832,-0.030518,-1.373291,-0.87738,1.0129079343207852
-0.476318,-0.894287,0.027588,0.205994,-0.976562,-0.953674,1.0136020783507698
-0.475342,-0.896973,0.025635,0.442505,-0.549316,-1.014709,1.015464294260512
-0.475098,-0.89624,0.022705,0.450134,-0.061035,-0.968933,1.014632822369255
-0.475342,-0.893799,0.020996,0.511169,0.289917,-1.029968,1.0125549374631484
-0.476318,-0.89502,0.02002,0.564575,0.457764,-1.098633,1.0140712193549326
-0.472656,-0.895752,0.020996,0.602722,0.579834,-1.068115,1.0130232829782344
-0.473389,-0.897461,0.021973,0.663757,0.541687,-1.106262,1.0148971398969453
-0.474365,-0.895752,0.02417,0.63324,0.595093,-1.152039,1.0138924931317916
-0.475586,-0.898193,0.02002,0.671387,0.869751,-1.319885,1.0165301318923115
-0.475342,-0.89917,0.021484,0.671387,1.243591,-1.457214,1.017309327648184
-0.4729,-0.898682,0.020996,0.640869,1.441955,-1.449585,1.0157285952162616
-0.470703,-0.901611,0.021973,0.511169,1.464844,-1.304626,1.0173232142534643
-0.469238,-0.899902,0.023438,0.450134,1.091003,-1.13678,1.0151636568021927
-0.467529,-0.896973,0.025391,0.38147,0.694275,-0.831604,1.011824407420082
-0.465576,-0.897217,0.027588,0.427246,0.50354,-0.541687,1.0111975349104645
-0.465088,-0.895752,0.028809,0.556946,0.724792,-0.221252,1.009707111854225
-0.46167,-0.894775,0.027832,0.663757,0.892639,-0.106812,1.0072418328033244
-0.458984,-0.897705,0.026367,0.808716,0.839233,-0.152588,1.0085810815051013
-0.457275,-0.899902,0.026367,0.778198,0.717163,-0.328064,1.0097619788435293
-0.456055,-0.9021,0.025879,0.785828,0.259399,-0.679016,1.0111578984837135
-0.458008,-0.904297,0.025879,0.801086,-0.228882,-1.121521,1.0139990704699882
-0.459717,-0.905518,0.025879,0.663757,-0.526428,-1.556396,1.0158603698609372
-0.462646,-0.906982,0.024658,0.488281,-0.694275,-1.998901,1.0184624129559223
-0.467529,-0.905518,0.024414,0.541687,-0.541687,-2.243042,1.0193832731416579
-0.468262,-0.900879,0.022461,0.526428,-0.389099,-2.26593,1.0155573690373183
-0.470947,-0.897949,0.02417,0.511169,-0.213623,-2.082825,1.0142424129910956
-0.470215,-0.901855,0.026855,0.488281,-0.030518,-1.785278,1.0174309697836998
-0.468262,-0.902832,0.027344,0.480652,-0.045776,-1.403808,1.0174097577692087
-0.467773,-0.898682,0.027588,0.465393,-0.030518,-1.12915,1.0135097505189579
-0.465088,-0.896484,0.02417,0.63324,0.25177,-1.00708,1.0102349226293852
-0.4646,-0.897217,0.024902,0.732422,0.305176,-0.808716,1.0106787890784095
-0.46167,-0.894531,0.024902,0.694275,0.312805,-0.717163,1.0069483643489372
-0.460938,-0.894043,0.025635,0.656128,0.175476,-0.595093,1.0061977335086778
-0.458984,-0.895752,0.025391,0.419617,-0.37384,-0.587463,1.0068180871642105
-0.462646,-0.898438,0.028076,0.160217,-1.045227,-0.801086,1.0109502573994429
-0.463135,-0.901367,0.029297,0.007629,-1.358032,-0.938415,1.0138120196185287
-0.465088,-0.901855,0.032227,-0.030518,-1.434326,-1.106262,1.01522798833464
-0.469238,-0.899902,0.033203,0.228882,-1.029968,-1.220703,1.015436039077302
-0.467041,-0.898682,0.028564,0.427246,-0.289917,-1.228333,1.013199158557191
-0.462891,-0.898926,0.027344,0.572205,0.25177,-1.113892,1.011476013404668
-0.462402,-0.899658,0.02832,0.511169,0.205994,-0.968933,1.0119299130710584
-0.463135,-0.902588,0.024902,0.305176,-0.213623,-0.732422,1.0147803878539434
-0.461914,-0.901367,0.023682,0.183105,-0.63324,-0.572205,1.0131080145813673
-0.46582,-0.903564,0.025879,-0.114441,-1.12915,-0.556946,1.0169001411825056
-0.467285,-0.906006,0.027832,-0.190735,-1.625061,-0.556946,1.0197925100161307
-0.46582,-0.902344,0.023926,-0.25177,-1.594543,-0.305176,1.0157683890592384
-0.467041,-0.900635,0.022705,-0.1297,-1.472473,-0.236511,1.0147838271922744
-0.469482,-0.899902,0.022705,-0.045776,-1.495361,-0.045776,1.015259806627348
-0.467773,-0.898682,0.018555,-0.022888,-1.502991,0.1297,1.0133041027638248
-0.465088,-0.896484,0.021973,-0.053406,-1.556396,0.25177,1.0101847468304992
-0.466309,-0.896973,0.025879,-0.38147,-1.876831,0.183105,1.0112736369801203
-0.470947,-0.898926,0.028809,-0.350952,-1.876831,0.091553,1.0152285401652181
-0.474365,-0.89624,0.029541,-0.137329,-1.350403,-0.045776,1.0144658503399708
-0.474854,-0.89502,0.02832,0.0,-0.50354,-0.144958,1.0135823321842188
-0.469727,-0.895752,0.028809,0.183105,0.228882,-0.244141,1.0118522908577121
-0.467041,-0.897705,0.02832,0.282288,0.572205,-0.213623,1.0123258295163666
-0.466309,-0.899414,0.026855,0.167847,0.724792,-0.25177,1.0134647590824262
-0.464844,-0.900635,0.0271,0.038147,0.694275,-0.152588,1.0138825166462826
-0.460449,-0.902832,0.026611,-0.038147,0.541687,-0.152588,1.013818054261217
-0.45874,-0.905273,0.027588,-0.213623,0.25177,-0.106812,1.0152451378228806
-0.459473,-0.905273,0.02832,-0.350952,0.114441,-0.244141,1.0155967037451432
-0.45752,-0.907227,0.027344,-0.495911,-0.114441,-0.37384,1.0164315393891514
-0.454346,-0.908936,0.025391,-0.595093,-0.411987,-0.488281,1.0164839608636231
-0.454346,-0.908691,0.0271,-0.663757,-1.152039,-0.488281,1.0163090234751435
-0.455078,-0.907471,0.028809,-0.724792,-1.922607,-0.465393,1.0155932061637671
-0.455566,-0.903564,0.028564,-0.785828,-2.388,-0.289917,1.0123162473002199
-0.456055,-0.899414,0.029541,-0.656128,-2.540588,-0.221252,1.0088629129381257
-0.457275,-0.897217,0.029541,-0.671387,-2.441406,-0.167847,1.007457910483113
-0.459229,-0.897217,0.027832,-0.62561,-2.26593,-0.205994,1.008297694014025
-0.459717,-0.895752,0.026367,-0.610352,-2.410889,-0.205994,1.0071775336463775
-0.460693,-0.893066,0.025635,-0.75531,-2.876281,-0.25177,1.0052174261471993
-0.466797,-0.894043,0.025635,-0.831604,-3.242492,-0.419617,1.0088951770540882
-0.469482,-0.894531,0.028076,-0.793457,-3.349304,-0.457764,1.0106370862287808
-0.469482,-0.895752,0.026367,-0.793457,-3.356933,-0.450134,1.0116719885995658
-0.473389,-0.895508,0.029785,-0.717163,-3.219604,-0.450134,1.013370055611473
-0.474854,-0.896484,0.029785,-0.724792,-2.983093,-0.198364,1.0149172526846708
-0.474854,-0.896973,0.030518,-0.579834,-2.716064,0.083923,1.0153709826309791
-0.473877,-0.897217,0.0271,-0.411987,-2.532959,0.221252,1.0150330862676349
-0.474365,-0.895508,0.028076,-0.297546,-2.197266,0.312805,1.013777585600017
-0.473633,-0.897949,0.029053,-0.068665,-1.869202,0.366211,1.0156203533304164
-0.469727,-0.896484,0.024414,0.076294,-1.502991,0.305176,1.0123848379845481
-0.469971,-0.895752,0.025635,0.259399,-1.152039,0.228882,1.0118802002065264
-0.469238,-0.898438,0.024414,0.312805,-0.778198,0.152588,1.0138891378666604
-0.469482,-0.899902,0.023438,0.297546,-0.335693,-0.099182,1.0152764637141944
-0.469727,-0.901611,0.022217,0.282288,0.205994,-0.419617,1.0168773008278826
-0.469727,-0.9021,0.022217,0.236511,0.732422,-0.63324,1.0173108962446042
-0.467285,-0.903076,0.025391,0.076294,1.045227,-0.846863,1.0171264601228305
-0.466553,-0.902344,0.024902,0.038147,1.266479,-1.029968,1.0161281935607338
-0.464355,-0.90332,0.026367,0.099182,1.235962,-1.091003,1.0160254953070813
-0.465088,-0.904785,0.026855,-0.015259,1.045227,-1.022339,1.0176757514031667
-0.465332,-0.904297,0.02832,-0.030518,0.770569,-0.839233,1.0173932164276505
-0.462646,-0.904053,0.025879,0.061035,0.541687,-0.701904,1.0158852645678054
-0.463379,-0.904297,0.024658,0.091553,0.350952,-0.534058,1.0164060108116244
-0.463867,-0.904785,0.026367,0.198364,-0.068665,-0.534058,1.017105554307418
-0.465576,-0.903564,0.027832,0.12207,-0.427246,-0.617981,1.0168399746744814
-0.467285,-0.900879,0.029541,0.022888,-0.358582,-0.732422,1.0152885868298729
-0.469482,-0.898926,0.025635,0.022888,-0.038147,-0.740051,1.0144646149693937
-0.467041,-0.897949,0.025391,-0.022888,0.144958,-0.816345,1.012464520446519
-0.465332,-0.894287,0.024902,0.015259,0.183105,-0.724792,1.0084161929466424
-0.464111,-0.89209,0.026855,-0.114441,0.1297,-0.610352,1.0059546607307908
-0.463379,-0.891357,0.026855,-0.137329,0.053406,-0.312805,1.0049669597131041
-0.463135,-0.895996,0.027832,0.007629,-0.190735,-0.045776,1.0089982559276305
-0.463867,-0.903564,0.028564,0.053406,-0.358582,0.190735,1.016078932898916
-0.464844,-0.902832,0.027832,0.114441,-0.480652,0.267029,1.0158544112145205
-0.463379,-0.901611,0.026855,0.205994,-0.679016,0.389099,1.0140728198640372
-0.460938,-0.90332,0.023193,0.152588,-1.060486,0.434875,1.014390840599914
-0.458984,-0.901855,0.022461,0.061035,-1.586914,0.488281,1.01218241923183
-0.45874,-0.900635,0.023682,-0.083923,-2.128601,0.404358,1.0110126744749544
-0.461426,-0.898438,0.020996,-0.076294,-2.258301,0.236511,1.0102205825145318
-0.467041,-0.895508,0.022705,-0.114441,-2.288818,0.114441,1.0102363044209013
-0.468994,-0.894531,0.024902,-0.099182,-2.212524,-0.106812,1.0103272695522971
-0.470459,-0.892822,0.024902,0.045776,-2.128601,-0.282288,1.0094963615432202
-0.470947,-0.892578,0.024658,0.022888,-1.739502,-0.465393,1.0095021445529475
-0.474121,-0.889648,0.026611,0.244141,-1.213074,-0.457764,1.0084505103702412
-0.474854,-0.889404,0.026855,0.434875,-0.778198,-0.564575,1.008586628682435
-0.474365,-0.889648,0.025391,0.434875,-0.457764,-0.534058,1.0085337971580328
-0.476807,-0.892822,0.0271,0.495911,-0.083923,-0.50354,1.0125267645514364
-0.479492,-0.895264,0.030029,0.564575,0.25177,-0.526428,1.01602753338726
-0.480713,-0.897949,0.029785,0.473022,0.610352,-0.587463,1.0189624827220087
-0.482666,-0.900391,0.029785,0.457764,0.831604,-0.450134,1.0220359908838828
-0.481934,-0.89917,0.03125,0.595093,1.152039,-0.419617,1.020658430502585
-0.479736,-0.901611,0.029541,0.595093,1.502991,-0.297546,1.0217248630125433
-0.473877,-0.900146,0.02832,0.762939,1.670837,0.099182,1.017656255739137
-0.470703,-0.897705,0.025879,0.801086,1.548767,0.289917,1.0139552770586087
-0.468018,-0.897461,0.020996,0.915527,1.358032,0.511169,1.012382302720173
-0.467529,-0.9021,0.022217,0.999451,1.274109,0.564575,1.0162978750986347
-0.467529,-0.900391,0.023438,0.938415,1.052856,0.549316,1.0148086807699273
-0.464111,-0.895996,0.023193,0.923157,1.106262,0.320435,1.0093293652648772
-0.462402,-0.893555,0.022949,0.984192,1.205444,0.175476,1.0063711066152485
-0.463379,-0.894531,0.021973,0.991821,1.304626,0.015259,1.0076649345546365
-0.462646,-0.894287,0.023438,0.961304,1.480102,-0.160217,1.0071444283363733
-0.460449,-0.892822,0.025635,0.953674,1.533508,-0.38147,1.0048888289308424
-0.461914,-0.895996,0.026367,0.984192,1.335144,-0.526428,1.0083990252380255
-0.465576,-0.900146,0.029297,0.938415,1.014709,-0.808716,1.013845228474741
-0.468262,-0.9021,0.032227,0.892639,0.816345,-0.793457,1.0169032845718418
-0.469482,-0.902588,0.029053,0.915527,0.63324,-0.740051,1.0178027917416024
-0.4729,-0.903076,0.030029,0.968933,0.488281,-0.778198,1.019844308027946
-0.475098,-0.905273,0.030029,1.052856,0.488281,-0.724792,1.0228093932761861
-0.47168,-0.9021,0.02832,1.045227,0.717163,-0.717163,1.0183655801331857
-0.473389,-0.899902,0.026123,1.243591,1.022339,-0.617981,1.017154445526342
-0.470947,-0.89917,0.027588,1.266479,1.235962,-0.37384,1.0154106870882342
-0.46875,-0.896484,0.027344,1.182556,1.220703,-0.152588,1.0120068275915928
-0.466309,-0.894775,0.025635,1.091003,1.281738,0.007629,1.009318352815899
-0.463867,-0.89502,0.026123,0.999451,1.228333,0.099182,1.0084224339124948
-0.464844,-0.895752,0.023926,0.907898,1.190186,0.106812,1.0094672076476778
-0.461914,-0.898926,0.026123,0.915527,1.075745,0.106812,1.0109969871374493
-0.461426,-0.898682,0.026855,0.808716,0.656128,0.045776,1.0105763116286668
-0.46167,-0.899658,0.02832,0.75531,0.228882,0.061035,1.011595634759265
-0.462646,-0.898926,0.028564,0.656128,-0.183105,0.083923,1.0113976353976708
-0.464355,-0.900391,0.028564,0.556946,-0.511169,0.015259,1.0134818306225326
-0.465332,-0.901123,0.027344,0.717163,-0.762939,0.076294,1.014546315201529
-0.466064,-0.900635,0.029785,0.549316,-0.846863,-0.015259,1.014517718694947
-0.467529,-0.89917,0.032227,0.488281,-0.816345,-0.137329,1.013966781640306
-0.470703,-0.89624,0.030273,0.587463,-0.640869,-0.106812,1.0127802853225372
-0.471924,-0.89502,0.027588,0.717163,-0.450134,-0.213623,1.0121927484031883
-0.47168,-0.894531,0.025391,0.663757,-0.152588,-0.404358,1.011589064414004
-0.471924,-0.894531,0.026611,0.602722,-0.022888,-0.473022,1.0117342126556756
-0.474609,-0.895752,0.025879,0.572205,0.099182,-0.602722,1.0140488504140222
-0.475342,-0.895752,0.028809,0.587463,0.289917,-0.740051,1.0144711040483116
-0.478516,-0.898438,0.029053,0.450134,0.541687,-0.778198,1.018338096561746
-0.478516,-0.899414,0.029297,0.50354,0.968933,-0.740051,1.01920626953576
-0.477295,-0.899902,0.029053,0.610352,1.434326,-0.762939,1.0190575074243848
-0.477783,-0.904053,0.027832,0.640869,1.930237,-0.770569,1.0229188834516645
-0.472656,-0.901123,0.024658,0.572205,2.189636,-0.617981,1.0178577368321173
-0.469238,-0.899902,0.022461,0.541687,1.914978,-0.396728,1.0151415698162498
-0.467773,-0.896484,0.025879,0.495911,1.525879,-0.25177,1.0115161216836832
-0.466064,-0.893311,0.027344,0.640869,1.373291,-0.083923,1.0079523248413091
-0.465088,-0.895996,0.027344,0.679016,1.472473,-0.083923,1.00988285166944
-0.463135,-0.893066,0.026123,0.587463,1.571655,-0.1297,1.0063514891478027
-0.460693,-0.892578,0.025146,0.465393,1.579285,-0.175476,1.0047715400273836
-0.45752,-0.893799,0.026611,0.343323,1.274109,-0.228882,1.0044447959554572
-0.459473,-0.896729,0.029053,0.38147,0.823975,-0.305176,1.0080091338767718
-0.464111,-0.9021,0.033936,0.328064,0.62561,-0.450134,1.0150542263431053
-0.464355,-0.906006,0.038574,0.183105,0.328064,-0.518799,1.0188034116241464
-0.466309,-0.90625,0.036865,0.061035,0.030518,-0.648498,1.0198490938398679
-0.466553,-0.904541,0.038818,0.038147,-0.106812,-0.663757,1.0185150757912227
-0.468018,-0.904785,0.038086,0.091553,-0.289917,-0.602722,1.019375930628637
-0.467285,-0.904785,0.037354,0.152588,-0.350952,-0.465393,1.0190125066779112
-0.464844,-0.906494,0.036621,0.213623,-0.305176,-0.434875,1.0193882547945115
-0.466064,-0.902588,0.033203,0.396728,-0.282288,-0.213623,1.0163578056221145
-0.466064,-0.903809,0.031738,0.473022,-0.228882,-0.053406,1.017395528406234
-0.463135,-0.898193,0.026367,0.595093,-0.289917,0.053406,1.0109104372608881
-0.461182,-0.896729,0.024902,0.526428,-0.411987,0.1297,1.0086782669260799
-0.462158,-0.894775,0.021973,0.289917,-0.717163,0.106812,1.0073207683344962
-0.462402,-0.894043,0.022217,0.12207,-1.13678,-0.038147,1.0067880067531594
-0.463623,-0.89502,0.020752,-0.099182,-1.426697,-0.144958,1.0081853659089681
-0.466797,-0.895996,0.024902,-0.366211,-1.716614,-0.244141,1.0106079263636318
-0.468262,-0.897461,0.0271,-0.480652,-1.861572,-0.37384,1.0126400926118815
-0.469727,-0.900391,0.026123,-0.709534,-1.754761,-0.488281,1.0158886841278427
-0.471924,-0.898926,0.031982,-0.671387,-1.617432,-0.640869,1.015777073759789
-0.472656,-0.898682,0.031982,-0.518799,-1.327515,-0.679016,1.0159015108680565
-0.47168,-0.898926,0.035645,-0.549316,-1.075745,-0.549316,1.0157856771489742
-0.470215,-0.898193,0.036377,-0.526428,-0.961304,-0.419617,1.0144831677277844
-0.469971,-0.897217,0.035889,-0.473022,-1.060486,-0.25177,1.0134885822006088
-0.469482,-0.899902,0.035645,-0.518799,-0.839233,-0.190735,1.0156315886939515
-0.470459,-0.89917,0.03418,-0.389099,-0.701904,-0.267029,1.0153849673798603
-0.471191,-0.900391,0.031494,-0.343323,-0.63324,-0.190735,1.0167186353155921
-0.469971,-0.89917,0.031494,-0.328064,-0.457764,-0.25177,1.0150720672824172
-0.468994,-0.899414,0.029053,-0.328064,-0.556946,-0.25177,1.014763515426624
-0.467529,-0.899414,0.028076,-0.526428,-0.717163,-0.068665,1.0140597472599926
-0.468018,-0.896729,0.026611,-0.450134,-0.854492,0.099182,1.011865550893991
-0.465576,-0.89502,0.027832,-0.526428,-1.13678,0.167847,1.0092553851231114
-0.465576,-0.898193,0.028809,-0.679016,-1.426697,0.236511,1.012097641290602
-0.468262,-0.899902,0.025635,-0.686645,-1.625061,0.160217,1.0147660141495674
-0.470703,-0.897705,0.025635,-0.656128,-1.541138,-0.061035,1.0139490788294054
-0.467041,-0.897949,0.026611,-0.610352,-1.319885,-0.213623,1.012495850659646
-0.467529,-0.895752,0.025879,-0.556946,-1.243591,-0.183105,1.0107545369603839
-0.469971,-0.89624,0.030029,-0.564575,-1.495361,-0.213623,1.0124330196521645
-0.469971,-0.896973,0.031006,-0.556946,-1.724243,-0.198364,1.013111383612878
-0.472412,-0.89502,0.029541,-0.587463,-1.708984,-0.1297,1.0124754657891717
-0.475586,-0.894775,0.03125,-0.564575,-1.716614,-0.1297,1.0137952981351808
-0.476563,-0.897461,0.033936,-0.549316,-1.686096,-0.152588,1.0167104757923957
-0.479492,-0.897949,0.032715,-0.457764,-1.319885,-0.213623,1.0184769294834322
-0.47998,-0.896484,0.032227,-0.274658,-1.029968,-0.205994,1.017400089534594
-0.479004,-0.894775,0.033447,-0.137329,-0.961304,-0.152588,1.0154732071551666
-0.477051,-0.894531,0.031738,-0.144958,-0.839233,-0.267029,1.014283326889484
-0.478027,-0.894287,0.030273,-0.068665,-0.656128,-0.221252,1.0144828759653857
-0.478516,-0.894531,0.026367,0.114441,-0.312805,-0.12207,1.0148194375877906
-0.47583,-0.893799,0.026855,0.183105,0.144958,-0.083923,1.0129225203963035
-0.472656,-0.893799,0.023682,0.190735,0.564575,-0.167847,1.0113561112985872
-0.470947,-0.895508,0.02417,0.274658,1.060486,-0.198364,1.0120819353061292
-0.470703,-0.894531,0.026611,0.328064,1.251221,-0.282288,1.0111652533048197
-0.468506,-0.89624,0.024658,0.488281,1.106262,-0.38147,1.0116086331185594
-0.465576,-0.896729,0.023682,0.320435,0.900268,-0.335693,1.010665497749379
-0.464844,-0.895508,0.0271,0.343323,0.587463,-0.38147,1.0093309330442617
-0.4646,-0.898682,0.027588,0.312805,0.297546,-0.411987,1.0120492057543446
-0.464355,-0.898926,0.029785,0.274658,-0.022888,-0.419617,1.0122157209439102
-0.467285,-0.897461,0.028809,0.274658,-0.144958,-0.404358,1.0122358797370306
-0.470947,-0.89917,0.028564,0.343323,-0.198364,-0.526428,1.0154376730282366
-0.468994,-0.899658,0.02832,0.37384,-0.244141,-0.518799,1.0149590688298717
-0.47168,-0.898926,0.032959,0.289917,-0.320435,-0.556946,1.0156949697409159
-0.472656,-0.896973,0.03125,0.297546,-0.343323,-0.579834,1.0143672015424199
-0.474609,-0.897217,0.031982,0.312805,-0.152588,-0.549316,1.015517058593306
-0.474365,-0.901611,0.031494,0.335693,0.114441,-0.549316,1.0192724957448818
-0.473633,-0.899902,0.028076,0.25177,0.320435,-0.671387,1.0173200529179596
-0.471191,-0.898438,0.029297,0.328064,0.289917,-0.770569,1.0149236978876786
-0.472168,-0.899414,0.027344,0.152588,0.221252,-0.63324,1.0161869207758976
-0.472656,-0.899902,0.026611,0.068665,0.12207,-0.518799,1.0168261647208927
-0.474609,-0.899902,0.027588,0.12207,0.198364,-0.480652,1.0177614702026208
-0.470947,-0.897949,0.029053,0.25177,0.434875,-0.389099,1.0143705241276484
-0.467285,-0.899414,0.027344,0.259399,0.427246,-0.549316,1.0139272700529365
-0.467773,-0.899414,0.026367,0.221252,0.190735,-0.465393,1.0141263933129836
-0.469238,-0.898438,0.0271,0.175476,0.160217,-0.328064,1.013957371139438
-0.465332,-0.89624,0.026611,0.1297,0.244141,-0.205994,1.0101921367467677
-0.466553,-0.896973,0.02417,0.198364,0.076294,-0.267029,1.0113438848571736
-0.467529,-0.89917,0.025635,0.083923,0.053406,-0.282288,1.0137786779992959
-0.463867,-0.897461,0.028076,-0.137329,-0.007629,-0.366211,1.0106419257016799
-0.463867,-0.898193,0.024414,-0.030518,-0.282288,-0.442505,1.0111969651526849
-0.466553,-0.900879,0.028076,-0.167847,-0.663757,-0.663757,1.0149103094490666
-0.468262,-0.901855,0.027588,-0.205994,-0.862122,-0.747681,1.0165494771101897
-0.469238,-0.904541,0.031738,-0.259399,-0.961304,-0.915527,1.019502830780278
-0.471436,-0.903076,0.031982,-0.320435,-1.045227,-1.060486,1.019225692472477
-0.473145,-0.898193,0.029541,-0.312805,-0.953674,-0.984192,1.0156227286522295
-0.4729,-0.897949,0.031982,-0.335693,-0.717163,-0.846863,1.0153667637484496
-0.4729,-0.900391,0.031006,-0.236511,-0.495911,-0.740051,1.0174967984799757
-0.470459,-0.903809,0.027588,-0.335693,-0.37384,-0.602722,1.0192955787729092
-0.469971,-0.900879,0.026367,-0.236511,-0.289917,-0.518799,1.0164403239595525
-0.469482,-0.897461,0.023193,-0.213623,-0.312805,-0.450134,1.0131078472176591
-0.466064,-0.894531,0.020508,-0.045776,-0.289917,-0.38147,1.00887161726406
-0.463623,-0.893799,0.022705,-0.152588,-0.442505,-0.358582,1.0071437114707116
-0.46167,-0.89624,0.022705,-0.320435,-0.694275,-0.534058,1.008415015519404
-0.4646,-0.895508,0.025391,-0.404358,-1.00708,-0.549316,1.0091741380678558
-0.466797,-0.896729,0.026123,-0.572205,-1.472473,-0.709534,1.0112886579898936
-0.46875,-0.895264,0.02832,-0.640869,-1.983642,-0.854492,1.0109531218587735
-0.473389,-0.897461,0.029053,-0.679016,-2.067566,-0.907898,1.0150751049311573
-0.4729,-0.89502,0.029541,-0.671387,-1.89209,-0.991821,1.012703254206779
-0.476563,-0.895264,0.030029,-0.579834,-1.594543,-0.869751,1.0146485418636346
-0.477051,-0.897461,0.032715,-0.305176,-1.167297,-0.732422,1.0168992941029116
-0.474854,-0.89624,0.031738,-0.289917,-0.793457,-0.450134,1.0147609371472672
-0.475342,-0.89624,0.030518,-0.358582,-0.762939,-0.236511,1.01495197072965
-0.474121,-0.897461,0.025391,-0.427246,-0.854492,-0.152588,1.0153185076826876
-0.473877,-0.897705,0.025635,-0.473022,-0.785828,-0.152588,1.015426428343777
-0.473145,-0.897217,0.023926,-0.358582,-0.648498,-0.205994,1.0146117432742439
-0.47168,-0.896729,0.025391,-0.343323,-0.450134,-0.312805,1.013533238094341
-0.468506,-0.89624,0.020752,-0.37384,-0.404358,-0.404358,1.0115209612954148
-0.467285,-0.895752,0.022705,-0.366211,-0.62561,-0.511169,1.0105654030066535
-0.468994,-0.896729,0.021484,-0.350952,-0.915527,-0.526428,1.0121955511327838
-0.47168,-0.894775,0.022949,-0.305176,-1.022339,-0.480652,1.0117464996855685
-0.470215,-0.896729,0.023926,-0.320435,-0.984192,-0.37384,1.0128166167386867
-0.472656,-0.897217,0.028564,-0.160217,-0.778198,-0.358582,1.0145037907869048
-0.473633,-0.898438,0.029541,-0.030518,-0.404358,-0.465393,1.016066793677463
-0.469971,-0.898438,0.025879,0.083923,-0.061035,-0.534058,1.0142649078648043
-0.46875,-0.895752,0.022461,0.061035,-0.091553,-0.656128,1.01123820365184
-0.470459,-0.895264,0.024658,0.030518,-0.236511,-0.587463,1.0116507882372257
-0.469482,-0.895752,0.025146,0.114441,-0.480652,-0.679016,1.0116409022691797
-0.469482,-0.894287,0.025635,0.030518,-0.907898,-0.671387,1.0103562440634493
-0.471191,-0.894287,0.030029,-0.015259,-1.182556,-0.701904,1.011272434950642
-0.474365,-0.896729,0.031738,0.167847,-1.037598,-0.679016,1.0149642128223044
-0.473145,-0.895264,0.028564,0.160217,-0.717163,-0.656128,1.0130052925908135
-0.474609,-0.895752,0.02832,0.228882,-0.411987,-0.617981,1.014114081740807
-0.472656,-0.895508,0.027344,0.236511,-0.228882,-0.480652,1.0129590153288532
-0.472656,-0.895752,0.027344,0.289917,-0.350952,-0.389099,1.0131747303283871
-0.471924,-0.89624,0.024414,0.228882,-0.495911,-0.282288,1.0131902302983384
-0.47168,-0.893311,0.021973,0.114441,-0.541687,-0.213623,1.0104302934146423
-0.470703,-0.894043,0.023926,0.244141,-0.343323,-0.282288,1.0106664402927408
-0.470459,-0.895264,0.024658,0.228882,-0.205994,-0.389099,1.0116507882372257
-0.468994,-0.898193,0.023682,0.144958,-0.274658,-0.465393,1.0135417477385922
-0.468506,-0.898682,0.023438,0.137329,-0.465393,-0.595093,1.013743828096625
-0.470703,-0.896973,0.024414,0.160217,-0.709534,-0.63324,1.013270901750366
-0.46875,-0.895508,0.024902,0.12207,-0.816345,-0.602722,1.011079250191596
-0.470947,-0.895996,0.026855,0.289917,-0.694275,-0.595093,1.0125814040609278
-0.471924,-0.897705,0.028076,0.404358,-0.343323,-0.610352,1.0145810911785218
-0.471924,-0.896973,0.02832,0.419617,-0.015259,-0.701904,1.0139402580551775
-0.470215,-0.898926,0.028809,0.442505,-0.053406,-0.679016,1.0148891851734356
-0.471436,-0.897949,0.027344,0.511169,-0.259399,-0.740051,1.0145501481114672
-0.472412,-0.896973,0.026855,0.465393,-0.320435,-0.762939,1.0141276307733658
-0.472168,-0.896973,0.026367,0.457764,-0.404358,-0.801086,1.0140011842409258
-0.472168,-0.89624,0.026367,0.450134,-0.259399,-0.87738,1.0133528391004785
-0.471191,-0.894775,0.025391,0.427246,0.015259,-0.938415,1.0115769679006141
-0.470703,-0.893555,0.02417,0.556946,0.244141,-0.961304,1.0102405857685584
-0.469971,-0.896973,0.024414,0.572205,0.389099,-0.961304,1.0129310672331064
-0.469238,-0.897949,0.024658,0.556946,0.419617,-0.953674,1.0134617527114675
-0.468994,-0.89917,0.026855,0.587463,0.465393,-0.953674,1.0144866938314174
-0.470215,-0.897705,0.0271,0.717163,0.427246,-0.999451,1.013760732742199
-0.468506,-0.900879,0.028076,0.75531,0.404358,-0.976562,1.0158095817883388
-0.467529,-0.899414,0.026367,0.694275,0.297546,-1.014709,1.0140138696911398
-0.467285,-0.901367,0.026367,0.640869,-0.015259,-0.930786,1.0156342641930707
-0.467041,-0.899658,0.026855,0.495911,-0.205994,-0.88501,1.0140182462214375
-0.466064,-0.898438,0.026123,0.37384,-0.244141,-0.892639,1.0124667417100672
-0.468018,-0.901611,0.028564,0.37384,-0.297546,-0.88501,1.016247580927502
-0.469482,-0.901123,0.029053,0.404358,-0.305176,-0.915527,1.0165038545239264
-0.468506,-0.898682,0.028564,0.427246,-0.25177,-0.984192,1.0138752937398168
-0.465088,-0.898682,0.028076,0.495911,-0.152588,-0.900268,1.0122867413159178
-0.464111,-0.896973,0.027588,0.419617,-0.205994,-0.87738,1.0103072209946833
-0.465088,-0.897217,0.0271,0.213623,-0.419617,-0.976562,1.010959743428491
-0.467285,-0.897949,0.0271,0.328064,-0.465393,-0.915527,1.0126213941182558
-0.466553,-0.895752,0.027832,0.457764,-0.495911,-0.87738,1.0103553669561023
-0.46875,-0.895264,0.029053,0.518799,-0.343323,-0.846863,1.0109739210311015
-0.468262,-0.896729,0.030762,0.526428,-0.236511,-0.816345,1.012096092635971
-0.465332,-0.900146,0.030762,0.511169,-0.190735,-0.785828,1.0137765987553669
-0.465576,-0.898682,0.031494,0.473022,-0.137329,-0.892639,1.0126115844369943
-0.466553,-0.899414,0.030762,0.442505,-0.259399,-0.999451,1.013688091006795
-0.468262,-0.900635,0.030273,0.50354,-0.167847,-1.159668,1.015543774732532
-0.470215,-0.902588,0.030518,0.450134,0.228882,-1.274109,1.0181839678039524
-0.467529,-0.90332,0.030518,0.579834,0.450134,-1.411438,1.0175960576599146
-0.46582,-0.900146,0.029785,0.579834,0.564575,-1.434326,1.0139715183085765
-0.465576,-0.897461,0.026855,0.617981,0.572205,-1.38855,1.011394309516323
-0.464844,-0.897461,0.027832,0.648498,0.427246,-1.25885,1.0110839782535375
-0.466064,-0.900391,0.030029,0.579834,0.404358,-1.144409,1.0143083090549934
-0.466797,-0.90332,0.028809,0.564575,0.228882,-1.083374,1.0172101159986564
-0.463867,-0.900146,0.026855,0.564575,0.343323,-0.938415,1.012993882523483
-0.461182,-0.897217,0.029785,0.808716,0.534058,-0.900268,1.0092444344349887
-0.459961,-0.896484,0.028076,0.770569,0.495911,-0.854492,1.0079860840076116
-0.456299,-0.899414,0.030762,0.488281,0.099182,-0.62561,1.0090097231647475
-0.457031,-0.898438,0.032471,0.328064,-0.343323,-0.762939,1.0085249330809825
-0.459473,-0.897705,0.030762,0.282288,-0.846863,-0.930786,1.008928146796391
-0.461182,-0.899414,0.032715,0.244141,-1.091003,-1.083374,1.011288609520052
-0.461182,-0.900635,0.033691,0.297546,-1.205444,-1.266479,1.0124066988271068
-0.464111,-0.901611,0.0354,0.297546,-1.342773,-1.335144,1.0146696879487433
-0.4646,-0.901855,0.036621,0.450134,-1.327515,-1.373291,1.0151535345286447
-0.466797,-0.899414,0.0354,0.457764,-1.091003,-1.342773,1.0139517456984826
-0.468506,-0.902344,0.031738,0.663757,-0.961304,-1.281738,1.017216725686321
-0.467529,-0.899658,0.030029,0.610352,-0.854492,-1.197815,1.0143321071749625
-0.468994,-0.89624,0.026611,0.534058,-0.579834,-1.167297,1.011884210251845
-0.46875,-0.900146,0.026123,0.587463,0.007629,-1.12915,1.015220072174009
-0.467285,-0.899902,0.024414,0.572205,0.480652,-1.190186,1.0142854254227456
-0.468018,-0.89917,0.022461,0.526428,0.854492,-1.25885,1.0139290082372632
-0.466797,-0.900391,0.023193,0.549316,0.961304,-1.205444,1.0144660207907408
-0.466553,-0.901123,0.022949,0.541687,0.930786,-1.174927,1.0149980391798794
-0.462402,-0.901855,0.029785,0.419617,0.839233,-1.190186,1.013925636747587
-0.463135,-0.902344,0.030273,0.480652,0.617981,-1.197815,1.0147094052436885
-0.463379,-0.900879,0.028564,0.556946,0.534058,-1.113892,1.013468782142795
-0.461426,-0.904053,0.035645,0.457764,0.274658,-1.014709,1.0156260858751118
-0.46167,-0.902832,0.039307,0.404358,-0.076294,-1.075745,1.0147856174448868
-0.463135,-0.90332,0.035156,0.579834,0.160217,-1.174927,1.015734706978648
-0.459961,-0.900391,0.031982,0.808716,0.572205,-1.182556,1.011578431327003
-0.456787,-0.896973,0.029541,0.968933,0.679016,-1.106262,1.0070191640574673
-0.452393,-0.894043,0.028564,1.022339,0.579834,-1.289368,1.0023912481631112
-0.450928,-0.893799,0.028564,1.106262,0.450134,-1.502991,1.0015131630093534
-0.452637,-0.89624,0.027588,1.274109,0.282288,-1.64032,1.0044339147564663
-0.452393,-0.898193,0.029785,1.38855,0.213623,-2.120972,1.0061298315441203
-0.453369,-0.897461,0.030273,1.403808,0.305176,-2.548218,1.0059304902482078
-0.453857,-0.898438,0.027344,1.64032,0.366211,-2.868652,1.006938285412269
-0.457764,-0.897217,0.019531,1.846313,0.434875,-3.158569,1.0074361938832652
-0.461426,-0.896973,0.01123,2.243042,0.968933,-3.181457,1.0087619288538798
-0.456787,-0.896729,0.002686,2.296448,1.296997,-2.853393,1.006371937906657
-0.450928,-0.897949,-0.009277,1.861572,0.228882,-2.494812,1.0048554774264804
-0.446289,-0.900635,-0.012207,0.801086,-2.6474,-1.502991,1.0052195210972577
-0.444824,-0.904541,-0.009033,-0.50354,-6.248474,-0.396728,1.0080398835095763
-0.455078,-0.905762,0.001709,-1.541138,-9.307861,0.114441,1.0136585753640128
-0.469482,-0.90918,0.009521,-2.326965,-10.543822,0.045776,1.0232850385718537
-0.475342,-0.907715,0.016113,-2.342224,-9.536743,-0.595093,1.0247712754356457
-0.473633,-0.900879,0.016602,-1.678467,-7.240295,-1.693725,1.0179326194468867
-0.479492,-0.889893,0.010986,-0.396728,-4.219055,-2.738952,1.010911876331958
-0.487305,-0.883301,0.006104,1.12915,-0.640869,-3.837585,1.0088231155371095
-0.491943,-0.889404,0.000488,1.998901,3.570556,-4.760742,1.0163895063453774
-0.483643,-0.893311,-0.005615,2.075195,6.385803,-4.653931,1.0158477358319995
-0.458496,-0.891357,-0.010498,1.541138,6.912231,-4.051208,1.0024201172507463
-0.451904,-0.888916,-0.010986,0.114441,4.478455,-3.52478,0.997251007754818
-0.445557,-0.894531,-0.013672,-1.76239,-0.434875,-2.990722,0.999446683817601
-0.44751,-0.895752,-0.007568,-3.570556,-5.714416,-2.952575,1.0013461540486386
-0.464111,-0.894287,0.001221,-4.966736,-10.353087,-2.952575,1.0075464006838593
-0.481201,-0.896484,0.013184,-5.599975,-12.565612,-3.417969,1.0175518574072773
