ax,ay,az,gx,gy,gz,acc_mag
0.229248,-0.950195,-0.133301,2.5177,0.076294,-2.807617,0.9865061277711356
0.228516,-0.951416,-0.131348,2.540588,0.488281,-2.6474,0.9872508619474587
0.231445,-0.949707,-0.136719,2.655029,1.068115,-2.487183,0.987016848303513
0.232666,-0.951904,-0.137451,2.876281,1.670837,-2.555847,0.9895188073872068
0.235107,-0.952393,-0.13501,2.998352,1.808166,-2.510071,0.9902299874261534
0.241211,-0.950195,-0.135986,3.120422,1.487732,-2.571106,0.9897198981237065
0.241211,-0.949219,-0.138184,3.135681,1.045227,-2.677917,0.9890875968982727
0.241699,-0.950928,-0.13501,3.097534,0.50354,-2.540588,0.9904090911764694
0.244629,-0.950928,-0.134277,3.036499,0.007629,-2.471924,0.9910286179288669
0.244873,-0.95166,-0.135254,2.754211,-0.25177,-2.449036,0.9919239820898574
0.244385,-0.951172,-0.13623,2.563476,-0.450134,-2.479553,0.9914690185320972
0.245605,-0.950439,-0.135742,2.502441,-0.801086,-2.487183,0.9910005041926064
0.245605,-0.95166,-0.135498,2.487183,-1.335144,-2.593994,0.9921382361490761
0.245117,-0.950684,-0.137939,2.456665,-2.075195,-2.601623,0.9914179639617188
0.242676,-0.950684,-0.13623,2.319336,-2.632141,-2.632141,0.9905808002035977
0.239502,-0.950684,-0.133057,2.250671,-2.975464,-2.5177,0.9893762889361155
0.236084,-0.950439,-0.134521,2.052307,-2.63977,-2.563476,0.9885169938943893
0.239502,-0.948975,-0.133301,1.960754,-2.044678,-2.532959,0.9877671361358404
0.241699,-0.951172,-0.130615,1.838684,-1.441955,-2.487183,0.9900539674229885
0.238525,-0.948975,-0.132324,1.724243,-1.068115,-2.372742,0.9873992947263027
0.237793,-0.945068,-0.133789,1.525879,-0.686645,-2.334595,0.9836658639975263
0.240479,-0.946777,-0.131836,1.564026,-0.282288,-2.311707,0.9856964888169177
0.245361,-0.95166,-0.130859,1.548767,-0.167847,-2.26593,0.9914549176851158
0.24585,-0.955078,-0.129883,1.487732,-0.190735,-2.159119,0.9947290094658947
0.250488,-0.954102,-0.129883,1.38092,-0.198364,-1.88446,0.9949494752182142
0.25,-0.952393,-0.128906,1.213074,-0.350952,-1.586914,0.9930605134054017
0.251221,-0.948242,-0.13208,1.220703,-0.701904,-1.472473,0.989808066144644
0.251709,-0.946533,-0.130371,1.434326,-0.938415,-1.564026,0.9880681851021214
0.251953,-0.948486,-0.13208,1.480102,-1.159668,-1.556396,0.9902278186382162
0.251465,-0.946533,-0.130615,1.373291,-1.533508,-1.670837,0.9880382809076781
0.256836,-0.947266,-0.132568,1.25885,-1.800537,-1.777649,0.9903796647124778
0.254639,-0.945313,-0.131348,1.289368,-1.976013,-1.861572,0.9877803325608382
0.25415,-0.944092,-0.130615,1.243591,-2.204895,-1.998901,0.9863884656609687
0.256836,-0.946289,-0.130859,1.335144,-2.433777,-2.044678,0.9892177112739137
0.258057,-0.947754,-0.128418,1.373291,-2.76947,-2.204895,0.9906171018557068
0.258789,-0.94873,-0.129639,1.358032,-3.334045,-2.243042,0.9919005140345477
0.258545,-0.945557,-0.129395,1.373291,-4.066467,-2.296448,0.9887702580979061
0.25415,-0.945801,-0.126465,1.25885,-4.615784,-2.26593,0.9874842532040701
0.257324,-0.945068,-0.122803,1.167297,-4.776001,-2.296448,0.987142209820348
0.254395,-0.943848,-0.125732,1.182556,-4.936218,-2.510071,0.9855832785477846
0.251221,-0.947021,-0.125977,0.968933,-4.592896,-2.586365,0.9878415712101815
0.253174,-0.945068,-0.127686,0.801086,-4.119873,-2.822876,0.98668855952423
0.252197,-0.944336,-0.127686,0.816345,-3.829956,-2.845764,0.9857370452108412
0.251465,-0.943604,-0.128418,0.854492,-3.570556,-2.861023,0.9849438246747881
0.254395,-0.947754,-0.12915,0.976562,-3.501892,-2.746582,0.9897647109495267
0.25293,-0.947754,-0.130371,0.930786,-3.578186,-2.593994,0.9895493050156723
0.253906,-0.945801,-0.131348,0.808716,-3.616333,-2.586365,0.9880587459969169
0.254395,-0.94873,-0.130615,0.839233,-3.639221,-2.502441,0.9908913700048053
0.254395,-0.949951,-0.130859,0.465393,-3.723144,-2.388,0.9920926349424231
0.251709,-0.948242,-0.129639,0.213623,-3.77655,-2.365112,0.989609307538081
0.252686,-0.949219,-0.131348,0.0,-3.608703,-2.243042,0.9910192842023813
0.249268,-0.948486,-0.130371,-0.312805,-3.181457,-2.204895,0.9893213965446215
0.245605,-0.94751,-0.128662,-0.488281,-2.700805,-2.098083,0.9872441067785616
0.246338,-0.945557,-0.128662,-0.511169,-1.914978,-2.006531,0.9855528198615232
0.25,-0.946045,-0.131104,-0.335693,-1.38092,-2.090454,0.987263592380981
0.251953,-0.947754,-0.12915,-0.297546,-1.335144,-2.082825,0.9891398693941116
0.249268,-0.946289,-0.125,-0.190735,-1.548767,-2.075195,0.9865203532340324
0.252197,-0.94751,-0.124268,-0.152588,-1.495361,-2.059937,0.9883425836889758
0.252686,-0.948486,-0.125,0.015259,-1.373291,-1.998901,0.9894952788123853
0.25415,-0.949951,-0.124268,0.015259,-1.533508,-2.105713,0.9911819513716944
0.250488,-0.947998,-0.123291,-0.198364,-1.434326,-1.998901,0.988253569094997
0.248535,-0.945068,-0.124023,-0.434875,-0.923157,-1.930237,0.9850405450426901
0.248779,-0.943604,-0.126953,-0.511169,-0.457764,-2.02179,0.9840714221366252
0.251221,-0.942139,-0.124023,-0.442505,-0.061035,-2.037048,0.9829138266862462
0.253174,-0.944824,-0.125,-0.389099,0.205994,-2.204895,0.9861107773734146
0.253662,-0.946777,-0.125488,-0.358582,0.404358,-2.197266,0.9881691839543469
0.253174,-0.946533,-0.125,-0.289917,0.312805,-2.120972,0.9877483456655344
0.257324,-0.947754,-0.123047,-0.144958,0.205994,-1.831055,0.9897443355235734
0.259033,-0.949463,-0.123779,-0.144958,0.175476,-1.602173,0.9919169946618517
0.262207,-0.952637,-0.124756,-0.106812,-0.343323,-1.319885,0.9959085420629747
0.263672,-0.951416,-0.128906,-0.25177,-1.144409,-0.999451,0.9956566102206121
0.263672,-0.951172,-0.126709,-0.328064,-1.937866,-0.816345,0.9951413305902836
0.260742,-0.952148,-0.126221,-0.480652,-2.525329,-0.686645,0.9952406469336951
0.256836,-0.951904,-0.125732,-0.75531,-2.845764,-0.534058,0.9939288163324373
0.255615,-0.952881,-0.124756,-0.778198,-2.861023,-0.617981,0.9944271154398395
0.252686,-0.95166,-0.125244,-0.839233,-2.677917,-0.701904,0.9925689042741567
0.252441,-0.948242,-0.124756,-0.953674,-2.449036,-0.831604,0.9891680385965774
0.250732,-0.947266,-0.126709,-0.991821,-2.052307,-0.816345,0.9880458396557319
0.249756,-0.945313,-0.12793,-0.923157,-1.701355,-0.862122,0.9860835727284984
0.250977,-0.949463,-0.124023,-0.938415,-1.304626,-0.694275,0.9898743089034081
0.248779,-0.947266,-0.122803,-0.946045,-0.785828,-0.602722,0.9870584797295447
0.249023,-0.945068,-0.122803,-0.869751,0.022888,-0.541687,0.9850109420519144
0.250244,-0.945068,-0.12207,-0.88501,0.793457,-0.389099,0.9852292469572754
0.254395,-0.946289,-0.121094,-0.801086,1.449585,-0.144958,0.9873416047052814
0.25415,-0.94458,-0.12085,-0.823975,1.655578,-0.083923,0.9856106337697458
0.255371,-0.944824,-0.12207,-0.907898,1.724243,-0.068665,0.9863102065359559
0.258301,-0.947266,-0.124512,-1.152039,1.647949,-0.144958,0.9897148677780889
0.253662,-0.945801,-0.123535,-1.235962,1.51062,-0.25177,0.9869877598379829
0.249756,-0.947021,-0.123291,-1.167297,1.785278,-0.282288,0.9871309460542709
0.254639,-0.945313,-0.125244,-1.213074,2.372742,-0.488281,0.986987207529054
0.255371,-0.947021,-0.127686,-1.152039,2.952575,-0.564575,0.9891242776709103
0.254883,-0.946777,-0.130127,-1.274109,3.555298,-0.556946,0.9890829427034924
0.258789,-0.94873,-0.131104,-1.472473,3.990173,-0.366211,0.9920930491828879
0.265137,-0.948242,-0.131104,-1.251221,3.982544,-0.190735,0.9933019571857291
0.262939,-0.94873,-0.131104,-1.419067,3.585815,0.030518,0.9931836634968377
0.265137,-0.94751,-0.133057,-1.51062,3.204345,0.144958,0.9928630288806205
0.264404,-0.944336,-0.132568,-1.586914,2.922058,0.289917,0.9895727516135435
0.263672,-0.944092,-0.133057,-1.594543,2.868652,0.411987,0.9892101866120264
0.266357,-0.942139,-0.135498,-1.678467,2.464294,0.221252,0.988398530337839
0.265625,-0.942871,-0.136719,-1.655578,2.151489,0.12207,0.9890674639411611
0.264404,-0.941162,-0.136963,-1.686096,1.937866,-0.007629,0.9871444923763695
0.266357,-0.94043,-0.139404,-1.777649,1.564026,-0.061035,0.9873135831968484
0.264648,-0.938965,-0.136963,-1.678467,1.289368,-0.175476,0.9851155762132685
0.261475,-0.936523,-0.136719,-1.708984,1.319885,-0.244141,0.9819045728149961
0.260254,-0.938232,-0.134033,-1.594543,1.281738,-0.396728,0.9828409207135201
0.260254,-0.93457,-0.134521,-1.403808,1.38092,-0.480652,0.9794126448320952
0.260254,-0.936035,-0.134766,-1.13678,1.838684,-0.656128,0.9808442998238812
0.262207,-0.936768,-0.134766,-0.984192,2.319336,-0.617981,0.9820634762727917
0.262695,-0.938965,-0.136963,-0.75531,2.479553,-0.686645,0.9845927064624235
0.268066,-0.936279,-0.136963,-0.656128,2.5177,-0.450134,0.9834818806495623
0.268799,-0.940918,-0.136475,-0.534058,2.456665,-0.450134,0.9880308754031931
0.272217,-0.947021,-0.134033,-0.450134,2.39563,-0.244141,0.9944424139280262
0.278564,-0.953613,-0.134521,-0.564575,2.258301,0.076294,1.0025325706958355
0.277344,-0.95459,-0.136475,-0.87738,2.006531,0.534058,1.0033878552489062
0.276367,-0.952148,-0.136963,-1.296997,1.983642,0.671387,1.000861327038866
0.272949,-0.946533,-0.140625,-1.800537,1.800537,0.579834,0.995088572597937
0.272949,-0.944824,-0.141357,-2.151489,1.296997,0.442505,0.9935669826569319
0.270996,-0.942627,-0.140625,-2.166748,0.442505,0.015259,0.9908379704926532
0.266357,-0.94043,-0.142578,-2.479553,-0.396728,-0.221252,0.9877667348281172
0.263916,-0.937988,-0.144287,-2.624511,-0.968933,-0.541687,0.9850339494499669
0.26123,-0.94165,-0.143311,-2.571106,-1.289368,-0.930786,0.9876658737250164
0.256104,-0.942871,-0.142334,-2.670288,-1.182556,-1.091003,0.987346924344731
0.253906,-0.942871,-0.143066,-2.464294,-0.450134,-1.266479,0.9868849273512085
0.25708,-0.944092,-0.148193,-2.471924,0.556946,-1.609802,0.9896266953316286
0.264648,-0.94751,-0.153564,-2.609253,1.602173,-1.907349,0.9956885387007324
0.263916,-0.956543,-0.159668,-3.257751,2.63977,-2.159119,1.005047280544055
0.259277,-0.961182,-0.157959,-4.53186,3.601074,-2.586365,1.007991292389969
0.264893,-0.968994,-0.160156,-6.401062,6.248474,-3.036499,1.0172352814472176
0.276855,-0.979736,-0.169434,-8.31604,9.376526,-5.043029,1.0321042588212685
0.25293,-0.983154,-0.196777,-10.803222,12.130736,-8.918762,1.0340631317018318
0.209961,-0.996826,-0.213867,-14.259337,18.821716,-13.786315,1.0409057543726041
0.1875,-1.01416,-0.204102,-18.295288,32.104492,-19.821167,1.0513488393506696
0.189209,-1.025146,-0.183594,-22.720335,50.73547,-26.977537,1.058504191693637
0.237061,-1.036621,-0.196777,-26.840208,75.340271,-34.606934,1.0814352514556753
0.280762,-1.053711,-0.253174,-32.371521,101.158134,-44.479366,1.11947811342652
0.312744,-1.083984,-0.310303,-40.260311,126.502983,-55.854794,1.1700931901352987
0.376953,-1.121094,-0.333008,-50.628658,152.633667,-68.473816,1.2287553251599768
0.493164,-1.158936,-0.310303,-62.858578,172.584518,-82.862846,1.297162801964734
0.620605,-1.179932,-0.286377,-76.148987,178.817734,-96.115105,1.3635988694546501
0.697998,-1.194336,-0.298096,-88.302605,169.692978,-111.0382,1.4150974927954612
0.748047,-1.216064,-0.354004,-100.158684,156.677246,-127.731316,1.470953703663375
0.782715,-1.217285,-0.400635,-113.212578,146.957397,-142.494202,1.501643747922589
0.857422,-1.19751,-0.413818,-125.610344,138.999939,-155.502319,1.5298522880683614
0.930664,-1.171387,-0.429688,-136.032104,129.486084,-167.732224,1.5565714766784724
0.965088,-1.139648,-0.445068,-143.989563,116.363518,-178.688034,1.5582932767203996
0.986816,-1.105957,-0.487061,-150.108337,101.142876,-187.896713,1.5601843229009835
1.000488,-1.051514,-0.511963,-155.990601,84.152214,-195.343002,1.539078959543337
1.009033,-0.990967,-0.545166,-161.567673,66.986084,-201.744064,1.5157074776268673
1.001221,-0.935059,-0.549072,-166.748032,51.719662,-208.084091,1.4758925724814798
0.980713,-0.868408,-0.530518,-171.43248,39.405823,-213.272079,1.4132868750388223
0.973877,-0.780273,-0.503418,-174.636826,28.488157,-217.987045,1.3456195778829916
0.982666,-0.698486,-0.494385,-175.96434,18.15033,-221.45079,1.3030470781890422
1.022705,-0.653564,-0.511719,-175.97197,9.490967,-225.952133,1.317166562771011
1.022217,-0.622803,-0.503418,-175.453171,0.480652,-232.933029,1.2985533699551974
1.015869,-0.567627,-0.504395,-175.117477,-10.765075,-237.091049,1.2683077514211603
0.989258,-0.535645,-0.513672,-174.682602,-23.460386,-239.440903,1.236691505660567
0.92749,-0.512695,-0.487061,-175.125107,-36.79657,-241.577133,1.1663285475568195
0.86499,-0.455078,-0.433838,-176.658615,-47.012325,-240.798935,1.06935452326532
0.817139,-0.40332,-0.393799,-177.520737,-52.764889,-239.433273,0.9927037927408154
0.799561,-0.344727,-0.373047,-177.72673,-56.755062,-237.342819,0.9472584449130026
0.810059,-0.29126,-0.352295,-176.811203,-60.623165,-233.978256,0.9301288825243521
0.782959,-0.253418,-0.338867,-175.071701,-63.644405,-231.849655,0.8899866977062072
0.733154,-0.223877,-0.342529,-172.409042,-63.507076,-230.049118,0.8396200418558384
0.719482,-0.185303,-0.285645,-170.394882,-62.164303,-226.730331,0.7959802862872923
0.732666,-0.153564,-0.250732,-169.006332,-64.544678,-220.657333,0.7894605154635664
0.722168,-0.126465,-0.244629,-166.938766,-71.800232,-215.003952,0.7728928542107244
0.721436,-0.110596,-0.233643,-164.360031,-78.300476,-208.839401,0.766348764441491
0.700928,-0.085205,-0.209473,-160.865768,-79.269409,-203.170761,0.7365045084301929
0.693604,-0.035889,-0.173828,-155.532837,-73.379517,-197.097763,0.7159543998894063
0.700439,0.009766,-0.142822,-149.147034,-59.05151,-191.452011,0.714918380768742
0.711914,0.059814,-0.110596,-140.87677,-41.732784,-188.362106,0.7229320391350766
0.725098,0.117188,-0.096436,-131.828308,-28.724669,-183.731064,0.7408103934503079
0.73877,0.135986,-0.111328,-122.200005,-22.758482,-177.207932,0.7593860867042536
0.703613,0.126709,-0.145996,-113.334648,-23.628233,-171.333298,0.729685724449917
0.672363,0.118652,-0.19165,-106.735222,-29.937742,-164.810165,0.7091403410982907
0.626465,0.119873,-0.221191,-103.271477,-39.703369,-158.348083,0.6750950976232905
0.572021,0.149658,-0.210205,-100.700371,-50.170895,-152.183533,0.6275282331736158
0.506592,0.205566,-0.189697,-97.717278,-57.502743,-145.774841,0.5786862592363846
0.448242,0.258057,-0.157227,-93.040459,-57.991024,-138.404846,0.5405873059386429
0.394775,0.283691,-0.165527,-87.10479,-50.468441,-130.622864,0.5135436416070206
0.426758,0.289795,-0.216553,-81.336967,-41.450497,-121.055595,0.5594628981424953
0.475098,0.279297,-0.280518,-76.438904,-37.658691,-110.465996,0.6183973416315759
0.482178,0.291504,-0.328125,-71.563721,-39.543152,-100.654594,0.6520247091368547
0.477295,0.30249,-0.364014,-66.551208,-40.06958,-91.316216,0.6721732732867323
0.458008,0.313965,-0.382568,-61.500546,-36.911011,-83.480827,0.6743171538030157
0.416992,0.352539,-0.391602,-55.976864,-30.372618,-75.843811,0.671951040619032
0.385742,0.398682,-0.401855,-50.376888,-20.538328,-67.771912,0.6850048676564277
0.392822,0.432373,-0.404297,-45.303341,-9.025574,-60.211178,0.710430572978106
0.390625,0.471191,-0.418701,-40.199276,-1.068115,-53.840633,0.741565490369529
0.391602,0.497559,-0.454102,-35.316467,2.494812,-47.653194,0.7791827200913789
0.419434,0.508057,-0.473877,-31.738279,1.869202,-42.4118,0.8115455666405923
0.435791,0.541016,-0.467285,-28.999327,-5.119323,-37.979126,0.8372379465611912
0.421631,0.571533,-0.470947,-25.672911,-15.129088,-33.447266,0.8521817570559698
0.399414,0.576172,-0.494385,-22.727964,-22.193907,-30.128477,0.8578591056840278
0.383057,0.598389,-0.498535,-20.729063,-25.733946,-27.343748,0.8679511546135531
0.37915,0.638428,-0.491943,-18.585205,-27.206419,-23.818968,0.8907036257549421
0.391602,0.657471,-0.487305,-16.319275,-27.656553,-20.851133,0.9072410954481726
0.399902,0.670898,-0.488281,-13.97705,-27.656553,-18.39447,0.9211102382283024
0.412109,0.688477,-0.490479,-11.83319,-25.894163,-15.792846,0.9404275925614901
0.437988,0.702393,-0.491943,-9.376526,-21.133421,-13.885497,0.9629108628746484
0.485107,0.725098,-0.467529,-7.743835,-16.738892,-12.725829,0.9897874907746612
0.484619,0.755859,-0.44043,-6.538391,-14.671325,-11.260985,1.00007849089059
0.467773,0.753418,-0.450195,-5.599975,-11.161803,-10.19287,0.9945480381952397
0.485596,0.733398,-0.466309,-5.882263,-4.760742,-10.32257,0.9955501921555738
0.504395,0.738525,-0.459229,-7.4234,-0.793457,-11.253356,1.0053480820546683
0.507568,0.758789,-0.448975,-9.681702,-1.12915,-11.71112,1.0173320852946692
0.506592,0.763916,-0.428223,-12.039184,-2.76947,-12.519835,1.0117203404345492
0.488525,0.776123,-0.391846,-13.877868,-4.592896,-13.610839,0.9972797373204771
0.467773,0.790283,-0.376709,-15.388488,-4.890442,-13.710021,0.9926069062317671
0.480957,0.798584,-0.369141,-16.471863,-3.616333,-13.870238,1.0026570294901442
0.499268,0.810547,-0.360596,-17.913818,-4.989624,-14.640807,1.01798057459315
0.495605,0.823242,-0.347412,-18.997192,-10.246276,-15.312194,1.021786085407802
0.477051,0.821533,-0.341553,-19.836426,-13.755797,-15.274047,1.0095308705032253
0.484619,0.80835,-0.331055,-20.469664,-12.298583,-15.624999,0.9989407943847324
0.499268,0.807373,-0.309814,-20.76721,-8.766174,-16.532898,0.9985511562003221
0.517822,0.809326,-0.281494,-20.416258,-3.585815,-17.539978,1.001192823583949
0.532715,0.821533,-0.244141,-18.90564,2.14386,-19.004822,1.009111772399371
0.538086,0.841797,-0.201172,-15.937804,8.255005,-20.39337,1.01913144696305
0.560303,0.859131,-0.128174,-12.298583,18.02063,-21.614073,1.0336702091315197
0.601074,0.890381,-0.01416,-7.019042,32.783508,-24.261473,1.0743690167893898
0.643311,0.90918,0.105957,2.243042,51.87225,-28.671263,1.1187869327847908
0.712891,0.895264,0.205078,15.632628,74.378967,-33.813477,1.1626556642708108
0.776123,0.846924,0.252441,32.020569,97.30529,-42.137142,1.176169048813137
0.856689,0.781006,0.306885,49.453732,113.426201,-52.421566,1.199193403076418
0.938721,0.755859,0.437012,67.131042,120.330803,-58.563229,1.2819904180086528
0.972656,0.80542,0.62793,87.089531,123.954765,-65.376282,1.4103393760496088
0.955566,0.848145,0.843506,113.708488,132.377625,-77.888489,1.530999246706869
0.908691,0.864258,1.072266,148.223877,149.154663,-89.965813,1.6499744236808642
0.95874,0.841064,1.276123,193.8629,179.290756,-100.517265,1.8041787469164465
1.060547,0.787354,1.432129,244.567856,212.425217,-116.424553,1.9482504287606355
1.127197,0.690918,1.509521,249.992355,237.785324,-131.68335,2.006637587850382
0.994629,0.552002,1.448242,249.420151,249.992355,-148.544312,1.8415748549024553
0.783936,0.327393,1.167969,249.778732,249.992355,-162.681564,1.4442622384823331
0.650146,0.067139,0.752197,249.992355,249.748215,-167.106613,0.9964927463087727
0.622803,-0.186035,0.290527,249.992355,234.893784,-160.461426,0.7119680721514132
1.452637,-0.22583,2.668213,249.992355,184.959396,-144.004822,3.0463936147579487
-1.895508,-5.243408,-4.353516,249.992355,190.734848,-166.580185,7.073851821658692
0.578613,-7.580322,-7.999756,66.963196,105.232231,32.272339,11.035949016146684
2.483154,0.268799,-3.014648,-249.992355,-170.021042,215.713486,3.9148958164963985
1.725586,2.282227,0.705078,-249.992355,-249.992355,79.238892,2.9467511108013515
1.62793,2.550049,1.276611,-172.752365,-127.220146,16.548157,3.283693291496939
0.476563,2.289551,1.371582,-10.162353,26.794432,-42.350765,2.7111608689441504
-0.535889,1.395996,0.20874,112.945549,86.563103,-103.851311,1.5098192739321483
-0.729004,0.317627,-1.076416,140.365601,64.193726,-70.091248,1.338284404826194
-0.579834,-0.077148,-1.313721,114.936821,-28.793333,18.913269,1.438061941399257
-0.179443,0.345703,-0.978516,79.76532,-110.351555,63.529964,1.0531875031132871
0.235107,0.710693,-0.624512,59.539791,-137.710571,67.41333,0.9748718273916833
0.436768,0.782227,-0.371094,53.390499,-123.374931,64.781189,0.9697196100878851
0.440674,0.73999,-0.333252,53.092953,-74.684143,52.551266,0.9234910231723966
0.425781,0.588135,-0.500732,54.656979,-11.497497,33.638,0.8820004387810699
0.44751,0.477295,-0.648438,51.162716,29.998777,22.811888,0.9211664111163628
0.473145,0.466797,-0.709717,42.381283,37.582397,24.345396,0.9723496543543378
0.523193,0.444824,-0.761963,33.38623,20.76721,28.167723,1.0257616290318137
0.560547,0.406982,-0.842285,25.657652,-5.775451,29.647825,1.0905463349890274
0.557861,0.340576,-0.929932,15.724181,-22.430418,30.71594,1.1366505319230709
0.614014,0.294922,-1.011963,1.678467,-23.902891,31.021116,1.219861177203783
0.721436,0.294678,-1.085449,-14.091491,-18.760681,29.418943,1.336227734101115
0.794922,0.318604,-1.113037,-29.327391,-18.592834,25.93231,1.4043720512275228
0.743408,0.371826,-1.131348,-41.854855,-21.194456,20.492552,1.4038726173852099
0.669434,0.407471,-1.092041,-49.911495,-18.966675,12.809752,1.3441458410001499
0.620361,0.446045,-0.999512,-52.932735,-9.780884,3.39508,1.258104983890454
0.512451,0.380859,-1.03125,-53.764339,-0.328064,-3.936767,1.2129040224939482
0.541016,0.289551,-1.012939,-62.210079,8.583069,-7.720947,1.1843071863237173
0.627441,0.168213,-1.155762,-73.799133,4.013062,-12.893676,1.3258067817348047
0.40918,0.198975,-1.299805,-91.491692,-16.281128,-13.267516,1.377139194507948
0.359863,0.278809,-1.342529,-110.298149,-30.960081,-1.449585,1.417610649329004
0.426025,0.292236,-1.327637,-129.081726,-52.574154,7.949829,1.4246119415791796
0.421875,0.303711,-1.237793,-145.935059,-84.106438,18.066406,1.342516442355549
0.358398,0.336914,-1.104248,-158.782959,-106.361382,26.588438,1.20885227191084
0.317139,0.380859,-0.95752,-167.617783,-110.343925,30.311583,1.0781814659889124
0.322021,0.411377,-0.834229,-172.950729,-101.013176,33.531189,0.9843102077145193
0.354736,0.436523,-0.726318,-175.025925,-88.165276,35.583496,0.9186554285198559
0.39209,0.474365,-0.620361,-174.171432,-78.025818,36.453247,0.873844661050235
0.432129,0.506592,-0.530518,-171.478256,-72.738647,38.192749,0.8513637738528695
0.46582,0.524414,-0.439941,-168.472275,-70.320129,40.229794,0.8279772939380645
0.493408,0.542236,-0.365479,-164.619431,-69.313049,40.428158,0.8191741167792108
0.495117,0.568115,-0.281982,-160.812363,-70.083618,39.398193,0.8046175148715071
0.50708,0.593506,-0.220947,-155.929565,-70.701599,38.879395,0.8112934581549391
0.545166,0.618408,-0.132568,-148.406982,-68.855286,36.865234,0.8349902374543069
0.573975,0.676758,-0.022949,-139.007568,-65.704346,32.501221,0.8876797551989118
0.592285,0.761475,0.078613,-127.120964,-60.43243,28.068541,0.9678975672141138
0.642578,0.826904,0.158203,-113.6856,-53.50494,23.025511,1.0591057079012463
0.703125,0.858887,0.223389,-99.746696,-48.988338,16.296387,1.1322430347390087
0.697266,0.889404,0.264404,-86.303703,-47.843929,9.017944,1.1606587893037297
0.663818,0.895508,0.272217,-72.776794,-45.074459,1.76239,1.1474715727533298
0.64917,0.887451,0.27002,-59.356686,-37.460327,-6.553649,1.1322110080285388
0.645752,0.913086,0.283447,-46.516415,-26.908873,-15.937804,1.1537174223825346
0.637695,0.959473,0.319092,-33.981323,-12.84027,-25.436399,1.1954342538249436
0.637695,1.005127,0.365723,-20.240782,5.889892,-34.622192,1.2452664421251383
0.668701,1.040283,0.439209,-4.745483,26.298521,-43.685909,1.312346864655454
0.709473,1.043701,0.515381,12.390136,44.372555,-53.222652,1.3631879145191246
0.731201,1.032227,0.604004,32.974243,60.104366,-63.247677,1.401773274800886
0.754639,1.02002,0.683838,59.547421,77.064514,-74.729919,1.4413726898221015
0.749268,0.990967,0.734131,92.086784,98.915092,-89.904778,1.4430406979964217
0.687988,0.941406,0.743896,128.288269,129.28009,-106.597893,1.38309580427243
0.643311,0.906982,0.733643,166.427597,169.815048,-123.710625,1.3321777067996596
0.672852,0.918457,0.75,206.184372,207.649216,-141.349792,1.3633756176318395
0.730225,0.933105,0.776855,245.056137,224.678024,-153.190613,1.4168335056297192
0.736084,0.932129,0.834229,249.992355,215.522751,-156.715393,1.451420735740674
0.617188,0.884033,0.810547,249.610886,198.471054,-158.638,1.3488594484385688
0.398682,0.683838,0.639404,249.816879,178.626999,-165.878281,1.017555513268932
0.190186,0.386963,0.295654,249.992355,150.390625,-167.709335,0.5228024155271281
0.459717,0.054688,0.136719,249.992355,106.727592,-161.003098,0.4827241265919904
-0.052734,-2.337158,-2.118408,249.992355,125.122063,-177.246078,3.154796482530054
0.866455,-7.999756,-7.999756,211.486801,-12.405395,-120.300285,11.346494453622977
0.460938,-1.171387,-4.517334,-99.227898,-249.992355,164.947495,4.689447495299313
0.256348,2.803467,-1.46167,-239.555344,-233.367905,47.531124,3.1720057859488526
0.773193,1.314941,-0.594238,-217.80394,-32.905579,43.655392,1.6370754562249108
1.090088,1.833496,0.63623,-154.525757,136.421204,16.731262,2.2259353186155253
0.532959,2.085938,0.836426,-31.616209,118.362419,-59.654232,2.309716668555042
0.002441,1.685547,0.344238,56.930538,1.121521,-90.843193,1.7203413755223118
-0.409912,0.965088,-0.245361,98.922722,-93.521111,-64.292908,1.0768587260216635
-0.521484,0.5979,-0.55835,107.39135,-134.597778,-38.772583,0.9701467387751195
-0.349121,0.593506,-0.614258,93.360893,-135.894775,-22.994993,0.9227392563671495
-0.30542,0.519287,-0.636963,77.705383,-126.335136,-12.542724,0.8767338411045852
-0.334473,0.411377,-0.692627,63.301083,-91.880791,1.037598,0.8722587832673283
-0.180908,0.485352,-0.767578,47.363277,-33.241272,8.132935,0.9259968976470709
0.031494,0.606201,-0.792969,35.652161,4.257202,8.857727,0.9986347477421362
0.114502,0.621094,-0.778564,29.144285,5.180358,13.259887,1.0025120283248476
0.103516,0.600342,-0.786865,25.527952,-10.864257,19.485474,0.9951294425576002
0.076416,0.558594,-0.86792,23.361204,-25.192259,25.314329,1.0349646314208036
0.076172,0.461426,-1.005859,17.700195,-28.518675,32.341003,1.1092648263336398
0.080811,0.400146,-1.11084,6.134033,-16.525269,40.107727,1.1834748601626484
0.155762,0.351074,-1.207275,-11.886596,5.577087,47.241207,1.266896870208858
0.263184,0.272461,-1.350342,-36.354065,22.338865,54.443356,1.4024707951829156
0.383545,0.293701,-1.338379,-60.615536,26.382444,61.363216,1.4228933171770117
0.461426,0.358398,-1.131592,-76.431274,19.798279,58.990475,1.2735240611562861
0.46167,0.331543,-0.878418,-83.374016,10.276793,49.385067,1.0462686712661333
0.437012,0.235352,-0.714844,-89.11895,0.061035,46.157833,0.8702712200136231
0.27002,0.080566,-1.024902,-101.882927,-13.34381,46.600338,1.0629326367931318
0.159912,0.114014,-1.340576,-122.062675,-17.799377,49.888607,1.3548856231121504
0.224609,0.22583,-1.387695,-140.037537,-22.735594,53.169247,1.4237787064027891
0.245361,0.269775,-1.322754,-155.158997,-48.538204,63.20953,1.3721001113118532
0.19165,0.306152,-1.177979,-166.282639,-86.357109,79.353333,1.2321092865671455
0.1604,0.374512,-0.985107,-170.66954,-114.181511,87.776176,1.0660315190429408
0.171387,0.428711,-0.844971,-169.975266,-124.435417,91.270439,0.9628824518761363
0.206055,0.470947,-0.748779,-166.717514,-121.726982,94.383232,0.9082509183452555
0.256104,0.506348,-0.636719,-161.613449,-116.676323,93.90258,0.8528708230916332
0.302979,0.549561,-0.530518,-155.380249,-115.45562,92.170708,0.8217438259494257
0.356934,0.617432,-0.431152,-148.361206,-116.943352,91.278069,0.8333763868049058
0.396729,0.712891,-0.340088,-141.113281,-115.20385,90.431206,0.8838932769661731
0.45459,0.810059,-0.250488,-133.338928,-106.658928,87.898247,0.9620768626908143
0.537354,0.888428,-0.16333,-124.839775,-93.864433,82.519524,1.05106152122509
0.597412,0.947998,-0.090332,-115.211479,-81.863396,73.287964,1.1241713285669583
0.639893,1.000977,-0.020508,-104.598991,-72.166443,60.951229,1.188208140033555
0.653809,1.038574,0.029785,-91.613762,-62.980648,46.913143,1.2275949283790644
0.654297,1.046143,0.091309,-75.965881,-53.37524,32.180786,1.2372780908668026
0.63208,1.071045,0.138672,-60.508724,-43.16711,16.685486,1.2513562410476882
0.599121,1.103516,0.169922,-47.218319,-31.074522,1.88446,1.2671097115013363
0.585938,1.102295,0.199219,-36.231995,-16.860962,-10.932921,1.2641462798386902
0.578125,1.095215,0.226318,-25.749205,-1.754761,-23.071287,1.2589456894457363
0.570801,1.092773,0.28125,-14.938354,14.152526,-35.91156,1.2645426737085625
0.565918,1.101563,0.345459,-3.601074,28.602598,-49.064632,1.285708421989216
0.56665,1.121338,0.401611,7.286071,37.948608,-61.454769,1.3190081607272186
0.545898,1.14624,0.462158,18.65387,45.394894,-72.860718,1.351096140534788
0.510986,1.125,0.504395,32.966614,58.212276,-83.938591,1.3345958220453862
0.504395,1.077148,0.563477,50.262447,79.833984,-94.291679,1.3161187102453942
0.516113,1.060303,0.644775,71.174622,107.475273,-103.446953,1.3440051641280997
0.541504,1.013916,0.694336,99.777214,137.268066,-113.624565,1.3428904340890957
0.554688,0.931885,0.718994,135.856628,159.881592,-127.433769,1.301169013850622
0.591064,0.873779,0.740479,178.497299,166.213974,-137.023926,1.2888582320713167
0.481445,0.832031,0.748535,226.62352,162.055954,-145.950317,1.2183470438306978
0.30249,0.72998,0.697754,249.992355,164.619431,-155.937195,1.054149726090179
0.224854,0.541016,0.538086,249.992355,168.685898,-162.23143,0.7954836120046723
0.229004,0.350586,0.321289,249.450668,155.014038,-161.59819,0.5278067799232973
0.299072,0.182129,0.188721,249.992355,110.153191,-153.694153,0.3977821635845428
-0.02832,-0.305176,0.986328,249.992355,102.233879,-150.688171,1.032849135624366
-1.183105,-7.355469,-7.936035,230.682358,184.234604,-176.437363,10.88500405016971
1.636963,-5.114746,-6.70459,-22.384642,-26.168821,153.961182,8.590215455737125
1.402832,2.824951,-2.332764,-235.778793,-249.992355,125.625603,3.923018436398305
0.553467,2.013916,-0.923584,-194.11467,-212.951645,44.349667,2.2836792200747023
0.844971,1.651123,-0.003418,-182.693466,54.51202,14.976501,1.854776222268875
0.874756,1.686279,0.749268,-100.479118,168.045029,-55.549618,2.0420914429087156
-0.0896,1.466553,0.621582,2.067566,81.718437,-100.784294,1.5953589077486607
-0.976074,1.156006,0.040771,67.03186,8.247375,-85.403435,1.5135166335237284
-1.166504,0.858154,-0.422119,89.424126,-8.956909,-57.060238,1.5084244495144594
-0.680908,0.519531,-0.589355,86.372368,-16.00647,-24.536131,1.0396573860892828
-0.291016,0.361328,-0.677002,78.842163,-53.596493,-4.829407,0.820719162590956
-0.36084,0.286377,-0.759766,71.929932,-97.953789,3.65448,0.8885165538609846
-0.389893,0.316162,-0.809326,59.318539,-86.692802,16.212463,0.9523568322687668
-0.125732,0.459961,-0.790283,44.929501,-35.423279,21.545408,0.9229950581850371
0.08252,0.581543,-0.715332,35.072327,-2.586365,20.477293,0.9255818070127567
0.119873,0.625,-0.639648,29.884336,8.903503,18.714905,0.9022993405921341
0.132813,0.639404,-0.618408,26.794432,15.373229,17.570496,0.89939158471102
0.161133,0.638916,-0.655518,24.192808,17.00592,18.661499,0.929452175783671
0.17334,0.614014,-0.719482,20.362852,13.21411,22.6593,0.9616206612380996
0.170654,0.577881,-0.765381,14.48059,9.300232,28.572081,0.9741033379667683
0.189209,0.557617,-0.7771,7.637023,9.57489,34.980774,0.9749980381364878
0.233643,0.549072,-0.770264,0.968933,13.648986,40.580746,0.9743591444272486
0.28833,0.531982,-0.766602,-4.493713,18.295288,44.090267,0.9766358910197802
0.342285,0.510498,-0.780029,-8.979797,21.438597,45.69244,0.9930823078023291
0.38501,0.481689,-0.797119,-12.290954,23.315428,45.234676,1.0077974464057746
0.391357,0.456055,-0.794922,-14.846801,26.008604,43.319698,0.9965176619398173
0.37207,0.439453,-0.777344,-16.418457,31.455992,41.122433,0.9673772368859007
0.36084,0.446533,-0.753174,-16.052246,39.604187,38.68866,0.9470313088620671
0.35376,0.480469,-0.723877,-12.702941,46.485897,34.873962,0.9380802250820556
0.329102,0.528564,-0.708252,-6.942749,49.934383,30.738829,0.9430317725315516
0.298096,0.565186,-0.720215,-0.404358,50.567623,26.824949,0.962811552712679
0.282959,0.566895,-0.758545,5.599975,49.041744,23.200987,0.9883452097981758
0.275879,0.526367,-0.808594,9.757996,45.951839,19.874573,1.0034917529137946
0.258301,0.484131,-0.868652,11.909484,43.266293,16.235352,1.0274524460363117
0.259277,0.458984,-0.9104,12.725829,40.65704,12.702941,1.0520071458811484
0.282715,0.474121,-0.930176,12.321471,35.751343,10.421752,1.0816403676093085
0.314453,0.543945,-0.922607,11.543273,29.037474,7.469177,1.1162260204291066
0.356201,0.626709,-0.905518,11.322021,21.743773,2.76947,1.1574135697346908
0.39209,0.669678,-0.900635,11.665343,13.778686,-3.204345,1.1888425442458728
0.407959,0.663086,-0.910645,11.367797,5.683898,-10.597228,1.1980767525922535
0.387939,0.628906,-0.948486,9.681702,-0.671387,-19.470215,1.2023498312691694
0.342529,0.58667,-0.983154,6.072998,-2.13623,-28.602598,1.1950312098255007
0.318115,0.554199,-0.989014,0.427246,-1.022339,-35.362244,1.1774898628107164
0.299561,0.549072,-0.973633,-5.378723,-0.961304,-40.046692,1.157228617255035
0.284668,0.556885,-0.943115,-10.429381,-3.105163,-44.364925,1.1316460032510167
0.254639,0.567871,-0.904297,-14.068603,-8.163452,-48.980709,1.0977575129194062
0.201172,0.598877,-0.870361,-16.166687,-16.227722,-53.207394,1.0754776171701577
0.12793,0.64209,-0.852051,-16.700745,-24.749754,-56.121822,1.074540161930209
0.061768,0.653809,-0.833984,-16.120911,-31.501768,-56.617733,1.0615134509562278
0.016113,0.65625,-0.815674,-15.502929,-36.659241,-55.000301,1.047018512513031
-0.013184,0.655518,-0.789551,-14.526366,-40.710445,-52.688595,1.0262886766309955
-0.035156,0.647949,-0.762451,-13.076781,-43.441769,-50.025936,1.0012019668068977
-0.051514,0.637939,-0.735352,-11.260985,-44.56329,-46.646114,0.9748653362495766
-0.067139,0.626221,-0.724121,-9.246826,-43.457027,-42.945858,0.9596934973224525
-0.071045,0.608398,-0.723389,-7.217407,-40.222164,-38.711548,0.9478856279900016
-0.057617,0.591553,-0.72998,-5.172729,-36.277771,-34.217834,0.9413423770860418
-0.034424,0.573975,-0.743164,-2.89917,-34.118652,-29.33502,0.9396409118897495
-0.01416,0.568604,-0.744873,-0.640869,-33.744812,-24.406431,0.9372015794614305
-0.002441,0.567871,-0.735107,1.617432,-33.576965,-19.882202,0.928905663978318
0.006348,0.558838,-0.727783,4.104614,-32.478333,-15.785216,0.9176101037134453
0.020752,0.553467,-0.735596,6.149292,-30.540464,-11.535644,0.9207919639142167
0.045166,0.550049,-0.74585,7.362365,-28.999327,-6.67572,0.9278394755866987
0.068115,0.543701,-0.754883,7.629394,-27.717588,-2.365112,0.9327908523967202
0.071533,0.535156,-0.764648,6.698608,-24.604795,1.319885,0.9360531386246188
0.080566,0.544678,-0.759766,5.813598,-18.135071,3.707886,0.9383013262252164
0.102295,0.561768,-0.75708,6.431579,-12.001037,4.432678,0.9482708891709162
0.106689,0.571533,-0.747314,7.545471,-9.651184,4.890442,0.946842504013207
0.083984,0.575439,-0.747314,9.017944,-8.735657,5.943298,0.9469221560260379
0.086914,0.575684,-0.758545,10.078429,-6.462097,7.133483,0.9562199685621504
0.107422,0.563477,-0.785645,10.353087,-4.844666,7.629394,0.9727712380811843
0.135742,0.54126,-0.827393,9.971619,-6.500244,7.568359,0.9979816905199214
0.157471,0.521484,-0.859619,8.537292,-10.894774,6.973266,1.017687330793697
0.16626,0.503174,-0.877686,6.599426,-14.755248,5.386352,1.0252605407758555
0.174072,0.48877,-0.884277,4.142761,-14.762877,3.166198,1.0252526453577187
0.183105,0.484619,-0.880615,1.403808,-11.001586,0.488281,1.0216975063153477
0.188965,0.489746,-0.866455,-1.060486,-5.653381,-2.464294,1.013066228223012
0.182129,0.506104,-0.849854,-2.853393,-0.335693,-5.081176,1.0057654064308434
0.173584,0.516602,-0.836426,-3.997802,3.623962,-7.316589,0.9983073098680586
0.156982,0.532471,-0.820801,-4.196167,5.241394,-9.040833,0.9909000937359932
0.13623,0.551514,-0.807617,-3.768921,4.570007,-10.383605,0.9874064633093101
0.122314,0.557373,-0.811035,-3.692627,1.197815,-11.642455,0.9916668528039041
0.111816,0.550781,-0.825439,-3.486633,-4.882813,-12.649535,0.9986050623434671
0.102051,0.54248,-0.83252,-3.234863,-11.383056,-13.679503,0.9988936416861407
0.096191,0.540527,-0.841309,-3.356933,-15.61737,-15.060424,1.0046009056789666
0.094727,0.539795,-0.846924,-3.692627,-16.433716,-16.845703,1.0087775316342051
0.106689,0.548828,-0.845215,-4.02832,-15.373229,-19.088745,1.013401752776262
0.108398,0.554443,-0.842285,-4.295349,-14.282226,-21.52252,1.014199777104097
0.095947,0.554932,-0.842041,-4.646301,-12.603759,-24.002073,1.0130095740485379
0.079346,0.563232,-0.840576,-4.936218,-10.871886,-26.31378,1.0149355079590032
0.061279,0.566406,-0.837402,-5.073547,-10.32257,-27.870176,1.0128242603141968
0.038086,0.569336,-0.827881,-5.15747,-11.100768,-28.892515,1.0054754966944743
0.010742,0.578613,-0.8125,-5.28717,-11.299132,-29.090879,0.9975292699129183
-0.000732,0.591553,-0.800537,-4.966736,-10.910033,-29.296873,0.9953868474126027
-0.006348,0.602295,-0.793457,-4.28772,-11.596679,-29.319761,0.9961794893381414
-0.016846,0.612793,-0.783936,-3.280639,-12.741088,-28.861998,0.9951656649327287
-0.028809,0.615234,-0.775635,-2.258301,-12.794494,-28.182981,0.9904304551365531
-0.039307,0.611816,-0.774414,-1.296997,-11.611938,-27.19879,0.9877149900153385
-0.045166,0.606934,-0.782715,-0.030518,-10.139464,-26.31378,0.9914895960810683
-0.048828,0.599854,-0.794678,0.991821,-9.475708,-25.268553,0.9968561172927616
-0.060791,0.595947,-0.795166,1.747131,-9.70459,-24.017332,0.9955588079294965
-0.061279,0.599121,-0.786865,2.922058,-10.795592,-23.063658,0.9908872875897642
-0.060791,0.59668,-0.780029,3.997802,-12.802123,-22.254942,0.983955186439911
-0.065918,0.591064,-0.780029,5.249023,-14.205932,-21.759031,0.9808909601280869
-0.071777,0.587891,-0.779785,6.507873,-14.144897,-21.041868,0.979199883494172
-0.063965,0.577637,-0.779541,7.919311,-13.137816,-20.126341,0.9723374906250402
-0.049316,0.564941,-0.778809,9.429932,-12.199401,-18.943787,0.9633970416282167
-0.044678,0.559814,-0.781494,10.810851,-11.917113,-17.913818,0.9623516562650059
-0.044189,0.553223,-0.781982,12.290954,-11.367797,-16.868591,0.9589078181837919
-0.042725,0.549072,-0.785645,13.282775,-9.994507,-15.853881,0.9594496093250546
-0.041748,0.547852,-0.789551,14.259337,-8.087158,-14.953612,0.9619124133771224
-0.040039,0.545166,-0.79248,15.052794,-6.141662,-13.97705,0.9627219949066294
-0.040771,0.539551,-0.796631,15.754699,-4.653931,-12.985229,0.9630153198173952
-0.033936,0.54126,-0.802002,16.174316,-4.447937,-12.039184,0.9681535248605977
-0.026367,0.537598,-0.804688,16.212463,-6.103515,-10.635375,0.9681061954336414
-0.027344,0.532471,-0.806152,16.021729,-8.422852,-9.19342,0.966516480604961
-0.02832,0.527832,-0.809326,16.052246,-9.437561,-8.239746,0.9666525833514334
-0.021484,0.520996,-0.80835,16.052246,-8.552551,-8.003235,0.961939767746401
-0.013672,0.509277,-0.80957,16.342163,-7.141113,-8.392334,0.9565320544618461
-0.013672,0.510254,-0.811035,16.88385,-6.103515,-9.231567,0.958292147168597
-0.013184,0.514404,-0.810059,17.700195,-4.66156,-10.169982,0.959677485696627
-0.020752,0.510254,-0.807129,18.409729,-3.204345,-10.81848,0.9551162299223064
-0.019775,0.510254,-0.811279,18.959045,-2.616882,-10.879516,0.9586051381992483
-0.02002,0.502686,-0.817627,19.439697,-2.39563,-10.620116,0.9600041281812282
-0.01709,0.490479,-0.82666,19.790649,-2.059937,-10.353087,0.9613680216966861
-0.011719,0.483154,-0.834229,19.973755,-1.38092,-10.45227,0.9641126215945935
-0.010986,0.484863,-0.834473,20.187376,0.671387,-10.932921,0.9651725279420255
-0.011475,0.498779,-0.829834,20.561216,4.066467,-11.45935,0.9682647540946638
-0.00708,0.503662,-0.829102,20.89691,7.461547,-11.650084,0.9701214681925145
-0.001953,0.503174,-0.829102,21.202085,10.169982,-11.70349,0.969844325079546
0.00293,0.501465,-0.825928,21.186827,11.299132,-11.764525,0.9662467553937762
-0.001953,0.495117,-0.827881,21.301268,11.07788,-11.924743,0.9646406626609724
-0.009521,0.489502,-0.835938,21.39282,10.360717,-11.795043,0.9687596179078688
-0.026367,0.478271,-0.84668,21.339415,9.994507,-11.45935,0.9727822934912004
-0.040039,0.468018,-0.859131,21.095274,10.337829,-10.513305,0.979157824360302
-0.04541,0.462158,-0.861328,20.629881,10.505675,-9.056091,0.9785387108581857
-0.044678,0.458984,-0.869385,19.65332,10.009766,-7.347106,0.9841202742373515
-0.049805,0.462891,-0.875732,18.478394,8.872986,-5.462646,0.9917939058746026
-0.053223,0.468262,-0.87793,17.272949,7.858276,-3.479004,0.9964251468489743
-0.053223,0.4646,-0.88208,15.914916,7.339477,-1.358032,0.9983741653954192
-0.046387,0.459961,-0.880615,14.381408,7.522583,0.740051,0.9945846638245536
-0.035156,0.452393,-0.87793,13.061522,8.209229,2.731323,0.9882593058934481
-0.029297,0.455078,-0.866455,11.932372,8.842468,4.585266,0.9791315372910833
-0.035645,0.458008,-0.853516,11.001586,9.567261,6.195068,0.969294308424949
-0.045166,0.458252,-0.841797,10.765075,11.558532,7.545471,0.959508755702104
-0.047852,0.451172,-0.834473,10.856627,14.137267,8.735657,0.9498374467333871
-0.049316,0.438965,-0.82666,11.314391,15.60974,10.19287,0.9372774907576731
-0.055908,0.429688,-0.823486,12.145995,16.448975,12.229918,0.9305303186914439
-0.05957,0.416992,-0.818115,13.183593,17.578125,14.717101,0.9201864301265261
-0.056152,0.395508,-0.805908,14.335631,18.676758,17.76886,0.8994817005542691
-0.055176,0.374023,-0.791748,15.73944,19.15741,21.40045,0.877383890329085
-0.055664,0.381592,-0.769287,17.76886,20.111082,25.604246,0.8605308964406798
-0.053955,0.437744,-0.743652,21.194456,21.598814,29.655455,0.8646093040587755
-0.056885,0.46582,-0.736328,25.55084,23.406981,33.752441,0.8731569728342092
-0.049805,0.453125,-0.737549,29.685972,24.787901,38.513184,0.8670532457992416
-0.053223,0.454834,-0.748779,33.363342,27.206419,43.121334,0.8777110265491712
-0.044189,0.447266,-0.768555,37.071228,33.119202,46.409603,0.8903237223066676
-0.019775,0.426758,-0.796387,40.031433,40.504452,49.064632,0.9037398380939063
0.018799,0.411377,-0.827637,41.595455,44.738766,51.315304,0.9244281704378118
0.059082,0.401611,-0.85376,41.65649,44.364925,53.497311,0.9453508426214047
0.08667,0.397461,-0.877686,40.489193,42.739864,55.305477,0.9673777183794342
0.113525,0.406982,-0.891602,38.703918,43.777462,56.015011,0.9866490765986659
0.157471,0.427002,-0.903564,36.6745,48.164364,55.099483,1.011709309011734
0.204102,0.442627,-0.923584,34.584045,53.75671,52.436825,1.044310151530186
0.234619,0.437012,-0.951904,31.738279,58.906551,48.736568,1.0733810080865973
0.252686,0.418945,-0.981445,28.068541,62.751766,44.639584,1.0966309386689763
0.26416,0.4021,-1.005127,23.826597,63.941952,40.763851,1.1143362157486403
0.266602,0.384033,-1.014893,19.14978,61.44714,37.582397,1.1173923988205756
0.264404,0.366455,-1.017334,14.419555,56.236263,35.125732,1.1131788759211163
0.26416,0.359619,-1.011963,9.849548,49.766537,32.737732,1.1059726235897522
0.263184,0.355713,-1.000732,6.065368,42.633053,30.426023,1.0941947230950257
0.246582,0.348633,-0.985107,3.158569,36.186218,28.511045,1.0736775367222693
0.240967,0.344482,-0.968506,0.892639,32.020569,27.015684,1.0558109752455693
0.250244,0.337402,-0.94165,-0.648498,29.388426,25.672911,1.0310998456211697
0.254395,0.332031,-0.915283,-1.075745,27.229307,24.124144,1.0063321375544954
0.261719,0.326904,-0.89917,-0.442505,25.756834,22.567747,0.9919020864364587
0.262207,0.3125,-0.878906,0.686645,25.604246,20.957945,0.9689605346375052
0.250244,0.306641,-0.861084,1.968384,27.397154,19.65332,0.947690042932287
0.240967,0.303467,-0.841797,3.52478,31.34918,18.77594,0.9267035687786036
0.236816,0.290283,-0.83374,4.875183,35.118103,18.432617,0.9140396192425141
0.241943,0.276123,-0.824219,5.996704,35.964966,18.661499,0.9022844819340516
0.233887,0.26001,-0.809814,7.003784,33.668518,19.66095,0.8821037600333648
0.219971,0.232178,-0.801514,7.614135,30.97534,21.087645,0.8629707739668824
0.209473,0.209473,-0.789063,7.995605,29.670713,23.262022,0.8428394232752761
0.210693,0.192627,-0.776855,8.583069,29.304502,26.245115,0.8276475049216302
0.219482,0.181885,-0.769775,9.292603,28.96118,30.029295,0.8208581193933577
0.223633,0.193115,-0.754639,10.772704,28.57971,34.095764,0.810422816951127
0.228027,0.192139,-0.744873,13.023376,29.808043,38.551331,0.8023400115780092
0.23291,0.182861,-0.737549,15.304564,33.302307,43.487545,0.7947727604932117
0.23999,0.17627,-0.732178,17.89093,38.520813,48.583981,0.7904118778738083
0.245605,0.166992,-0.734863,20.721434,45.0592,53.710934,0.7926107322374585
0.250244,0.148926,-0.742676,23.03314,53.321835,58.410641,0.7977271801737734
0.25,0.135986,-0.744873,25.100706,63.064571,62.789913,0.7973882230914876
0.230957,0.110352,-0.763184,26.878355,73.165894,66.886902,0.8049649170050828
0.216309,0.080078,-0.810059,28.282164,83.908073,71.70105,0.8422574743188688
0.19458,0.071289,-0.819336,28.785704,96.153252,76.599121,0.845136071184398
0.212646,0.061523,-0.79248,30.2124,108.322136,81.581108,0.8228170824946452
0.245117,0.044922,-0.786621,31.707762,116.920464,87.234489,0.8251502453577773
0.275391,0.049805,-0.790527,32.684326,117.286674,95.733635,0.8386022171655642
0.306641,0.051758,-0.756836,32.974243,109.222404,105.339043,0.8182348833562402
0.317627,0.043945,-0.72168,33.859253,95.42083,114.814751,0.7897088682254999
0.302734,0.052734,-0.6875,34.744263,76.957703,126.098625,0.753050462792501
0.334229,0.0896,-0.663574,37.513733,60.05859,139.23645,0.7483766684745056
0.373535,0.115479,-0.655273,42.533871,51.345821,147.209167,0.7630507848072762
0.413086,0.115234,-0.628906,47.927853,53.207394,150.428772,0.7612106640004461
0.461182,0.072998,-0.599854,53.50494,64.338684,152.832031,0.7601594348845511
0.51416,0.013184,-0.597168,58.250423,78.346252,154.014587,0.7881268576060583
0.577393,-0.041748,-0.618652,62.187191,89.958183,154.22821,0.8472637541267772
0.638184,-0.067627,-0.640137,65.879822,91.232292,155.296326,0.9064367643437682
0.653076,-0.083252,-0.635254,68.222046,80.93261,157.707214,0.9148698277875383
0.648193,-0.084961,-0.61792,68.107605,66.474915,161.865219,0.8995541468805534
0.642578,-0.088379,-0.577637,69.602966,52.185055,165.428146,0.8685515744583047
0.632813,-0.126709,-0.571045,73.684692,39.802551,169.631943,0.8617423371721967
0.577881,-0.135254,-0.54541,77.880859,29.319761,174.659714,0.8060472459955433
0.493896,-0.124512,-0.487305,81.871025,27.229307,181.396469,0.7049132286920142
0.457031,-0.154297,-0.470947,85.891716,40.603634,188.163742,0.6741483338101489
0.504883,-0.219238,-0.462402,89.340202,64.338684,191.368088,0.7188795128093441
0.573486,-0.293945,-0.459961,91.827385,87.921135,192.939743,0.79174110461817
0.640869,-0.352295,-0.46875,93.90258,103.851311,195.053085,0.8686491838976192
0.727783,-0.405029,-0.486084,94.467155,111.396782,198.455795,0.9643620901850092
0.79126,-0.448486,-0.483643,92.681877,109.138481,201.133713,1.0301177754242474
0.800293,-0.461914,-0.477051,90.965263,99.555962,201.911911,1.039909171921279
0.790039,-0.476563,-0.468506,91.026299,89.363091,202.949509,1.034781033130198
0.758789,-0.499023,-0.45166,91.873161,81.909172,203.369125,1.014288645628058
0.695801,-0.530029,-0.418457,93.803398,78.605652,203.31572,0.9696267494716717
0.657715,-0.587891,-0.387207,96.641533,79.048157,204.414352,0.9633971714485153
0.650635,-0.661865,-0.37085,98.686211,81.123344,205.95549,0.9994603063403769
0.652588,-0.721436,-0.376465,99.517815,82.740776,207.199081,1.0431044511768703
0.652344,-0.788574,-0.388672,99.281303,86.456291,208.457932,1.0947454368007203
0.662842,-0.853271,-0.388428,97.869865,92.041008,207.21434,1.1481756083409018
0.706787,-0.915527,-0.395752,95.5429,97.145073,204.086288,1.2224390359449424
0.740723,-0.977783,-0.401611,92.628471,98.670952,199.707016,1.2907445731588414
0.733398,-1.01709,-0.396973,90.080254,94.65789,193.840012,1.3152688916084803
0.687988,-1.05249,-0.385498,88.302605,89.714043,189.048752,1.3151697214610742
0.607178,-1.081787,-0.362305,86.296074,87.882988,184.936508,1.2923595281801423
0.572754,-1.109375,-0.327637,83.808891,88.890068,180.603012,1.2907773002768526
0.577881,-1.141113,-0.30835,80.337517,89.698784,176.483139,1.315737455357261
0.591553,-1.16333,-0.307861,75.576782,85.037224,172.073349,1.3409138809148036
0.605713,-1.169678,-0.313965,70.81604,75.126648,168.197617,1.3541081505101429
0.606689,-1.167725,-0.317627,66.108704,63.667294,162.99437,1.3537134591467281
0.602051,-1.155518,-0.325684,61.073299,54.252621,155.357361,1.3430403280545973
0.580078,-1.145508,-0.326904,56.678768,49.453732,147.155762,1.3249699201732845
0.548584,-1.129639,-0.322754,51.650997,51.521297,136.688232,1.2966105120247173
0.531494,-1.106934,-0.311035,46.897884,59.478756,124.786369,1.2667010395578746
0.508789,-1.08252,-0.297607,42.480465,70.419312,113.677971,1.2325930891295798
0.491699,-1.06543,-0.291748,38.589478,81.153862,101.684563,1.2091426247573114
0.416992,-1.062744,-0.295166,35.324097,93.498222,87.898247,1.1791650033629728
0.320313,-1.059814,-0.338135,28.877256,121.238701,73.677063,1.1576447688259124
0.346924,-1.054688,-0.410645,20.439146,162.467941,59.974667,1.1837872930324096
0.422607,-1.023926,-0.456543,11.07788,195.808395,46.997066,1.1981037687838227
0.475098,-0.987793,-0.431885,2.723694,208.923325,36.804199,1.1781246851152896
0.49585,-0.981445,-0.35376,-3.013611,206.108078,30.624388,1.1550963804484022
0.501221,-0.977539,-0.28125,-7.545471,192.840561,26.336668,1.1339781963785724
0.557617,-0.953613,-0.250977,-10.490417,170.135483,21.080015,1.1328300521203523
0.644775,-0.944336,-0.243408,-9.902954,135.673523,12.367248,1.1690820056715439
0.678467,-0.927979,-0.234375,-8.430481,88.920586,2.983093,1.173198250576176
0.647949,-0.913818,-0.217529,-5.233764,36.834717,-4.089355,1.141148592237663
0.587402,-0.921387,-0.194336,-0.778198,-13.000487,-8.148193,1.1098475545177364
0.515869,-0.921143,-0.168213,2.120972,-55.503841,-9.513855,1.0690747705277681
0.446533,-0.911865,-0.138428,3.65448,-85.235588,-11.550902,1.024720356730557
0.403076,-0.899902,-0.116455,5.111694,-101.501457,-13.97705,0.9929026328925712
0.360352,-0.895752,-0.110596,6.599426,-106.994621,-15.640258,0.971831613307573
0.333008,-0.9021,-0.107178,7.080078,-104.797356,-16.365051,0.967556645239957
0.30957,-0.906494,-0.108154,7.026672,-98.403923,-17.021179,0.9639824918804283
0.283447,-0.901123,-0.108887,6.935119,-90.179436,-17.463684,0.9509054851598029
0.256836,-0.887451,-0.11084,6.866455,-80.696098,-16.403198,0.9304942309853403
0.230957,-0.875244,-0.117188,7.537841,-71.624756,-13.366698,0.9127574829761738
0.223145,-0.867188,-0.127197,8.94928,-64.224243,-9.391785,0.9044267771234993
0.230225,-0.874512,-0.134277,11.085509,-58.807369,-6.233215,0.9142237699261597
0.239746,-0.884033,-0.140137,12.619018,-54.702755,-3.890991,0.9266233692142671
0.249023,-0.890869,-0.142578,13.206481,-51.101681,-1.533508,0.9359425814514478
0.25708,-0.900391,-0.139404,13.34381,-47.431942,0.549316,0.9466929568223269
0.264648,-0.913086,-0.137207,13.34381,-44.738766,2.471924,0.9605156782421617
0.262695,-0.926758,-0.134766,13.488769,-44.265743,3.89862,0.9726514937761622
0.244873,-0.943604,-0.138184,13.679503,-45.356747,4.875183,0.984604546404799
0.221924,-0.952148,-0.140137,13.801574,-46.386715,5.317688,0.9876611030353478
0.200928,-0.966797,-0.146729,13.771056,-46.386715,5.516052,0.9982975006650071
0.187256,-0.984619,-0.156982,13.244628,-44.68536,5.592346,1.0144864380665717
0.18335,-0.994873,-0.167236,11.734008,-42.404171,5.477905,1.0253572003575144
0.181396,-1.001953,-0.169678,10.009766,-39.909363,4.592896,1.0322814280558381
0.172363,-1.009521,-0.170898,8.087158,-37.086487,3.631592,1.0382907972307178
0.168945,-1.009033,-0.17041,5.905151,-33.660889,2.571106,1.0371738408839668
0.164307,-1.005615,-0.16748,3.715515,-30.067442,1.426697,1.032621842144548
0.156494,-1.002686,-0.158936,1.731872,-25.978086,0.343323,1.027195326473013
0.163086,-0.997559,-0.149414,0.068665,-21.995543,-0.88501,1.0217854693001853
0.16626,-0.990479,-0.144287,-0.862122,-18.592834,-2.098083,1.0146476114444858
0.162109,-0.983154,-0.140381,-1.594543,-15.693664,-3.257751,1.0062693182036309
0.161133,-0.976074,-0.133301,-2.235413,-12.413024,-3.631592,0.9982251518400045
0.158203,-0.968262,-0.129395,-2.532959,-8.94928,-3.746032,0.9895971684872586
0.157715,-0.95752,-0.126465,-2.487183,-4.806519,-3.570556,0.9786275940571061
0.159912,-0.953125,-0.12207,-2.029419,-0.358582,-3.158569,0.9741253503882341
0.164307,-0.948242,-0.123535,-1.464844,4.470825,-2.059937,0.9702683015733329
0.186523,-0.943604,-0.125732,-1.235962,9.231567,-1.014709,0.9700452949058616
0.206543,-0.940918,-0.126465,-0.785828,12.199401,-0.328064,0.9715863779397074
0.212646,-0.939453,-0.126221,-0.274658,13.877868,0.511169,0.9714535508020957
0.212646,-0.938477,-0.126465,0.328064,15.472411,1.358032,0.9705414968305065
0.218018,-0.940186,-0.131348,0.915527,16.967773,2.159119,0.9740297018181735
0.221191,-0.943604,-0.135498,1.533508,17.799377,2.6474,0.978608029448461
0.221191,-0.942871,-0.133545,1.914978,18.203735,2.998352,0.9776325731822769
0.22583,-0.946289,-0.137695,2.182007,18.875122,3.341675,0.9825588905739951
0.236572,-0.954834,-0.142822,2.120972,19.615173,3.433227,0.9940183109098141
0.244385,-0.955566,-0.1521,1.853943,19.584656,3.27301,0.9979803698375034
0.244629,-0.958252,-0.158203,1.449585,18.600464,3.051758,1.0015580024911188
0.245605,-0.957031,-0.164795,1.25885,17.463684,2.586365,1.0016923394990098
0.247559,-0.958008,-0.158203,1.12915,15.907287,1.647949,1.002044398095214
0.244629,-0.958984,-0.157715,0.663757,14.549254,0.595093,1.0021814611745719
0.249756,-0.956787,-0.162109,0.442505,13.206481,0.205994,1.0020472797158824
0.252197,-0.956299,-0.155029,0.396728,10.238647,-0.190735,1.001071972962484
0.245361,-0.956787,-0.1521,-0.213623,7.278442,-1.152039,0.9993887100072725
0.241455,-0.952881,-0.145752,-0.801086,6.004333,-1.327515,0.993743610137947
0.247559,-0.952393,-0.159668,-0.946045,4.089355,-1.098633,0.9969111069468531
0.241943,-0.953613,-0.170898,-1.00708,0.442505,-1.312256,0.9985591096284686
0.223633,-0.957764,-0.17749,-1.083374,-2.593994,-1.426697,0.9994129769444661
0.217285,-0.960449,-0.175049,-1.441955,-3.547668,-0.892639,1.0001585900380998
0.213867,-0.96167,-0.173584,-1.670837,-3.677368,-0.282288,1.0003397860952048
0.218018,-0.960449,-0.164551,-1.823425,-3.90625,0.076294,0.9985345069280279
0.220459,-0.957275,-0.161133,-2.151489,-4.142761,0.267029,0.9954604160864459
0.223145,-0.953857,-0.158447,-2.02179,-4.78363,0.274658,0.9923418359028304
0.226318,-0.954346,-0.153076,-1.88446,-5.66864,0.25177,0.9926874566629721
0.220947,-0.957275,-0.14624,-1.88446,-6.523132,0.175476,0.9932669027174921
0.215088,-0.955811,-0.141602,-1.899719,-6.835937,0.045776,0.9898932477136108
0.217529,-0.955566,-0.138184,-1.945495,-6.378173,-0.1297,0.9897070597166618
0.226318,-0.956055,-0.133545,-1.823425,-5.767822,-0.587463,0.9915116071806723
0.231689,-0.956299,-0.131104,-1.533508,-6.187438,-1.00708,0.9926609838902705
0.227295,-0.953125,-0.123779,-1.495361,-6.652832,-1.38855,0.9876393691479699
0.222412,-0.950684,-0.122559,-1.464844,-6.118774,-1.365662,0.9840161960460814
0.225098,-0.95166,-0.128906,-1.434326,-5.142211,-1.251221,0.9863785389190094
0.226074,-0.949951,-0.132813,-1.411438,-4.264832,-1.296997,0.9854722973508693
0.225342,-0.949707,-0.133545,-1.480102,-3.265381,-1.495361,0.9851683459378909
0.222412,-0.950439,-0.140381,-1.579285,-2.204895,-1.594543,0.986158311644738
0.217529,-0.944824,-0.142578,-1.38092,-1.144409,-1.63269,0.9799692560999044
0.215576,-0.942871,-0.145264,-1.075745,0.442505,-1.243591,0.9780492646656405
0.221924,-0.94751,-0.148682,-0.816345,2.037048,-0.915527,0.984444919231137
0.227295,-0.947266,-0.153564,-0.564575,2.700805,-0.862122,0.9861834483892944
0.234619,-0.948975,-0.156006,-0.396728,2.494812,-0.572205,0.9899179247907374
0.236328,-0.949463,-0.157959,-0.175476,1.533508,-0.320435,0.9911013861527992
0.232422,-0.946777,-0.162109,-0.068665,0.465393,-0.183105,0.9882742542907813
0.228271,-0.945801,-0.164307,0.0,-0.328064,-0.068665,0.9867339921635415
0.22583,-0.947754,-0.168701,0.099182,-1.052856,-0.183105,0.9887855484466791
0.224121,-0.956055,-0.165771,-0.007629,-1.800537,-0.343323,0.9958671648904787
0.220947,-0.957275,-0.168457,-0.213623,-2.128601,-0.389099,0.9967801980792957
0.222168,-0.954834,-0.169922,-0.50354,-2.166748,-0.236511,0.9949573226344937
0.223145,-0.951904,-0.168457,-0.793457,-2.296448,-0.350952,0.9921152539347432
0.220703,-0.951172,-0.167969,-0.839233,-2.365112,-0.541687,0.990783312714743
0.223145,-0.950439,-0.163086,-0.686645,-2.593994,-0.694275,0.9898106016516494
0.222412,-0.950439,-0.151367,-0.488281,-2.975464,-0.961304,0.987782040307476
0.224854,-0.951172,-0.148682,-0.465393,-2.845764,-0.900268,0.9886323037530182
0.228027,-0.948975,-0.153564,-0.358582,-2.716064,-0.762939,0.9879938084067126
0.224609,-0.94751,-0.149414,-0.358582,-2.792358,-0.915527,0.9851644260614569
0.220947,-0.944336,-0.148926,-0.305176,-2.26593,-1.022339,0.9812069155794816
0.220947,-0.94165,-0.145996,-0.015259,-1.266479,-0.961304,0.9781805208268053
0.220703,-0.943115,-0.147217,0.144958,-0.045776,-0.831604,0.9797186139514754
0.226563,-0.944092,-0.143311,0.419617,1.235962,-0.785828,0.9814165986745894
0.229736,-0.944336,-0.143311,0.610352,1.968384,-0.801086,0.9823884940862244
0.231201,-0.946289,-0.146484,1.045227,2.128601,-0.892639,0.9850758022497559
0.233398,-0.947021,-0.147949,1.235962,2.090454,-1.045227,0.9865152342695981
0.231934,-0.945313,-0.148438,1.235962,1.63269,-1.182556,0.984603416695778
0.232422,-0.948975,-0.147461,1.25885,1.243591,-1.296997,0.9880881960786699
0.230957,-0.952881,-0.151611,1.197815,1.51062,-1.449585,0.9921235968018299
0.234619,-0.955078,-0.15625,1.144409,1.785278,-1.457214,0.9958082765999688
0.235352,-0.956299,-0.157959,0.999451,1.296997,-1.480102,0.9974213688236281
0.235107,-0.959229,-0.15918,0.869751,0.75531,-1.548767,1.0003668568530246
0.234863,-0.958252,-0.162109,0.572205,0.12207,-1.350403,0.9998434138173836
0.231201,-0.956543,-0.162354,0.106812,-0.831604,-1.068115,0.9973902117857384
0.22583,-0.954102,-0.164307,-0.160217,-1.808166,-0.930786,0.9941361101745575
0.223877,-0.952393,-0.164063,-0.343323,-2.319336,-0.87738,0.99201310754798
0.2229,-0.952148,-0.161865,-0.427246,-2.250671,-0.907898,0.9911965002606699
0.222656,-0.953125,-0.154541,-0.419617,-2.159119,-0.770569,0.9909116411880526
0.223145,-0.953125,-0.154053,-0.488281,-2.13623,-0.839233,0.9909456511126127
0.221924,-0.950439,-0.154785,-0.457764,-2.13623,-0.907898,0.9882018775139015
0.217041,-0.949707,-0.149658,-0.396728,-1.998901,-1.00708,0.9856204637151158
0.217285,-0.949219,-0.147949,-0.198364,-1.243591,-1.037598,0.9849458806386268
0.218506,-0.947998,-0.141846,0.099182,-0.068665,-1.045227,0.9831405635797965
0.221191,-0.950439,-0.147217,0.076294,0.930786,-0.984192,0.9868802340157594
0.224365,-0.950684,-0.148682,0.205994,1.670837,-0.923157,0.9880516475392367
0.227051,-0.946777,-0.147949,0.213623,2.029419,-0.801086,0.9847983300813421
0.227051,-0.94873,-0.149658,0.305176,2.403259,-0.747681,0.9869337801823382
0.22876,-0.949219,-0.151367,0.267029,2.845764,-0.694275,0.9880586097241398
0.228027,-0.949463,-0.154053,0.267029,3.265381,-0.587463,0.9885386324807948
0.230957,-0.948486,-0.155762,0.320435,3.517151,-0.50354,0.9885487487671005
0.23291,-0.949463,-0.153564,0.144958,3.677368,-0.442505,0.9896004034785959
0.236328,-0.950684,-0.156738,-0.091553,3.753662,-0.37384,0.9920775131430003
0.238525,-0.951904,-0.156738,-0.244141,3.807068,-0.389099,0.9937717049126524
0.239502,-0.95166,-0.157227,-0.419617,3.616333,-0.434875,0.9938502367726236
0.237549,-0.949707,-0.161377,-0.434875,3.326416,-0.457764,0.9921771260107743
0.238281,-0.94873,-0.162598,-0.404358,2.983093,-0.335693,0.9916171425832653
0.239502,-0.946777,-0.161377,-0.335693,2.235413,-0.228882,0.9898436401078707
0.240234,-0.945068,-0.16333,-0.25177,1.312256,-0.221252,0.988707534248627
0.237793,-0.946777,-0.157959,-0.297546,0.419617,-0.167847,0.9888797926234513
0.238525,-0.947266,-0.156494,-0.198364,-0.350952,-0.236511,0.9892913738717224
0.23584,-0.946533,-0.155762,-0.114441,-0.846863,-0.289917,0.9878294520477712
0.235596,-0.946289,-0.154053,0.061035,-1.12915,-0.366211,0.9872693014299594
0.236572,-0.945313,-0.158203,0.221252,-1.403808,-0.434875,0.9872239707189042
0.235596,-0.943604,-0.156738,0.267029,-1.754761,-0.495911,0.9851196803820336
0.229492,-0.940918,-0.153564,0.541687,-1.792908,-0.679016,0.9805993896000548
0.228516,-0.942139,-0.152344,0.984192,-1.556396,-0.823975,0.9813532248446529
0.226563,-0.94165,-0.15332,1.319885,-0.976562,-0.999451,0.9805827542176132
0.230225,-0.942871,-0.156494,1.731872,-0.610352,-1.00708,0.983107138262153
0.234619,-0.942871,-0.157715,1.869202,-0.587463,-0.923157,0.9843402963543655
0.235596,-0.94458,-0.157471,2.006531,-1.014709,-0.88501,0.9861713681997668
0.233398,-0.944092,-0.157471,2.128601,-1.220703,-0.747681,0.985180920800337
0.234375,-0.948486,-0.156982,2.113342,-1.464844,-0.648498,0.9895456943188626
0.235352,-0.953857,-0.154785,2.052307,-1.480102,-0.442505,0.9945813876088773
0.238525,-0.956787,-0.156494,1.937866,-1.213074,-0.114441,0.998411694157275
0.241211,-0.956299,-0.161621,1.701355,-1.296997,0.289917,0.9994057592204479
0.244141,-0.953857,-0.161133,1.396179,-1.869202,0.595093,0.9977032865631945
0.23877,-0.953369,-0.164063,1.174927,-2.578735,0.579834,0.9964136846862353
0.234863,-0.948242,-0.162598,1.13678,-3.005981,0.50354,0.9903340996537481
0.233643,-0.949707,-0.158691,1.091003,-3.013611,0.465393,0.9908154574788385
0.233887,-0.949707,-0.162109,0.953674,-3.120422,0.25177,0.9914261659342061
0.236572,-0.94873,-0.161377,0.938415,-3.593445,-0.099182,0.9910083048153532
0.23291,-0.946777,-0.152832,0.953674,-4.043579,-0.167847,0.9869100141618788
0.22876,-0.946777,-0.148926,0.831604,-3.944397,-0.350952,0.9853409454625337
0.229492,-0.950928,-0.152344,0.778198,-3.440857,-0.465393,0.9900198652471576
0.230469,-0.950439,-0.151123,0.976562,-3.074646,-0.62561,0.9895900230959284
0.22998,-0.953857,-0.14502,0.724792,-2.983093,-0.869751,0.9918491706146656
0.232422,-0.953857,-0.150635,0.274658,-2.296448,-0.892639,0.9932542805133033
0.237061,-0.95166,-0.155762,0.297546,-2.14386,-0.762939,0.9930339742249507
0.231689,-0.953369,-0.158691,0.221252,-3.105163,-0.930786,0.993868742019287
0.223389,-0.952637,-0.156006,0.221252,-3.326416,-1.060486,0.9908369044025358
0.220459,-0.948975,-0.1521,0.480652,-2.731323,-0.976562,0.9860477327726077
0.22168,-0.948242,-0.143555,0.534058,-1.922607,-1.205444,0.984333759955941
0.228271,-0.947998,-0.14917,0.846863,-0.724792,-1.182556,0.9864378066279698
0.231934,-0.953613,-0.157959,1.00708,-0.656128,-1.00708,0.9940433490577764
0.226074,-0.950928,-0.160889,0.724792,-1.586914,-0.595093,0.9905850720564086
0.220459,-0.944824,-0.1604,0.549316,-1.663208,-0.274658,0.9833731345003279
0.219971,-0.946045,-0.159912,0.534058,-1.091003,-0.289917,0.9843577757147043
0.218262,-0.948486,-0.164551,0.518799,-0.350952,-0.350952,0.9870871412600815
0.223389,-0.946533,-0.165527,0.297546,0.457764,-0.602722,0.9865224544525075
0.227783,-0.948242,-0.159424,0.205994,0.740051,-0.686645,0.9881619287490284
0.230957,-0.948975,-0.155518,0.175476,0.938415,-0.717163,0.9889795421534259
0.235352,-0.945557,-0.150879,0.366211,1.00708,-0.88501,0.9860188014404188
0.23999,-0.94751,-0.151367,0.541687,0.793457,-0.801086,0.9890815784802586
0.242188,-0.95166,-0.151123,0.663757,0.068665,-0.511169,0.9935541978538462
0.23877,-0.954346,-0.149658,0.595093,-0.831604,-0.213623,0.9950803573480889
0.237793,-0.950439,-0.149658,0.663757,-1.091003,0.068665,0.9910990467829136
0.237305,-0.949707,-0.147217,0.62561,-1.342773,0.205994,0.9899140841320523
0.231689,-0.947754,-0.149658,0.63324,-1.937866,0.228882,0.9870739355291477
0.225586,-0.947021,-0.14917,0.740051,-1.853943,0.083923,0.98488045301803
0.224854,-0.947021,-0.152344,0.801086,-1.403808,0.007629,0.9851988581464151
0.225342,-0.945068,-0.154053,1.00708,-1.121521,-0.205994,0.9836995823913924
0.222168,-0.942383,-0.157227,1.144409,-0.839233,-0.389099,0.9808999278427948
0.220947,-0.946289,-0.15918,1.304626,-0.335693,-0.427246,0.9846921959323127
0.225586,-0.952393,-0.157959,1.556396,-0.038147,-0.358582,0.9914093581997298
0.227051,-0.952393,-0.154297,1.51062,-0.038147,-0.099182,0.991167063243629
0.227051,-0.950439,-0.152588,1.319885,-0.015259,0.068665,0.9890245432070935
0.223877,-0.95166,-0.151367,1.327515,0.007629,0.236511,0.9892874382190445
0.225586,-0.952148,-0.152344,1.403808,0.099182,0.25177,0.990294679192007
0.22876,-0.95459,-0.150879,1.358032,0.343323,0.274658,0.9931453460299756
0.228271,-0.957275,-0.154053,1.266479,0.38147,0.396728,0.9961000963131165
0.229248,-0.955078,-0.157227,0.999451,0.228882,0.556946,0.9947104911063319
0.232422,-0.954346,-0.15918,0.839233,-0.015259,0.801086,0.9950550468190189
0.231201,-0.95459,-0.154297,0.63324,-0.244141,0.747681,0.9942351506107597
0.22876,-0.952637,-0.154053,0.572205,-0.526428,0.663757,0.9917563804574185
0.227295,-0.950439,-0.154297,0.450134,-0.610352,0.587463,0.9893456797070476
0.227295,-0.950195,-0.153076,0.37384,-0.404358,0.411987,0.9889215423005002
0.229492,-0.949707,-0.151123,0.289917,-0.167847,0.267029,0.9886597620223045
0.232666,-0.951904,-0.148438,0.267029,-0.282288,0.190735,0.9911047031550198
0.232422,-0.952637,-0.149902,-0.015259,-0.831604,0.137329,0.9919716979112861
0.230469,-0.950195,-0.152588,-0.061035,-1.319885,0.068665,0.9895805150314956
0.228027,-0.947754,-0.1521,0.167847,-1.319885,-0.175476,0.986594327596201
0.226807,-0.947266,-0.151367,0.312805,-1.411438,-0.37384,0.9857313319023597
0.224854,-0.946533,-0.149414,0.305176,-1.472473,-0.396728,0.984280744910211
0.22583,-0.948486,-0.149414,0.518799,-1.502991,-0.312805,0.9863819871084427
0.224854,-0.950684,-0.150391,0.526428,-1.51062,-0.320435,0.9884213889091029
0.226563,-0.949951,-0.150391,0.427246,-1.625061,-0.198364,0.9881068506244656
0.223633,-0.950195,-0.149414,0.450134,-1.579285,-0.114441,0.9875255946607157
0.220947,-0.953613,-0.150391,0.442505,-1.121521,-0.106812,0.9903599262182412
0.220215,-0.952637,-0.150879,0.328064,-0.518799,-0.030518,0.9893312754760156
0.222412,-0.95166,-0.150635,0.198364,0.137329,0.068665,0.9888451630912698
0.227783,-0.952148,-0.151855,0.030518,0.305176,0.083923,0.9907223879664777
0.230225,-0.952881,-0.151367,-0.015259,0.289917,0.213623,0.9919161857107687
0.232178,-0.955566,-0.150391,-0.160217,-0.144958,0.114441,0.9948017173894504
0.230225,-0.95459,-0.149658,-0.190735,-0.816345,0.137329,0.9932991169275246
0.229004,-0.955078,-0.147217,-0.198364,-1.327515,0.061035,0.9931211724603398
0.227051,-0.955322,-0.147217,-0.328064,-1.396179,0.030518,0.9929074102724785
0.227295,-0.953125,-0.148926,-0.427246,-1.144409,0.160217,0.9911050580670043
0.230225,-0.95166,-0.150635,-0.526428,-1.045227,0.144958,0.990631722412522
0.229736,-0.953857,-0.154541,-0.541687,-1.243591,0.083923,0.9932294431932633
0.229492,-0.953613,-0.151367,-0.75531,-1.678467,0.221252,0.9924496463408107
0.227051,-0.950928,-0.149658,-0.801086,-2.090454,0.320435,0.9890468819772903
0.225098,-0.950928,-0.150391,-0.816345,-2.120972,0.411987,0.9887115978226411
0.224365,-0.949951,-0.14917,-0.717163,-2.098083,0.50354,0.9874199939873609
0.222412,-0.950195,-0.147949,-0.839233,-2.14386,0.617981,0.9870291497063296
0.224365,-0.949707,-0.147461,-0.801086,-1.88446,0.671387,0.9869284602214083
0.224365,-0.952637,-0.147461,-0.62561,-1.518249,0.610352,0.9897482778540208
0.223633,-0.949707,-0.151123,-0.579834,-1.205444,0.63324,0.9873161933580346
0.223389,-0.944824,-0.152832,-0.534058,-0.953674,0.610352,0.9828289050089033
0.221436,-0.943604,-0.1521,-0.396728,-0.686645,0.404358,0.9810998017082666
0.223145,-0.946777,-0.151855,-0.213623,-0.366211,0.228882,0.9845000354388007
0.223389,-0.950684,-0.151367,-0.076294,-0.091553,-0.091553,0.988238170617792
0.225098,-0.951172,-0.145752,-0.022888,0.259399,-0.175476,0.9882514501340234
0.226807,-0.949707,-0.148193,0.106812,0.541687,-0.099182,0.98759605423827
0.230469,-0.949951,-0.150635,0.282288,0.198364,-0.221252,0.9890468975670467
0.230713,-0.949707,-0.152832,0.549316,-0.640869,-0.137329,0.9892064973715042
0.227051,-0.94873,-0.1521,0.640869,-1.617432,-0.076294,0.9873070340583014
0.225098,-0.947998,-0.151367,0.770569,-2.029419,-0.038147,0.9860432476808509
0.225098,-0.950684,-0.149902,0.740051,-2.090454,-0.106812,0.9884026442012385
0.224609,-0.949951,-0.148438,0.808716,-1.663208,-0.137329,0.9873651528821543
0.221924,-0.951172,-0.148682,0.747681,-0.984192,-0.236511,0.9879700261060556
0.2229,-0.952637,-0.148438,0.770569,-0.160217,-0.297546,0.9895632893418187
0.225098,-0.953125,-0.150635,0.50354,0.63324,-0.343323,0.9908618866693784
0.226318,-0.952148,-0.151123,0.434875,1.197815,-0.457764,0.9902746145171045
0.231445,-0.953857,-0.150879,0.419617,1.480102,-0.587463,0.9930631586737069
0.231201,-0.954346,-0.151855,0.289917,1.396179,-0.648498,0.9936247436240706
0.227783,-0.949951,-0.15332,0.053406,1.068115,-0.663757,0.9888372059596059
0.229736,-0.950928,-0.1521,-0.068665,0.984192,-0.87738,0.9900389390726003
0.229736,-0.948975,-0.154053,0.1297,0.976562,-1.091003,0.9884657339179744
0.223389,-0.946533,-0.150635,0.0,1.029968,-1.312256,0.984133257559666
0.222412,-0.944092,-0.148438,-0.007629,1.342773,-1.426697,0.9812291485947613
0.220947,-0.945313,-0.149414,0.190735,1.88446,-1.441955,0.982221353959483
0.223145,-0.949951,-0.150146,0.50354,2.441406,-1.358032,0.9872914537977121
0.223877,-0.94873,-0.150391,0.717163,2.738952,-1.083374,0.9863199161073449
0.223633,-0.944824,-0.150635,1.060486,2.746582,-0.991821,0.982545170915821
0.227051,-0.946533,-0.152832,1.228333,2.700805,-0.88501,0.9853093407219886
0.232178,-0.949219,-0.152832,1.480102,2.510071,-0.831604,0.9890808631598329
0.230957,-0.954346,-0.152832,1.487732,2.14386,-0.770569,0.9937177888057555
0.234131,-0.953125,-0.14917,1.464844,1.983642,-0.732422,0.9927317259390878
0.23584,-0.952881,-0.150146,1.441955,1.808166,-0.724792,0.9930491060753239
0.235107,-0.953369,-0.150635,1.51062,1.419067,-0.694275,0.9934176638428572
0.23584,-0.953125,-0.1521,1.480102,0.930786,-0.511169,0.9935804855294814
0.238037,-0.952637,-0.152832,1.518249,0.175476,-0.450134,0.993748704332237
0.237549,-0.950195,-0.152344,1.571655,-0.62561,-0.656128,0.9912157987855118
0.236084,-0.948242,-0.150635,1.64032,-1.174927,-0.862122,0.9887312318547442
0.233643,-0.947021,-0.147949,1.792908,-1.411438,-0.991821,0.9865732271306575
0.230713,-0.947754,-0.148926,1.998901,-1.548767,-1.045227,0.9867345571940814
0.229736,-0.947998,-0.150879,2.334595,-1.609802,-1.167297,0.9870376438317842
0.228516,-0.950195,-0.148926,2.365112,-1.525879,-1.13678,0.9885691952296511
0.229736,-0.94873,-0.145264,2.410889,-1.487732,-1.121521,0.9868986129750107
0.229004,-0.948975,-0.149902,2.555847,-1.335144,-0.976562,0.987657325313289
0.229736,-0.951172,-0.149414,2.441406,-1.159668,-0.839233,0.9898643072037703
0.231445,-0.953369,-0.149658,2.456665,-0.991821,-0.663757,0.9924095702632055
0.232178,-0.95459,-0.149414,2.334595,-0.717163,-0.579834,0.9937168787838919
0.235107,-0.953125,-0.147461,2.281189,-0.709534,-0.389099,0.9927070633348994
0.235596,-0.954346,-0.147705,2.204895,-1.045227,-0.350952,0.9940314532030664
0.235596,-0.955078,-0.149414,2.120972,-1.304626,-0.37384,0.9949894495400441
0.236816,-0.957275,-0.148682,2.075195,-1.716614,-0.305176,0.9972780858943006
0.237061,-0.955322,-0.149414,1.800537,-2.052307,-0.427246,0.995571486534744
0.234375,-0.951172,-0.149902,1.586914,-2.441406,-0.511169,0.9910249360197755
0.233643,-0.951416,-0.148193,1.556396,-2.853393,-0.541687,0.9908292596376028
0.230225,-0.948242,-0.146484,1.579285,-3.028869,-0.694275,0.986723873961201
0.228516,-0.946777,-0.146729,1.579285,-2.944946,-0.587463,0.9849546433344024
0.229248,-0.946533,-0.144043,1.586914,-2.693176,-0.679016,0.9844936523116845
0.227539,-0.950439,-0.144775,1.708984,-2.601623,-0.717163,0.9879615831939014
0.225098,-0.951416,-0.145508,1.708984,-2.494812,-0.62561,0.9884503491445586
0.227783,-0.950439,-0.145264,1.617432,-1.998901,-0.526428,0.9880895796971042
0.229736,-0.952637,-0.144531,1.663208,-1.655578,-0.419617,0.9905478753831134
0.229004,-0.951416,-0.143799,1.609802,-1.411438,-0.297546,0.9890972598652774
0.230713,-0.952393,-0.145264,1.518249,-1.121521,-0.305176,0.9906475379841209
0.232666,-0.954346,-0.146729,1.449585,-0.968933,-0.25177,0.9931964330951859
0.233398,-0.955078,-0.146484,1.243591,-1.174927,-0.213623,0.9940352985402481
0.23291,-0.953857,-0.143311,1.13678,-1.541138,-0.198364,0.992284378225315
0.230713,-0.952881,-0.144775,1.014709,-1.777649,-0.198364,0.9910451499074096
0.230713,-0.951416,-0.145508,0.846863,-1.731872,-0.205994,0.9897441444580514
0.22998,-0.951904,-0.143311,0.785828,-1.777649,-0.213623,0.9897222177646615
0.227295,-0.949951,-0.14209,0.694275,-1.739502,-0.160217,0.9870458386143979
0.227539,-0.95166,-0.143311,0.709534,-1.38092,-0.007629,0.9889230479880626
0.22998,-0.952148,-0.14502,0.762939,-1.12915,0.015259,0.9902057436230108
0.229736,-0.95166,-0.144043,0.62561,-1.13678,0.030518,0.9895371499569887
0.229004,-0.954346,-0.145752,0.526428,-1.441955,0.061035,0.9922009701849722
0.229492,-0.952393,-0.14502,0.511169,-1.792908,0.053406,0.9903281299210884
0.230469,-0.951172,-0.14624,0.434875,-1.998901,0.099182,0.989560645511431
0.232178,-0.954346,-0.143311,0.259399,-2.204895,0.183105,0.9925829709001661
0.231689,-0.953613,-0.141602,0.259399,-2.510071,0.221252,0.9915183674012298
0.228516,-0.954102,-0.13916,0.137329,-2.510071,0.312805,0.9909065012704277
0.229736,-0.95459,-0.140869,-0.022888,-2.456665,0.343323,0.9918995780607027
0.228516,-0.955566,-0.143066,-0.053406,-2.456665,0.305176,0.99287150375464
0.22876,-0.952637,-0.141602,-0.167847,-2.540588,0.366211,0.9898987411715402
0.224854,-0.95459,-0.141357,-0.297546,-2.380371,0.411987,0.9908497317277732
0.223145,-0.952393,-0.139893,-0.37384,-2.159119,0.50354,0.9881377277095537
0.2229,-0.951416,-0.142822,-0.396728,-1.533508,0.511169,0.9875600937360723
0.223389,-0.951904,-0.142334,-0.328064,-0.801086,0.343323,0.988070259694623
0.225098,-0.950195,-0.144043,-0.267029,-0.289917,0.37384,0.9870602988054985
0.226074,-0.950439,-0.147461,-0.427246,-0.068665,0.25177,0.9880225163011216
0.226563,-0.947754,-0.147461,-0.320435,0.015259,0.236511,0.9855522228710156
0.22876,-0.952637,-0.144287,-0.160217,-0.221252,0.183105,0.990286387737406
0.229736,-0.958008,-0.141846,-0.137329,-0.236511,0.144958,0.9953282099267557
0.232178,-0.961426,-0.142578,-0.366211,-0.160217,0.228882,0.9992872776354155
0.231934,-0.959961,-0.143555,-0.595093,-0.282288,0.534058,0.9979611915811155
0.234375,-0.95459,-0.148438,-0.679016,-0.602722,0.801086,0.9940862882914139
0.236084,-0.953369,-0.151123,-0.709534,-1.159668,0.961304,0.9937234355423042
0.236328,-0.952637,-0.146484,-0.793457,-2.159119,0.946045,0.992383867064051
0.229248,-0.94873,-0.14502,-0.87738,-3.028869,0.88501,0.986749238055951
0.225586,-0.94751,-0.143555,-0.946045,-3.334045,0.778198,0.9845162677787502
0.222412,-0.949463,-0.142822,-0.946045,-3.189087,0.480652,0.985568470374839
0.219727,-0.949219,-0.143555,-0.801086,-2.616882,0.213623,0.9848373990233109
0.220947,-0.948486,-0.145508,-0.75531,-1.815796,0.1297,0.9846907367640868
0.224365,-0.948486,-0.144531,-0.648498,-1.113892,0.114441,0.9853195194362081
0.225586,-0.949951,-0.143066,-0.488281,-0.854492,0.137329,0.986794723411612
0.227783,-0.952393,-0.146973,-0.518799,-0.953674,0.228882,0.9902214824305722
0.22583,-0.955322,-0.145264,-0.457764,-1.106262,0.267029,0.9923411420877399
0.224121,-0.95166,-0.142822,-0.396728,-1.12915,0.221252,0.9880714052764606
0.225342,-0.951172,-0.143555,-0.465393,-0.984192,0.038147,0.9879854394539426
0.226074,-0.953125,-0.14624,-0.518799,-0.892639,-0.106812,0.9904255937227188
0.225586,-0.953125,-0.145752,-0.549316,-0.75531,-0.198364,0.9902423716065678
0.228027,-0.952393,-0.146484,-0.671387,-0.473022,-0.282288,0.9902051814821008
0.22583,-0.953857,-0.148682,-0.717163,-0.480652,-0.282288,0.9914376947004788
0.227295,-0.953857,-0.147461,-0.694275,-0.732422,-0.274658,0.9915901068460697
0.226563,-0.950195,-0.146729,-0.740051,-1.190186,-0.312805,0.9877908333422618
0.224854,-0.947021,-0.150635,-0.534058,-1.556396,-0.396728,0.9849360380156673
0.2229,-0.94873,-0.150391,-0.259399,-1.731872,-0.396728,0.9860986136188409
0.224121,-0.949463,-0.149414,-0.068665,-1.815796,-0.38147,0.9869319907703873
0.222168,-0.951172,-0.149658,-0.221252,-1.678467,-0.465393,0.9881722070428818
0.220703,-0.95166,-0.150146,-0.099182,-1.251221,-0.465393,0.9883877736622403
0.223145,-0.949219,-0.144287,0.0,-0.63324,-0.457764,0.9857125033979228
0.22583,-0.949463,-0.146729,0.175476,-0.297546,-0.602722,0.986918728523276
0.226318,-0.953857,-0.146729,0.434875,-0.434875,-0.648498,0.9912579951828887
0.228271,-0.953857,-0.147705,0.495911,-0.724792,-0.63324,0.991850590015956
0.227295,-0.951904,-0.145752,0.50354,-1.113892,-0.663757,0.9894583810070032
0.227295,-0.951416,-0.144043,0.534058,-1.373291,-0.75531,0.988738493197266
0.225098,-0.952393,-0.147217,0.62561,-1.434326,-0.831604,0.9896435626739559
0.224365,-0.953125,-0.146484,0.610352,-1.495361,-1.022339,0.9900729675665325
0.222656,-0.952393,-0.149414,0.656128,-1.457214,-1.022339,0.9894203677815613
0.221436,-0.951904,-0.151123,0.579834,-1.251221,-0.923157,0.9889354318867334
0.222168,-0.950928,-0.148926,0.617981,-0.930786,-0.869751,0.9878267231068413
0.220947,-0.951416,-0.147217,0.732422,-0.663757,-0.846863,0.987766585258886
0.220459,-0.952148,-0.146484,0.732422,-0.511169,-0.938415,0.9882537866565451
0.222656,-0.950684,-0.14624,0.785828,-0.213623,-1.029968,0.9873003088179401
0.224121,-0.950195,-0.145996,0.831604,-0.12207,-1.029968,0.9871249124006546
0.225098,-0.949219,-0.146484,1.106262,-0.152588,-1.182556,0.9864802997632542
0.224609,-0.950439,-0.148438,1.312256,-0.205994,-1.350403,0.9878346700971777
0.227051,-0.952393,-0.146973,1.251221,-0.282288,-1.167297,0.990053355016284
0.228516,-0.954346,-0.148438,1.13678,-0.434875,-0.915527,0.9924866194644641
0.226807,-0.954102,-0.148193,1.037598,-0.846863,-0.846863,0.991823173202764
0.226074,-0.955811,-0.14917,0.976562,-1.098633,-0.808716,0.9934464304113232
0.22583,-0.955322,-0.149658,0.793457,-1.121521,-0.747681,0.9929938718582306
0.225342,-0.952148,-0.147217,0.595093,-1.228333,-0.75531,0.9894633272420964
0.225586,-0.953613,-0.14917,0.427246,-1.266479,-0.846863,0.9912207050223477
0.227783,-0.954102,-0.147217,0.396728,-1.159668,-1.014709,0.9919014903618202
0.226563,-0.952148,-0.143799,0.312805,-0.991821,-1.098633,0.9892394852986813
0.224854,-0.95166,-0.145996,0.152588,-0.762939,-1.121521,0.9887016278594872
0.224609,-0.952393,-0.145508,0.205994,-0.450134,-1.197815,0.989279640644646
0.225342,-0.955811,-0.145996,0.137329,-0.068665,-1.12915,0.992808398786493
0.227783,-0.956787,-0.143555,-0.137329,0.061035,-1.12915,0.9939489405814567
0.230957,-0.956543,-0.148193,-0.305176,-0.114441,-1.190186,0.995126530621609
0.237549,-0.959473,-0.15332,-0.457764,-0.511169,-1.213074,1.000262459322552
0.23877,-0.958984,-0.151855,-0.846863,-1.586914,-1.472473,0.9998606733845471
0.231445,-0.953857,-0.147217,-0.671387,-3.14331,-1.724243,0.9925133800423045
0.224121,-0.950439,-0.151611,-0.564575,-3.585815,-1.823425,0.9882056520193557
0.229736,-0.949463,-0.157715,-0.541687,-3.578186,-1.876831,0.9895113133714035
0.227783,-0.948242,-0.158203,-0.366211,-3.929138,-1.731872,0.9879656749411894
0.222656,-0.94458,-0.154297,-0.358582,-4.081726,-1.289368,0.9826569263710504
0.221924,-0.944336,-0.148193,-0.160217,-3.410339,-0.587463,0.981316415801244
0.22168,-0.943848,-0.150879,0.083923,-2.761841,-0.228882,0.9812010712106872
0.22168,-0.943115,-0.148926,0.411987,-2.189636,-0.274658,0.9801973674219902
0.222168,-0.941895,-0.141846,0.640869,-1.693725,-0.083923,0.9780823579663424
0.226074,-0.945801,-0.142578,1.045227,-1.373291,0.12207,0.9828415290172673
0.228027,-0.947998,-0.148438,1.449585,-1.159668,0.053406,0.9862709366989376
0.22998,-0.951172,-0.148926,1.564026,-0.793457,0.015259,0.9898474263541831
0.231445,-0.952148,-0.151123,1.686096,-0.75531,-0.030518,0.9914589063889637
0.233154,-0.95166,-0.149902,1.594543,-0.823975,-0.198364,0.9912054040006036
0.231445,-0.952881,-0.150391,1.403808,-0.88501,-0.221252,0.9920516322586239
0.231689,-0.95459,-0.151611,1.243591,-0.854492,-0.335693,0.9939354889237028
0.229736,-0.952148,-0.154785,0.999451,-0.793457,-0.442505,0.9916263609974273
0.229492,-0.954834,-0.158447,0.762939,-0.793457,-0.495911,0.9947260916599101
0.22583,-0.953857,-0.15625,0.457764,-0.671387,-0.63324,0.9926008401411919
0.225342,-0.950928,-0.152832,0.106812,-0.534058,-0.778198,0.9891413945296194
0.222412,-0.94751,-0.154541,0.030518,-0.007629,-0.862122,0.9854568577695322
0.222168,-0.948242,-0.155273,0.144958,0.823975,-0.999451,0.986220672728472
0.223389,-0.950439,-0.150879,0.068665,1.396179,-1.167297,0.9879278367790838
0.226807,-0.946289,-0.149414,-0.144958,1.594543,-1.060486,0.9844942001687974
0.230469,-0.948242,-0.147461,-0.015259,1.747131,-0.907898,0.9869263382066567
0.234863,-0.953125,-0.147949,0.198364,1.441955,-0.961304,0.9927219152386029
0.239258,-0.957764,-0.147461,0.205994,0.732422,-0.709534,0.998148794910358
0.241699,-0.957031,-0.150146,0.068665,-0.236511,-0.534058,0.9984340553476728
0.245117,-0.955078,-0.150879,0.137329,-1.419067,-0.434875,0.9975072944164368
0.243652,-0.949707,-0.149902,0.160217,-2.632141,-0.442505,0.9918569919887644
0.242676,-0.946533,-0.149902,0.480652,-3.77655,-0.640869,0.9885782572305543
0.243408,-0.945557,-0.148682,0.823975,-4.928589,-0.785828,0.9876395252504833
0.240967,-0.945801,-0.150391,0.999451,-6.431579,-0.709534,0.9875333308658498
0.233643,-0.947998,-0.15332,1.266479,-7.850646,-0.686645,0.9883300470252839
0.228271,-0.949463,-0.152344,1.594543,-8.834839,-0.915527,0.9883300724687072
0.223877,-0.948242,-0.153076,1.731872,-8.94928,-0.968933,0.9862636886091873
0.218994,-0.947266,-0.152832,1.76239,-8.178711,-0.961304,0.9841894467103374
0.218994,-0.947998,-0.149902,1.770019,-7.003784,-0.915527,0.9844435939372047
0.220947,-0.945068,-0.151855,1.754761,-5.653381,-0.915527,0.9823599352874689
0.221191,-0.947266,-0.151367,1.907349,-4.40979,-0.823975,0.9844543168303952
0.224121,-0.950195,-0.150879,1.869202,-3.318786,-0.75531,0.9878589136648006
0.228516,-0.951416,-0.149414,1.953125,-2.746582,-0.709534,0.9898164025252361
0.228271,-0.951416,-0.148682,1.998901,-2.39563,-0.686645,0.9896496307385761
0.229004,-0.949951,-0.14917,1.930237,-1.930237,-0.793457,0.9884844072199621
0.229248,-0.948975,-0.149414,1.853943,-1.89209,-0.892639,0.9876399847743104
0.230957,-0.950439,-0.152344,2.02179,-1.960754,-0.961304,0.989890965160305
0.22876,-0.951172,-0.156738,2.006531,-2.052307,-0.968933,0.9907704637442519
0.230469,-0.953613,-0.157959,1.846313,-2.151489,-0.991821,0.9937025507721112
0.228271,-0.953857,-0.156738,1.701355,-2.281189,-1.029968,0.9932359369928174
0.226074,-0.951416,-0.156494,1.594543,-2.220154,-0.930786,0.9903495496883916
0.228027,-0.952881,-0.156006,1.358032,-2.166748,-0.846863,0.9921272019887369
0.226563,-0.953857,-0.152344,1.159668,-2.212524,-0.823975,0.9921606038106935
0.226074,-0.957275,-0.149658,1.083374,-2.26593,-0.694275,0.9949283371504704
0.228027,-0.955078,-0.149658,0.999451,-2.250671,-0.617981,0.9932612021905416
0.226807,-0.954346,-0.147217,0.816345,-2.227783,-0.62561,0.991912570771235
0.226318,-0.954834,-0.143066,0.701904,-2.189636,-0.549316,0.9916630904878935
0.228516,-0.953613,-0.139893,0.785828,-1.976013,-0.549316,0.9905389277933504
0.227783,-0.953857,-0.142334,0.740051,-1.76239,-0.457764,0.9909526926619655
0.226563,-0.950928,-0.146484,0.480652,-1.586914,-0.305176,0.988459617996102
0.227051,-0.950684,-0.144043,0.419617,-1.365662,-0.366211,0.9879780414088158
0.222168,-0.949951,-0.14209,0.457764,-1.060486,-0.457764,0.9858778274842172
0.223633,-0.950928,-0.147217,0.427246,-0.686645,-0.450134,0.9879011210450164
0.224365,-0.947998,-0.148438,0.297546,-0.396728,-0.518799,0.9854307185555968
0.220947,-0.945313,-0.145996,0.190735,-0.022888,-0.587463,0.9817072255993637
0.221924,-0.947266,-0.149658,0.297546,0.801086,-0.617981,0.9843579905176776
0.224365,-0.948486,-0.151855,0.411987,1.594543,-0.709534,0.9864204410118437
0.227539,-0.948975,-0.14917,0.457764,1.838684,-0.701904,0.9872077978044946
0.229248,-0.952393,-0.153564,0.457764,1.853943,-0.556946,0.9915588606073772
0.230957,-0.954346,-0.153564,0.442505,1.655578,-0.328064,0.9938306322814768
0.235107,-0.955811,-0.151611,0.312805,1.098633,-0.221252,0.9959095664220723
0.23584,-0.954834,-0.149414,0.068665,0.663757,-0.030518,0.9948130560823978
0.235352,-0.953369,-0.149658,-0.099182,0.427246,0.244141,0.9933280077743706
0.238525,-0.95166,-0.149414,-0.183105,0.221252,0.427246,0.9924089251014422
0.23877,-0.955811,-0.150879,-0.106812,-0.259399,0.366211,0.996669580784926
0.238281,-0.956543,-0.152832,-0.312805,-1.075745,0.38147,0.9975519866322757
0.237061,-0.955078,-0.153076,-0.396728,-1.968384,0.389099,0.9958936517424941
0.236816,-0.953857,-0.14917,-0.549316,-2.922058,0.228882,0.9940707636808357
0.234619,-0.952393,-0.149658,-0.617981,-3.608703,0.167847,0.9922177274036179
0.228516,-0.950928,-0.151855,-0.511169,-3.997802,0.137329,0.9897189320534391
0.226074,-0.95166,-0.150635,-0.518799,-4.188538,0.144958,0.9896752559809707
0.222656,-0.948975,-0.14917,-0.511169,-4.112244,0.167847,0.9860937753890346
0.221191,-0.94751,-0.148926,-0.404358,-3.90625,0.114441,0.9843168250400883
0.223389,-0.948242,-0.147217,-0.183105,-3.601074,0.091553,0.9852605650151639
0.220703,-0.94873,-0.148193,-0.167847,-3.372192,0.061035,0.9852713293088357
0.2229,-0.949951,-0.148926,0.068665,-3.02124,0.106812,0.9870512985032743
0.22168,-0.951904,-0.145996,0.289917,-2.593994,0.045776,0.9882196515107358
0.221924,-0.953857,-0.147949,0.1297,-2.105713,0.106812,0.9904455284496971
0.223145,-0.95166,-0.152588,-0.045776,-1.419067,0.274658,0.9893096301810671
0.22876,-0.952881,-0.151855,-0.137329,-0.75531,0.450134,0.9916517931138933
0.230225,-0.953613,-0.151855,-0.183105,-0.419617,0.450134,0.9926939334049545
0.230957,-0.953125,-0.154541,-0.274658,-0.434875,0.488281,0.9928098116734141
0.231934,-0.949951,-0.155029,-0.389099,-0.579834,0.526428,0.9900678126259838
0.22998,-0.951416,-0.156006,-0.511169,-1.022339,0.465393,0.9911715681414596
0.233398,-0.950439,-0.155029,-0.587463,-1.533508,0.404358,0.9908798665660737
0.23584,-0.95166,-0.153564,-0.62561,-1.914978,0.320435,0.9924007070211104
0.231934,-0.952637,-0.151123,-0.488281,-2.464294,0.297546,0.9920427386226865
0.22998,-0.950195,-0.153076,-0.495911,-2.830505,0.419617,0.9895421164361828
0.230957,-0.950928,-0.152344,-0.648498,-2.853393,0.511169,0.990360485565231
0.229004,-0.950439,-0.151855,-0.663757,-3.028869,0.564575,0.9893619488144872
0.224365,-0.949219,-0.154541,-0.656128,-3.227234,0.572205,0.9875420415693703
0.224609,-0.949951,-0.149902,-0.556946,-3.112793,0.488281,0.9875863075630402
0.225342,-0.95166,-0.149658,-0.518799,-2.998352,0.50354,0.9893600403937891
0.225586,-0.950684,-0.151611,-0.534058,-2.990722,0.534058,0.9887744973314189
0.2229,-0.949463,-0.152344,-0.473022,-2.723694,0.450134,0.9871033850134442
0.221924,-0.950439,-0.150391,-0.320435,-2.433777,0.335693,0.9875231680208825
0.2229,-0.951416,-0.151855,-0.305176,-2.151489,0.419617,0.9889068490414049
0.223389,-0.949707,-0.155518,-0.305176,-2.037048,0.38147,0.9879432572238144
0.222168,-0.948242,-0.157227,-0.328064,-2.098083,0.358582,0.9865302024352828
0.223877,-0.951904,-0.155273,-0.236511,-2.120972,0.190735,0.9901271841910008
0.224121,-0.956543,-0.152832,-0.267029,-2.174377,0.030518,0.9942647301971442
0.224609,-0.959717,-0.155029,-0.389099,-2.174377,0.175476,0.9977674647987878
0.226074,-0.95752,-0.156006,-0.526428,-2.357483,0.534058,0.9961384822965129
0.226563,-0.955811,-0.155762,-0.572205,-2.487183,0.831604,0.9945688821464302
0.223633,-0.95459,-0.158691,-0.785828,-2.418518,1.098633,0.9931951571921805
0.224854,-0.953857,-0.156006,-0.915527,-2.349854,1.312256,0.9923408536390105
0.225342,-0.952881,-0.155273,-0.747681,-2.403259,1.426697,0.9913984676475952
0.226074,-0.948975,-0.156982,-0.793457,-2.479553,1.426697,0.988082158742379
0.222168,-0.945801,-0.154541,-0.709534,-2.693176,1.13678,0.9837586454542597
0.21875,-0.944336,-0.154785,-0.87738,-2.494812,0.892639,0.981621332093491
0.219238,-0.943115,-0.155518,-0.679016,-1.953125,0.564575,0.9806717351861427
0.220459,-0.944336,-0.155029,-0.343323,-1.609802,0.183105,0.9820420777227419
0.220947,-0.942139,-0.157959,-0.183105,-1.342773,0.030518,0.980507275756279
0.222656,-0.943848,-0.160645,0.061035,-1.274109,-0.045776,0.9829707815927186
0.224121,-0.945557,-0.161133,0.236511,-1.686096,-0.083923,0.9850239116787977
0.223633,-0.945801,-0.162109,0.450134,-1.976013,-0.061035,0.9853073521348554
0.223633,-0.94751,-0.164795,0.617981,-2.288818,-0.12207,0.987392683188406
0.224854,-0.949463,-0.160645,0.663757,-2.426147,-0.320435,0.988861024467038
0.223145,-0.949463,-0.160889,0.75531,-2.5177,-0.473022,0.9885135050746651
0.222656,-0.950684,-0.162598,0.839233,-2.304077,-0.488281,0.989855480257598
0.223145,-0.953613,-0.162109,0.762939,-1.991272,-0.556946,0.9926987320808867
0.2229,-0.952393,-0.161621,0.579834,-1.800537,-0.511169,0.9913920435882064
0.224854,-0.950439,-0.161865,0.549316,-2.059937,-0.495911,0.9899969152790327
0.226807,-0.949707,-0.162842,0.541687,-2.63977,-0.404358,0.9899001556025738
0.224365,-0.951904,-0.158936,0.602722,-3.028869,-0.495911,0.9908186163657806
0.220215,-0.955322,-0.157715,0.564575,-3.02124,-0.656128,0.992979753637505
0.21875,-0.953613,-0.157959,0.328064,-2.815246,-0.617981,0.9910501308965153
0.216797,-0.954102,-0.154785,0.305176,-2.464294,-0.617981,0.9905907135835667
0.218262,-0.952637,-0.156494,0.396728,-2.151489,-0.62561,0.9897706433558231
0.216797,-0.951904,-0.158203,0.320435,-1.853943,-0.595093,0.9890148399462971
0.217041,-0.951416,-0.159668,0.450134,-1.449585,-0.541687,0.9888341979123699
0.218262,-0.95166,-0.158203,0.556946,-1.235962,-0.534058,0.9891022421635692
0.21875,-0.953125,-0.157471,0.610352,-1.13678,-0.572205,0.9905028742845726
0.216797,-0.95166,-0.157227,0.587463,-1.098633,-0.62561,0.9886243089960918
0.219238,-0.952148,-0.157715,0.75531,-0.793457,-0.694275,0.9897096219462554
0.221436,-0.954102,-0.154541,0.671387,-0.785828,-0.770569,0.991578261752949
0.223145,-0.951172,-0.155273,0.75531,-0.961304,-0.869751,0.9892580902565316
0.222656,-0.949707,-0.153564,0.831604,-1.335144,-1.029968,0.9874720159483001
0.223633,-0.949463,-0.153809,0.991821,-1.754761,-1.052856,0.9874962863418778
0.22168,-0.952393,-0.153564,1.235962,-2.105713,-0.976562,0.9898365273846991
0.219971,-0.949707,-0.153564,1.571655,-2.342224,-0.915527,0.9868700668203488
0.216553,-0.949463,-0.151611,1.869202,-2.304077,-0.846863,0.9855765244256784
0.214355,-0.951172,-0.155029,1.853943,-1.609802,-0.541687,0.9872741414875608
0.215332,-0.950928,-0.15625,1.792908,-0.663757,-0.358582,0.987444172552555
0.219482,-0.951416,-0.158691,1.770019,0.099182,-0.38147,0.9892156422443996
0.218018,-0.948975,-0.159424,1.625061,0.75531,-0.335693,0.9866617509182162
0.22168,-0.950684,-0.159668,1.541138,1.121521,-0.37384,0.9891592189733662
0.229492,-0.953857,-0.159668,1.281738,1.091003,-0.595093,0.9939837145230297
0.22998,-0.956055,-0.158936,1.159668,0.717163,-0.648498,0.9960886584641951
0.227783,-0.955322,-0.160645,0.900268,0.335693,-0.663757,0.9951542768827354
0.226074,-0.955078,-0.163574,0.587463,0.183105,-0.564575,0.9950074839095433
0.225098,-0.949951,-0.165283,0.411987,0.274658,-0.541687,0.9901487171602051
0.224609,-0.949219,-0.165771,0.350952,0.320435,-0.663757,0.9894169683621764
0.224854,-0.94751,-0.163574,0.152588,0.236511,-0.740051,0.987466948759299
0.224365,-0.943848,-0.158936,0.205994,0.068665,-0.915527,0.9830815593962691
0.2229,-0.942627,-0.154541,0.289917,-0.022888,-1.022339,0.9808735860497009
0.224365,-0.946533,-0.153564,0.572205,-0.106812,-1.304626,0.9848077352508965
0.224121,-0.946777,-0.154053,0.62561,-0.419617,-1.426697,0.9850630625391452
0.2229,-0.946533,-0.153564,0.839233,-0.801086,-1.342773,0.984475003331725
0.22583,-0.949463,-0.153076,1.174927,-1.075745,-1.197815,0.9878823001982574
0.225098,-0.954834,-0.150879,1.441955,-1.358032,-1.174927,0.992542971261698
0.225342,-0.95752,-0.150879,1.602173,-1.625061,-0.976562,0.9951824154420134
0.223877,-0.956055,-0.155762,1.670837,-1.960754,-0.854492,0.9941950889025755
0.222168,-0.953125,-0.155029,1.564026,-2.220154,-0.87738,0.9908783359676403
0.221924,-0.95166,-0.157471,1.426697,-2.319336,-1.014709,0.9898000470888046
0.220215,-0.950684,-0.157715,1.419067,-2.26593,-1.083374,0.9885184547118987
0.219971,-0.952637,-0.157227,1.38855,-2.075195,-1.159668,0.9902650272220058
0.219727,-0.954102,-0.163086,1.281738,-1.808166,-1.106262,0.9925661813345245
0.218018,-0.952637,-0.160156,1.174927,-1.579285,-1.121521,0.9903025024854779
0.219971,-0.953857,-0.15625,1.091003,-1.441955,-1.014709,0.9912842578140741
0.219727,-0.953613,-0.154297,1.037598,-1.38855,-0.87738,0.9906892916081208
0.220215,-0.951172,-0.153809,0.923157,-1.243591,-0.823975,0.9883724137641641
0.220703,-0.952881,-0.153564,0.839233,-0.785828,-0.793457,0.9900878327027355
0.218994,-0.954346,-0.154541,0.839233,-0.274658,-0.778198,0.9912706897881123
0.222168,-0.953125,-0.1521,0.656128,0.053406,-0.717163,0.9904243009180459
0.222656,-0.95166,-0.152344,0.617981,0.541687,-0.686645,0.9891618392720172
0.223877,-0.952881,-0.152832,0.617981,1.144409,-0.717163,0.9906869997703613
0.225342,-0.952881,-0.151855,0.442505,1.495361,-0.732422,0.9908688904946001
0.229248,-0.958008,-0.150879,0.366211,1.686096,-0.679016,0.996543248539169
0.230713,-0.957031,-0.148193,0.25177,1.480102,-0.457764,0.9955390442262925
0.23291,-0.953369,-0.148193,0.167847,0.907898,-0.457764,0.992532459675753
0.231689,-0.953125,-0.151855,0.297546,0.190735,-0.434875,0.9925658665151648
0.22998,-0.950195,-0.154541,0.411987,-0.526428,-0.404358,0.9897698010679049
0.228271,-0.94873,-0.154785,0.473022,-1.373291,-0.457764,0.9880053939964093
0.224609,-0.946533,-0.153564,0.457764,-2.029419,-0.404358,0.9848633534993573
0.218262,-0.945801,-0.15332,0.587463,-2.120972,-0.480652,0.9826926552310239
0.21582,-0.947754,-0.154297,0.75531,-1.747131,-0.541687,0.9841867105000961
0.21875,-0.950684,-0.154297,0.984192,-1.121521,-0.495911,0.987653377741908
0.219727,-0.950928,-0.153076,1.174927,-0.495911,-0.62561,0.9879151165403838
0.220703,-0.950928,-0.150146,1.38092,0.053406,-0.793457,0.9876829940365481
0.223633,-0.949463,-0.149658,1.571655,0.518799,-0.823975,0.9868582593371755
0.224854,-0.950928,-0.150879,1.670837,0.907898,-0.816345,0.9887304259205337
0.228271,-0.95166,-0.149902,1.617432,0.991821,-0.930786,0.99006818686644
0.229492,-0.952881,-0.1521,1.556396,1.045227,-0.961304,0.9918584517082062
0.228516,-0.950928,-0.15332,1.350403,1.197815,-0.923157,0.9899447690856293
0.22998,-0.950928,-0.153076,1.373291,1.541138,-1.00708,0.990245991337506
0.230957,-0.951416,-0.153809,1.480102,1.586914,-1.083374,0.9910553715035301
0.235107,-0.950439,-0.150635,1.312256,1.541138,-0.938415,0.9906061262656315
0.235352,-0.947754,-0.152832,1.152039,1.159668,-0.831604,0.988425934829717
0.234619,-0.944824,-0.151855,1.327515,0.648498,-0.915527,0.9852910266322331
0.236816,-0.945557,-0.150879,1.571655,0.137329,-0.930786,0.9863692669310008
0.236084,-0.946533,-0.156006,1.747131,-0.495911,-0.946045,0.9879262356982934
0.232422,-0.950439,-0.154785,1.785278,-0.991821,-1.091003,0.9906122728040472
0.230957,-0.950684,-0.153076,1.914978,-1.342773,-0.961304,0.9902390951083481
0.232666,-0.95166,-0.154297,1.983642,-1.678467,-0.915527,0.9917649859543338
0.236084,-0.951416,-0.157471,2.13623,-2.220154,-1.00708,0.9928369332136069
0.234131,-0.952393,-0.154785,2.281189,-2.868652,-0.900268,0.9928887892583943
0.233643,-0.952393,-0.153564,2.235413,-3.52478,-0.846863,0.9925841928995243
0.232666,-0.952148,-0.152832,2.02179,-3.875732,-0.694275,0.9920065028436054
0.229248,-0.952637,-0.151123,1.930237,-3.90625,-0.701904,0.9914182066121239
0.22876,-0.950684,-0.147705,1.777649,-3.799438,-0.762939,0.9889125201356286
0.224365,-0.948242,-0.145508,1.731872,-3.677368,-0.88501,0.9852284617554448
0.225342,-0.951416,-0.145752,1.937866,-3.486633,-0.938415,0.988541889615205
0.223877,-0.951416,-0.142334,1.846313,-3.234863,-1.060486,0.9877106275326798
0.223145,-0.951172,-0.139404,1.89209,-2.967834,-1.098633,0.9868917568938349
0.224121,-0.951416,-0.143066,2.006531,-2.609253,-1.037598,0.9878717062721252
0.224121,-0.950439,-0.144775,1.991272,-2.204895,-0.907898,0.9871799815570614
0.225098,-0.952393,-0.144043,1.968384,-1.770019,-0.778198,0.9891763856370612
0.225098,-0.951416,-0.145996,1.998901,-1.449585,-0.785828,0.9885223045920614
0.226563,-0.952637,-0.150391,2.029419,-1.38855,-0.709534,0.9906894062313375
0.227295,-0.953125,-0.148926,1.960754,-1.441955,-0.686645,0.9911050580670043
0.226074,-0.95166,-0.148193,1.991272,-1.754761,-0.648498,0.989306511817748
0.226074,-0.952148,-0.148193,1.823425,-1.831055,-0.63324,0.9897759507226875
0.230225,-0.955078,-0.148193,1.777649,-1.823425,-0.411987,0.9935485403129533
0.228516,-0.959229,-0.148193,1.586914,-1.983642,-0.404358,0.9971464295408172
0.227539,-0.95874,-0.147949,1.296997,-2.02179,-0.411987,0.996416223634481
0.226074,-0.957764,-0.147949,1.243591,-1.815796,-0.350952,0.9951433262465261
0.228516,-0.955322,-0.145996,0.991821,-1.564026,-0.396728,0.9930631993765553
0.227051,-0.95166,-0.144775,0.892639,-1.548767,-0.396728,0.9890241214581169
0.224854,-0.949463,-0.145508,0.854492,-1.434326,-0.343323,0.986515021552637
0.2229,-0.948975,-0.144775,0.732422,-1.060486,-0.267029,0.9854936637289963
0.223633,-0.950439,-0.145264,0.740051,-0.640869,-0.312805,0.9871411454832587
0.224609,-0.953369,-0.143799,0.724792,-0.213623,-0.350952,0.9899695982417844
0.224121,-0.95459,-0.144287,0.63324,0.389099,-0.289917,0.9911059626044029
0.224854,-0.952637,-0.141846,0.595093,0.793457,-0.221252,0.9890383525430144
0.227539,-0.952637,-0.143066,0.610352,1.098633,-0.259399,0.9898278287894314
0.229004,-0.950439,-0.145508,0.679016,0.976562,-0.328064,0.9884076602298264
0.233154,-0.95166,-0.144287,0.923157,0.518799,-0.396728,0.9903717896249872
0.234375,-0.953857,-0.144775,0.915527,-0.160217,-0.434875,0.9928416881351225
0.231445,-0.953857,-0.145508,0.961304,-0.946045,-0.480652,0.9922613277448638
0.231201,-0.954834,-0.143066,1.037598,-1.76239,-0.396728,0.992788874994578
0.228027,-0.954834,-0.144287,1.205444,-2.433777,-0.267029,0.9922313332353498
0.22583,-0.950928,-0.143066,1.13678,-2.838135,-0.160217,0.9877910358167865
0.221436,-0.950928,-0.143799,1.335144,-2.593994,-0.099182,0.9869022827418124
0.222656,-0.950684,-0.142822,1.411438,-2.067566,0.030518,0.9867998205695012
0.224121,-0.953125,-0.145264,1.358032,-1.716614,0.076294,0.9898379250978415
0.227051,-0.954102,-0.142822,1.228333,-1.38092,0.076294,0.9910907661203388
0.230225,-0.957275,-0.140137,0.968933,-0.991821,0.160217,0.994493516831055
0.228271,-0.955322,-0.137939,0.793457,-0.724792,0.099182,0.9918542941611939
0.230957,-0.955566,-0.136475,0.679016,-0.411987,0.061035,0.9925084089467454
0.230225,-0.949707,-0.138428,0.671387,-0.488281,-0.015259,0.9869697298590266
0.22876,-0.945557,-0.141357,0.740051,-0.953674,-0.297546,0.9830518700953678
0.230957,-0.943604,-0.141846,1.029968,-1.373291,-0.434875,0.9817585917021557
0.226807,-0.947754,-0.141846,1.38855,-1.617432,-0.63324,0.9847839090282701
0.223877,-0.950684,-0.14209,1.678467,-1.708984,-0.656128,0.9869703881500195
0.2229,-0.953613,-0.143311,1.853943,-1.441955,-0.427246,0.9897475468471746
0.224121,-0.955078,-0.141846,1.991272,-0.938415,-0.038147,0.9912237368228225
0.229004,-0.953125,-0.143555,2.067566,-0.953674,0.167847,0.9907058774762568
0.230469,-0.950439,-0.147705,2.197266,-1.716614,0.328064,0.9890738191394008
0.231445,-0.950195,-0.147705,2.433777,-2.609253,0.473022,0.9890672844023303
0.232666,-0.95459,-0.14917,2.296448,-3.410339,0.419617,0.9937943572771984
0.230469,-0.956055,-0.145264,1.914978,-3.952026,0.282288,0.9941120423181685
0.228271,-0.955322,-0.144287,1.51062,-3.746032,0.228882,0.9927570254065191
0.224854,-0.956299,-0.143066,1.190186,-3.219604,0.0,0.9927411440415875
0.225342,-0.955078,-0.141846,0.915527,-2.456665,-0.183105,0.9915005248430281
0.224365,-0.95166,-0.137695,0.762939,-1.823425,-0.434875,0.987398765367873
0.226318,-0.949219,-0.137939,0.473022,-1.579285,-0.62561,0.9855271253527221
0.227539,-0.950195,-0.135498,0.518799,-1.609802,-0.679016,0.9864097741557512
0.22583,-0.952148,-0.135742,0.572205,-1.846313,-0.679016,0.9879326360476204
0.222412,-0.954346,-0.136963,0.549316,-1.731872,-0.564575,0.9894454248865877
0.220215,-0.955078,-0.136719,0.396728,-1.014709,-0.511169,0.9896265544486971
0.219971,-0.95752,-0.140381,0.434875,0.0,-0.297546,0.9924407369722386
0.221191,-0.956787,-0.145752,0.419617,0.984192,-0.289917,0.9927791634366628
0.224609,-0.956055,-0.148193,0.358582,1.327515,-0.350952,0.9932026636870241
0.229248,-0.952637,-0.150391,0.396728,0.915527,-0.289917,0.9913068910050006
0.231934,-0.953369,-0.150635,0.335693,-0.083923,-0.213623,0.9926715135139117
0.232666,-0.952637,-0.148193,0.350952,-1.434326,-0.343323,0.9917720940689952
0.230713,-0.951904,-0.150391,0.480652,-2.624511,-0.434875,0.9909425646655814
0.227295,-0.955322,-0.147949,0.595093,-3.410339,-0.442505,0.9930720252378474
0.22876,-0.956055,-0.14209,0.473022,-3.929138,-0.366211,0.9932582084860915
0.22583,-0.952148,-0.14209,0.488281,-3.967285,-0.267029,0.9888248433893638
0.225586,-0.951172,-0.143799,0.549316,-3.875732,-0.213623,0.988076600968265
0.227051,-0.94873,-0.142578,0.62561,-3.967285,-0.305176,0.9858850113400649
0.226074,-0.949951,-0.137451,0.62561,-3.890991,-0.091553,0.986108073832681
0.224854,-0.950439,-0.138672,0.656128,-3.456115,0.022888,0.986470241629721
0.223633,-0.94873,-0.136963,0.724792,-2.799988,-0.205994,0.9843064537825605
0.2229,-0.951416,-0.138184,0.801086,-1.945495,-0.411987,0.9869000116080656
0.225342,-0.94873,-0.138184,0.831604,-0.793457,-0.419617,0.9848667157133497
0.237061,-0.952881,-0.142822,0.953674,-0.007629,-0.511169,0.9922591604847999
0.240234,-0.95459,-0.140869,1.00708,-0.282288,-0.663757,0.9943834863959679
0.241699,-0.956299,-0.138184,1.052856,-1.213074,-0.602722,0.9960025109697264
0.241943,-0.955566,-0.138672,0.87738,-2.540588,-0.579834,0.9954258983917387
0.239502,-0.950439,-0.142334,0.717163,-4.112244,-0.679016,0.9904314556197213
0.233154,-0.950928,-0.142578,0.694275,-5.516052,-0.816345,0.9894207067693701
0.226563,-0.950928,-0.141357,0.762939,-6.347656,-1.121521,0.9877128406586603
0.224609,-0.951172,-0.14209,1.098633,-6.660461,-1.266479,0.9876066750306014
0.224121,-0.95166,-0.136475,1.281738,-6.881713,-1.197815,0.9871739481297103
0.218262,-0.953857,-0.133545,1.396179,-6.866455,-1.022339,0.9875807532136296
0.21582,-0.955566,-0.13501,1.609802,-6.637573,-0.770569,0.9888945104792523
0.21582,-0.955322,-0.137695,1.647949,-6.393432,-0.488281,0.9890289728359832
0.214111,-0.95752,-0.138184,1.731872,-6.256103,-0.335693,0.9908495791879816
0.211914,-0.957031,-0.13623,1.724243,-5.828857,-0.106812,0.9896335136084469
0.213135,-0.959717,-0.136719,1.64032,-5.126953,-0.045776,0.9925599897613243
0.213867,-0.959473,-0.137695,1.495361,-4.348755,-0.144958,0.9926164639189701
0.213867,-0.959229,-0.138916,1.304626,-3.837585,-0.099182,0.9925507660497774
0.213135,-0.959229,-0.13916,1.113892,-3.479004,-0.175476,0.9924274826232897
0.216064,-0.960938,-0.14209,0.923157,-2.998352,-0.366211,0.9951256503778806
0.219238,-0.959473,-0.141846,0.610352,-2.418518,-0.343323,0.9943711711876004
0.220703,-0.956055,-0.143799,0.328064,-2.14386,-0.350952,0.9916799532283588
0.222656,-0.95874,-0.140869,0.297546,-2.075195,-0.213623,0.9942847464871418
0.223145,-0.958008,-0.13916,0.061035,-2.120972,-0.007629,0.9934477966601969
0.224854,-0.956543,-0.139648,-0.1297,-2.159119,0.12207,0.9924894941857068
0.222412,-0.955566,-0.139404,-0.25177,-2.189636,-0.053406,0.9909626397175627
0.221924,-0.953369,-0.141602,-0.442505,-2.388,-0.106812,0.9890469343468995
0.22168,-0.952148,-0.14209,-0.656128,-2.388,-0.244141,0.9878853194597033
0.218018,-0.951416,-0.142334,-0.602722,-1.716614,-0.556946,0.9863991184789249
0.217529,-0.950439,-0.145264,-0.389099,-0.732422,-0.717163,0.9857762364035766
0.221924,-0.947754,-0.143799,-0.198364,0.389099,-0.823975,0.9839542970550004
0.231201,-0.950684,-0.144287,0.144958,1.190186,-0.854492,0.9889755854549697
0.237305,-0.952637,-0.140625,0.091553,1.159668,-0.671387,0.9917692813447087
0.23584,-0.95166,-0.143555,-0.030518,0.167847,-0.289917,0.9909012560416905
0.239258,-0.949219,-0.142578,0.015259,-1.152039,-0.007629,0.989236870829732
0.23999,-0.94751,-0.140625,0.144958,-2.479553,-0.205994,0.9874947042009895
0.234375,-0.945557,-0.14209,0.358582,-3.784179,-0.526428,0.9844791765060346
0.22876,-0.946045,-0.143555,0.846863,-4.776001,-0.823975,0.9838395792251905
0.22583,-0.948486,-0.144775,1.251221,-5.302429,-0.961304,0.9856899521254135
0.223145,-0.944824,-0.143311,1.518249,-5.691528,-1.083374,0.981337925855309
0.219971,-0.945068,-0.142578,1.625061,-5.973815,-1.197815,0.9807493316587067
0.217285,-0.945557,-0.140381,1.89209,-5.607605,-1.296997,0.9803048692294657
0.217285,-0.952637,-0.140381,2.067566,-4.882813,-1.274109,0.9871356797092282
0.216064,-0.960449,-0.138916,2.082825,-4.02832,-1.296997,0.994205003383608
0.219482,-0.965088,-0.137695,1.937866,-3.570556,-1.075745,0.9992632831706566
0.221436,-0.962891,-0.137939,1.564026,-3.189087,-0.541687,0.9976072111297112
0.222412,-0.961426,-0.143555,1.487732,-2.929687,-0.114441,0.9972036347933154
0.224609,-0.962158,-0.146973,1.205444,-3.128052,0.1297,0.9988985346740678
0.224854,-0.96167,-0.147705,0.991821,-3.623962,0.305176,0.9985916468912607
0.223145,-0.961426,-0.147461,0.663757,-3.883362,0.488281,0.9979370676660928
0.220703,-0.958984,-0.149414,0.106812,-3.822326,0.442505,0.9953314371911499
0.216553,-0.957275,-0.146729,-0.144958,-3.517151,0.167847,0.9923709119452262
0.218018,-0.957764,-0.144775,-0.343323,-2.967834,0.030518,0.9928763914229203
0.217529,-0.956543,-0.145264,-0.732422,-2.540588,-0.030518,0.9916627483101299
0.217041,-0.953125,-0.141113,-0.732422,-2.098083,-0.152588,0.9876572989023065
0.217285,-0.953125,-0.139648,-0.770569,-1.739502,-0.228882,0.9875027092388152
0.218018,-0.953125,-0.139404,-0.732422,-1.235962,-0.045776,0.9876297834538001
0.218262,-0.951904,-0.140137,-0.747681,-0.862122,0.137329,0.9866092968490616
0.219482,-0.952637,-0.139893,-0.610352,-0.648498,0.244141,0.9875523548359347
0.217041,-0.954346,-0.141357,-0.465393,-0.343323,0.465393,0.9888705096452214
0.219482,-0.95459,-0.14209,-0.442505,-0.289917,0.50354,0.9897494554300094
0.219727,-0.956055,-0.143799,-0.511169,-0.205994,0.602722,0.9914631964702472
0.2229,-0.958984,-0.14917,-0.465393,-0.244141,0.686645,0.9957843195973713
0.222168,-0.956299,-0.149414,-0.518799,-0.480652,0.740051,0.9930714682342857
0.221924,-0.954834,-0.148193,-0.549316,-0.808716,0.640869,0.9914229140891389
0.221191,-0.954834,-0.151367,-0.297546,-1.121521,0.595093,0.991738571764757
0.224854,-0.954102,-0.152344,-0.404358,-1.342773,0.663757,0.9920073800410963
0.225098,-0.957031,-0.150635,-0.473022,-1.785278,0.572205,0.9946197000813929
0.223145,-0.953613,-0.148438,-0.587463,-2.220154,0.694275,0.9905580672721817
0.221924,-0.953369,-0.147461,-0.679016,-2.410889,0.892639,0.9899027520206215
0.223145,-0.954834,-0.146484,-0.62561,-2.5177,0.846863,0.9914429992879066
0.222412,-0.953613,-0.148193,-0.541687,-2.853393,0.930786,0.9903565099306412
0.220703,-0.954102,-0.147705,-0.778198,-3.15094,0.823975,0.9903722571023483
0.218262,-0.953125,-0.146729,-0.816345,-3.242492,0.747681,0.9887441356134559
0.21582,-0.950684,-0.145264,-0.709534,-2.883911,0.564575,0.9856368347175343
0.214111,-0.95166,-0.146729,-0.480652,-2.380371,0.701904,0.9864226656773454
0.2146,-0.955078,-0.147461,-0.450134,-1.625061,0.785828,0.9899352971810835
0.217773,-0.956787,-0.149414,-0.488281,-0.770569,1.045227,0.9925678749052883
0.218506,-0.956299,-0.151123,-0.686645,-0.335693,1.220703,0.9925174107117718
0.218506,-0.954346,-0.151123,-0.816345,-0.152588,1.441955,0.9906358164739453
0.221436,-0.952881,-0.150146,-0.747681,-0.221252,1.419067,0.9897271965410468
0.221924,-0.952637,-0.149414,-0.610352,-0.656128,1.182556,0.9894908079113216
0.225342,-0.951172,-0.151855,-0.366211,-1.167297,0.984192,0.9892255210885939
0.224609,-0.950439,-0.15332,-0.282288,-1.625061,0.717163,0.9885800513878479
0.224609,-0.951904,-0.154297,-0.259399,-2.27356,0.526428,0.9901403902002988
0.224365,-0.952637,-0.152588,-0.12207,-2.853393,0.465393,0.9905251156522988
0.220703,-0.950439,-0.154053,-0.099182,-3.257751,0.328064,0.9878139671714508
0.218018,-0.953613,-0.149414,-0.061035,-3.585815,0.244141,0.9895626031176603
0.219727,-0.952637,-0.149902,0.175476,-3.77655,0.205994,0.9890742226456011
0.221436,-0.955322,-0.151367,0.358582,-3.90625,0.312805,0.9922630671696897
0.219482,-0.956543,-0.1521,0.297546,-4.219055,0.282288,0.9931169463728832
0.218018,-0.957764,-0.14917,0.183105,-4.547119,0.396728,0.9935267570226782
0.217041,-0.957275,-0.147949,0.160217,-4.394531,0.587463,0.9926586159939377
0.215332,-0.956543,-0.14917,0.076294,-3.967285,0.701904,0.9917631118230805
0.211182,-0.957031,-0.14917,-0.175476,-3.440857,0.709534,0.9913414452069478
0.208252,-0.954834,-0.151367,-0.396728,-2.868652,0.556946,0.9889331786066236
0.208252,-0.953857,-0.153076,-0.450134,-2.159119,0.511169,0.9882531728909348
0.209717,-0.952393,-0.154053,-0.465393,-1.502991,0.396728,0.9873023717924514
0.209229,-0.952393,-0.155029,-0.434875,-1.190186,0.183105,0.9873516049164047
0.210449,-0.952393,-0.157227,-0.312805,-1.045227,0.007629,0.9879582671241737
0.212891,-0.952881,-0.155518,-0.221252,-0.854492,-0.038147,0.9886812562024223
0.21167,-0.954102,-0.158203,-0.183105,-0.579834,-0.091553,0.9900217192127655
0.212646,-0.955322,-0.155762,-0.175476,-0.358582,-0.198364,0.9910198008334646
0.214111,-0.95459,-0.154785,-0.198364,-0.267029,-0.274658,0.9904766451794813
0.214111,-0.952393,-0.154785,-0.213623,-0.221252,-0.198364,0.9883594199454974
0.216797,-0.953125,-0.154541,-0.183105,-0.038147,-0.053406,0.9896116033651787
0.216064,-0.953613,-0.154053,-0.213623,0.144958,-0.030518,0.9898453074465727
0.217285,-0.951416,-0.155029,-0.137329,0.228882,0.045776,0.9881493647834826
0.218262,-0.949463,-0.152832,-0.183105,0.12207,0.106812,0.9861419315884503
0.220703,-0.949219,-0.154053,-0.175476,-0.038147,-0.106812,0.9866401831361826
0.222168,-0.951172,-0.152832,-0.144958,-0.350952,-0.106812,0.9886578852322981
0.222168,-0.950928,-0.151367,-0.198364,-0.740051,-0.289917,0.9881976776419786
0.221924,-0.952881,-0.151855,-0.030518,-1.25885,-0.473022,0.9900971684445926
0.216797,-0.95166,-0.150146,-0.022888,-1.678467,-0.648498,0.9875229192909903
0.217041,-0.950439,-0.154053,-0.038147,-1.754761,-0.923157,0.9870022366798364
0.215332,-0.953857,-0.154541,0.099182,-1.701355,-1.022339,0.9899969532044025
0.212891,-0.95166,-0.151855,0.106812,-1.739502,-1.144409,0.9869342807431506
0.207764,-0.947754,-0.154053,0.289917,-1.625061,-1.205444,0.9824132791351102
0.205566,-0.947266,-0.154053,0.495911,-1.144409,-1.274109,0.9814797919065884
0.206299,-0.951904,-0.152588,0.717163,-0.610352,-1.319885,0.9858821432407627
0.205078,-0.95752,-0.152832,0.869751,-0.007629,-1.205444,0.9910898832638744
0.206299,-0.956299,-0.151367,0.938415,0.740051,-0.953674,0.9899388988675007
0.212402,-0.957764,-0.154541,0.946045,1.358032,-0.62561,0.9931311141943947
0.215332,-0.956543,-0.155762,1.060486,1.411438,-0.450134,0.9927759977542769
0.219238,-0.956055,-0.156738,1.060486,1.113892,-0.38147,0.9933142827489193
0.223633,-0.953125,-0.155762,1.098633,0.572205,-0.305176,0.9913227451027238
0.223145,-0.953857,-0.157471,1.022339,-0.152588,-0.389099,0.992186466000721
0.221924,-0.956787,-0.156982,0.984192,-0.617981,-0.671387,0.9946531925595976
0.220459,-0.955566,-0.156982,0.793457,-0.946045,-0.747681,0.993152505590657
0.21875,-0.953125,-0.153809,0.846863,-1.052856,-0.778198,0.9899272885449718
0.219238,-0.953369,-0.154785,0.869751,-0.961304,-0.907898,0.9904222064503603
0.220947,-0.951172,-0.153564,0.946045,-0.724792,-1.12915,0.9884976744985291
0.223389,-0.949707,-0.152588,0.938415,-0.75531,-1.281738,0.9874862677090754
0.22168,-0.950928,-0.154053,1.091003,-0.816345,-1.25885,0.9885031160259435
0.223389,-0.951172,-0.153809,0.984192,-1.190186,-1.228333,0.9890844389565534
0.220459,-0.952393,-0.15332,0.953674,-1.533508,-1.350403,0.9895259569763697
0.217041,-0.952881,-0.152832,1.152039,-1.861572,-1.457214,0.9891646051421371
0.218506,-0.955566,-0.1521,1.060486,-1.89209,-1.556396,0.9919605145327106
0.218018,-0.957031,-0.153076,0.946045,-1.831055,-1.609802,0.9934145383781133
0.216309,-0.95752,-0.153076,0.709534,-1.708984,-1.625061,0.9935121517409841
0.217773,-0.95752,-0.154785,0.747681,-1.464844,-1.63269,0.9940965879400251
0.215332,-0.95459,-0.156738,0.724792,-1.449585,-1.63269,0.9910483030448113
0.214844,-0.954102,-0.156982,0.717163,-1.51062,-1.686096,0.9905109383868509
0.216797,-0.955566,-0.155029,0.617981,-1.708984,-1.518249,0.9920389661732043
0.215088,-0.959717,-0.15332,0.610352,-1.785278,-1.464844,0.995402727660016
0.215088,-0.961914,-0.150879,0.297546,-1.777649,-1.304626,0.9971488674119828
0.212646,-0.959961,-0.146973,0.091553,-1.625061,-1.060486,0.9941551717745072
0.211182,-0.954834,-0.148438,-0.030518,-1.373291,-0.862122,0.9891105320053972
0.211914,-0.955566,-0.148926,0.053406,-1.00708,-0.75531,0.9900469065796832
0.2146,-0.956055,-0.150391,0.068665,-0.740051,-0.671387,0.9913182011372534
0.212158,-0.955078,-0.152344,0.297546,-0.770569,-0.663757,0.9901483209014699
0.212402,-0.952148,-0.150391,0.450134,-0.862122,-0.587463,0.9870754157555541
0.214355,-0.951416,-0.152588,0.602722,-0.999451,-0.518799,0.9871289524803738
0.212646,-0.952881,-0.152344,0.717163,-1.014709,-0.457764,0.9881342094133772
0.213379,-0.953369,-0.15332,0.709534,-0.793457,-0.526428,0.9889135807551639
0.212646,-0.95459,-0.152588,0.762939,-0.549316,-0.679016,0.9898199266331225
0.213623,-0.95459,-0.1521,0.823975,-0.289917,-0.701904,0.9899551829396117
0.217041,-0.954834,-0.151123,0.778198,-0.160217,-0.709534,0.9907839948071426
0.218994,-0.956543,-0.152344,0.831604,-0.015259,-0.617981,0.9930466138208216
0.220947,-0.957764,-0.150635,0.740051,0.053406,-0.564575,0.9943944688754056
0.223633,-0.957275,-0.151123,0.617981,-0.160217,-0.389099,0.9945980622558039
0.225586,-0.95752,-0.150879,0.50354,-0.396728,-0.144958,0.9952376934365982
0.225586,-0.95874,-0.150879,0.343323,-0.63324,-0.022888,0.9964115131997422
0.226074,-0.955566,-0.151855,0.076294,-1.182556,-0.152588,0.9936175193991902
0.222168,-0.955566,-0.151367,-0.045776,-1.770019,-0.213623,0.992661558270995
0.220703,-0.955078,-0.150391,-0.061035,-2.13623,-0.198364,0.9917163168840171
0.217041,-0.954102,-0.15332,-0.144958,-2.365112,-0.312805,0.9904162985760079
0.216064,-0.956543,-0.151367,-0.1297,-2.334595,-0.38147,0.9922550738766721
0.213135,-0.954834,-0.151611,-0.144958,-2.13623,-0.419617,0.9900102984827986
0.210693,-0.952881,-0.155518,-0.12207,-1.88446,-0.282288,0.9882102958044912
0.210205,-0.954102,-0.152588,-0.183105,-1.426697,0.030518,0.9888275209423532
0.209229,-0.954102,-0.155029,-0.137329,-0.938415,0.030518,0.9890001980212138
0.211182,-0.953125,-0.151855,-0.228882,-0.389099,-0.007629,0.98798028511403
0.210938,-0.950195,-0.14917,-0.213623,0.190735,-0.068665,0.9846913560954011
0.212646,-0.950195,-0.150635,-0.221252,0.778198,-0.144958,0.9852815651203467
0.213867,-0.950195,-0.152344,-0.114441,1.335144,-0.282288,0.9858084631661467
0.215576,-0.950928,-0.151367,0.045776,1.754761,-0.488281,0.9867365614230579
0.218994,-0.950928,-0.150146,0.259399,1.922607,-0.518799,0.9873025141951174
0.2229,-0.952881,-0.150879,0.297546,2.006531,-0.610352,0.9901671994173509
0.227295,-0.952393,-0.153809,0.511169,1.785278,-0.518799,0.9911471394071619
0.225586,-0.953613,-0.157471,0.480652,1.373291,-0.541687,0.9925038604489154
0.227295,-0.952393,-0.155518,0.305176,1.213074,-0.450134,0.9914137843494008
0.22876,-0.953613,-0.155518,0.022888,0.907898,-0.411987,0.9929223230912879
0.230957,-0.954346,-0.158691,0.282288,0.389099,-0.457764,0.994635740885074
0.232178,-0.951416,-0.156494,0.350952,-0.480652,-0.679016,0.9917607578322506
0.231201,-0.947754,-0.156982,0.534058,-1.579285,-0.671387,0.9880966021806775
0.229004,-0.94751,-0.153809,0.770569,-2.388,-0.694275,0.986851174492385
0.227051,-0.947998,-0.155273,1.037598,-3.341675,-0.907898,0.9870978012000634
0.221191,-0.947266,-0.150635,1.190186,-4.142761,-1.083374,0.9843420322540332
0.217041,-0.949463,-0.153564,1.304626,-4.302979,-0.968933,0.9859861490639713
0.215088,-0.950684,-0.149902,1.243591,-3.982544,-0.976562,0.9861711439724852
0.21167,-0.950928,-0.152832,1.281738,-3.166198,-1.037598,0.9861165602037114
0.213623,-0.953613,-0.151123,1.342773,-2.243042,-1.052856,0.9888633378920467
0.214844,-0.951416,-0.152832,1.266479,-1.38092,-0.946045,0.9872729964989421
0.215576,-0.950684,-0.152832,1.304626,-0.991821,-1.029968,0.9867272672101446
0.217529,-0.950439,-0.150391,1.281738,-0.526428,-1.13678,0.9865447843068251
0.217529,-0.955811,-0.150635,1.319885,-0.030518,-1.190186,0.991758255214949
0.218262,-0.958984,-0.148926,1.182556,0.450134,-1.083374,0.9947198431598717
0.221436,-0.958984,-0.150635,1.068115,1.029968,-0.915527,0.9956782198968701
0.224609,-0.956055,-0.153076,0.923157,1.365662,-0.785828,0.9939429700350015
0.227051,-0.952881,-0.156006,1.045227,1.022339,-0.671387,0.9919033364184233
0.228271,-0.952637,-0.155762,1.037598,0.114441,-0.686645,0.9919106329977514
0.226318,-0.949219,-0.15332,0.961304,-0.991821,-0.671387,0.98779733219168
0.221924,-0.946533,-0.152588,1.00708,-1.777649,-0.717163,0.9841026773711166
0.220703,-0.946045,-0.155762,1.083374,-2.151489,-0.747681,0.9838560651223328
0.220459,-0.946777,-0.154297,1.197815,-2.151489,-0.801086,0.9842745666829963
0.223877,-0.949707,-0.151367,1.243591,-1.983642,-0.831604,0.9874088644867434
0.221191,-0.951416,-0.151855,1.365662,-1.838684,-1.00708,0.9885230419985161
0.221436,-0.952148,-0.1521,1.358032,-1.777649,-1.12915,0.9893200321432898
0.224121,-0.954102,-0.148682,1.396179,-1.693725,-1.045227,0.9912856229003828
0.224609,-0.95459,-0.149414,1.228333,-1.701355,-0.999451,0.9919757125943155
0.223633,-0.952881,-0.148926,1.144409,-1.647949,-0.991821,0.99003680352096
0.222168,-0.951416,-0.151123,1.13678,-1.457214,-0.87738,0.9886299542341411
0.220215,-0.953613,-0.148926,1.060486,-1.182556,-0.938415,0.9899754307405816
0.220947,-0.952393,-0.150391,0.900268,-0.839233,-1.045227,0.9891852486460765
0.220215,-0.951416,-0.153809,0.839233,-0.457764,-1.13678,0.9886072323031022
0.219727,-0.952637,-0.1521,0.785828,-0.099182,-1.083374,0.989409732263636
0.224121,-0.956543,-0.148926,0.823975,-0.152588,-0.946045,0.9936718205554589
0.224121,-0.953613,-0.149414,0.823975,-0.602722,-0.75531,0.9909250828422904
0.223389,-0.949463,-0.1521,0.915527,-0.984192,-0.694275,0.9871762981808264
0.22168,-0.949707,-0.152344,0.976562,-1.014709,-0.617981,0.9870633731351802
0.2229,-0.952393,-0.150391,1.098633,-1.060486,-0.50354,0.98962330678395
0.22168,-0.954346,-0.14917,1.052856,-1.25885,-0.396728,0.9910449026234885
0.223145,-0.95459,-0.149658,1.083374,-1.327515,-0.335693,0.9916820438472203
0.224365,-0.95459,-0.152832,1.152039,-1.777649,-0.289917,0.992441102307336
0.224121,-0.955566,-0.148193,1.182556,-2.449036,-0.25177,0.9926216642034366
0.222168,-0.955811,-0.150146,1.304626,-2.838135,-0.213623,0.992711997137639
0.21875,-0.956299,-0.150879,1.251221,-2.853393,-0.244141,0.9925340359614878
0.216064,-0.954346,-0.148682,1.075745,-2.494812,-0.274658,0.9897304061894835
0.217529,-0.95166,-0.149902,0.953674,-2.02179,-0.305176,0.9876468149318358
0.218506,-0.953857,-0.149658,0.87738,-1.525879,-0.335693,0.9899422030851094
0.218506,-0.953369,-0.151855,1.029968,-1.121521,-0.328064,0.9898066797218535
0.21875,-0.951416,-0.150146,0.854492,-0.762939,-0.442505,0.9877184765265861
0.220703,-0.953613,-0.14917,0.801086,-0.762939,-0.358582,0.9901208294334586
0.219727,-0.952881,-0.150391,0.915527,-1.037598,-0.495911,0.9893834481994329
0.22168,-0.951904,-0.150635,0.785828,-1.037598,-0.457764,0.9889156439459333
0.222168,-0.954102,-0.148926,0.785828,-0.930786,-0.343323,0.9908825359768936
0.219971,-0.955322,-0.147217,0.793457,-0.724792,-0.190735,0.9913123673262632
0.221436,-0.952881,-0.145996,0.663757,-0.495911,0.022888,0.9891061289229787
0.223633,-0.95459,-0.147461,0.656128,-0.259399,0.099182,0.9914628249763074
0.222656,-0.95459,-0.148926,0.62561,-0.137329,0.106812,0.991461908452362
0.224121,-0.953857,-0.148438,0.587463,-0.228882,0.152588,0.9910132385261056
0.224854,-0.95459,-0.147217,0.534058,-0.236511,-0.038147,0.9917026946141672
0.222412,-0.953857,-0.147705,0.541687,-0.190735,-0.083923,0.9905185718693011
0.224365,-0.955566,-0.148438,0.473022,-0.183105,-0.061035,0.9927133893652286
0.226318,-0.956055,-0.151611,0.411987,-0.404358,-0.1297,0.9941060785801483
0.224365,-0.95459,-0.152832,0.358582,-0.656128,-0.106812,0.992441102307336
0.223145,-0.953125,-0.150635,0.320435,-0.869751,-0.114441,0.9904200421412119
0.223389,-0.94873,-0.150146,0.572205,-1.052856,-0.053406,0.9861719320367012
0.221191,-0.949463,-0.149414,0.587463,-1.312256,-0.106812,0.9862707489558837
0.219727,-0.950195,-0.147217,0.656128,-1.51062,-0.160217,0.9863180712341227
0.220459,-0.95166,-0.145752,0.694275,-1.487732,-0.053406,0.9876753372363816
0.218018,-0.952637,-0.147705,0.907898,-1.342773,-0.083923,0.9883652508652861
0.218506,-0.95166,-0.147217,0.862122,-0.953674,-0.030518,0.9874585929166853
0.221191,-0.954346,-0.145996,0.846863,-0.640869,0.038147,0.9904628101110108
0.223145,-0.957031,-0.145264,0.869751,-0.404358,0.076294,0.9933799150788182
0.224609,-0.954346,-0.144287,0.823975,-0.343323,0.061035,0.9909814473369317
0.224609,-0.953613,-0.14502,0.801086,-0.610352,-0.076294,0.9903826316378939
0.224365,-0.95459,-0.14502,0.892639,-0.938415,-0.267029,0.9912681381568764
0.221191,-0.952393,-0.143066,0.862122,-1.00708,-0.465393,0.9881527034249312
0.219727,-0.951904,-0.147217,0.846863,-0.991821,-0.465393,0.987964586831937
0.219238,-0.953369,-0.147949,1.014709,-0.747681,-0.473022,0.9893769036145932
0.218018,-0.952637,-0.148193,1.022339,-0.511169,-0.442505,0.988438297185009
0.218262,-0.953369,-0.149902,0.991821,-0.411987,-0.091553,0.9894550825626195
