ax,ay,az,gx,gy,gz,acc_mag
-0.309326,0.810303,-0.411377,3.479004,-1.770019,14.869689,0.959950291532848
-0.302002,0.806885,-0.434082,2.090454,-1.373291,16.365051,0.9647257610082773
-0.298828,0.811768,-0.453613,1.396179,1.953125,15.838622,0.9767447021494409
-0.302979,0.82373,-0.480713,2.235413,8.636475,14.419555,1.00070593868029
-0.310303,0.85083,-0.505127,4.394531,16.12854,14.381408,1.0369922501340112
-0.318848,0.879395,-0.502686,3.059387,21.545408,15.220641,1.0619288242274056
-0.33374,0.887207,-0.508301,-2.6474,22.964476,15.35797,1.075587539463897
-0.339355,0.893799,-0.531494,-6.233215,19.454956,17.669678,1.0938575503519643
-0.323242,0.892822,-0.516357,-5.851745,14.015197,24.757383,1.0808520091562026
-0.307373,0.873779,-0.516113,-4.554749,9.284973,32.180786,1.060349249416908
-0.301758,0.863281,-0.523438,-1.678467,6.500244,37.826538,1.053707414498446
-0.307373,0.863281,-0.544434,0.457764,4.112244,41.679379,1.0658989757223711
-0.319092,0.875,-0.547852,1.953125,1.945495,44.113155,1.080549174433075
-0.320801,0.883789,-0.547607,2.601623,1.342773,45.341488,1.0880577671111953
-0.319092,0.884033,-0.542725,3.303528,3.013611,46.401974,1.0853038630623222
-0.307861,0.869141,-0.536621,3.669739,6.958007,45.417782,1.0668395244098337
-0.299316,0.863037,-0.533447,4.837036,11.123656,42.350765,1.0578225905292438
-0.272949,0.883301,-0.514648,7.789611,16.784668,39.497375,1.058104142845117
-0.265381,0.89917,-0.496582,11.016845,24.848936,35.713196,1.0609087834422901
-0.299316,0.901123,-0.487793,13.175963,33.714294,26.206968,1.0674992926620608
-0.337402,0.898193,-0.483398,13.618468,41.28265,15.190124,1.0743669769948256
-0.370361,0.88916,-0.48584,14.305114,44.746395,9.681702,1.0788017804587642
-0.389648,0.875732,-0.4729,14.328002,43.251034,7.56073,1.0688154703820487
-0.383057,0.858154,-0.472412,13.351439,38.711548,4.959106,1.0518241538912292
-0.380371,0.851563,-0.473877,13.534545,32.073975,2.586365,1.0461362491277129
-0.372803,0.845459,-0.474365,14.541625,24.406431,2.845764,1.0386554533217451
-0.354736,0.847412,-0.462891,16.189575,16.525269,4.310608,1.0286947094843057
-0.327881,0.858398,-0.449951,17.913818,10.253905,5.1651,1.0231368329632162
-0.306885,0.858643,-0.462158,19.355774,6.401062,6.027221,1.0222701314417828
-0.268311,0.846924,-0.481934,20.370481,6.111145,5.424499,1.0107083826965124
-0.243652,0.846191,-0.484619,22.613523,9.635925,3.410339,1.005117446244965
-0.270264,0.87915,-0.452637,26.199339,16.326904,1.976013,1.0250988274137278
-0.30249,0.912109,-0.433105,29.052732,23.773191,-0.450134,1.0540507430887756
-0.318115,0.930908,-0.440674,30.616758,29.060362,-5.088806,1.0779519618076678
-0.328369,0.941162,-0.441406,29.71649,33.760071,-10.787963,1.090161165718629
-0.329346,0.953369,-0.434082,27.847288,41.175838,-17.684937,1.0980930837597513
-0.331299,0.986816,-0.395996,26.229856,53.970333,-25.650023,1.1137224417569218
-0.364502,1.012939,-0.370117,21.209715,68.832397,-33.348083,1.1383732777143005
-0.424805,1.017334,-0.352783,13.275146,77.575684,-38.619995,1.1575334123341754
-0.486572,1.011719,-0.329102,5.279541,72.860718,-38.963318,1.1698870768364784
-0.487549,0.992188,-0.322266,0.007629,57.098385,-35.78949,1.1515191832970044
-0.446045,0.97583,-0.311768,-0.549316,38.963318,-31.242369,1.1173180463722048
-0.401611,0.951172,-0.33374,1.281738,24.612425,-27.160643,1.0850815437122687
-0.375488,0.925781,-0.377686,4.524231,16.731262,-23.452757,1.0680395183236433
-0.374023,0.918457,-0.407959,7.820129,11.909484,-19.65332,1.0723278468169144
-0.389893,0.913574,-0.434814,8.560181,5.966186,-16.548157,1.0842957251234555
-0.400879,0.897705,-0.458252,8.125305,-1.594543,-14.09912,1.0846995598643894
-0.405029,0.890137,-0.472412,8.934021,-11.96289,-12.222289,1.0860780208410443
-0.362793,0.89209,-0.479736,9.788513,-25.459288,-11.131286,1.0759135460830485
-0.301025,0.882324,-0.490967,8.331299,-34.53064,-11.260985,1.0536414412360593
-0.290283,0.870361,-0.512939,5.058288,-39.299011,-11.19995,1.051141716483082
-0.307129,0.863037,-0.531982,1.38855,-44.624325,-12.199401,1.059323337953998
-0.318604,0.85791,-0.504639,-3.662109,-51.86462,-16.433716,1.0450734889169278
-0.294678,0.86377,-0.466309,-8.674622,-53.474422,-26.756285,1.0248794173291802
-0.255615,0.89502,-0.431396,-9.300232,-46.348568,-39.459229,1.0259153656325652
-0.236816,0.932129,-0.399658,-11.83319,-37.857056,-53.38287,1.0414762635130002
-0.235107,0.957275,-0.383789,-22.415159,-28.594969,-71.95282,1.057801835692773
-0.297363,0.991211,-0.39209,-38.17749,-17.066956,-94.421379,1.106642927230821
-0.464844,1.065918,-0.366943,-59.05151,-8.354187,-117.729179,1.219388491133568
-0.60791,1.169678,-0.320068,-83.030693,-5.828857,-137.283325,1.3565193387519399
-0.58667,1.260742,-0.302246,-106.353752,-7.919311,-150.70343,1.4230266069121829
-0.51123,1.27832,-0.292236,-132.545471,-10.009766,-164.428696,1.407430287792614
-0.543701,1.235352,-0.263428,-161.491379,-3.707886,-183.204636,1.3751725900733334
-0.659912,1.181641,-0.234131,-186.30217,13.96942,-203.06395,1.3735270750101725
-0.811768,1.162598,-0.198975,-198.791489,34.172058,-215.461716,1.4318493098273295
-0.921387,1.182129,-0.138916,-199.562057,49.362179,-219.596848,1.5052178020027531
-1.048096,1.176025,-0.164063,-195.236191,42.594906,-219.749435,1.583810813768488
-1.234863,1.148926,-0.187012,-188.873276,5.889892,-220.619186,1.6970241808498192
-1.331055,1.133057,-0.172607,-184.082016,-38.284302,-221.984848,1.7565075447384222
-1.286133,1.107178,-0.18335,-176.940903,-66.925049,-216.056808,1.7069266064693585
-1.207275,1.083252,-0.193115,-164.00145,-76.202393,-209.144577,1.633475198573275
-1.168701,1.066162,-0.210693,-152.198792,-74.935913,-215.28624,1.595918224062248
-1.286621,1.043701,-0.202637,-146.91925,-77.140808,-229.209885,1.6690617510478754
-1.424072,1.014404,-0.114746,-142.120361,-82.145683,-237.983688,1.7521881123087213
-1.440674,0.960938,-0.057373,-125.801079,-87.440483,-237.312302,1.7326958980874283
-1.40625,0.951416,0.003662,-103.401176,-90.744011,-236.129745,1.6978647996233387
-1.396973,0.94751,0.006836,-91.880791,-90.362541,-240.615829,1.6880034045359622
-1.43042,0.938721,-0.018066,-93.307487,-86.509697,-248.275742,1.711030354084053
-1.403564,0.921143,-0.013672,-100.440971,-73.722839,-249.992355,1.6788934606248844
-1.364258,0.864014,0.050781,-104.820244,-56.381222,-249.961838,1.615641913519515
-1.470215,0.813477,0.11499,-103.584282,-49.354549,-249.946579,1.6841911043150657
-1.638916,0.819092,0.132568,-101.875298,-59.92889,-249.992355,1.836989829624541
-1.68042,0.821045,0.094482,-102.928154,-81.565849,-249.992355,1.8726593701869543
-1.539063,0.794922,0.026123,-104.347221,-94.810478,-249.992355,1.732425558337789
-1.364258,0.732666,-0.00708,-108.917229,-83.549492,-249.992355,1.5485636843604462
-1.299805,0.637207,0.038818,-116.58477,-50.529476,-249.992355,1.448113474834759
-1.434082,0.542236,0.089355,-120.36132,-21.957396,-249.992355,1.535771916153242
-1.608887,0.499023,0.083008,-118.667595,-26.077269,-249.992355,1.6865442957011239
-1.582031,0.442139,0.066406,-117.744438,-57.922359,-249.992355,1.643994749723368
-1.558594,0.357666,0.046875,-120.422356,-87.501518,-249.992355,1.5997929522338195
-1.565674,0.288574,0.006836,-118.011467,-88.287346,-249.992355,1.5920605386253375
-1.528809,0.270752,-0.009766,-106.140129,-77.598572,-249.992355,1.5526296978806635
-1.339355,0.282227,-0.014893,-96.687309,-74.295044,-249.992355,1.368848310443126
-1.130371,0.254639,-0.032227,-95.787041,-84.945671,-249.992355,1.1591454600225979
-0.968994,0.189453,-0.024658,-100.555412,-94.627373,-249.992355,0.9876486360082719
-0.888672,0.096436,0.008301,-103.622429,-94.15435,-249.992355,0.893927699694444
-0.882813,0.001221,0.029053,-101.387016,-84.144585,-249.992355,0.8832917754734275
-1.040771,-0.043457,0.034912,-91.934196,-73.425293,-249.992355,1.0422627466402126
-1.172119,0.021729,0.019531,-73.59314,-66.673279,-249.992355,1.1724830743183459
-1.057373,0.147705,-0.045166,-56.503292,-72.952271,-249.992355,1.0685945890327162
-0.818115,0.217773,-0.08667,-58.92181,-98.396294,-249.992355,0.8510281556176623
-0.54834,0.165771,-0.085693,-80.42144,-121.871941,-249.992355,0.5792236789790279
-0.374756,0.049561,-0.008545,-101.173393,-130.28717,-249.992355,0.3781155501721663
-0.319336,-0.086426,0.043945,-112.747185,-126.533501,-249.992355,0.33373057605949147
-0.391602,-0.188232,0.070801,-115.425102,-117.164604,-249.992355,0.4402228910779175
-0.525635,-0.205566,0.047607,-108.329765,-99.296562,-249.992355,0.5664061793713059
-0.530029,-0.140137,-0.001953,-98.243706,-76.324463,-249.702438,0.5482453226603944
-0.46582,-0.092285,-0.015625,-95.390312,-58.746334,-240.051254,0.4751304391953856
-0.34668,-0.107178,-0.021729,-98.518364,-41.40472,-223.831161,0.363519319328423
-0.22998,-0.170166,-0.024902,-102.607719,-20.576475,-209.564194,0.2871713383330586
-0.109863,-0.24585,-0.059326,-107.437126,8.926392,-195.861801,0.2757384186960533
-0.013916,-0.314209,-0.084473,-110.054008,47.119137,-185.874924,0.325663382138674
-0.013184,-0.357422,-0.083984,-109.146111,91.049187,-180.534348,0.3673929996556821
-0.051758,-0.36377,-0.067383,-105.979912,136.932373,-175.628647,0.3735612026870563
-0.154297,-0.376221,-0.071045,-106.430046,170.532211,-165.359482,0.4127919537430448
-0.266846,-0.4021,-0.084473,-103.309624,187.973007,-152.297974,0.4899253876306065
-0.248779,-0.424561,-0.116699,-96.229546,195.289597,-139.282227,0.5057288702091269
-0.172363,-0.454834,-0.145996,-89.141838,196.388229,-127.769463,0.5078363942659092
-0.096436,-0.460449,-0.172363,-82.695,198.577866,-117.248528,0.5010211447294415
-0.104736,-0.471436,-0.21875,-78.918457,205.680832,-104.003899,0.530163271353269
-0.114746,-0.51001,-0.202393,-75.744629,214.347824,-93.772881,0.5605709331253271
-0.051514,-0.60498,-0.165771,-70.198059,215.118393,-86.120598,0.6293921806290573
-0.088135,-0.695801,-0.104004,-54.000851,208.435043,-69.984436,0.7090300711831622
-0.138428,-0.717529,-0.074463,-31.585691,196.876511,-46.981808,0.7345440186905071
-0.154541,-0.689941,-0.088379,-16.120911,173.294052,-33.302307,0.7125393685986761
-0.10083,-0.685303,-0.115479,-11.260985,151.268005,-24.467466,0.7022409060642936
-0.028564,-0.715576,-0.181396,-13.130187,137.756348,-13.206481,0.7387620880148088
0.021729,-0.757324,-0.232178,-13.771056,128.814697,-2.487183,0.7924130325158718
0.093262,-0.785156,-0.262207,-13.748168,124.824516,8.132935,0.8330187607905359
0.163086,-0.804443,-0.283691,-17.616272,123.954765,18.943787,0.8684504402244264
0.168701,-0.842529,-0.306152,-24.093626,123.359673,30.654905,0.9121645631935061
0.159912,-0.900879,-0.323242,-29.228209,122.535698,38.825989,0.9703814770228253
0.123779,-0.928467,-0.323486,-27.648924,123.092644,54.115292,0.9909669031435914
0.063721,-0.923096,-0.315918,-20.446775,129.898071,75.027466,0.9777375792005747
0.024414,-0.908447,-0.291016,-9.124756,133.972168,87.7304,0.9542338850936912
0.016602,-0.908936,-0.236328,2.151489,132.835388,97.953789,0.9393035729113353
0.014648,-0.922363,-0.183105,9.94873,129.081726,107.64312,0.9404762137863988
0.029541,-0.890625,-0.250488,11.573791,125.312798,116.386406,0.9256510138545736
0.095703,-0.864014,-0.417725,4.653931,131.248474,126.983635,0.9644549922261796
0.132568,-0.868652,-0.564453,-0.167847,147.697449,139.144897,1.044383914533827
0.001221,-0.867676,-0.714355,12.451171,156.845093,158.14209,1.1239066677629421
-0.169678,-0.797852,-0.691895,43.655392,150.505066,183.349594,1.0696154115442615
-0.144531,-0.730225,-0.682373,77.24762,140.983582,201.263412,1.0098270503977402
-0.095703,-0.711182,-0.768799,108.245842,130.882263,212.188705,1.051660973761982
-0.138916,-0.660889,-0.974365,139.23645,121.360771,223.953232,1.1855205939172884
-0.134033,-0.577393,-1.250488,171.730026,121.643059,238.677963,1.3838597326615152
0.012695,-0.509277,-1.321045,216.926559,156.211853,248.535141,1.4158686795670705
0.030273,-0.429688,-1.325439,249.992355,228.851303,249.992355,1.3936774284582498
-0.16626,-0.226318,-1.485596,249.992355,249.992355,249.93895,1.5119053210899152
-0.374756,0.02002,-1.578369,249.290451,249.855026,249.954208,1.6223722014682695
-0.348389,0.074463,-1.369873,249.992355,249.397263,249.992355,1.415440450820521
0.193848,0.14624,-0.913574,249.992355,249.992355,249.992355,0.9452939427395057
-1.725342,5.58667,5.947754,249.984726,79.368591,249.992355,8.340471470509327
-3.388916,-2.657227,-0.649902,-140.24353,156.440735,-150.924683,4.355224402276994
2.788086,-3.564697,-2.516602,-112.632744,249.992355,-218.879684,5.178201799042695
1.51001,-1.826904,-1.311279,8.735657,183.486923,101.036064,2.7087194467417626
-2.710205,-0.916992,-0.442871,103.843681,227.615341,143.966675,2.8952064162560154
-4.789551,0.237305,-0.216309,79.399109,137.428284,85.433952,4.800302285076119
-2.953613,0.158691,0.202148,-57.28912,-156.173706,-44.692989,2.964772571573408
-0.42627,-0.75,-0.130859,-131.530762,-249.992355,-126.388542,0.8725423719115307
-0.096436,-0.909912,-0.050781,-105.934135,-249.992355,-125.259392,0.9164160953415211
-0.289551,-0.968262,0.040283,-89.736931,-210.594162,-71.876526,1.0114315608749809
-0.348877,-1.112549,-0.006104,-85.288994,-174.278244,-10.360717,1.1659835750755667
-0.428467,-1.05127,0.052734,-62.20245,-147.277832,10.848998,1.1364565357922845
-0.424316,-0.950195,0.096436,-45.455929,-111.267082,14.503478,1.0450906697397122
-0.423096,-0.898438,0.14209,-40.344234,-71.83075,22.033689,1.0031902278032816
-0.526123,-0.850342,0.181641,-39.741516,-28.511045,25.718687,1.0163072276501826
-0.687988,-0.81543,0.131592,-40.191647,8.346558,23.925779,1.0749744310949914
-0.815674,-0.764648,0.108643,-37.086487,37.086487,22.117613,1.123304918367671
-0.870361,-0.698242,0.030273,-33.485413,57.91473,19.91272,1.1162377056048591
-0.975586,-0.645264,-0.013672,-31.951902,58.456417,17.76886,1.1697523655355435
-1.12207,-0.618896,-0.024658,-30.502317,39.764404,14.22882,1.2816713153847206
-1.206055,-0.612061,0.012451,-26.428221,6.942749,5.653381,1.3525318325817697
-1.211914,-0.62915,0.032715,-22.384642,-35.400391,-5.508422,1.3658826952271559
-1.213623,-0.633301,0.041748,-19.775391,-85.647575,-17.64679,1.3695597242303819
-1.22168,-0.575439,0.062988,-20.568846,-133.621216,-33.180237,1.351887404063297
-1.224609,-0.486816,0.177734,-17.707825,-161.285385,-39.680481,1.3297542613178572
-1.346191,-0.500732,0.242188,-21.675108,-174.056992,-43.998714,1.4565774169775527
-1.23877,-0.467041,0.282959,-21.934507,-161.361679,-74.34082,1.3537888329654664
-1.108643,-0.385986,0.365723,-26.847837,-136.520386,-79.071045,1.229564071683131
-1.245117,-0.356689,0.42627,-51.055904,-137.802124,-79.421997,1.3635429950353601
-1.268311,-0.355225,0.463135,-81.535332,-140.769958,-97.167961,1.396170341172953
-1.114746,-0.430664,0.515137,-102.294914,-133.224487,-111.465446,1.301344018382918
-1.055664,-0.458008,0.482422,-107.688896,-120.605461,-111.732475,1.2477695280154906
-1.053711,-0.399658,0.425293,-106.910698,-100.631706,-108.863823,1.2045362279043335
-1.033447,-0.362061,0.375977,-116.615288,-86.631767,-111.900322,1.1577821790211662
-0.959961,-0.467773,0.281494,-141.647339,-87.623589,-118.568413,1.1043439559693347
-0.846191,-0.616455,0.152832,-164.344772,-96.54998,-123.291008,1.0580234381761116
-0.703613,-0.716797,0.039307,-174.415573,-104.438774,-124.893181,1.0051936297186728
-0.59668,-0.774902,-0.027344,-175.094589,-111.465446,-124.061577,0.9783904263329645
-0.566406,-0.77832,-0.079102,-169.189438,-116.2033,-117.004387,0.9658441414845358
-0.575684,-0.727783,-0.134521,-159.851074,-117.09594,-106.773369,0.9376438888970587
-0.570068,-0.66748,-0.168213,-153.900146,-117.912285,-99.784843,0.893757622844695
-0.524658,-0.636963,-0.2146,-156.867981,-124.458305,-97.320549,0.852667016093035
-0.449951,-0.677002,-0.284668,-167.076096,-134.162903,-96.496574,0.8612917511673962
-0.351074,-0.751709,-0.347168,-175.430283,-139.091492,-94.764702,0.8993581013039244
-0.282227,-0.820068,-0.387939,-172.981247,-138.305664,-91.171257,0.9500843498732099
-0.272461,-0.859375,-0.39917,-157.272339,-135.658264,-83.740227,0.9859498344469662
-0.299805,-0.816406,-0.429688,-136.123657,-133.216858,-74.401855,0.9700688492086528
-0.324707,-0.745605,-0.494873,-124.26757,-129.959106,-67.375183,0.951977278091762
-0.312012,-0.735352,-0.570313,-123.779289,-119.544975,-62.904354,0.981504442178944
-0.261475,-0.796387,-0.5979,-125.129692,-98.510735,-59.967037,1.0296047005496818
-0.243408,-0.867188,-0.616455,-120.10955,-74.539185,-54.038998,1.0914573967100136
-0.248291,-0.890869,-0.608398,-109.100334,-54.145809,-47.164913,1.1069977968568863
-0.24292,-0.876953,-0.57373,-96.16851,-40.313717,-42.79327,1.0757429077195908
-0.233643,-0.838379,-0.550293,-84.9533,-29.998777,-37.063599,1.0297042220652493
-0.225098,-0.81665,-0.548828,-77.629089,-21.286009,-30.189512,1.0093554902451365
-0.228271,-0.823486,-0.592529,-71.304321,-12.420653,-24.627684,1.0398689616860386
-0.209717,-0.831543,-0.647705,-64.331055,-1.487732,-20.38574,1.0746937926511904
-0.177246,-0.852051,-0.736816,-61.958309,9.727478,-16.838074,1.1403091111505685
-0.144775,-0.903564,-0.816162,-56.78558,22.033689,-10.360717,1.2261762161145517
-0.142334,-0.926025,-0.824219,-38.841248,33.77533,1.281738,1.2478454343956225
-0.167236,-0.910156,-0.81665,-15.258788,42.617794,13.72528,1.234207861963292
-0.198486,-0.890625,-0.808594,6.454467,45.577999,24.139402,1.2191939302904193
-0.199463,-0.878174,-0.817871,24.368284,43.487545,33.874512,1.2165064879753005
-0.148926,-0.878906,-0.909424,37.857056,44.113155,41.900631,1.273462493396645
-0.048096,-0.913818,-1.0896,50.872799,57.464596,48.370358,1.4228860538848498
0.053711,-0.930664,-1.257813,72.746277,84.609978,56.663509,1.565603364644443
0.066895,-0.862793,-1.338867,106.735222,116.188042,69.602966,1.5941930703534626
0.009033,-0.743164,-1.315186,146.278381,145.439148,90.141289,1.510658313643757
-0.072998,-0.65332,-1.298096,183.876022,161.331161,114.784233,1.455063213616508
-0.077881,-0.631836,-1.357178,221.595749,167.167648,133.560181,1.499071147324569
0.040283,-0.616211,-1.392822,249.992355,178.199753,149.002075,1.5235786295081721
0.156982,-0.589111,-1.456787,249.992355,199.1577,166.107162,1.5792160973134741
0.232178,-0.524414,-1.514404,249.465927,231.117233,184.135422,1.6193628815975747
0.251709,-0.38623,-1.427734,249.984726,249.992355,206.619247,1.5003184356452466
0.164063,-0.231934,-1.236328,249.992355,249.992355,236.534103,1.2685491602255705
0.031982,-0.13501,-1.057861,249.992355,249.572739,249.992355,1.0669210110148735
-0.061523,-0.077393,-1.069092,249.992355,249.992355,249.992355,1.0736537898419583
0.945313,0.898193,-0.155762,249.992355,249.992355,249.664291,1.313251359741158
-5.051758,5.671875,4.264648,187.499985,131.523132,183.998093,8.710777661615122
-5.943359,-3.274658,-2.103516,-213.661179,225.707993,-186.775192,7.104342389137858
1.910156,-3.00415,-1.47998,-65.02533,174.880966,-249.992355,3.8553798732726716
3.255371,-1.346191,-0.895752,-43.235775,33.111572,-177.970871,3.634837300571512
-0.712646,-1.175049,-0.154541,-118.10302,112.327568,60.630795,1.3829271110214016
-3.544434,-0.695313,0.167236,-93.536369,103.645317,92.239372,3.6158595697317946
-2.932373,-0.395264,0.021973,-117.034904,-115.188591,-37.437439,2.958974121812153
-0.755371,-0.613281,-0.196777,-145.599365,-249.992355,-111.946098,0.9926832930653159
0.055908,-0.858154,-0.159424,-138.694763,-249.992355,-102.615349,0.8746256364616806
-0.335693,-0.887695,0.025391,-119.85778,-219.596848,-39.268494,0.9493876479894818
-0.647461,-0.85498,0.057373,-97.900383,-178.764328,6.477355,1.0740056834346827
-0.345459,-0.868652,-0.022217,-72.135925,-158.950806,9.635925,0.93508920049052
0.04248,-0.925049,-0.065674,-44.479366,-116.020195,8.003235,0.9283497600996082
0.046387,-0.945557,0.021973,-20.507811,-35.476685,22.216795,0.9469491046233688
-0.244629,-0.929688,0.062988,-3.082275,50.796505,44.944759,0.9633953566054799
-0.551758,-0.873047,-0.002441,9.674072,112.709038,62.561031,1.032789384750831
-0.8396,-0.766602,-0.091309,17.913818,140.617371,66.833496,1.1405893739137674
-1.08252,-0.669678,-0.137695,18.676758,145.91217,60.287472,1.2803429568318794
-1.265137,-0.608154,-0.107422,15.853881,134.58252,48.21777,1.4078218646437481
-1.379883,-0.567627,-0.036133,12.580871,111.839287,26.901243,1.4925089944476047
-1.450684,-0.546143,0.015869,7.476806,82.18383,0.961304,1.550163884712194
-1.396973,-0.5271,0.104004,2.105713,53.611752,-27.030943,1.4967246923683057
-1.312988,-0.536865,0.166992,-6.904602,32.173157,-49.331661,1.428302434512033
-1.339844,-0.566895,0.177002,-13.336181,16.639709,-59.310909,1.465565281167987
-1.482178,-0.505615,0.252197,-11.238097,13.526916,-73.84491,1.58622239257867
-1.731689,-0.453369,0.352539,-25.192259,17.654419,-103.935234,1.824437992753659
-1.733398,-0.448975,0.399414,-54.092403,13.023376,-128.265381,1.8346058760466784
-1.574951,-0.478516,0.41333,-89.698784,-20.370481,-137.382507,1.6971416863529691
-1.399902,-0.533203,0.399902,-124.122612,-55.213924,-141.334534,1.5504685286767352
-1.229248,-0.603271,0.306885,-142.860413,-82.44323,-142.478943,1.4032693783340389
-1.099609,-0.610596,0.194824,-144.004822,-106.864922,-143.798828,1.2727622790894615
-1.059082,-0.527588,0.075928,-135.887146,-127.311699,-144.187927,1.1856512310338148
-0.983154,-0.387207,-0.029785,-130.722046,-142.242432,-144.866943,1.057075302327133
-0.899902,-0.289795,-0.109375,-138.48114,-160.03418,-147.30835,0.9517182578126785
-0.808105,-0.281738,-0.16626,-157.89032,-176.010117,-151.184082,0.8718098297616287
-0.655273,-0.362061,-0.246582,-181.541428,-184.982285,-156.87561,0.7882090807482492
-0.509521,-0.501709,-0.330811,-200.447067,-189.811691,-162.933334,0.7878829150597187
-0.417725,-0.626709,-0.400391,-204.643234,-189.155563,-163.330063,0.8529779007612096
-0.391357,-0.667236,-0.450439,-192.787155,-186.592087,-154.014587,0.8951309814021633
-0.44043,-0.623779,-0.487305,-177.406296,-186.141953,-141.822815,0.905839383536618
-0.513428,-0.544678,-0.552979,-169.41069,-185.630783,-132.392883,0.9306278575827182
-0.524658,-0.480225,-0.638672,-168.502792,-182.746872,-124.458305,0.9559204941693634
-0.447998,-0.455078,-0.707275,-173.019394,-178.192123,-119.071953,0.9529092924895842
-0.319092,-0.497559,-0.748291,-180.541977,-169.708237,-118.09539,0.9535848591635671
-0.230713,-0.576904,-0.758057,-183.807358,-156.135559,-116.424553,0.9801515846204606
-0.170898,-0.647949,-0.780273,-176.826462,-137.245178,-111.228935,1.0285280684230256
-0.162598,-0.673828,-0.785889,-161.97966,-118.698112,-103.523247,1.0479044820540657
-0.193115,-0.677734,-0.792236,-146.911621,-106.399529,-95.565788,1.0603087558239817
-0.20874,-0.683838,-0.834473,-133.804321,-99.754326,-89.057915,1.0988867027919667
-0.201172,-0.700439,-0.888672,-123.710625,-97.496025,-85.327141,1.1492705903698224
-0.196533,-0.726074,-0.924316,-116.668694,-97.785942,-81.405632,1.191708329005466
-0.142822,-0.757813,-0.956543,-109.046928,-97.084038,-74.539185,1.228679444567215
-0.084961,-0.779541,-0.965332,-98.587029,-97.31292,-66.741943,1.243691445828104
-0.045898,-0.787842,-0.956787,-85.922234,-96.733086,-58.54797,1.2402592498090874
-0.074707,-0.788818,-0.94458,-72.967529,-96.412651,-50.468441,1.2329015976033935
-0.129639,-0.785645,-0.935303,-59.013363,-94.078056,-42.175289,1.2283468720825563
-0.125732,-0.767578,-0.935791,-45.074459,-89.698784,-33.348083,1.216835780863219
-0.098389,-0.758545,-0.945068,-35.568237,-84.663383,-25.459288,1.2158225351464744
-0.072754,-0.766846,-0.94873,-27.557371,-74.890137,-18.226624,1.2220615962921018
-0.059326,-0.780762,-0.952637,-17.127991,-59.814449,-10.261535,1.2331367031635219
-0.055176,-0.773682,-0.936279,-4.257202,-42.022701,-1.060486,1.2158316470387667
-0.051514,-0.75293,-0.927734,7.93457,-24.253843,7.4234,1.1959296182685668
-0.05127,-0.736572,-0.944336,18.531799,-7.514953,15.220641,1.1987232395261218
-0.094482,-0.718994,-0.956055,29.022215,8.171082,24.459837,1.1999668259518677
-0.131104,-0.699951,-0.970215,39.855957,24.757383,35.163879,1.2035102024669337
-0.123779,-0.691895,-1.002441,50.117489,39.894104,44.158932,1.224307106222536
-0.08667,-0.687988,-1.065674,61.737057,54.862972,51.23138,1.271416631682943
-0.060547,-0.688232,-1.188232,76.423645,71.479797,59.349056,1.3744906368749843
-0.062012,-0.657959,-1.260742,97.152702,89.553825,70.404053,1.4234556278258201
-0.07959,-0.598389,-1.249023,121.070854,110.206596,83.457939,1.3872499479005216
-0.090332,-0.554443,-1.248291,141.967773,133.140564,95.031731,1.3688671707488642
-0.067139,-0.533691,-1.253906,161.369308,157.814026,104.957573,1.3644097572349736
-0.056396,-0.519775,-1.259766,181.755051,178.840622,118.324272,1.3639490218468577
-0.052002,-0.517822,-1.318359,201.972946,191.940292,134.819031,1.417361733845316
-0.030273,-0.49707,-1.349121,224.9832,196.075424,154.022217,1.4380968368194125
-0.007324,-0.440186,-1.331299,248.229965,196.311935,174.629196,1.4022034028531667
0.053467,-0.370117,-1.302979,249.992355,202.087387,194.717392,1.355580904342858
0.034424,-0.294678,-1.342285,249.702438,215.614304,215.270981,1.37468147462785
-0.127441,-0.193359,-1.54834,249.916061,237.022385,238.807663,1.5655624123496323
-0.287109,-0.026123,-1.779541,249.992355,249.992355,249.992355,1.8027423997041285
-0.351563,0.172119,-1.815186,249.992355,249.664291,249.992355,1.8569118739794843
-0.220459,0.34082,-1.668701,249.992355,245.506271,249.732956,1.7173594470820603
-0.064209,0.472656,-1.348389,249.992355,244.934067,249.992355,1.4302724863948129
0.126465,0.64502,-0.720703,249.992355,249.54985,249.992355,0.97542657890484
-1.87085,5.375977,3.539795,249.992355,183.456406,249.992355,6.703085637902443
-7.999756,-1.422119,-0.945068,-133.354187,187.866196,-12.756347,8.179955503199329
0.932373,-3.706787,-2.384033,-40.840145,167.694077,-224.60173,4.50479773348227
5.332275,-0.681152,-0.88501,29.556273,-21.682737,-233.848557,5.447969109937115
0.345215,-0.783203,0.946045,-187.385544,53.031918,24.436949,1.2757670153515492
-3.269775,-0.993164,-0.301025,-174.903854,194.442734,44.876095,3.4305129838183093
-3.226563,-0.630127,-0.104736,-122.978203,-32.211304,-93.246452,3.289185075181085
-1.661377,-1.080566,0.083252,-139.24408,-202.384933,-83.030693,1.9836147085533018
-0.296387,-1.333984,-0.394043,-78.826904,-218.200668,-58.54797,1.4221914258896375
-0.35791,-1.004395,-0.11377,-6.195068,-197.975143,-23.28491,1.0723117536542253
-0.695557,-0.630127,-0.034668,22.804258,-146.942139,-9.20105,0.9391812639751711
-0.791016,-0.479248,-0.032227,13.687133,-107.879631,-23.979185,0.9254315411141982
-0.474121,-0.554199,-0.0625,-16.281128,-72.067261,-23.971556,0.7320064919397915
-0.057617,-0.712891,-0.14209,-42.594906,-21.591185,-13.84735,0.7291932971921781
-0.012939,-0.830078,-0.161621,-49.484249,46.600338,-6.950378,0.8457648913533832
-0.442627,-0.836914,-0.165527,-41.450497,103.080742,9.269714,0.9611154416894987
-0.956299,-0.774414,-0.104492,-34.179688,120.010368,26.153563,1.2349669626597304
-1.130615,-0.743164,-0.104492,-33.470154,103.248589,24.29962,1.357019376127327
-1.003174,-0.743164,-0.140625,-30.235289,75.675964,15.159606,1.2563543273284812
-0.894043,-0.735352,-0.150635,-21.171568,54.397579,10.993957,1.167367274244914
-0.911133,-0.688232,-0.129639,-12.123107,39.047241,9.025574,1.1491879305988206
-0.864746,-0.656006,-0.082031,-8.773804,21.499632,8.277893,1.0885121044402768
-0.730469,-0.637451,-0.042969,-8.750916,4.951477,7.789611,0.9704509633788819
-0.634521,-0.604736,0.012695,-9.132385,-5.302429,6.515502,0.8766320163911423
-0.595703,-0.577148,0.05542,-10.726928,-10.787963,7.118225,0.8312840997595226
-0.560059,-0.569092,0.048584,-13.137816,-14.686584,9.33075,0.7999326177878984
-0.533691,-0.560303,0.050049,-15.411376,-19.15741,14.076232,0.7754162996036388
-0.54541,-0.534912,0.077148,-18.234253,-24.04785,21.308897,0.7678246738338121
-0.552734,-0.500732,0.089111,-23.452757,-30.433653,28.564451,0.7511246107677474
-0.50293,-0.467285,0.127441,-31.85272,-38.002014,33.531189,0.6982371120228429
-0.45166,-0.444824,0.206543,-43.006893,-44.845577,38.482666,0.6667271986539922
-0.483887,-0.441406,0.324707,-53.482052,-52.841183,46.463009,0.7310407112151825
-0.492188,-0.422119,0.341553,-58.845516,-59.17358,60.150143,0.7328655601909535
-0.393555,-0.394043,0.230225,-59.509274,-60.714718,83.023064,0.6026267289948231
-0.260498,-0.373779,0.138428,-51.376339,-50.415035,104.606621,0.4761641103957752
-0.141846,-0.317871,0.133545,-35.682678,-20.095823,116.577141,0.3728223804735976
-0.138428,-0.184326,0.253174,-32.325745,14.579772,128.746033,0.34239664095314953
-0.297607,-0.119873,0.176514,-55.198666,36.849976,137.031555,0.3661921009169914
-0.599365,-0.100098,0.009521,-65.750122,60.104366,131.217957,0.6077406208819681
-0.875732,0.013672,-0.018311,-53.710934,93.048088,129.112244,0.8760301091452278
-1.029541,0.189697,0.077393,-53.077694,112.197868,137.924194,1.0497282024119388
-1.059082,0.294434,0.101563,-82.382195,100.753777,140.151978,1.1039298465251313
-0.967041,0.302002,0.028564,-135.360718,75.3479,138.671875,1.013503530226215
-0.734863,0.280029,-0.019775,-186.309799,65.574646,142.997742,0.7866580707238693
-0.544434,0.214111,-0.027832,-224.395737,65.818787,153.213501,0.5856846599502158
-0.462891,0.123535,0.009277,-248.817429,74.684143,160.041809,0.47918163240570893
-0.504639,0.080322,0.102295,-249.992355,90.354912,159.27887,0.5211299368007943
-0.64502,0.109619,0.13501,-249.702438,104.461662,156.677246,0.6680530111158844
-0.828369,0.213623,-0.006592,-246.498093,105.987541,157.00531,0.8554960203028416
-0.904297,0.373535,-0.200928,-230.110153,93.055717,163.230881,0.9988260717552381
-0.949707,0.556885,-0.288818,-217.285141,65.185547,176.147446,1.1381916034648998
-0.911133,0.730957,-0.212891,-218.18541,32.806396,186.492905,1.1873432769923784
-0.780762,0.878906,-0.182617,-233.528122,2.090454,195.327744,1.1897117407880784
-0.813721,0.939697,-0.334961,-249.992355,-32.966614,209.800705,1.2873892920057244
-0.954102,0.945801,-0.552246,-249.992355,-69.877625,222.274765,1.4525239421506964
-0.978027,0.944092,-0.680664,-249.67955,-110.29052,234.794601,1.5202466898793103
-0.906006,0.995361,-0.709473,-249.992355,-160.324097,249.992355,1.5214934538426381
-0.802002,1.071289,-0.747314,-249.992355,-213.584885,249.992355,1.5327574968405797
-0.742188,1.12207,-0.85791,-249.992355,-249.992355,249.725327,1.5955856856790862
-0.915283,1.166504,-0.995361,-249.992355,-248.535141,249.977097,1.7858381988371737
-0.779785,1.324707,-1.041748,-229.194626,-187.889084,249.992355,1.8569200784034838
-0.758301,1.779541,-0.838379,-160.125732,-96.633904,249.992355,2.108237634832231
-0.964844,1.908936,-0.926025,-126.144402,-19.439697,249.992355,2.330768735215272
-1.110596,1.996338,-0.900879,-132.30896,28.07617,249.992355,2.4556815465570856
-1.046875,1.494873,-0.870361,-167.778,50.628658,249.992355,2.021910191396987
-1.214844,1.464111,-0.85376,-143.814087,69.297791,249.992355,2.0852753061063662
-1.256104,1.454834,-0.733887,-104.896538,60.577389,239.631638,2.0574084074731007
-1.176025,1.239502,-0.699951,-80.749504,38.787842,198.410019,1.846437491774363
-1.105713,1.144775,-0.661377,-57.937618,18.112183,196.334824,1.7235227225432799
-1.081055,1.116211,-0.636475,-33.64563,-3.105163,214.462265,1.679198420428926
-1.061768,1.132568,-0.609131,-8.796692,-26.611326,214.164719,1.667663675807865
-1.005127,1.14624,-0.598877,11.543273,-53.245541,199.623093,1.6379255431361952
-0.891357,1.159912,-0.61084,27.481077,-78.994751,179.275497,1.585256652656913
-0.763672,1.169922,-0.618652,40.504452,-100.563042,159.797668,1.5279537646054608
-0.620117,1.176758,-0.612061,49.003597,-115.272514,143.77594,1.464214175581564
-0.508789,1.169189,-0.583252,51.452633,-123.611443,131.584167,1.4021597839568785
-0.453369,1.148438,-0.556396,51.170345,-126.617424,119.926445,1.3542635632774738
-0.412598,1.123779,-0.542969,51.979061,-126.129143,108.192436,1.3145081534193694
-0.373291,1.133789,-0.521484,55.5191,-124.595634,100.448601,1.3026009478954022
-0.355225,1.154297,-0.476563,58.54034,-121.284477,98.579399,1.2983445836152279
-0.369141,1.174561,-0.439941,60.134884,-115.165703,100.58593,1.307442811018134
-0.418457,1.182373,-0.408936,61.096188,-105.331413,104.469292,1.3192197785335087
-0.466064,1.166016,-0.342529,60.18829,-89.889519,107.482903,1.3015894437928572
-0.530518,1.13501,-0.207031,57.579037,-69.190979,107.13958,1.2698656950185716
-0.597168,1.099609,-0.029785,56.15234,-39.672852,103.85894,1.2516535939827762
-0.581787,1.07373,0.070801,62.19482,-2.037048,103.370659,1.2232681667851903
-0.566406,1.061035,0.060791,73.692322,34.599304,107.51342,1.2042867489688658
-0.562988,1.041748,-0.003906,81.726067,67.939758,109.191887,1.1841493320033583
-0.536377,1.025146,-0.089844,82.756035,97.541801,105.514519,1.1604725553760415
-0.509277,1.010498,-0.170898,74.577332,121.345512,100.71563,1.1444105020214554
-0.507324,0.996826,-0.25415,58.532711,140.335083,98.983757,1.1470099989764693
-0.5271,0.98584,-0.342285,38.42926,154.747009,99.685661,1.1691338404241833
-0.5625,0.99707,-0.393311,19.287109,166.069016,97.549431,1.2104744431920074
-0.615479,1.037354,-0.399902,2.716064,174.781784,87.020866,1.2707632865175953
-0.677246,1.054932,-0.387451,-14.213561,178.329453,67.512512,1.312121163056598
-0.743408,1.023438,-0.401123,-30.494688,176.948532,47.95837,1.3270193877396819
-0.828125,0.96582,-0.415283,-43.55621,167.65593,34.896851,1.3383046208221803
-0.865479,0.91333,-0.433838,-51.445004,149.780273,26.748655,1.3309549198169712
-0.887207,0.89624,-0.462891,-48.606869,124.938957,20.172117,1.3433727987159783
-0.915039,0.92334,-0.445313,-34.690857,97.457878,11.978148,1.3741021778201212
-0.863281,0.97876,-0.406982,-21.606443,75.386047,0.228882,1.3670623873419239
-0.788574,1.012207,-0.389648,-17.219543,57.273861,-10.337829,1.340983791188022
-0.719238,1.012695,-0.35083,-20.523069,44.174191,-17.723083,1.2907114908332535
-0.669189,0.985107,-0.323242,-23.818968,38.482666,-21.553038,1.2339915355195918
-0.675049,0.946533,-0.275635,-18.882751,37.994385,-23.735044,1.1948181977669239
-0.585205,0.931396,-0.255859,-8.331299,43.342587,-29.266356,1.1293481432764656
-0.444092,0.97168,-0.265625,9.315491,46.150204,-28.152464,1.1008798151882884
-0.398438,1.073975,-0.243408,30.731199,39.558411,-22.819517,1.1710775358331318
-0.412354,1.188232,-0.201416,42.587276,28.808592,-22.232054,1.2737737288058661
-0.41626,1.229492,-0.173096,39.619446,15.60974,-28.419493,1.3095362503115369
-0.386475,1.17749,-0.16333,29.823301,0.495911,-36.132813,1.2500089258181317
-0.334961,1.107422,-0.107178,23.963926,-16.151428,-37.155151,1.1619249034636445
-0.270264,1.0354,-0.035889,23.010252,-38.391113,-28.182981,1.0706931446577026
-0.205078,0.967041,-0.051758,24.650572,-62.683102,-15.686034,0.9899010921950738
-0.145752,0.945801,-0.109619,32.081604,-77.75116,-4.447937,0.9632234954910517
-0.115967,0.966309,-0.150879,40.946957,-78.987122,4.570007,0.9848684689901489
-0.138428,1.005371,-0.193848,42.076107,-74.432373,9.811401,1.0332038549719993
-0.155762,1.045654,-0.22876,37.010193,-65.345764,11.100768,1.0816585533152319
-0.176758,1.066895,-0.227783,26.794432,-58.662411,10.932921,1.1051666963304676
-0.206543,1.045654,-0.242188,11.138915,-56.388851,9.95636,1.0930266812429605
-0.210693,0.993896,-0.265137,-1.76239,-54.916378,8.331299,1.0500087751223797
-0.220215,0.946045,-0.290527,-9.910583,-51.765438,6.04248,1.013854884083023
-0.239258,0.914551,-0.314453,-12.573241,-48.912045,4.219055,0.9962573017920622
-0.250244,0.916016,-0.314453,-9.658813,-47.744747,3.852844,1.0002939872862378
-0.237061,0.936523,-0.31665,-6.202697,-47.348019,3.753662,1.016631924420043
-0.145996,0.975342,-0.313721,-4.013062,-46.134945,4.692078,1.0349046887617237
-0.070068,1.037842,-0.304932,0.068665,-46.806332,12.229918,1.0839783513576275
-0.102295,1.060303,-0.243896,6.41632,-48.011776,18.737793,1.0927909121373585
-0.130371,1.024902,-0.256104,6.820678,-44.105526,12.268065,1.0644294086791288
-0.168945,0.988525,-0.324951,7.858276,-37.887573,2.059937,1.0541903248707039
-0.203857,0.974121,-0.366211,11.016845,-33.279419,-5.325317,1.0604621141799455
-0.191895,0.971924,-0.371094,12.84027,-31.776426,-8.300781,1.0579086490037786
-0.142334,0.974854,-0.360107,12.779235,-32.463074,-9.979248,1.048940579976292
-0.101074,0.9646,-0.349609,10.765075,-32.073975,-12.115478,1.030968266416091
-0.095459,0.944092,-0.344238,8.712769,-27.94647,-14.419555,1.009416626467486
-0.108398,0.929199,-0.349121,8.19397,-20.866392,-15.983581,0.9985220982261734
-0.119141,0.938232,-0.366943,10.719298,-14.205932,-15.632628,1.0144560261312463
-0.129639,0.980469,-0.361328,15.480041,-9.872437,-11.177062,1.0529404797356783
-0.124756,1.020996,-0.344727,16.975403,-9.155273,-8.590698,1.0848196145355227
-0.106201,1.038818,-0.335205,13.999938,-11.169433,-11.566161,1.0967150411797952
-0.095703,1.040039,-0.317383,9.521484,-14.801024,-16.212463,1.0915915694155025
-0.105957,1.023682,-0.298828,5.249023,-18.470764,-19.721985,1.0716575463071212
-0.127686,1.000977,-0.297363,2.037048,-21.77429,-20.63751,1.0519902199611935
-0.158936,0.986084,-0.291016,0.106812,-26.550291,-18.745422,1.0403425490712181
-0.196289,0.98291,-0.28125,-0.724792,-33.050537,-15.144347,1.0410297796513797
-0.220215,0.996826,-0.271973,0.808716,-39.871216,-9.849548,1.0564686617358794
-0.237549,1.013916,-0.254639,3.890991,-45.486446,-5.119323,1.072052332107906
-0.257813,1.020264,-0.24707,4.234314,-48.797604,-4.333496,1.0809485452902003
-0.28833,1.011963,-0.254395,1.63269,-50.86517,-6.462097,1.0825525937773184
-0.312012,0.987305,-0.255371,-1.686096,-53.977962,-9.407043,1.0664600315107924
-0.293213,0.951904,-0.245605,-3.730774,-58.982845,-11.749267,1.0258737274197054
-0.240234,0.930664,-0.213867,-1.716614,-64.659119,-10.94818,0.9846760631502119
-0.207764,0.922852,-0.188965,3.974914,-69.023132,-8.590698,0.9646395517627298
-0.186035,0.922607,-0.205566,8.918762,-68.138123,-8.705139,0.963363938514412
-0.161377,0.914551,-0.214355,12.634276,-62.599178,-8.880615,0.9530971271360543
-0.109131,0.911133,-0.196533,14.900207,-55.061337,-10.131835,0.9384551874964515
-0.067383,0.928711,-0.193359,17.814636,-46.142574,-11.795043,0.951016452586915
-0.069336,0.965088,-0.202881,21.301268,-34.637451,-11.32965,0.9886167249247809
-0.110107,1.000977,-0.206787,20.774839,-20.759581,-10.505675,1.0280269302635023
-0.192139,1.028564,-0.239014,15.434264,-8.514404,-10.734557,1.073307500026437
-0.257568,1.042236,-0.268311,8.277893,-1.556396,-11.131286,1.1066110188503455
-0.269043,1.048096,-0.271973,-0.419617,0.62561,-9.407043,1.1157323486365356
-0.258301,1.041504,-0.284424,-9.086609,2.464294,-7.286071,1.1101112558626725
-0.262695,1.031006,-0.309814,-14.945983,4.455566,-6.721496,1.108136611459526
-0.275146,1.038086,-0.329834,-16.845703,7.04956,-5.706787,1.1234403999625437
-0.302002,1.049316,-0.33667,-18.028259,8.178711,-3.486633,1.1426355345253358
-0.320068,1.047852,-0.343262,-21.354673,6.690979,-1.655578,1.1481577152865368
-0.337158,1.039795,-0.342041,-24.688719,3.27301,-1.083374,1.1453563657962529
-0.35791,1.023682,-0.342285,-26.664732,-1.960754,-1.64032,1.1371822309766364
-0.36792,1.003906,-0.35083,-26.336668,-8.460999,-2.14386,1.1252884395282836
-0.365479,0.986328,-0.348145,-22.65167,-14.747619,-1.586914,1.1079813915630532
-0.354248,0.980469,-0.336914,-17.875671,-20.278929,-0.839233,1.0955921453081892
-0.345703,0.979492,-0.331299,-12.733459,-25.070189,0.549316,1.0902633487712958
-0.351074,0.982666,-0.318359,-7.80487,-29.830931,1.594543,1.0909802353448022
-0.361084,0.987793,-0.307861,-3.90625,-35.064697,1.800537,1.0958535765447863
-0.362793,0.990723,-0.297852,-0.953674,-40.626522,1.647949,1.0962967834861144
-0.36084,0.990479,-0.285156,0.869751,-45.547482,0.602722,1.0920476635097023
-0.361572,0.979004,-0.275635,1.121521,-50.003048,-1.228333,1.0794247525534144
-0.365234,0.963135,-0.27124,0.701904,-54.38232,-3.028869,1.065174183211835
-0.366211,0.944824,-0.266846,0.617981,-59.089657,-3.77655,1.0478595684599152
-0.370605,0.932617,-0.265137,1.213074,-64.300537,-3.14331,1.03798851799189
-0.370605,0.931152,-0.259521,2.807617,-68.832397,-2.204895,1.0352503381163418
-0.35791,0.941406,-0.24707,4.91333,-71.922302,-1.289368,1.0370093586057938
-0.34668,0.957764,-0.230713,6.065368,-73.509216,-0.190735,1.044378949646631
-0.351807,0.969482,-0.223877,5.485534,-74.607849,0.595093,1.05535985554786
-0.359863,0.97876,-0.22168,4.577637,-76.301575,1.060486,1.0661212589424338
-0.368164,1.000977,-0.204346,4.486084,-78.056335,1.51062,1.0859359894307767
-0.363525,1.024902,-0.19458,4.447937,-79.139709,1.716614,1.1047334120180305
-0.353027,1.036865,-0.195557,2.914428,-80.451958,1.76239,1.1126363427477102
-0.343994,1.031006,-0.195557,-0.305176,-80.589287,1.113892,1.1043313743261125
-0.337402,1.01416,-0.190186,-3.761291,-79.658508,0.335693,1.085601828388291
-0.326904,0.993896,-0.188477,-6.04248,-77.590942,-0.343323,1.0631176151117994
-0.319824,0.974609,-0.184326,-7.072448,-74.134827,-0.541687,1.0421737706030603
-0.305664,0.963379,-0.17749,-6.538391,-69.107056,-0.869751,1.0261736103783805
-0.29541,0.96582,-0.169434,-5.386352,-63.240047,-1.716614,1.0241011770601574
-0.302002,0.97168,-0.165039,-4.447937,-57.365414,-2.670288,1.0308273870658462
-0.318359,0.984131,-0.15918,-3.540039,-52.429195,-3.349304,1.0465202102405857
-0.330322,1.002441,-0.155273,-2.326965,-49.026485,-3.372192,1.0668225188352558
-0.328857,1.019043,-0.151367,-1.899719,-47.042843,-3.494262,1.0814377147977594
-0.322998,1.018799,-0.151123,-3.311157,-45.516964,-3.677368,1.079405980868181
-0.334473,1.012695,-0.157715,-4.981995,-44.494625,-3.601074,1.0780989620526493
-0.34082,1.00293,-0.158691,-5.851745,-45.326229,-3.532409,1.0710787509707214
-0.328125,1.001465,-0.154785,-4.714966,-45.768734,-2.876281,1.0651556496939778
-0.311035,0.999756,-0.141602,-3.158569,-45.120235,-1.098633,1.056553811769661
-0.307129,0.995361,-0.144043,-2.426147,-42.228695,0.045776,1.051579825220606
-0.317383,0.997559,-0.145996,-2.174377,-40.260311,-0.1297,1.0569629885601481
-0.321533,1.004883,-0.151611,-1.838684,-39.81781,-0.442505,1.0659076925789588
-0.30835,1.010498,-0.150391,-1.251221,-38.894653,0.488281,1.0671473110049052
-0.2854,1.015137,-0.148193,-1.518249,-34.896851,1.213074,1.0648556024259814
-0.276855,1.00708,-0.150635,-3.051758,-28.366087,0.938415,1.0552486534698824
-0.284668,0.998535,-0.149414,-4.364014,-20.729063,0.007629,1.0490150427162614
-0.288574,0.99585,-0.145996,-4.257202,-12.825011,-1.098633,1.047046803152562
-0.291992,0.99707,-0.142578,-3.921509,-5.332946,-2.212524,1.0486831738175262
-0.303711,0.997314,-0.144531,-3.433227,1.075745,-2.746582,1.0525040598867066
-0.310303,1.005371,-0.14917,-2.365112,6.584167,-2.311707,1.0626902127854572
-0.319092,1.015625,-0.139648,-0.274658,11.039733,-0.50354,1.0736924182432321
-0.333252,1.009277,-0.134033,0.740051,14.183043,0.198364,1.071289784942431
-0.338623,0.996826,-0.137451,0.62561,16.448975,-0.686645,1.0617063566758935
-0.345947,0.98999,-0.140869,0.724792,17.829895,-1.525879,1.058113227433624
-0.352539,0.989502,-0.152344,1.281738,18.257141,-1.861572,1.0614172830988762
-0.35791,0.993896,-0.159424,1.304626,17.883301,-1.808166,1.0683374179967675
-0.363281,1.0,-0.161377,0.144958,16.403198,-1.419067,1.0761113423294077
-0.366455,1.004395,-0.163574,-2.944946,13.771056,-0.915527,1.0815983711738844
-0.369629,1.003174,-0.163574,-6.759643,10.551452,-0.473022,1.0815452488883672
-0.368408,0.991943,-0.168701,-10.009766,7.904052,-0.25177,1.0715108012120083
-0.366699,0.987061,-0.170898,-10.688781,5.928039,0.473022,1.0667538144886102
-0.375,0.984863,-0.169189,-10.2005,3.822326,1.182556,1.0673354891925968
-0.385254,0.98584,-0.162109,-9.803772,1.052856,1.335144,1.0707849821495443
-0.385254,0.990723,-0.155273,-8.834839,-2.632141,1.609802,1.0742729689301505
-0.377686,0.997803,-0.153564,-7.728576,-6.759643,1.518249,1.0778865633734378
-0.365479,0.996338,-0.1521,-8.239746,-10.009766,1.586914,1.072100144429148
-0.354492,0.988037,-0.153809,-8.834839,-11.734008,1.792908,1.0609141812201401
-0.342285,0.981201,-0.151367,-8.361816,-11.71112,1.716614,1.05015541341032
-0.33252,0.978516,-0.155273,-7.690429,-9.620667,1.296997,1.0450707235326229
-0.327393,0.982422,-0.152832,-6.904602,-6.347656,0.732422,1.046755359554944
-0.323975,0.981689,-0.149902,-6.29425,-2.098083,0.106812,1.0445782416602405
-0.333984,0.980713,-0.150146,-5.088806,1.716614,-0.419617,1.0468462742642781
-0.341309,0.994629,-0.139893,-3.27301,4.501343,-0.869751,1.060824553152405
-0.337646,1.007324,-0.136719,-2.349854,6.858825,-0.862122,1.0711669091476828
-0.341309,1.010254,-0.135498,-2.494812,7.93457,-1.083374,1.074925432763129
-0.346436,0.995361,-0.136475,-4.173279,8.232117,-1.724243,1.0627261397189778
-0.351563,0.977783,-0.136719,-5.378723,7.453918,-1.922607,1.0480210985562266
-0.352295,0.959229,-0.141602,-5.142211,5.943298,-1.037598,1.0316410072646396
-0.347656,0.957031,-0.141846,-3.158569,4.776001,0.236511,1.0280531683784646
-0.352051,0.964111,-0.137451,-1.464844,3.852844,1.342773,1.0355398130072064
-0.361816,0.973633,-0.135254,-0.106812,3.097534,2.235413,1.0474567681107416
-0.373535,0.979004,-0.134277,0.62561,2.159119,3.356933,1.0564125808461389
-0.377441,0.981689,-0.134521,1.106262,0.694275,4.493713,1.0603164153416658
-0.374268,0.987793,-0.13623,2.159119,-1.052856,5.41687,1.0650681478539297
-0.372314,0.998779,-0.130371,4.173279,-2.822876,7.629394,1.0738593032041022
-0.377686,1.005371,-0.128662,5.844116,-4.447937,9.635925,1.081652195708491
-0.378174,1.003418,-0.130859,5.126953,-5.966186,8.865356,1.0802718800751039
-0.369385,0.994385,-0.133057,3.219604,-6.530761,6.66809,1.0690888511714074
-0.36084,0.986816,-0.134521,1.396179,-6.370544,5.203247,1.0592956258273702
-0.358398,0.982422,-0.137451,0.579834,-6.080627,4.615784,1.0547487330587317
-0.363525,0.984375,-0.134766,0.717163,-5.737304,4.142761,1.0579727978572984
-0.36499,0.98291,-0.128662,0.488281,-5.752563,2.662658,1.056353955094598
-0.363037,0.977539,-0.127197,0.198364,-5.645751,0.808716,1.050503420603189
-0.369629,0.981689,-0.128174,1.274109,-5.493164,-0.160217,1.0567721914575534
-0.373779,0.998779,-0.124268,2.677917,-5.950927,-0.396728,1.0736446188129478
-0.370117,1.00708,-0.126465,3.356933,-7.072448,-0.541687,1.0803657326637124
-0.365479,1.008057,-0.131104,2.777099,-8.148193,-1.182556,1.0802509308054309
-0.363037,0.994873,-0.132324,1.220703,-8.69751,-2.075195,1.067275873649358
-0.359863,0.985107,-0.13208,0.602722,-8.796692,-2.624511,1.0570630570680255
-0.358887,0.97998,-0.135498,0.556946,-9.162903,-1.914978,1.0523879451860896
-0.360596,0.983887,-0.133545,2.342224,-9.727478,-0.442505,1.0563604361249053
-0.365479,1.006104,-0.128174,4.989624,-10.742187,1.281738,1.0780764038476123
-0.375488,1.036865,-0.125,7.110595,-12.481688,2.830505,1.109822177814536
-0.377686,1.068359,-0.122803,7.5531,-13.870238,4.135132,1.1397886840489337
-0.377441,1.084229,-0.120117,5.981445,-15.419005,5.729675,1.1543146566733875
-0.379639,1.080566,-0.122314,3.372192,-17.242432,6.54602,1.151828704831148
-0.376709,1.057373,-0.126221,-0.022888,-18.623352,6.187438,1.1295481719037042
-0.368896,1.026367,-0.129883,-3.295898,-19.668579,5.79071,1.0983547110082426
-0.361572,0.992676,-0.130859,-5.828857,-19.996643,6.118774,1.0645487447933044
-0.353516,0.961182,-0.131348,-7.194519,-19.821167,6.561279,1.032519586489283
-0.345947,0.936768,-0.130127,-7.484436,-19.378662,6.393432,1.0070484838189273
-0.337891,0.92041,-0.128662,-6.896972,-18.585205,5.447387,0.9888775486504888
-0.332764,0.913086,-0.124268,-5.477905,-17.044067,4.051208,0.9797450989497216
-0.330566,0.916504,-0.125732,-3.64685,-15.220641,2.990722,0.9823756909634929
-0.329102,0.935059,-0.125732,-1.396179,-13.694762,2.380371,0.9992256980827704
-0.328369,0.957275,-0.125977,0.404358,-12.435912,2.037048,1.0198391198198862
-0.325684,0.963867,-0.130859,0.785828,-10.971068,1.708984,1.0257844507624396
-0.325195,0.965576,-0.132568,0.061035,-9.109497,1.144409,1.0274546580871586
-0.321777,0.965332,-0.13623,-0.701904,-7.141113,0.900268,1.0266279369143427
-0.328369,0.9729,-0.136963,-0.259399,-5.455017,1.38855,1.035914800323849
-0.339355,0.986328,-0.138916,1.396179,-4.524231,2.471924,1.0522843696762771
-0.352783,1.010254,-0.139404,2.563476,-5.203247,3.890991,1.0791211539122936
-0.363281,1.031006,-0.13916,2.525329,-7.575988,6.004333,1.1019582399514964
-0.371338,1.046875,-0.140381,2.13623,-10.833739,8.239746,1.1196186855487897
-0.365479,1.057861,-0.135986,1.853943,-12.748717,9.20105,1.1274471104925499
-0.359863,1.062256,-0.135498,1.296997,-13.114928,9.216309,1.1297118642861994
-0.363037,1.053955,-0.137939,-0.267029,-12.222289,8.331299,1.123229350184102
-0.366943,1.038086,-0.140137,-1.907349,-10.841369,6.622314,1.1099135495226644
-0.366455,1.020508,-0.137939,-2.76947,-9.376526,5.142211,1.0930475803047186
-0.360596,1.001465,-0.137207,-2.76947,-7.293701,3.829956,1.0732135772016678
-0.355713,0.986328,-0.133545,-1.747131,-4.760742,2.464294,1.0569810447581356
-0.357422,0.980225,-0.130371,0.289917,-2.716064,0.564575,1.0514695118499633
-0.365967,0.985107,-0.125,2.380371,-1.770019,-1.754761,1.0582970502358966
-0.366455,0.993408,-0.120117,4.455566,-2.105713,-3.730774,1.0656344660238801
-0.36084,1.000977,-0.120117,6.080627,-3.425598,-4.936218,1.0707887531245368
-0.351807,0.997314,-0.118896,6.858825,-4.852295,-5.142211,1.0642084563942347
-0.352295,0.989014,-0.118896,7.102966,-5.783081,-4.547119,1.056596762268842
-0.354248,0.984863,-0.122803,7.347106,-6.622314,-3.952026,1.0538156153151272
-0.350098,0.985107,-0.12207,7.286071,-8.308411,-2.792358,1.0525708983023423
-0.349854,0.989746,-0.119385,7.133483,-10.490417,-0.617981,1.056526262833537
-0.354248,0.997314,-0.114746,6.820678,-12.794494,1.655578,1.0645625883976948
-0.358398,1.006592,-0.111816,6.782531,-15.35797,3.837585,1.0743274169097612
-0.357666,1.01709,-0.116699,6.42395,-18.356323,5.851745,1.0844425721341817
-0.357666,1.032471,-0.116943,5.79071,-21.507261,7.858276,1.0989071838176325
-0.360596,1.044922,-0.109863,4.608154,-24.993895,9.216309,1.1108381250519805
-0.362793,1.038086,-0.112061,2.006531,-28.053282,9.887695,1.1053501580793301
-0.362549,1.019531,-0.109375,-0.785828,-30.830381,9.918213,1.087588216186163
-0.359619,1.006348,-0.105713,-2.349854,-33.294678,9.69696,1.0738888958518942
-0.354248,0.999268,-0.108398,-2.571106,-35.301208,9.559631,1.0657290029515007
-0.345703,1.0,-0.105957,-2.098083,-36.941528,9.376526,1.0633613920290692
-0.334229,1.009766,-0.102783,-1.853943,-37.620544,8.895874,1.068597559554578
-0.322998,1.014404,-0.098877,-2.670288,-36.659241,8.094788,1.069167827962009
-0.320313,1.012939,-0.095215,-3.379822,-34.698486,7.057189,1.0666357072191988
-0.315918,1.014404,-0.094238,-4.096985,-32.302856,6.095886,1.0666304226788208
-0.313721,1.011963,-0.09375,-4.53186,-30.067442,4.905701,1.0636160217437494
-0.313965,1.011719,-0.09375,-4.699707,-28.175352,3.890991,1.0634558846919793
-0.313721,1.01416,-0.092041,-4.402161,-26.870726,3.379822,1.0655575616183295
-0.310547,1.019531,-0.094238,-4.02832,-25.718687,3.562927,1.069936306428565
-0.310303,1.023438,-0.098389,-4.203796,-24.92523,3.936767,1.0739616785407198
-0.313232,1.020508,-0.095215,-4.928589,-24.909971,3.890991,1.0717353965009275
-0.312012,1.018066,-0.093994,-5.577087,-25.520323,4.295349,1.0689456209443022
-0.312988,1.016113,-0.095703,-5.577087,-26.710508,5.050659,1.0675233866862122
-0.310791,1.013672,-0.091064,-4.859924,-28.045652,5.905151,1.06414971754965
-0.304932,1.012207,-0.088623,-4.180908,-28.869627,6.904602,1.0608489862379096
-0.30249,1.010254,-0.084717,-3.753662,-28.808592,7.659912,1.05796517650866
-0.299805,1.006592,-0.078369,-3.486633,-27.770994,8.125305,1.05321042182937
-0.301025,1.001953,-0.075439,-3.326416,-26.260374,8.560181,1.048912249692509
-0.303467,0.997803,-0.07666,-2.952575,-24.612425,9.017944,1.0457436600324193
-0.299561,0.99707,-0.075195,-2.403259,-23.16284,9.613037,1.043810167437547
-0.30249,1.000244,-0.073242,-1.38092,-21.408079,10.45227,1.0475460134046617
-0.305176,1.008301,-0.073242,-0.389099,-19.798279,11.07788,1.0560150037480527
-0.309082,1.018555,-0.069824,0.12207,-18.173218,11.268615,1.0667058459223893
-0.314209,1.021973,-0.068115,-0.099182,-16.76178,10.94818,1.0713523050962275
-0.315186,1.022461,-0.064453,-0.259399,-15.594481,10.276793,1.0718782115175212
-0.317139,1.018066,-0.058594,-0.556946,-14.442443,9.559631,1.0679273301648384
-0.319092,1.015625,-0.058105,-1.091003,-13.572692,8.781433,1.0661566658395003
-0.31958,1.00708,-0.058838,-1.365662,-12.931823,8.026123,1.0582076417433395
-0.316406,1.004639,-0.060303,-1.197815,-11.741637,7.591247,1.0550112458955119
-0.314697,1.008057,-0.059814,-0.88501,-9.918213,7.270813,1.057729091806593
-0.313965,1.012451,-0.060059,-0.88501,-7.720947,6.820678,1.0617147131442608
-0.318115,1.01709,-0.057373,-0.991821,-5.432128,6.210327,1.0672211028901182
-0.314941,1.025391,-0.054932,-1.342773,-3.051758,5.28717,1.0740726516330261
-0.318359,1.027588,-0.053711,-1.869202,-0.549316,4.310608,1.0771139318317258
-0.318115,1.022705,-0.058838,-2.563476,1.502991,2.677917,1.072653056907964
-0.313965,1.013916,-0.058594,-3.387451,3.456115,1.319885,1.0630300715958134
-0.31543,1.000977,-0.056152,-3.997802,5.462646,0.114441,1.051001468378137
-0.316895,0.993408,-0.058105,-3.890991,7.110595,-1.228333,1.0443457696156
-0.318115,0.990479,-0.060791,-3.181457,8.132935,-1.869202,1.0420850964998012
-0.318359,0.997314,-0.060791,-2.113342,8.68988,-1.770019,1.0486578150941326
-0.320068,1.006348,-0.063477,-1.548767,9.20105,-1.205444,1.0579268175337082
-0.324707,1.014404,-0.06665,-1.541138,9.475708,-0.663757,1.0671889868083348
-0.328369,1.017822,-0.066406,-2.067566,9.45282,-0.686645,1.0715398175900883
-0.333252,1.016357,-0.0625,-3.005981,8.758545,-0.686645,1.0714218109376905
-0.335938,1.007813,-0.063965,-3.532409,7.347106,-0.350952,1.0642522746219527
-0.337158,1.004639,-0.066895,-3.128052,5.638122,0.267029,1.0618144745246225
-0.336914,1.005371,-0.068115,-2.464294,3.684997,1.174927,1.062507197275388
-0.336914,1.007568,-0.067139,-2.296448,1.716614,2.059937,1.06452428969047
-0.334717,1.007324,-0.067627,-2.334595,0.213623,2.525329,1.0636308204419427
-0.332764,1.007813,-0.067871,-2.388,-1.098633,2.738952,1.0634967772898987
-0.32959,1.00708,-0.069092,-2.662658,-1.853943,2.784729,1.0618914252238785
-0.326172,1.010986,-0.068604,-2.822876,-2.029419,2.677917,1.0645127404573418
-0.324707,1.011963,-0.071533,-2.815246,-1.808166,2.250671,1.0651857675105314
-0.324219,1.011719,-0.071533,-2.883911,-1.091003,1.914978,1.0648052709350193
-0.322754,1.013184,-0.075684,-2.845764,-0.198364,2.075195,1.0660394130743949
-0.324463,1.015869,-0.075684,-2.464294,0.442505,2.037048,1.0691090362474727
-0.323242,1.01709,-0.078369,-1.998901,1.144409,1.281738,1.0700930608246182
-0.321533,1.019287,-0.078125,-1.754761,1.831055,0.465393,1.0716496508108422
-0.322754,1.010742,-0.077637,-1.823425,2.281189,-0.022888,1.0638595014610717
-0.322021,1.006592,-0.080322,-1.678467,2.311707,-0.740051,1.0598946186244176
-0.319824,1.001709,-0.082275,-0.991821,2.098083,-1.403808,1.0547404833806275
-0.316406,0.999268,-0.081543,-0.244141,1.899719,-1.586914,1.051331799913329
-0.315186,0.999756,-0.08374,0.541687,1.541138,-1.724243,1.0516019502321208
-0.314209,1.003174,-0.081787,1.342773,1.014709,-1.815796,1.0544071715072882
-0.317871,1.008301,-0.076904,2.204895,0.053406,-1.586914,1.0600127850445955
-0.318604,1.018066,-0.072754,3.601074,-1.00708,-1.159668,1.0692333859770746
-0.316895,1.026611,-0.073242,4.447937,-2.166748,-0.587463,1.0769015632405776
-0.314941,1.030273,-0.072266,4.66156,-3.044128,-0.259399,1.079755834791366
-0.313477,1.030518,-0.066895,4.295349,-3.532409,-0.053406,1.0792173640550824
-0.312012,1.0271,-0.064209,3.814697,-3.692627,0.038147,1.0753644469783255
-0.307617,1.023682,-0.061035,3.585815,-3.364563,0.015259,1.0706438843228872
-0.305908,1.023682,-0.057861,3.540039,-2.799988,-0.007629,1.0699777740257037
-0.307617,1.021484,-0.055908,3.578186,-2.029419,-0.083923,1.0682618992592594
-0.307129,1.020508,-0.054443,3.128052,-1.174927,-0.259399,1.0671123844066286
-0.303955,1.020264,-0.053223,2.593994,-0.160217,-0.686645,1.0659080445563773
-0.303711,1.022217,-0.047607,2.288818,1.00708,-1.281738,1.0674429226235003
-0.305664,1.020752,-0.045166,2.311707,2.174377,-1.419067,1.066491956817303
-0.306885,1.019531,-0.046387,2.204895,3.227234,-1.777649,1.065726802212931
-0.306152,1.018066,-0.043945,2.204895,4.165649,-2.471924,1.0640106157764593
-0.30542,1.013916,-0.041504,2.319336,4.508972,-2.799988,1.0597309155969736
-0.304199,1.013916,-0.044189,2.700805,4.455566,-2.708435,1.059488251175066
-0.305908,1.018799,-0.044922,3.349304,4.364014,-2.532959,1.0646826254565254
-0.30835,1.018555,-0.046143,3.448486,4.203796,-2.02179,1.065205701718687
-0.310059,1.017334,-0.046631,3.067016,3.921509,-1.930237,1.0645560113014252
-0.308594,1.015625,-0.046387,2.822876,3.509521,-1.693725,1.0624858357785292
-0.311523,1.019043,-0.050537,2.731323,2.983093,-0.480652,1.0667938900026566
-0.315674,1.022461,-0.051758,2.655029,1.945495,0.205994,1.0713334967977992
-0.315674,1.031738,-0.053467,2.792358,0.709534,1.121521,1.0802740832811828
-0.322266,1.040527,-0.052246,2.494812,-0.358582,2.189636,1.0905418180890636
-0.325684,1.044922,-0.049072,1.701355,-1.373291,2.548218,1.095600344616594
-0.330566,1.037598,-0.044922,0.663757,-2.357483,2.815246,1.089908930160681
-0.328125,1.027588,-0.047119,0.114441,-3.425598,2.365112,1.0797329825146587
-0.324463,1.019043,-0.047119,0.061035,-4.325867,2.418518,1.070488241121312
-0.325684,1.015869,-0.04834,0.0,-4.989624,2.502441,1.067893556782229
-0.323242,1.014404,-0.050049,-0.106812,-5.378723,2.037048,1.0658357135041967
-0.324707,1.009277,-0.049072,-0.63324,-5.531311,1.731872,1.0613589212712162
-0.324707,1.009277,-0.053467,-1.159668,-5.577087,1.220703,1.0615712028248505
-0.325928,1.010254,-0.057373,-1.602173,-5.950927,0.717163,1.0630775450685617
-0.32666,1.01001,-0.056396,-2.059937,-6.607055,0.511169,1.0630180922806536
-0.325928,1.013184,-0.057373,-2.159119,-7.438659,0.450134,1.0658623457881418
-0.317871,1.02002,-0.057861,-1.747131,-7.904052,0.366211,1.0699676015478226
-0.310303,1.029785,-0.062988,-1.281738,-8.087158,0.816345,1.0773637204667696
-0.309814,1.028076,-0.06958,-1.846313,-8.087158,0.930786,1.075995517078022
-0.30542,1.020264,-0.076172,-2.983093,-7.6828,0.007629,1.0677182117394084
-0.302002,1.009033,-0.075928,-3.40271,-7.003784,-1.167297,1.05599141297503
-0.300537,1.000732,-0.078613,-3.005981,-6.340026,-1.296997,1.0478392185645657
-0.300781,0.999512,-0.080566,-1.808166,-5.897521,-0.862122,1.0468927015033584
-0.302734,1.00293,-0.081055,-0.205994,-5.653381,-0.297546,1.050755144018339
-0.305664,1.007813,-0.08252,0.816345,-6.011962,0.320435,1.0563744952738117
-0.305176,1.007568,-0.08374,1.411438,-6.523132,0.694275,1.0560956647955715
-0.305908,1.008057,-0.086914,2.174377,-7.04956,0.88501,1.0570301145705359
-0.306152,1.010742,-0.085449,2.89154,-7.850646,1.518249,1.0595423395358017
-0.308105,1.016113,-0.086914,3.440857,-8.552551,1.953125,1.0653489396390274
-0.30957,1.02002,-0.085938,4.104614,-9.307861,2.326965,1.0694202752631914
-0.311279,1.026123,-0.086182,4.974365,-10.086059,2.777099,1.075755717667352
-0.30957,1.026367,-0.083008,5.264282,-10.673522,2.822876,1.0752456145704572
-0.30835,1.023926,-0.081299,4.928589,-11.032104,2.388,1.07243354263889
-0.310059,1.020508,-0.080322,5.126953,-11.138915,2.258301,1.0695909429445445
-0.309326,1.020996,-0.07959,5.264282,-11.054992,2.433777,1.069789686990859
-0.307373,1.019775,-0.077148,5.043029,-10.848998,2.738952,1.0678815597518294
-0.304443,1.019531,-0.077393,4.981995,-10.902404,2.754211,1.0668264510495604
-0.302002,1.019287,-0.07959,5.111694,-11.192321,2.593994,1.0660608633999282
-0.299072,1.022705,-0.076172,5.134582,-11.123656,2.426147,1.0682564073259753
-0.297363,1.018799,-0.074463,4.692078,-10.742187,1.998901,1.0639177104170228
-0.296387,1.011719,-0.072021,4.478455,-10.337829,1.335144,1.0566965568085287
-0.296875,1.005615,-0.074951,4.432678,-10.147094,0.991821,1.0511964356156274
-0.294434,1.003418,-0.075195,5.371093,-10.093688,1.205444,1.0484242228721157
-0.294189,1.006104,-0.076416,6.568908,-10.276793,1.594543,1.0510146676393246
-0.299805,1.01709,-0.077393,7.453918,-10.932921,2.113342,1.0631767409861825
-0.289551,1.028076,-0.076172,8.209229,-11.20758,2.548218,1.0707857941535273
-0.282959,1.042725,-0.078857,8.796692,-11.344909,2.990722,1.083309580754735
-0.279541,1.046875,-0.081543,7.888793,-10.879516,2.220154,1.0866184689922218
-0.273926,1.035645,-0.084229,6.019592,-9.780884,0.740051,1.0745652813775437
-0.270752,1.018066,-0.088135,4.966736,-8.44574,-0.411987,1.0571342412792237
-0.267822,1.006836,-0.091553,4.989624,-6.759643,-0.564575,1.045862948186329
-0.273682,1.003662,-0.090088,5.897521,-5.767822,0.328064,1.0442006967590092
-0.279541,1.006104,-0.085205,7.110595,-5.91278,1.594543,1.047687129596427
-0.2854,1.008789,-0.082275,7.995605,-7.202148,2.548218,1.0516071424947624
-0.286133,1.006592,-0.082275,8.758545,-9.010315,3.448486,1.0496993492319597
-0.285645,1.004883,-0.081787,9.628296,-10.810851,4.653931,1.0478893181452895
-0.285156,1.00415,-0.083008,10.597228,-12.176513,5.973815,1.0471492228426664
-0.283447,1.005615,-0.084717,11.398314,-13.229369,7.30133,1.0482274085917618
-0.285645,1.006836,-0.087402,11.749267,-14.09912,8.354187,1.0502146954432698
-0.29126,1.009766,-0.087646,11.680602,-15.083312,9.346008,1.0545812361653322
-0.294678,1.010986,-0.084717,11.550902,-15.998839,10.017395,1.0564586058947127
-0.298096,1.009766,-0.084229,11.222838,-17.204285,10.383605,1.056211685417748
-0.299316,1.005615,-0.087402,10.940551,-18.4021,10.749816,1.0528488522504074
-0.301758,1.000488,-0.083252,10.780334,-19.737244,10.925292,1.0483153267085243
-0.30249,1.003662,-0.083984,10.910033,-21.034239,10.94818,1.0516134853642758
-0.300293,1.00708,-0.086426,11.32965,-22.247313,10.82611,1.0544455726707755
-0.299072,1.01001,-0.090576,11.611938,-23.094175,10.94818,1.057245606782076
-0.294434,1.020752,-0.099609,12.016295,-23.16284,11.306762,1.06702763729015
-0.290283,1.03125,-0.10791,12.306212,-22.857664,11.505126,1.0767475798389332
-0.291748,1.042969,-0.114258,11.543273,-22.048948,11.611938,1.0890161252382813
-0.293945,1.043945,-0.117676,10.124206,-20.950315,10.620116,1.0909044261648222
-0.294189,1.030029,-0.12085,8.277893,-19.989014,8.834839,1.078012815815285
-0.294434,1.006104,-0.122559,7.461547,-19.668579,7.17926,1.0554417784288246
-0.292969,0.988037,-0.120605,8.018494,-19.561768,6.248474,1.037590243957122
-0.294434,0.97876,-0.118652,9.849548,-19.851685,5.615234,1.0289513181195697
-0.295898,0.976318,-0.117432,12.08496,-20.523069,4.882813,1.026909313499493
-0.296143,0.979492,-0.119141,13.710021,-21.850584,4.119873,1.0301940751110927
-0.290283,0.977539,-0.119629,14.587401,-23.109434,3.456115,1.0267218777502503
-0.283203,0.978027,-0.121094,14.762877,-24.063108,3.211975,1.0253801776775284
-0.278076,0.977783,-0.125732,15.1062,-24.566648,3.417969,1.024301905049971
-0.2771,0.987549,-0.125732,15.983581,-24.703978,3.753662,1.0333663306035281
-0.27832,0.99707,-0.123047,16.220093,-25.123594,4.15802,1.042473583122853
-0.276123,1.000244,-0.121094,15.457152,-25.581358,4.547119,1.0446988692924866
-0.279053,1.000732,-0.121338,15.029906,-26.588438,5.500793,1.0459722859029297
-0.284668,1.008545,-0.12793,15.510558,-28.549192,6.156921,1.055729592343134
-0.277344,1.016357,-0.145264,16.639709,-30.654905,7.392883,1.063486189605206
-0.268066,1.047363,-0.161865,18.4021,-32.402039,9.613037,1.093173779574867
-0.26416,1.070068,-0.165283,18.135071,-32.943726,11.421203,1.1145153656693119
-0.265625,1.075928,-0.166504,15.762328,-32.669067,12.763976,1.1206700155821963
-0.268555,1.069092,-0.162109,13.72528,-33.363342,13.671874,1.1141628338667557
-0.27832,1.067139,-0.151367,13.47351,-34.942627,13.893126,1.113175474222281
-0.277832,1.054688,-0.133789,14.030456,-36.857605,13.618468,1.0988434347480993
-0.260254,1.045654,-0.123291,15.151977,-38.818359,13.404845,1.0845852215999443
-0.242432,1.049316,-0.123535,16.639709,-40.115356,14.549254,1.0840194826224294
-0.225342,1.063721,-0.123779,17.692566,-40.122986,16.090393,1.0943503203481049
-0.19751,1.082764,-0.125488,16.304016,-36.987305,16.052246,1.1077613993726265
-0.183594,1.086182,-0.125977,12.161254,-32.684326,14.785766,1.1087688210303355
-0.180908,1.074463,-0.120605,7.225036,-29.106138,12.344359,1.096240853488867
-0.183838,1.05542,-0.106445,3.128052,-25.939939,10.56671,1.0765864222945598
-0.182129,1.032715,-0.089355,0.488281,-23.124693,9.483337,1.0524521651319836
-0.182129,1.014893,-0.084717,-0.526428,-21.492002,9.124756,1.0345799844279806
-0.189941,1.006836,-0.080322,0.205994,-23.994444,8.659363,1.0277392364121358
-0.177246,1.010498,-0.098145,1.792908,-27.740477,9.620667,1.030608943074433
-0.165039,1.041992,-0.100586,4.295349,-30.960081,12.344359,1.0597654188456047
-0.14917,1.064453,-0.099854,3.890991,-32.333374,13.732909,1.0794826072823036
-0.13501,1.059082,-0.103027,1.739502,-29.357908,13.778686,1.072612206509417
-0.125488,1.051514,-0.101318,-0.457764,-23.094175,11.909484,1.0638111991627086
-0.11792,1.0354,-0.110107,-2.861023,-14.244079,9.246826,1.0478940012467866
-0.124756,1.020264,-0.117432,-3.875732,-3.387451,7.133483,1.0345496430118761
-0.13623,1.011963,-0.128662,-3.593445,7.896423,5.653381,1.0291655049179407
-0.152344,1.014648,-0.140137,-2.39563,18.112183,5.142211,1.0355470230795896
-0.177734,1.019531,-0.152344,-1.174927,26.519773,4.653931,1.046060002606447
-0.197998,1.018311,-0.165527,-0.434875,33.058167,2.624511,1.0505044923530789
-0.211182,1.011963,-0.174561,-0.213623,38.42926,-1.014709,1.0483980604779846
-0.223633,0.990234,-0.182617,-0.038147,42.892452,-4.455566,1.031466946699699
-0.235596,0.975098,-0.193604,1.495361,46.295162,-7.286071,1.0216673106427552
-0.247803,0.971924,-0.212891,4.837036,47.7066,-8.407593,1.0253609932438428
-0.259766,0.988525,-0.24292,9.658813,46.737667,-6.759643,1.0505570792589045
-0.278564,1.025635,-0.26001,13.801574,43.586727,-3.372192,1.0941344777590185
-0.29126,1.050049,-0.260986,14.518737,38.513184,-0.869751,1.120512821076582
-0.284912,1.041504,-0.263672,12.397765,33.01239,-1.083374,1.1114982471169264
-0.277832,1.010986,-0.264404,10.421752,27.030943,-2.89154,1.0812921842110945
-0.273193,0.980469,-0.260498,10.429381,20.866392,-4.440308,1.0506250916544875
-0.264648,0.967529,-0.247314,12.46643,16.288757,-4.577637,1.0331094541920522
-0.246826,0.971924,-0.223389,15.602111,14.564513,-3.349304,1.0273567936082382
-0.209717,0.992676,-0.195801,18.52417,19.538879,-2.975464,1.0333077434462592
-0.172852,1.023438,-0.188721,19.798279,33.027649,-4.707336,1.054949652632295
-0.164063,1.050781,-0.181641,19.752502,51.803585,-7.820129,1.0789118735147
-0.182861,1.06958,-0.169678,19.042969,71.838379,-11.138915,1.0982850929540107
-0.202393,1.067627,-0.161133,15.342711,89.134209,-14.648437,1.0985236370998124
-0.236084,1.050537,-0.138916,10.742187,99.487297,-17.807007,1.0856616869361284
-0.274658,1.012939,-0.123291,6.340026,101.066582,-20.538328,1.0567322770531806
-0.293701,0.966309,-0.112061,4.28772,94.696037,-23.048399,1.0161550219346456
-0.288574,0.927979,-0.113281,5.0354,83.648674,-23.429869,0.9783928469065992
-0.273193,0.90332,-0.124756,7.8125,72.570801,-21.553038,0.9519377590919482
-0.261719,0.897461,-0.144043,12.275695,63.552853,-18.989563,0.9458760316928428
-0.255615,0.918213,-0.166016,17.990112,56.358334,-17.410278,0.967478916488623
-0.258545,0.958496,-0.184326,23.16284,50.148006,-16.76178,1.0097208393001502
-0.272705,1.006104,-0.186768,25.787352,43.41888,-16.136169,1.0590068751736226
-0.281494,1.03833,-0.184814,24.032591,35.972595,-15.663146,1.0915696384253273
-0.278809,1.046875,-0.187256,19.294739,28.541563,-14.86206,1.0994300949319151
-0.266846,1.038086,-0.190186,15.083312,22.65167,-13.381957,1.0885770738482416
-0.263916,1.022949,-0.201172,13.488769,18.890381,-11.543273,1.0754285123805303
-0.262695,1.020264,-0.208252,15.182494,16.242981,-10.147094,1.073925597155129
-0.255859,1.041748,-0.213135,18.951416,14.060973,-9.117126,1.0936769411530993
-0.250977,1.077148,-0.216797,21.369932,11.383056,-7.751464,1.1270484495539665
-0.250732,1.110107,-0.210449,19.691467,7.530212,-6.401062,1.1573646222664662
-0.255615,1.107178,-0.206787,14.633178,0.427246,-5.348205,1.154964508233045
-0.252441,1.071045,-0.217041,9.712219,-10.223388,-4.554749,1.1215929057313978
-0.23584,1.034424,-0.2229,7.141113,-21.90399,-3.250122,1.0841300325034815
-0.220703,1.012695,-0.226807,6.225585,-32.821655,-0.389099,1.0609912311056109
-0.211182,0.99292,-0.241211,5.424499,-41.41235,3.326416,1.0433938422498956
-0.19873,0.992432,-0.257568,4.852295,-46.714779,7.621765,1.0443927240975972
-0.180908,1.002441,-0.263672,3.379822,-48.370358,12.222289,1.0522065322592327
-0.16626,1.012207,-0.264404,0.602722,-45.539852,15.762328,1.0592992370737364
-0.155518,1.009521,-0.262695,-3.166198,-38.566589,16.189575,1.0546692186605238
-0.149414,0.98584,-0.258789,-6.729125,-27.70233,13.893126,1.0301343579926843
-0.147461,0.963867,-0.255371,-7.957458,-13.015746,10.391234,1.0079676025800632
-0.149658,0.955566,-0.257324,-6.637573,4.653931,6.553649,1.000859399863937
-0.162842,0.970703,-0.260498,-4.150391,23.79608,3.532409,1.0181557047804624
-0.182861,0.999268,-0.263184,-1.945495,42.114254,1.76239,1.0494000662287954
-0.207275,1.026855,-0.263184,-0.671387,57.861324,-0.12207,1.0801203333453175
-0.234863,1.029053,-0.272217,-1.342773,69.984436,-3.189087,1.0900517421971307
-0.263916,1.013916,-0.270752,-1.350403,77.552795,-8.209229,1.082120120696404
-0.296631,0.992676,-0.261963,0.50354,78.674316,-13.633727,1.0686534538876484
-0.309326,0.984619,-0.252441,3.593445,75.294495,-17.364502,1.0624893448491612
-0.302002,0.985352,-0.255371,7.186889,72.471619,-19.218445,1.0617617998162299
-0.313721,0.994141,-0.260742,9.925842,69.038391,-19.104004,1.0745806550864387
-0.330811,1.005371,-0.269775,11.390685,63.58337,-18.074036,1.0922386717137422
-0.337158,1.023682,-0.269043,11.573791,56.205746,-16.593933,1.1108485450037733
-0.336914,1.036865,-0.264648,10.307311,46.974178,-14.648437,1.1218906522139311
-0.348389,1.040039,-0.258057,7.896423,34.034729,-12.130736,1.1267872168652784
-0.35498,1.026855,-0.247803,5.386352,17.845154,-9.033203,1.1143824829177817
-0.346191,1.015137,-0.236572,3.952026,1.152039,-5.882263,1.0983249284405776
-0.332275,1.005127,-0.229736,3.65448,-13.153075,-2.746582,1.083266168330757
-0.313477,1.009766,-0.226563,3.936767,-24.482725,0.900268,1.0813075405517154
-0.299561,1.027344,-0.216309,4.112244,-33.355713,4.692078,1.0917701546287113
-0.28833,1.045898,-0.206543,2.754211,-40.710445,7.820129,1.1043988528394078
-0.276855,1.056885,-0.193604,0.701904,-46.630856,9.70459,1.1095661778668273
-0.262695,1.060059,-0.182617,-2.281189,-51.36108,9.986877,1.107286193897043
-0.24292,1.05249,-0.175537,-5.943298,-53.977962,9.513855,1.0943301900564564
-0.224854,1.044189,-0.17334,-9.086609,-54.489132,9.269714,1.0820983063645373
-0.213379,1.037598,-0.172607,-12.115478,-52.665707,9.178162,1.0732815957119548
-0.209717,1.038086,-0.181152,-15.624999,-49.232479,9.338379,1.0744393005605295
-0.220215,1.039795,-0.191406,-19.416809,-45.715328,9.887695,1.079955807006009
-0.227051,1.042725,-0.197021,-22.613523,-43.090816,10.414123,1.0851934650867558
-0.227539,1.044189,-0.210693,-25.161741,-41.244503,10.848998,1.0892640655465506
-0.224365,1.046631,-0.216797,-27.351377,-39.329529,10.932921,1.092143325115802
-0.221924,1.036621,-0.228027,-29.96826,-36.346436,10.482787,1.0843568011249802
-0.223145,1.022949,-0.234863,-31.433104,-32.066345,9.216309,1.0730232879089812
-0.230225,1.010254,-0.239502,-31.448362,-26.748655,7.575988,1.0634744487504155
-0.241211,1.001709,-0.242676,-30.303953,-21.568296,6.500244,1.0585345096774124
-0.248535,1.008789,-0.245117,-28.160093,-16.639709,6.103515,1.067477042579839
-0.249756,1.022949,-0.24585,-25.474546,-11.604308,5.79071,1.081316299071183
-0.250977,1.033203,-0.240723,-23.117064,-5.981445,3.707886,1.090158454751877
-0.248291,1.032959,-0.236328,-22.842405,0.556946,0.007629,1.0883490432512908
-0.244141,1.016602,-0.230713,-23.857115,8.140564,-4.547119,1.0706600499943948
-0.244141,0.998779,-0.222168,-23.841856,16.63208,-9.155273,1.0519139408459228
-0.252197,0.986572,-0.205566,-22.560118,24.780272,-13.580321,1.0388383023112884
-0.260498,0.980469,-0.194336,-20.835875,31.471251,-17.097473,1.0329303698028247
-0.270264,0.976807,-0.186279,-18.821716,35.972595,-19.165039,1.030482610617957
-0.281982,0.975586,-0.175293,-16.624451,38.070679,-20.729063,1.0305384648663047
-0.28418,0.981689,-0.166016,-13.999938,38.528442,-22.972105,1.0353902053704196
-0.288086,0.991699,-0.159668,-11.71112,37.155151,-25.497435,1.0449661813766988
-0.284912,0.993164,-0.154053,-10.848998,35.499573,-27.908323,1.0446443918621304
-0.279785,0.990479,-0.148438,-9.933472,34.568787,-29.724119,1.0398856357840511
-0.283936,0.987305,-0.143799,-9.284973,34.072876,-31.204222,1.0373374414924008
-0.291016,0.980469,-0.137695,-8.766174,32.531738,-32.203674,1.031973684374752
-0.29126,0.97583,-0.13623,-7.827758,30.136106,-32.699585,1.0274410880434945
-0.276611,0.980469,-0.147949,-5.66864,28.488157,-32.775879,1.0294280022823354
-0.28125,0.998535,-0.161133,-3.097534,27.770994,-32.104492,1.0498273917239918
-0.306885,1.014893,-0.175781,-3.135681,26.069639,-31.272886,1.0747488844539455
-0.324951,1.008545,-0.185059,-6.118774,20.347593,-30.540464,1.075640740631834
-0.32251,0.985596,-0.200928,-9.483337,11.894225,-28.839109,1.0563068855687725
-0.299072,0.970703,-0.21167,-10.19287,4.463196,-26.344297,1.0375512345388056
-0.27002,0.970459,-0.206299,-8.300781,0.976562,-24.54376,1.0282318554110255
-0.274658,0.982178,-0.202881,-5.950927,-0.747681,-23.53668,1.0398419787684088
-0.298828,1.007568,-0.205322,-4.402161,-2.914428,-22.15576,1.0708167779279516
-0.307861,1.041992,-0.198975,-3.585815,-6.080627,-19.088745,1.1045889615644364
-0.302734,1.063721,-0.188232,-3.387451,-10.261535,-15.2359,1.1218651997548545
-0.286865,1.069824,-0.174805,-3.921509,-14.938354,-13.931273,1.1213258702206064
-0.258545,1.049561,-0.165039,-4.974365,-18.90564,-14.038085,1.0934631595380797
-0.228516,1.030518,-0.159668,-5.958557,-20.103453,-13.183593,1.0675583266519915
-0.210938,1.030029,-0.147217,-7.186889,-18.89801,-11.672973,1.0616625762331457
-0.212891,1.023682,-0.142578,-7.545471,-17.433167,-9.315491,1.0552610582642572
-0.231689,1.016846,-0.144531,-5.447387,-18.188477,-7.164001,1.052874536874171
-0.256592,1.02124,-0.136475,-2.510071,-23.178099,-6.210327,1.0617890645928691
-0.270508,1.046387,-0.130859,-1.312256,-31.715391,-4.79126,1.0886801227697693
-0.208252,1.077881,-0.121338,-4.173279,-39.260864,0.541687,1.104499549981348
-0.119873,1.082764,-0.101807,-11.734008,-43.151852,9.277344,1.0941261723741005
-0.115967,1.053223,-0.103516,-18.203735,-40.557858,14.160155,1.0646326103750532
-0.162842,1.007568,-0.12793,-20.835875,-35.53009,12.153625,1.028628638765225
-0.202148,0.967041,-0.143066,-20.286558,-31.646727,7.911682,0.9982484610261115
-0.216309,0.947266,-0.156006,-17.341614,-27.038572,5.599975,0.984093659299256
-0.218262,0.948242,-0.167725,-13.961791,-19.287109,4.844666,0.9873868881208622
-0.227783,0.952881,-0.168701,-12.657165,-8.19397,3.135681,0.9941465297686252
-0.248535,0.961914,-0.171387,-13.252257,3.410339,1.625061,1.0081774116642368
-0.242432,0.965332,-0.175781,-14.877318,15.411376,2.365112,1.010711682335274
-0.222656,0.97168,-0.169434,-15.419005,27.359007,4.516602,1.0111605199432976
-0.23999,0.953125,-0.185791,-14.114379,35.53772,7.164001,1.0002803414073476
-0.322998,0.916748,-0.209229,-4.066467,35.15625,4.920959,0.9942491528530462
-0.365723,0.921143,-0.204834,12.397765,27.549742,-4.455566,1.0120349335541734
-0.336914,0.955322,-0.212646,21.499632,17.127991,-9.849548,1.0350697988039261
-0.306396,0.992432,-0.204346,23.933409,9.109497,-4.455566,1.0585636830894964
-0.302246,0.996094,-0.218262,22.674559,6.408691,3.890991,1.0635761383163878
-0.323242,0.983398,-0.250488,21.690367,5.874633,7.537841,1.0650357999203595
-0.334717,0.975098,-0.250244,22.323606,5.401611,6.904602,1.060883423958071
-0.312256,0.980957,-0.248535,23.269651,4.875183,6.393432,1.0590326206543403
-0.306885,0.995361,-0.243408,23.620604,3.616333,9.521484,1.0696585333694113
-0.330078,1.011475,-0.234131,24.307249,2.876281,13.389586,1.089426678060529
-0.359131,1.031738,-0.224609,26.168821,2.532959,15.701293,1.1153060470946976
-0.376953,1.053711,-0.199951,27.160643,-0.328064,16.00647,1.136829291552166
-0.401367,1.06665,-0.179688,27.053831,-6.523132,16.181946,1.1537441087749918
-0.437012,1.072754,-0.155029,27.160643,-17.402649,16.616821,1.1686807192304491
-0.432861,1.073486,-0.139404,26.56555,-31.532286,15.777587,1.1658363147256134
-0.395996,1.066895,-0.131104,24.330137,-44.982906,15.159606,1.1455418071187973
-0.363037,1.063965,-0.132324,20.622252,-53.817745,15.518188,1.1319571659607974
-0.338135,1.053467,-0.136963,13.420104,-56.426998,15.304564,1.114848358155942
-0.321777,1.030029,-0.134521,4.302979,-56.060787,14.656066,1.087472334365799
-0.321045,0.991455,-0.123779,-3.997802,-55.740353,13.236999,1.0494637439621246
-0.31543,0.958496,-0.119141,-8.834839,-55.297848,10.124206,1.0160734445880377
-0.289063,0.956543,-0.108887,-8.789063,-52.810665,5.935668,1.0051807337921874
-0.259766,0.991455,-0.08252,-7.865905,-47.21069,1.38855,1.0282368123059007
-0.242676,1.018066,-0.058105,-9.567261,-37.445068,-1.617432,1.048201417837717
-0.227051,1.013916,-0.059082,-11.306762,-24.711607,-3.639221,1.0407057674390972
-0.231445,1.000977,-0.05957,-11.123656,-13.824462,-6.256103,1.0291114261604524
-0.250732,0.99292,-0.063721,-9.094238,-6.805419,-9.231567,1.0260687248254865
-0.266113,1.000244,-0.077148,-5.691528,-5.149841,-9.223938,1.0379094383466216
-0.279785,1.020996,-0.094727,-1.976013,-8.079529,-5.607605,1.0628667286024152
-0.287109,1.053467,-0.108887,-0.236511,-13.519286,-1.411438,1.0973060998367776
-0.276367,1.082031,-0.11792,-1.922607,-18.455505,1.586914,1.122975925855047
-0.260498,1.091553,-0.125244,-6.622314,-20.416258,4.051208,1.1291736887427903
-0.252197,1.077393,-0.137207,-12.21466,-18.997192,5.836486,1.114990925571594
-0.222168,1.05249,-0.14502,-17.074585,-10.765075,6.492614,1.0854144925898124
-0.222656,1.025879,-0.151611,-19.958496,2.494812,6.843566,1.0606551335368155
-0.254883,1.003174,-0.157959,-20.03479,14.312743,4.814148,1.04703126201943
-0.278809,0.990723,-0.160645,-18.814087,22.796629,0.434875,1.0416685352044575
-0.293457,0.983154,-0.164551,-17.456055,27.366636,-3.288269,1.0391274369229213
-0.310059,0.97998,-0.161865,-14.846801,28.358458,-5.378723,1.0405275883444898
-0.322266,0.98291,-0.163818,-11.634826,26.260374,-6.04248,1.047284001586962
-0.327148,0.984375,-0.168457,-9.300232,21.408079,-5.836486,1.0509032854539946
-0.329346,0.980713,-0.168457,-8.209229,15.258788,-5.523681,1.0481624573194748
-0.330078,0.975586,-0.164063,-7.850646,9.223938,-5.447387,1.0428979803648102
-0.330566,0.969238,-0.158936,-7.011413,3.669739,-5.256652,1.0363188858145933
-0.330322,0.965576,-0.152832,-5.714416,-1.403808,-4.402161,1.03189498287568
-0.335693,0.964355,-0.146973,-4.478455,-6.134033,-2.532959,1.0316353129875886
-0.336426,0.963623,-0.14209,-3.234863,-11.253356,-0.183105,1.030505365199522
-0.3396,0.973145,-0.134766,-1.716614,-16.738892,2.27356,1.0394716089345586
-0.336182,0.993652,-0.125,0.320435,-21.499632,4.608154,1.0564031589445386
-0.325928,1.014893,-0.121338,2.487183,-24.330137,6.42395,1.0728279325581527
-0.321777,1.032715,-0.115967,3.52478,-25.588987,7.392883,1.0878828310268527
-0.326172,1.034912,-0.111084,2.479553,-26.176451,6.790161,1.0907660960921
-0.330078,1.028809,-0.109863,1.00708,-26.68762,5.615234,1.086033757916392
-0.329102,1.019043,-0.109619,0.328064,-27.580259,5.119323,1.0764632308694988
-0.321045,1.012451,-0.111816,0.511169,-27.854918,5.142211,1.0680026859900682
-0.314453,1.015137,-0.113037,0.679016,-26.763914,5.111694,1.068719411888359
-0.310059,1.028809,-0.115723,0.328064,-24.681089,4.53186,1.0807295474312713
-0.30957,1.041504,-0.119141,-0.526428,-22.415159,3.089905,1.0930502023223818
-0.303223,1.048828,-0.123291,-1.701355,-19.416809,1.502991,1.098719724039757
-0.29126,1.053223,-0.123535,-3.089905,-15.502929,-0.236511,1.099714495473257
-0.285156,1.050537,-0.125977,-5.172729,-11.138915,-2.792358,1.0958157405485651
-0.28125,1.040771,-0.124756,-7.453918,-6.54602,-5.867004,1.0852971466271344
-0.283203,1.029785,-0.123779,-8.857727,-2.27356,-8.44574,1.075166185422049
-0.289551,1.026123,-0.124023,-9.44519,1.365662,-10.208129,1.073382456191175
-0.294678,1.025391,-0.119141,-9.58252,3.944397,-11.428832,1.0735252230134138
-0.299316,1.030518,-0.115234,-9.57489,5.599975,-12.237548,1.0792758178223025
-0.298096,1.041016,-0.109131,-8.857727,6.484985,-12.771605,1.0883405315584822
-0.299316,1.051514,-0.111084,-7.942199,6.599426,-12.878417,1.0989137432519442
-0.294922,1.047607,-0.114746,-8.514404,5.950927,-12.863158,1.0943610268320962
-0.29248,1.031006,-0.116211,-9.971619,5.081176,-13.061522,1.0779716689027594
-0.286621,1.019531,-0.116699,-10.803222,4.402161,-13.404845,1.0654640839573148
-0.28125,1.010498,-0.114502,-10.581969,4.226685,-12.855529,1.0551390801728462
-0.281006,1.007324,-0.105957,-9.719849,4.333496,-11.627196,1.0511388580301844
-0.283691,1.005615,-0.101318,-8.796692,4.478455,-10.841369,1.0497654256213624
-0.283936,1.004395,-0.096191,-7.827758,4.333496,-10.307311,1.0481801737306424
-0.283936,1.007324,-0.085205,-6.912231,4.15802,-9.628296,1.05003865885833
-0.286621,1.00293,-0.07959,-6.340026,4.142761,-8.415222,1.046114119320163
-0.285889,1.005127,-0.077393,-5.53894,4.219055,-7.034301,1.0478561365469021
-0.28833,1.005615,-0.071045,-4.852295,4.646301,-5.477905,1.0485433272640667
-0.293213,1.004883,-0.06665,-4.615784,4.928589,-3.768921,1.0489070166406553
-0.300049,1.007813,-0.063965,-4.40979,4.966736,-2.510071,1.0534742363223697
-0.302246,1.013916,-0.060791,-4.333496,4.753113,-1.571655,1.059751784736879
-0.30127,1.020264,-0.062744,-4.40979,4.508972,-0.450134,1.0656636674542301
-0.30249,1.019531,-0.065186,-5.477905,4.40979,0.564575,1.0654543043495577
-0.299561,1.017822,-0.064941,-6.790161,5.15747,0.75531,1.0629749526145948
-0.297852,1.015381,-0.062256,-7.67517,6.79779,0.679016,1.0599953766885026
-0.302979,1.010498,-0.060059,-8.407593,8.529663,0.862122,1.056650162506967
-0.311523,1.003418,-0.05542,-8.94928,9.666443,1.060486,1.0521243456231777
-0.316406,1.000244,-0.056641,-8.705139,9.857178,1.182556,1.0506231575845832
-0.319336,1.002686,-0.056396,-7.865905,9.58252,1.655578,1.0538193413996537
-0.32373,1.009521,-0.056396,-7.087707,9.109497,2.128601,1.0616563809241668
-0.324463,1.013916,-0.056641,-6.92749,8.506775,2.555847,1.0660722753669192
-0.328857,1.015869,-0.060059,-7.164001,8.003235,2.914428,1.0694595995599834
-0.335693,1.015381,-0.060791,-7.8125,7.148742,3.372192,1.0711600772484944
-0.341309,1.01416,-0.064209,-7.919311,5.615234,3.730774,1.0719772081355088
-0.343018,1.016357,-0.064941,-7.896423,3.082275,4.364014,1.074644235667786
-0.342773,1.019775,-0.063965,-7.705688,0.091553,5.0354,1.0777411105543855
-0.343994,1.020508,-0.067871,-8.010864,-2.777099,5.317688,1.0790620569462166
-0.341064,1.015381,-0.069824,-8.81958,-5.41687,5.546569,1.0734051510184774
-0.33374,1.01123,-0.070801,-8.460999,-7.041931,5.569458,1.0672306602140889
-0.333252,1.010986,-0.067383,-7.995605,-8.041382,5.271911,1.0666255464730816
-0.33374,1.007568,-0.069824,-8.148193,-8.628845,5.180358,1.0636968803188247
-0.333496,1.009277,-0.069824,-7.400512,-9.048462,5.065917,1.0652394264769776
-0.331787,1.015137,-0.06665,-6.698608,-9.353638,5.027771,1.070059794889052
-0.332275,1.018799,-0.065918,-6.744384,-9.513855,5.0354,1.0736401914747788
-0.325928,1.016602,-0.063965,-6.820678,-9.078979,4.501343,1.0694859554070824
-0.322754,1.011475,-0.064941,-6.874084,-8.140564,3.77655,1.0637053885460954
-0.325439,1.01001,-0.062256,-6.66809,-7.003784,2.861023,1.0629706262907739
-0.323486,1.009766,-0.061768,-6.340026,-5.569458,2.372742,1.0621138605516829
-0.320557,1.016846,-0.060303,-5.889892,-3.677368,2.105713,1.067880625245163
-0.320557,1.019043,-0.05957,-5.66101,-1.487732,1.564026,1.0699317786653504
-0.321777,1.019775,-0.053223,-5.378723,0.961304,0.175476,1.0706606260076066
-0.321289,1.019775,-0.051514,-5.905151,3.372192,-1.243591,1.0704304574992252
-0.320068,1.016602,-0.053223,-5.836486,5.859375,-2.250671,1.0671250342659009
-0.322266,1.016113,-0.04834,-5.561828,8.232117,-3.349304,1.067088449532184
-0.323242,1.013672,-0.047363,-5.523681,10.169982,-4.310608,1.065016228945362
-0.326172,1.014404,-0.049316,-5.348205,11.672973,-5.226135,1.0666938251700906
-0.328857,1.014648,-0.045166,-5.28717,12.649535,-6.011962,1.067566137487041
-0.32666,1.014893,-0.043945,-5.302429,13.290404,-6.683349,1.0670734370576378
-0.324707,1.013916,-0.042969,-5.729675,13.755797,-7.263183,1.065507684564499
-0.324463,1.012939,-0.04541,-5.996704,13.870238,-7.751464,1.0646049615655566
-0.32251,1.01001,-0.049072,-6.233215,13.900756,-8.117676,1.0613863393618743
-0.320557,1.013428,-0.046143,-6.04248,14.045714,-8.18634,1.0639183605343034
-0.322021,1.013672,-0.044189,-6.011962,14.198302,-8.338928,1.0645098006810458
-0.32251,1.013184,-0.036377,-5.722045,14.48059,-8.522034,1.063897459384597
-0.322754,1.012939,-0.032227,-5.218505,14.47296,-8.68988,1.0636043163535958
-0.32251,1.01416,-0.03418,-4.730225,14.289855,-8.407593,1.064754186702264
-0.320313,1.015137,-0.037842,-4.211426,14.22119,-7.911682,1.0651457945755596
-0.318359,1.01416,-0.041748,-4.379272,14.282226,-7.537841,1.06377434354519
-0.31665,1.012451,-0.04126,-4.806519,14.671325,-7.331848,1.0616151079845275
-0.316895,1.013184,-0.040771,-5.111694,15.098571,-7.202148,1.06236836046731
-0.319092,1.010254,-0.039795,-5.294799,15.525817,-7.17163,1.0601964398190553
-0.322998,1.010498,-0.041016,-5.050659,15.678405,-6.965637,1.0616573026471394
-0.325195,1.01416,-0.040283,-4.768372,15.304564,-6.439209,1.0657837556061736
-0.327148,1.019287,-0.04126,-4.646301,14.678954,-5.66101,1.0712955660661534
-0.330078,1.021729,-0.041504,-4.798889,14.10675,-4.867554,1.0745251125688038
-0.329834,1.022949,-0.043213,-5.012512,13.565063,-4.180908,1.0756776875653786
-0.329346,1.020264,-0.043945,-5.40924,13.008117,-3.77655,1.0730044643136394
-0.329834,1.016357,-0.04248,-5.653381,12.405395,-3.341675,1.0693813956699452
-0.32959,1.01001,-0.043213,-5.531311,11.95526,-2.990722,1.06330481592486
-0.331055,1.00708,-0.041748,-5.088806,11.489867,-2.777099,1.0609196175625182
-0.333496,1.00293,-0.041992,-4.638672,10.94818,-2.433777,1.0577577676292433
-0.336914,0.998535,-0.041504,-4.127502,10.055541,-2.326965,1.054659078393108
-0.334717,0.997314,-0.043457,-3.234863,9.231567,-2.189636,1.0528813777126083
-0.335693,0.99707,-0.044678,-2.5177,8.628845,-2.037048,1.053012107638369
-0.334473,0.999023,-0.044678,-1.991272,8.308411,-1.89209,1.0544739285264477
-0.333008,1.002686,-0.046875,-1.38092,8.178711,-1.564026,1.0575778024736524
-0.33252,1.007568,-0.049561,-1.243591,8.163452,-0.991821,1.0621765944253336
-0.333496,1.012695,-0.043945,-1.159668,8.544922,-0.526428,1.067099764813956
-0.334961,1.01001,-0.042725,-1.358032,9.017944,-0.198364,1.064962204609159
-0.337402,1.008545,-0.044922,-1.556396,9.155273,-0.106812,1.064434644641464
-0.33667,1.006104,-0.044434,-1.319885,9.170532,-0.221252,1.0618692612897316
-0.338135,1.003662,-0.043457,-0.999451,8.880615,0.083923,1.0599816976335017
-0.3396,1.005859,-0.046631,-0.511169,8.766174,0.75531,1.0626640758217059
-0.340576,1.011475,-0.042969,0.114441,8.972168,1.167297,1.0681385782575217
-0.341064,1.015137,-0.041504,0.282288,9.338379,1.220703,1.0717044195490657
-0.34375,1.017334,-0.041016,0.236511,9.57489,1.342773,1.0746231164050026
-0.344238,1.018066,-0.041992,0.160217,9.506226,1.304626,1.0755098832944305
-0.344482,1.016846,-0.040771,-0.099182,9.521484,1.190186,1.0743862948125316
-0.346191,1.013916,-0.0354,-0.152588,9.178162,1.190186,1.07197342482778
-0.3479,1.009521,-0.036865,-0.37384,8.476257,1.289368,1.068422242217935
-0.350342,1.009033,-0.040771,-0.473022,7.217407,1.342773,1.068901018099431
-0.347656,1.012207,-0.040771,-0.640869,5.897521,1.831055,1.0710228660612249
-0.34668,1.017578,-0.037354,-0.740051,4.653931,2.632141,1.0756613453127337
-0.346191,1.022461,-0.035645,-1.182556,3.829956,3.417969,1.0800672530111262
-0.344971,1.026367,-0.035156,-1.457214,3.128052,3.753662,1.0833605834928646
-0.343994,1.02417,-0.034668,-1.495361,2.601623,3.768921,1.0809523260347795
-0.342529,1.018311,-0.037842,-1.541138,2.120972,3.730774,1.0750420575614705
-0.342529,1.011963,-0.038086,-1.304626,1.335144,3.425598,1.069039649688448
-0.342041,1.008057,-0.034912,-0.961304,0.297546,2.944946,1.0650773721537794
-0.34375,1.008545,-0.03418,-0.358582,-0.938415,2.807617,1.066065360062412
-0.346436,1.009521,-0.035645,0.640869,-2.624511,3.280639,1.0679050133612071
-0.346191,1.010254,-0.03833,1.00708,-4.631042,3.707886,1.0686115018550941
-0.342773,1.008545,-0.040283,1.213074,-6.202697,3.768921,1.0659639143249644
-0.339844,1.009521,-0.04126,1.564026,-7.728576,3.509521,1.0659873270245757
-0.335205,1.010254,-0.040527,1.495361,-8.895874,3.639221,1.0651844789847438
-0.335938,1.008301,-0.040039,1.373291,-9.880066,4.013062,1.0635451884927127
-0.335693,1.009033,-0.040527,1.525879,-10.765075,4.325867,1.0641803526973237
-0.330811,1.010742,-0.043213,1.815796,-11.497497,4.478455,1.0643790075222266
-0.329346,1.017334,-0.041992,2.227783,-11.871337,4.676819,1.0701404502849148
-0.328125,1.020996,-0.046143,2.258301,-11.932372,4.653931,1.0734188483951639
-0.327148,1.020264,-0.046387,2.029419,-12.031554,4.28009,1.0724347054105439
-0.326416,1.017578,-0.042725,1.869202,-11.993407,3.669739,1.0695035375186939
-0.32373,1.018799,-0.041748,1.800537,-11.741637,3.440857,1.0698109229228312
-0.323242,1.018555,-0.044678,1.716614,-11.650084,3.372192,1.069549345412824
-0.323242,1.015869,-0.045898,1.63269,-11.947631,3.379822,1.0670435052653662
-0.320801,1.019287,-0.047119,1.548767,-12.268065,3.15094,1.0696165061044076
-0.317139,1.020508,-0.045654,1.319885,-12.542724,3.074646,1.0696251731803064
-0.315918,1.021484,-0.045166,1.190186,-12.7182,2.838135,1.0701746177778653
-0.314697,1.019775,-0.043457,1.00708,-13.107299,2.861023,1.0681122428298444
-0.313965,1.01709,-0.042725,1.029968,-13.702392,2.792358,1.0653034849046539
-0.30957,1.020752,-0.040771,1.373291,-14.183043,2.830505,1.0674411013470486
-0.303711,1.023438,-0.041504,1.533508,-14.495849,3.051758,1.0683577553333903
-0.298828,1.020508,-0.04126,1.441955,-14.488219,3.211975,1.0641602977221054
-0.293213,1.018799,-0.040039,1.12915,-14.060973,2.906799,1.0609092266970817
-0.29126,1.019043,-0.041504,0.854492,-13.175963,2.63977,1.0606618714109601
-0.287842,1.018311,-0.037598,0.839233,-11.840819,2.662658,1.0588786140483715
-0.286865,1.018066,-0.034424,1.113892,-10.32257,2.914428,1.0582697767379545
-0.285645,1.019043,-0.03418,1.289368,-8.804321,2.830505,1.058872029224495
-0.287842,1.02002,-0.029541,1.487732,-7.293701,2.731323,1.0602671776703265
-0.287598,1.027832,-0.027588,1.747131,-5.546569,2.845764,1.0676667680376684
-0.289307,1.031982,-0.027832,1.548767,-3.334045,2.754211,1.0721287277174323
-0.287598,1.032715,-0.027832,0.999451,-0.854492,2.784729,1.0723747017964385
-0.287109,1.03125,-0.030273,0.091553,1.655578,2.76947,1.0708989657806194
-0.291748,1.02832,-0.028809,-0.701904,4.005432,2.548218,1.0692936343142607
-0.300537,1.02417,-0.027344,-1.411438,5.584716,2.189636,1.0677051894624283
-0.306641,1.023682,-0.026611,-1.853943,6.568908,2.059937,1.068953546851312
-0.310791,1.026123,-0.025146,-1.739502,6.912231,2.006531,1.0724512940576834
-0.313721,1.030518,-0.025146,-1.76239,7.003784,1.838684,1.0775066289731123
-0.313721,1.027344,-0.024658,-1.876831,7.019042,1.785278,1.0744601328765064
-0.312256,1.029541,-0.029297,-1.831055,7.080078,1.457214,1.076251269186708
-0.316895,1.024414,-0.030762,-2.288818,7.102966,1.197815,1.072750103735721
-0.31958,1.020996,-0.0271,-2.26593,6.835937,0.778198,1.0701862540772986
-0.322266,1.020996,-0.025391,-2.128601,6.225585,0.213623,1.0709495364642538
-0.324463,1.02002,-0.026611,-1.983642,5.081176,-0.038147,1.0707124656461229
-0.323242,1.021484,-0.023926,-1.426697,3.845215,-0.045776,1.0716750469689962
-0.322998,1.022705,-0.028076,-1.365662,2.670288,-0.114441,1.0728660153089946
-0.318115,1.02002,-0.032471,-1.51062,1.541138,-0.213623,1.0689678757876684
-0.315186,1.015869,-0.035156,-1.960754,0.663757,-0.175476,1.0642217739235558
-0.317383,1.014404,-0.031006,-2.227783,0.0,-0.221252,1.0633479279807716
-0.318115,1.010742,-0.030762,-2.525329,-0.88501,-0.083923,1.0600673773081597
-0.316895,1.009766,-0.031982,-2.410889,-2.044678,0.221252,1.0588071892960493
-0.31665,1.009033,-0.038086,-1.88446,-3.532409,0.679016,1.0582369115585604
-0.315186,1.012939,-0.041504,-1.037598,-5.104064,1.266479,1.0616544703117865
-0.312012,1.01709,-0.041016,-0.457764,-6.29425,1.63269,1.0646623260452115
-0.309814,1.019043,-0.040039,-0.259399,-7.148742,1.815796,1.0658501170267796
-0.310059,1.014893,-0.039307,-0.228882,-7.598876,1.876831,1.061927222166849
-0.311035,1.018066,-0.035645,0.114441,-7.827758,1.930237,1.0651158235638039
-0.310547,1.018066,-0.033691,0.473022,-8.277893,2.090454,1.064909809817714
-0.310547,1.017578,-0.034668,0.869751,-8.613586,2.182007,1.0644746570571797
-0.309082,1.023926,-0.034424,1.068115,-8.811951,2.128601,1.0701126800370135
-0.305908,1.025146,-0.033203,1.052856,-8.804321,1.823425,1.0703300729162943
-0.306885,1.025146,-0.028564,0.778198,-9.010315,1.403808,1.0704758879288219
-0.308105,1.025879,-0.029297,0.511169,-9.506226,0.930786,1.071547818753321
-0.306396,1.0271,-0.02832,0.526428,-10.177611,0.518799,1.0722009798615182
-0.303223,1.029053,-0.026611,0.495911,-10.711669,0.297546,1.073127396844848
-0.29834,1.03125,-0.0271,0.419617,-11.032104,0.114441,1.0738797549539707
-0.293457,1.027344,-0.026855,0.259399,-10.910033,-0.12207,1.0687721441963203
-0.289063,1.02417,-0.024902,-0.022888,-10.520934,-0.274658,1.0644725062081217
-0.286865,1.020508,-0.024902,-0.434875,-10.025024,-0.297546,1.0603528732893592
-0.284912,1.017822,-0.023682,-0.457764,-9.315491,-0.267029,1.0572120452170415
-0.285889,1.012207,-0.026123,-0.221252,-8.506775,-0.053406,1.0521301926563082
-0.285889,1.012451,-0.026611,0.549316,-7.774353,0.205994,1.0523771629235406
-0.2854,1.012695,-0.026123,1.068115,-7.141113,0.37384,1.052466975327017
-0.286865,1.012207,-0.027832,1.289368,-6.729125,0.968933,1.0524396226378026
-0.285156,1.014893,-0.029053,1.678467,-6.263732,1.304626,1.0545927283051026
-0.288818,1.019043,-0.028564,2.059937,-5.508422,1.38092,1.0595661258595424
-0.289795,1.020752,-0.031006,2.250671,-4.760742,1.586914,1.0615447044590256
-0.291016,1.018555,-0.034424,2.197266,-4.318237,1.747131,1.0598724508434967
-0.296143,1.018799,-0.034912,2.342224,-4.058838,1.930237,1.0615417686525574
-0.297607,1.018555,-0.032959,2.677917,-4.127502,2.113342,1.0616546096330013
-0.301514,1.016602,-0.030518,3.044128,-4.493713,2.189636,1.0608117961844128
-0.308105,1.017334,-0.030518,3.585815,-5.180358,2.388,1.0634042067365541
-0.306641,1.014648,-0.03125,3.974914,-6.233215,2.563476,1.0604319069534829
-0.307617,1.019287,-0.032959,4.371643,-7.308959,2.777099,1.0652044417570743
-0.30835,1.020752,-0.033936,4.463196,-8.346558,2.929687,1.0668486397329286
-0.308105,1.019775,-0.032471,4.28009,-9.101868,2.845764,1.0657974045244247
-0.308838,1.020752,-0.028809,4.318237,-9.811401,2.487183,1.0668390292021568
-0.307617,1.025391,-0.026123,4.516602,-10.559081,2.204895,1.0708582225014662
-0.308838,1.027588,-0.026367,4.28772,-11.360168,2.227783,1.0733187907965647
-0.305664,1.024658,-0.026855,3.807068,-12.123107,2.220154,1.0696147385320567
-0.300293,1.023193,-0.029297,3.631592,-12.367248,2.01416,1.066751196534131
-0.296387,1.021973,-0.029785,3.532409,-12.092589,1.655578,1.0645004521948311
-0.296143,1.019287,-0.02832,3.14331,-11.787414,1.564026,1.0618138665594834
-0.298828,1.017822,-0.024902,3.112793,-11.474608,1.419067,1.061074882782549
-0.299072,1.014893,-0.023926,3.219604,-11.665343,1.373291,1.0583120126451369
-0.297363,1.014404,-0.029541,3.761291,-12.260436,1.571655,1.0575031440454445
-0.29541,1.015137,-0.029541,4.417419,-12.619018,1.495361,1.0576591452590007
-0.291992,1.020508,-0.031982,4.615784,-12.924193,1.411438,1.0619410315323539
-0.292969,1.02002,-0.032471,4.211426,-12.939452,1.350403,1.061756093084471
-0.291016,1.020508,-0.034912,3.890991,-13.038634,1.365662,1.0617653874863318
-0.291748,1.023438,-0.03418,3.944397,-13.229369,1.464844,1.0647584269438772
-0.290771,1.02417,-0.035156,4.074097,-13.496398,1.88446,1.0652266930926018
-0.29126,1.031006,-0.03418,4.112244,-13.801574,2.418518,1.0719020627072233
-0.29126,1.032227,-0.035645,4.135132,-14.236449,2.723694,1.0731241927913098
-0.288574,1.030029,-0.034912,4.226685,-14.785766,2.563476,1.070258633256934
-0.286133,1.029785,-0.034424,4.356384,-15.167235,2.319336,1.0693522580001409
-0.28125,1.031494,-0.034668,4.562378,-15.533446,2.525329,1.069711785837662
-0.280762,1.031982,-0.034424,4.653931,-15.686034,2.876281,1.070046335792988
-0.279053,1.030029,-0.036621,4.859924,-15.708922,3.074646,1.0677880947505456
-0.276123,1.029785,-0.033691,4.837036,-15.480041,3.089905,1.066694023998916
-0.272705,1.0271,-0.032471,4.501343,-14.923095,3.013611,1.0631823892757064
-0.272217,1.022461,-0.032715,4.234314,-14.236449,2.738952,1.0585834227093298
-0.271484,1.016357,-0.031738,4.493713,-13.694762,2.700805,1.0524696738381585
-0.270996,1.018799,-0.033203,4.974365,-13.183593,3.005981,1.0547476824463753
-0.270752,1.022461,-0.031494,5.531311,-12.756347,3.425598,1.0581705978059492
-0.270996,1.026123,-0.031982,6.118774,-12.039184,3.494262,1.0617862739125044
-0.272461,1.023193,-0.033447,6.240844,-11.169433,3.723144,1.0593760491813093
-0.276123,1.020996,-0.034424,6.401062,-10.44464,3.738403,1.0582352077496762
-0.277832,1.017578,-0.036865,6.507873,-10.0708,3.593445,1.0554689168957085
-0.283203,1.014404,-0.035156,6.622314,-10.040282,3.601074,1.0537814568310642
-0.287109,1.010254,-0.037109,7.057189,-10.459899,3.623962,1.050914744533542
-0.29126,1.008789,-0.040771,7.461547,-11.489867,3.684997,1.0507853770213973
-0.291748,1.010498,-0.038818,8.277893,-12.7182,3.52478,1.0524875014136748
-0.294434,1.007324,-0.044922,8.903503,-13.97705,3.555298,1.050433723476165
-0.289795,1.01123,-0.047363,9.666443,-14.465331,3.433227,1.0530007163786739
-0.288818,1.010742,-0.046143,10.078429,-14.625548,2.975464,1.0522092967356826
-0.289551,1.010742,-0.049561,10.269164,-14.572143,2.464294,1.0525661332600436
-0.286133,1.01709,-0.052246,10.032654,-14.022826,2.227783,1.0578628485323607
-0.28833,1.015625,-0.057373,9.231567,-13.099669,2.281189,1.0573173556950628
-0.28833,1.012207,-0.059082,8.18634,-12.252807,2.27356,1.0541289686148465
-0.289795,1.01416,-0.060303,7.965087,-11.924743,2.113342,1.0564743723507921
-0.291992,1.02002,-0.05957,8.766174,-11.871337,1.815796,1.0626611470097136
-0.292969,1.02417,-0.055176,9.216309,-11.993407,1.205444,1.0666768089899583
-0.295654,1.020752,-0.059814,9.040833,-12.496947,0.389099,1.0643888611856103
-0.295166,1.013672,-0.069336,8.979797,-13.244628,-0.244141,1.0580460160295484
-0.290771,1.012695,-0.070557,9.567261,-13.710021,-0.473022,1.055972171846872
-0.289307,1.018799,-0.065674,10.177611,-13.801574,-0.259399,1.0611140452024939
-0.294922,1.028809,-0.061279,10.429381,-13.84735,0.015259,1.071999095338238
-0.300293,1.032959,-0.056641,9.925842,-14.427184,-0.289917,1.0772132492737918
-0.298828,1.028564,-0.057129,8.972168,-15.686034,-0.984192,1.0726163332343024
-0.297119,1.022217,-0.05542,8.102417,-17.440796,-1.464844,1.0659637290499147
-0.29126,1.021484,-0.058838,7.537841,-19.012451,-1.647949,1.06382510785373
-0.284912,1.018799,-0.059814,7.148742,-19.729614,-1.670837,1.0595772575612408
-0.2771,1.021973,-0.058105,7.148742,-19.416809,-2.01416,1.0604666019040865
-0.272217,1.029785,-0.064209,7.04956,-18.333435,-2.433777,1.0670904539892576
-0.271484,1.036377,-0.059814,6.156921,-17.059326,-2.807617,1.073013775764785
-0.276123,1.036377,-0.059326,4.837036,-15.693664,-3.532409,1.0741698057262643
-0.271973,1.033203,-0.059326,4.28009,-14.236449,-4.219055,1.0700454785727567
-0.27124,1.028564,-0.058594,3.684997,-13.236999,-4.768372,1.065339521716903
-0.267822,1.026123,-0.060547,3.211975,-12.153625,-5.386352,1.0622254817231602
-0.265869,1.028076,-0.058838,3.097534,-10.505675,-5.691528,1.0635264440440586
-0.261963,1.032227,-0.063721,3.051758,-8.865356,-5.691528,1.066854047533682
-0.260742,1.032715,-0.066895,2.700805,-7.034301,-5.638122,1.067221440383391
-0.257813,1.030518,-0.067627,2.151489,-4.829407,-5.676269,1.064428627208983
-0.259033,1.028076,-0.068848,1.426697,-2.761841,-5.691528,1.0624398354584603
-0.261719,1.025146,-0.06958,1.228333,-0.88501,-5.477905,1.0603124693584434
-0.264893,1.023682,-0.072266,1.495361,0.747681,-4.966736,1.0598657996789027
-0.268799,1.026611,-0.072754,1.815796,1.617432,-4.318237,1.063708697077353
-0.274414,1.027588,-0.07666,2.174377,1.708984,-3.77655,1.066356833681859
-0.275146,1.029785,-0.07666,2.426147,1.373291,-3.311157,1.0686623522614613
-0.27832,1.034668,-0.076416,2.075195,1.00708,-3.173828,1.0741691196827434
-0.274902,1.030029,-0.077148,1.373291,0.610352,-3.135681,1.0688698070153353
-0.27417,1.028809,-0.08252,1.480102,0.686645,-2.777099,1.0679076260524598
-0.275635,1.036621,-0.080811,1.64032,0.62561,-2.502441,1.0756803282513816
-0.274902,1.035889,-0.080078,1.556396,0.396728,-2.418518,1.0747323462188156
-0.276855,1.031006,-0.07959,1.449585,0.12207,-2.258301,1.0704936390100597
-0.276611,1.029541,-0.079834,1.579285,-0.350952,-2.113342,1.0690377839711749
-0.281738,1.034424,-0.075195,1.914978,-1.342773,-1.922607,1.074738852207828
-0.283691,1.033447,-0.075928,2.433777,-2.746582,-1.594543,1.074364159153683
-0.280029,1.034912,-0.07251,2.830505,-4.302979,-1.251221,1.074577493103685
-0.27417,1.039795,-0.068604,3.089905,-5.638122,-0.801086,1.07751999505392
-0.269775,1.043701,-0.065918,3.14331,-6.057739,-0.350952,1.0800164400369099
-0.265869,1.047607,-0.0625,2.975464,-5.41687,0.030518,1.0826232038941341
-0.266357,1.047119,-0.057373,2.27356,-4.333496,0.167847,1.0819870205963653
-0.265625,1.04126,-0.053955,1.480102,-3.074646,0.0,1.0759601155479697
-0.262451,1.039551,-0.052002,1.052856,-1.960754,-0.076294,1.073429558474146
-0.263916,1.041748,-0.050537,0.938415,-0.717163,-0.12207,1.0758459643132003
-0.268311,1.04126,-0.047852,0.640869,0.25177,-0.274658,1.0763377695802558
-0.269043,1.040527,-0.052246,0.099182,0.930786,-0.465393,1.0760159004838172
-0.269287,1.039551,-0.051758,-0.534058,1.525879,-0.617981,1.0751096039632424
-0.269531,1.036865,-0.053711,-0.984192,2.029419,-0.671387,1.0726699677473028
-0.273926,1.03418,-0.049072,-1.594543,2.304077,-0.556946,1.0709676872156322
-0.279053,1.030029,-0.046387,-2.098083,2.128601,-0.213623,1.068167623277826
-0.280762,1.024414,-0.050049,-2.319336,1.708984,0.236511,1.0633702301837304
-0.278809,1.027344,-0.051758,-2.159119,0.984192,0.694275,1.0657621889431996
-0.28125,1.0271,-0.053467,-2.433777,0.37384,1.13678,1.066252640132253
-0.280518,1.022705,-0.054199,-2.929687,0.0,1.213074,1.0618631724238297
-0.280029,1.021484,-0.056396,-3.250122,-0.068665,1.38855,1.0606725752620363
-0.282471,1.025635,-0.057617,-3.15094,0.083923,1.747131,1.0653810293763448
-0.283936,1.026367,-0.055664,-2.830505,0.434875,2.189636,1.0663711134877014
-0.287598,1.02832,-0.060303,-2.677917,0.648498,2.571106,1.0694816893303971
-0.290283,1.028809,-0.059082,-2.975464,0.595093,2.525329,1.0706086405844109
-0.290283,1.025391,-0.064209,-3.189087,0.572205,2.220154,1.067620587405001
-0.288818,1.023682,-0.065186,-3.303528,0.839233,2.128601,1.0656406002231709
-0.29248,1.02124,-0.065674,-3.64685,1.25885,2.13623,1.0643254963947824
-0.290527,1.016602,-0.065918,-3.875732,1.625061,2.037048,1.0593539289854925
-0.292236,1.009521,-0.067627,-3.730774,1.998901,1.754761,1.053141937378813
-0.293457,1.013916,-0.069092,-3.639221,2.326965,1.472473,1.0577884336524954
-0.292725,1.016113,-0.07373,-3.570556,2.761841,1.541138,1.0600045600345311
-0.294189,1.016113,-0.068359,-3.730774,3.02124,1.541138,1.0600498806051533
-0.298096,1.014893,-0.068115,-4.089355,3.219604,1.228333,1.0599569236011432
-0.302734,1.013916,-0.066162,-4.264832,2.929687,0.915527,1.0602126862361156
-0.302246,1.017822,-0.065674,-4.051208,2.105713,0.892639,1.0637797434036804
-0.299561,1.020264,-0.069824,-3.684997,1.457214,1.434326,1.0656222658113896
-0.301025,1.022705,-0.069092,-3.952026,1.052856,1.51062,1.0683235802480444
-0.301025,1.024902,-0.058838,-5.569458,0.679016,0.831604,1.069814035462706
-0.298584,1.018555,-0.073975,-6.958007,-0.236511,0.823975,1.063992008290476
-0.295898,1.011719,-0.075195,-6.54602,-0.450134,1.823425,1.0567806060815084
-0.293457,1.012695,-0.065186,-6.652832,-0.022888,1.739502,1.0563699108124955
-0.293213,1.023682,-0.075439,-7.453918,-0.816345,1.152039,1.067515687572787
-0.299561,1.037842,-0.08667,-8.049011,-2.822876,1.564026,1.0836809948435009
-0.305908,1.037109,-0.08667,-9.83429,-5.874633,2.616882,1.0847518016786146
-0.29834,1.019531,-0.058838,-13.183593,-8.842468,1.876831,1.0639135894446503
-0.297607,1.006836,-0.032959,-15.724181,-10.513305,0.152588,1.0504165616677987
-0.308105,1.019043,-0.007324,-15.502929,-11.856078,-0.572205,1.0646271496866873
-0.325684,1.048584,0.012207,-15.258788,-14.73236,-0.488281,1.0980653367450408
-0.333984,1.06958,-0.003418,-17.082214,-18.325806,-0.221252,1.1205170107499483
-0.319092,1.03833,-0.027344,-17.707825,-21.934507,0.099182,1.0865986322925314
-0.289795,0.997559,-0.023926,-14.831542,-22.499083,-0.846863,1.0390753360473917
-0.250488,0.99292,-0.00708,-11.138915,-17.822266,-3.036499,1.0240529727235794
-0.235107,1.009277,-0.003906,-8.308411,-9.468079,-4.089355,1.0363062390114226
-0.255371,1.027832,-0.004883,-5.66101,-1.716614,-3.623962,1.0590924471234795
-0.275146,1.034668,-0.007813,-4.79126,2.822876,-4.127502,1.0706559832686686
-0.27417,1.032227,-0.018066,-5.493164,4.776001,-5.798339,1.0681704680363524
-0.2771,1.025146,-0.020996,-5.867004,5.638122,-7.064819,1.0621438524663218
-0.27832,1.024414,-0.011963,-6.134033,6.805419,-7.575988,1.0616163050579996
-0.279541,1.026855,-0.001953,-6.92749,7.17163,-7.415771,1.0642265623047567
-0.282959,1.035889,0.004395,-7.957458,6.187438,-6.202697,1.0738487472763565
-0.289307,1.053711,0.003174,-8.789063,3.814697,-4.333496,1.092710156466938
-0.281494,1.050537,-0.01001,-9.757996,1.152039,-2.731323,1.087642891993967
-0.270752,1.036865,-0.019531,-9.83429,0.328064,-2.113342,1.0718102134659846
-0.26709,1.027588,-0.014893,-10.086059,2.357483,-3.082275,1.061836130150505
-0.26416,1.029785,-0.010498,-10.673522,5.645751,-4.058838,1.0631781881834297
-0.267822,1.031982,-0.004395,-11.161803,8.155823,-3.517151,1.0661776531296272
-0.276611,1.025635,-0.00415,-10.848998,9.315491,-2.685547,1.0622890477859592
-0.282959,1.012207,-0.009766,-9.933472,9.773254,-2.960205,1.0510586003101827
-0.280518,1.006348,-0.008301,-8.682251,10.147094,-3.974914,1.044746644899614
-0.283203,1.01001,-0.005127,-7.476806,10.635375,-4.135132,1.048975893640078
-0.284912,1.013672,-0.01001,-6.332397,10.902404,-3.501892,1.0529985619306417
-0.283447,1.013916,-0.012207,-5.630493,11.390685,-3.15094,1.052861276576359
-0.282715,1.01709,-0.016602,-5.15747,12.001037,-3.471374,1.0557819214823676
-0.281738,1.016602,-0.024658,-4.859924,12.7182,-3.372192,1.055208009831237
-0.28418,1.019287,-0.026611,-4.974365,13.076781,-2.967834,1.058495350055918
-0.289307,1.015869,-0.024902,-5.683898,13.137816,-2.716064,1.0565550033074471
-0.29541,1.017334,-0.019531,-6.660461,12.657165,-2.555847,1.0595362172276133
-0.301758,1.021729,-0.015381,-7.659912,11.909484,-2.39563,1.06546919953887
-0.299561,1.023926,-0.01001,-8.422852,10.940551,-1.647949,1.066893362195585
-0.296875,1.020264,-0.009277,-8.659363,9.895325,-0.671387,1.0626191500485958
-0.297852,1.015625,-0.010498,-8.255005,9.57489,-0.427246,1.0584517761962517
-0.299316,1.01123,-0.02124,-7.514953,9.803772,-0.953674,1.0548115084487846
-0.301514,1.005371,-0.019531,-6.126403,10.368346,-1.693725,1.0497918840408322
-0.298584,1.01001,-0.018066,-4.447937,10.993957,-1.991272,1.053375045039515
-0.298584,1.015625,-0.02002,-3.303528,11.634826,-1.678467,1.0587952333104829
-0.303467,1.013428,-0.020752,-2.609253,11.810302,-1.25885,1.0580922345320374
-0.305176,1.01001,-0.016846,-1.991272,11.573791,-1.525879,1.055242331785453
-0.309814,1.010498,-0.010498,-1.480102,10.986327,-1.876831,1.0569773557669058
-0.306885,1.012451,-0.009766,-0.839233,10.101317,-1.64032,1.0579843124460777
-0.304932,1.011475,-0.008057,0.350952,9.170532,-1.00708,1.056470593768705
-0.305908,1.011963,-0.013428,1.213074,8.415222,-1.121521,1.0572743868159296
-0.306885,1.015381,-0.015625,1.976013,7.949829,-1.602173,1.0608586706112177
-0.307129,1.02124,-0.01123,2.174377,7.827758,-1.739502,1.0664827580139307
-0.307129,1.026367,-0.005371,1.228333,7.843017,-1.419067,1.0713478841958852
-0.310303,1.023926,-0.003906,0.091553,7.202148,-0.724792,1.0699194652500719
-0.310791,1.021973,-0.002197,-0.213623,6.111145,-0.404358,1.0681875702417625
-0.311768,1.027344,0.006348,0.12207,5.073547,-0.328064,1.073627159336052
-0.311768,1.031982,0.005615,0.289917,4.211426,0.114441,1.0780619937522147
-0.310547,1.035889,0.001221,0.62561,3.517151,0.701904,1.081437446351383
-0.310303,1.031738,0.002686,0.694275,2.922058,0.526428,1.0773942950698225
-0.309814,1.030518,0.005127,0.480652,3.288269,0.106812,1.0760940242604269
-0.309814,1.027344,0.00415,0.63324,3.929138,-0.061035,1.0730506192309848
-0.312012,1.023926,0.00708,0.930786,4.180908,0.045776,1.0704326545934593
-0.314453,1.022217,0.007324,1.052856,3.997802,-0.205994,1.0695148083472241
-0.313477,1.021484,0.012207,0.740051,3.501892,-0.709534,1.0685721326302686
-0.308594,1.020508,0.019043,0.343323,3.265381,-1.00708,1.0663158400534993
-0.308105,1.023926,0.019287,0.12207,3.128052,-1.091003,1.0694508557526148
-0.304199,1.021484,0.015137,0.015259,2.960205,-1.091003,1.0659248203442868
-0.302002,1.018555,0.015381,0.228882,3.166198,-1.312256,1.0624952099609675
-0.304443,1.019531,0.016602,0.099182,3.669739,-1.823425,1.0641450214204828
-0.303955,1.024414,0.009766,-0.015259,4.089355,-2.067566,1.068600982676415
-0.304199,1.032959,0.007813,-0.37384,4.03595,-1.785278,1.076848350628351
-0.306152,1.03125,0.008301,-1.38092,3.692627,-1.235962,1.075766943257228
-0.306152,1.030273,0.009766,-2.410889,3.135681,-1.037598,1.0748427216988539
-0.307861,1.030273,0.013916,-2.838135,2.349854,-0.808716,1.0753764479967003
-0.307861,1.029785,0.013428,-3.044128,1.609802,-0.343323,1.07490271779822
-0.305664,1.031006,0.010254,-2.883911,0.923157,0.137329,1.0754110830040764
-0.30542,1.032227,0.005127,-2.502441,0.213623,0.411987,1.0764758436945996
-0.305908,1.0271,0.004639,-2.441406,0.152588,-0.076294,1.0716975481846545
-0.301514,1.022949,0.0,-2.5177,0.549316,-0.617981,1.0664592579170573
-0.297607,1.022217,-0.004395,-2.609253,0.816345,-0.526428,1.0646674774609206
-0.300049,1.022217,-0.00415,-2.662658,0.534058,-0.1297,1.0653516884062275
-0.305176,1.021484,0.0,-2.944946,-0.297546,0.144958,1.0660965965765017
-0.304443,1.022217,-0.001709,-3.27301,-1.342773,0.106812,1.0665908568982765
-0.299072,1.019287,-0.004639,-3.318786,-2.365112,0.549316,1.0622671838450062
-0.295898,1.014893,-0.000732,-2.792358,-2.731323,0.923157,1.0571489789414736
-0.296875,1.013184,-0.000977,-2.113342,-2.288818,0.831604,1.0557829028782386
-0.298096,1.013916,-0.00415,-1.319885,-1.51062,0.526428,1.0568368382924584
-0.296631,1.018799,-0.006104,-0.892639,-0.701904,0.480652,1.0611213933278323
-0.287842,1.021973,-0.001465,-1.304626,0.289917,0.747681,1.0617363024395465
-0.281982,1.016846,-0.000732,-1.937866,1.182556,1.441955,1.0552204375693262
-0.295654,1.010254,-0.005371,-1.625061,1.373291,1.823425,1.052641097370324
-0.31543,1.009033,-0.009277,-0.694275,0.488281,1.106262,1.057227384585738
-0.322021,1.01709,-0.006348,0.442505,-0.923157,-0.12207,1.0668691998764424
-0.316162,1.030273,-0.002686,0.617981,-2.052307,-0.663757,1.0776957267100022
-0.296631,1.033203,-0.000977,-0.518799,-2.082825,0.396728,1.074941553713038
-0.284424,1.0271,0.000732,-2.281189,-1.411438,1.869202,1.0657541731562676
-0.299805,1.014893,0.000732,-2.876281,-0.839233,1.731872,1.0582492028336237
-0.327637,1.009766,0.006348,-1.617432,-1.495361,-0.457764,1.0616090031781946
-0.338135,1.016357,0.02417,-0.526428,-3.64685,-2.494812,1.0714014273716457
-0.32959,1.021729,0.029541,0.518799,-5.569458,-2.807617,1.0739796963732602
-0.313477,1.017578,0.021484,2.578735,-5.813598,-2.037048,1.064985623315639
-0.304443,1.01123,0.010986,5.386352,-5.531311,-0.62561,1.0561213686622386
-0.303955,1.006348,0.002686,8.026123,-5.40924,-0.144958,1.0512526593188718
-0.295654,1.009033,-0.010986,10.94818,-4.608154,-0.816345,1.0515129932630412
-0.290283,1.01416,-0.006836,12.96234,-1.670837,-2.586365,1.0549082692751062
-0.303223,1.005371,-0.033203,13.732909,1.907349,-4.920959,1.0506271815344395
-0.329102,1.01123,-0.031494,15.846251,1.022339,-5.508422,1.0639013635389327
-0.324707,1.028564,-0.008789,14.617919,-1.831055,-5.508422,1.0786360760080296
-0.296143,1.038086,-0.006836,11.497497,-3.082275,-4.15802,1.079523020014395
-0.281982,1.034668,-0.012695,9.07135,-2.685547,-2.006531,1.0724797814285358
-0.281982,1.030518,-0.01123,6.858825,-1.502991,-1.106262,1.0684602517398578
-0.279785,1.030273,-0.009521,4.898071,-0.007629,-1.266479,1.0676295004330856
-0.287598,1.022949,-0.007813,4.066467,0.50354,-1.502991,1.0626374307231985
-0.306152,1.023193,-0.010254,4.302979,0.244141,-2.128601,1.0680627822693758
-0.309814,1.027588,-0.010254,4.829407,-0.862122,-2.258301,1.0733251869102858
-0.307861,1.0271,-0.010742,5.065917,-2.525329,-1.518249,1.0723004224026957
-0.301758,1.020996,-0.013428,5.348205,-4.173279,-0.976562,1.064739890191027
-0.29834,1.01709,-0.010254,5.79071,-5.111694,-0.946045,1.059992437810761
-0.294678,1.019043,-0.010986,6.446838,-5.554199,-0.846863,1.0608508150201892
-0.293457,1.019531,-0.01123,6.973266,-5.760192,-0.457764,1.0609837810777316
-0.287598,1.022217,-0.01416,7.110595,-5.630493,-0.1297,1.0619984511725993
-0.285889,1.026123,-0.015625,7.17163,-5.111694,0.106812,1.0653192348188405
-0.2854,1.025391,-0.014648,6.500244,-4.272461,0.0,1.0644690821179355
-0.28125,1.024658,-0.01416,5.531311,-2.944946,-0.38147,1.0626504999594175
-0.281006,1.026367,-0.013672,4.890442,-1.365662,-0.518799,1.064227660939613
-0.283203,1.027832,-0.013428,4.211426,0.030518,-0.213623,1.0662189599782026
-0.291748,1.027832,-0.020996,3.753662,0.808716,0.091553,1.0686422917627771
-0.294922,1.023438,-0.024414,3.463745,1.083374,0.038147,1.0653639609654533
-0.294922,1.017822,-0.029297,3.204345,1.022339,0.190735,1.0600938279119447
-0.296875,1.015137,-0.032715,3.326416,1.00708,0.495911,1.0581626366579948
-0.299316,1.015869,-0.031006,3.448486,0.907898,0.831604,1.0595004790244316
-0.298828,1.02124,-0.029785,3.288269,0.75531,1.197815,1.0644794302423133
-0.298096,1.024414,-0.031738,3.219604,0.839233,1.38855,1.0673764889934572
-0.295898,1.024658,-0.031982,3.15094,1.190186,1.289368,1.06700632223619
-0.296387,1.027832,-0.033936,2.708435,1.89209,0.907898,1.0702502165797492
-0.300049,1.0271,-0.032227,2.418518,2.738952,0.640869,1.0705150124729683
-0.303223,1.0271,-0.027832,2.113342,3.65448,0.465393,1.0712857779103575
-0.301514,1.026855,-0.025146,1.800537,4.676819,0.488281,1.0705018470497845
-0.305664,1.023193,-0.02832,1.663208,5.447387,0.175476,1.0682492305379865
-0.316406,1.025146,-0.028076,1.068115,6.103515,-0.976562,1.073231261158563
-0.325684,1.02832,-0.023926,0.0,6.729125,-2.349854,1.0789274969765115
-0.310303,1.025879,-0.014404,-1.25885,7.67517,-2.479553,1.0718783278273705
-0.29126,1.017578,-0.012207,-1.770019,8.43811,-0.907898,1.058511400284853
-0.28418,1.008545,-0.016846,-0.869751,9.056091,0.297546,1.0479528029167153
-0.296631,1.007568,-0.023682,1.12915,9.017944,-0.022888,1.0505922434079742
-0.321533,1.013184,-0.027832,2.532959,8.087158,-1.518249,1.063343739422488
-0.328125,1.023682,-0.030273,2.586365,6.095886,-2.281189,1.0754102971787094
-0.312012,1.032227,-0.026123,1.464844,3.753662,-1.075745,1.0786688457548035
-0.289795,1.022461,-0.04126,1.159668,1.365662,1.945495,1.063536565495517
-0.286133,1.009521,-0.041504,3.280639,-0.862122,4.394531,1.050108244490062
-0.286133,1.009277,-0.038818,4.547119,-1.037598,4.447937,1.0497709243173008
-0.295898,1.015381,-0.041748,4.692078,-0.259399,3.036499,1.058440880289967
-0.324951,1.010254,-0.04126,3.547668,-0.473022,0.534058,1.062030453667408
-0.321777,1.008301,-0.044434,3.791809,0.083923,-0.572205,1.0593326789474586
-0.294189,1.01416,-0.046875,5.058288,1.63269,0.854492,1.0570075396826646
-0.288818,1.015625,-0.052979,5.134582,3.700256,2.174377,1.057221240890477
-0.305664,1.013428,-0.064697,5.012512,6.401062,1.068115,1.0604963431756849
-0.322021,1.019531,-0.072998,5.645751,8.026123,-0.587463,1.0716667823563442
-0.319824,1.023682,-0.071777,6.67572,7.6828,-0.671387,1.074878674934525
-0.313477,1.025146,-0.070801,6.820678,6.256103,-0.137329,1.0743393004288728
-0.305908,1.020996,-0.063477,5.645751,4.737854,0.595093,1.0677274305781417
-0.299072,1.010254,-0.05957,5.180358,3.387451,1.487732,1.0552752203098488
-0.29248,0.999756,-0.057129,5.889892,2.441406,2.14386,1.0432259259513252
-0.290039,0.990967,-0.059814,6.752014,1.853943,2.464294,1.0342707243299503
-0.295166,0.988037,-0.061279,7.408142,1.480102,2.044678,1.033002999398356
-0.296387,0.996826,-0.066162,8.224487,1.38855,1.502991,1.0420579342287069
-0.292725,1.009766,-0.071045,8.750916,1.739502,1.663208,1.053737487425592
-0.287598,1.015381,-0.071777,8.590698,2.960205,2.418518,1.0577632639177825
-0.285889,1.015869,-0.074219,8.079529,4.806519,3.39508,1.0579370517393745
-0.282715,1.015625,-0.079102,8.583069,6.851196,4.524231,1.0572034043900917
-0.283691,1.015869,-0.07959,9.590149,8.895874,5.66864,1.0577357783217887
-0.282471,1.009521,-0.081787,10.581969,10.894774,6.408691,1.0514806839172082
-0.282471,1.001221,-0.083008,11.83319,12.657165,6.690979,1.0436108876137695
-0.282715,0.990479,-0.090576,13.587951,14.190673,6.774902,1.0340118144595833
-0.28418,0.987061,-0.099365,15.411376,15.640258,6.881713,1.0319501409205776
-0.284424,0.987549,-0.101074,16.76178,16.76178,7.247924,1.0326499855483464
-0.285645,0.987305,-0.101074,17.784119,17.539978,8.148193,1.032753689185374
-0.291748,0.98877,-0.102051,18.669128,17.921448,8.926392,1.0359524192765803
-0.294678,0.987793,-0.103271,19.714355,17.478943,9.552002,1.0359705758244295
-0.288086,0.98877,-0.10376,20.797728,17.150879,9.750366,1.0350969973369646
-0.278809,0.991943,-0.103271,21.423338,17.341614,9.841919,1.0355434675430095
-0.277832,0.985107,-0.108643,21.766661,17.623901,9.933472,1.0292860259043644
-0.273682,0.976563,-0.110107,22.674559,18.638611,9.918213,1.0201473822649352
-0.263672,0.968018,-0.110596,23.773191,20.561216,9.536743,1.009362792619185
-0.260742,0.962158,-0.114746,24.80316,22.789,9.475708,1.0034445934101195
-0.268311,0.955566,-0.116211,25.573729,24.681089,9.841919,0.9993008403869177
-0.273926,0.944824,-0.116943,25.901793,25.688169,9.941101,0.990658119484719
-0.273438,0.93042,-0.112549,26.290892,25.688169,10.307311,0.9762771090448654
-0.267334,0.914795,-0.113281,27.046202,25.291441,10.643004,0.9597655674913537
-0.263916,0.904053,-0.118652,28.182981,24.92523,11.634826,0.949232204978845
-0.263672,0.898438,-0.121826,29.273985,24.017332,13.084411,0.9442220807119478
-0.267578,0.888672,-0.117676,29.71649,22.544859,14.877318,0.9355124534948747
-0.27002,0.880859,-0.064453,29.45709,20.736692,16.242981,0.9235678467172836
-0.252197,0.872803,0.002686,28.129576,19.65332,15.747069,0.9085128607862412
-0.233643,0.856445,0.013184,28.366087,20.164488,15.281676,0.8878405866651963
-0.227539,0.841553,0.008789,29.556273,22.811888,14.526366,0.8718157459297234
-0.218994,0.809814,0.010498,26.290892,29.144285,13.046264,0.8389679938090606
-0.218994,0.757568,0.010742,18.318176,37.04071,10.528563,0.7886590120096263
-0.223633,0.693359,0.013916,9.002686,45.166012,6.744384,0.7286645844460947
-0.226318,0.62085,0.017822,0.816345,52.612301,2.983093,0.6610538429719625
-0.23291,0.547852,0.010986,-5.1651,57.975765,-0.1297,0.5954070659641184
-0.249756,0.482178,0.011719,-8.110046,60.821529,-2.883911,0.5431491675230664
-0.269531,0.435547,0.016602,-8.163452,61.576839,-4.806519,0.5124683166538201
-0.292969,0.401611,0.027588,-6.29425,58.731075,-5.622863,0.49787882865813843
-0.30957,0.37915,0.037842,-3.852844,52.764889,-6.683349,0.49093820829509693
-0.297363,0.364746,0.034668,-2.044678,45.349117,-8.18634,0.4718752679564802
-0.277344,0.343994,0.01416,-2.02179,37.132263,-9.651184,0.44209961770171213
-0.259277,0.320313,-0.007813,-2.380371,29.396055,-11.070251,0.4121723227813823
-0.243652,0.314209,-0.023193,-1.426697,23.994444,-12.252807,0.3982857115614368
-0.237061,0.333984,-0.023682,1.846313,20.500181,-11.947631,0.4102487868367194
-0.24292,0.373535,-0.008057,6.759643,17.951965,-10.154723,0.4456494562702843
-0.266602,0.42041,0.009277,9.559631,14.793395,-8.392334,0.49790285923360594
-0.283936,0.460205,0.006348,8.125305,9.712219,-7.987976,0.5407851618018009
-0.28125,0.482422,-0.014893,3.669739,3.02124,-7.835388,0.5586182507159966
-0.261719,0.501953,-0.041748,-0.50354,-3.593445,-6.385803,0.5676235941836808
-0.237549,0.538086,-0.046875,-1.655578,-8.94165,-2.746582,0.5900536724925961
-0.230469,0.604248,-0.041504,0.183105,-12.84027,2.716064,0.6480387237511351
-0.23999,0.701416,-0.033447,2.914428,-15.190124,8.972168,0.7420904978269159
-0.250488,0.818604,-0.027344,2.586365,-15.838622,15.274047,0.8565071168974605
