ax,ay,az,gx,gy,gz,acc_mag
-0.328613,0.828125,0.08252,24.238585,-84.762566,1.296997,0.8947553128056854
-0.348633,0.824707,0.088379,13.374328,-86.997978,3.662109,0.8997207634477488
-0.368896,0.825439,0.078125,6.576538,-89.935295,5.531311,0.9074895686243452
-0.388916,0.821777,0.072021,4.631042,-92.956535,7.293701,0.9120088361556592
-0.42334,0.816162,0.06543,3.089905,-92.994682,7.980346,0.9217473898764238
-0.476318,0.818359,0.05957,0.480652,-88.020317,7.347106,0.9487564887287991
-0.511963,0.83252,0.053223,-2.731323,-78.964233,6.454467,0.9787892273099454
-0.518555,0.841797,0.041748,-5.195617,-69.747925,6.561279,0.9895778760350293
-0.506592,0.849365,0.032959,-5.386352,-65.254211,5.935668,0.9895163734724152
-0.510254,0.848389,0.032715,-3.952026,-64.697266,3.303528,0.9905520234000837
-0.537109,0.842773,0.029541,-1.548767,-62.538143,0.190735,0.9998125214714007
-0.55127,0.846191,0.017334,1.228333,-55.122372,-1.182556,1.0100684575497842
-0.532471,0.857666,-0.014648,3.334045,-44.532772,1.022339,1.0096191842972282
-0.499512,0.880859,-0.058838,6.050109,-32.142639,6.027221,1.0143405376248156
-0.466309,0.913574,-0.109863,10.025024,-19.294739,10.841369,1.0315674557322947
-0.429199,0.931885,-0.149658,15.258788,-8.94928,15.769958,1.0368312069908003
-0.401367,0.935791,-0.169922,20.950315,-1.457214,20.774839,1.0323147535776092
-0.379395,0.931885,-0.179688,24.871824,3.028869,24.841307,1.0220753380225942
-0.374023,0.925781,-0.182617,25.80261,5.15747,26.954649,1.0150431681357202
-0.387451,0.922363,-0.166748,23.41461,7.652282,27.160643,1.0142369923612529
-0.397461,0.930908,-0.154297,17.738342,12.947082,25.459288,1.023900637363802
-0.389893,0.938965,-0.136475,12.908935,19.844055,24.29199,1.0258154065420348
-0.384033,0.958008,-0.112793,8.071899,27.351377,25.260923,1.0382595696655053
-0.364502,0.986816,-0.085449,3.219604,34.210205,26.222227,1.0554473257633465
-0.323975,0.994141,-0.062988,-1.144409,39.894104,25.726316,1.0474939697439791
-0.291748,0.981201,-0.031982,-6.729125,45.326229,24.948118,1.02415582126403
-0.263672,0.968506,-0.019043,-14.869689,49.667355,21.286009,1.003936965884313
-0.245117,0.953613,0.008301,-21.781919,50.216671,16.12854,0.9846466391853476
-0.249023,0.938477,0.031738,-28.823851,46.356197,11.932372,0.9714725084643414
-0.248047,0.931152,0.036621,-35.957336,38.032532,9.437561,0.9643196871131482
-0.239502,0.924561,0.03833,-38.482666,25.634764,9.712219,0.9558469750043675
-0.245605,0.929932,0.0354,-38.879395,11.45172,11.299132,0.9624699998696062
-0.23584,0.953613,0.018311,-38.627625,-4.562378,12.168883,0.9825138940951421
-0.232422,0.967529,0.004883,-33.157349,-20.439146,12.512206,0.9950659252602312
-0.261475,0.953125,0.013184,-24.177549,-31.066893,12.222289,0.9884281759976291
-0.300049,0.922363,0.023438,-19.104004,-33.592224,10.925292,0.9702227816403818
-0.320313,0.906982,0.024658,-18.768311,-27.908323,9.185791,0.9621978919416733
-0.315186,0.906982,0.018555,-19.142151,-17.059326,8.811951,0.9603659984323685
-0.306396,0.916992,0.008789,-20.088194,-5.653381,10.185241,0.9668661145168964
-0.303711,0.934326,0.0,-21.720884,3.852844,11.657714,0.9824486988118006
-0.300049,0.951904,-0.008545,-22.933958,10.765075,13.206481,0.9981100363396813
-0.292725,0.959473,-0.003174,-23.818968,15.61737,15.228271,1.003138294369226
-0.28833,0.964355,0.006836,-25.497435,19.203186,16.990662,1.0065592311538352
-0.284912,0.978027,0.018311,-27.595518,21.087645,17.601013,1.0188458927600386
-0.275635,1.001221,0.035645,-29.884336,21.095274,18.127441,1.0390807043204102
-0.258301,1.028564,0.044434,-30.578611,19.53125,18.386841,1.0614319050476106
-0.261963,1.038086,0.043213,-28.930662,16.876221,17.684937,1.0715010593247214
-0.269775,1.032227,0.041016,-27.221678,13.488769,15.716552,1.0676860223914144
-0.273926,1.016602,0.050537,-26.985167,9.986877,13.916015,1.054072610520262
-0.272949,1.000977,0.064941,-27.107237,7.873535,12.481688,1.0395544452365157
-0.271729,0.990479,0.073486,-25.695799,7.720947,11.07788,1.02970165148843
-0.271973,0.985107,0.072754,-23.66638,7.705688,9.44519,1.0245478313353653
-0.263428,0.984131,0.056885,-22.613523,6.240844,7.766723,1.0203646600946155
-0.257813,0.983154,0.043213,-22.270201,3.959656,5.805969,1.0173134689239105
-0.26709,0.977295,0.046387,-22.422789,2.166748,3.318786,1.014196400552674
-0.285156,0.968018,0.042236,-22.636412,2.220154,1.014709,1.0100280552321308
-0.29126,0.960205,0.032959,-22.888182,4.264832,-0.976562,1.0039483678486658
-0.281494,0.956299,0.034424,-23.818968,6.713867,-1.861572,0.997462611436138
-0.276123,0.962158,0.028564,-23.674009,8.201599,-0.900268,1.001402930986823
-0.259277,0.958984,0.010498,-21.934507,7.202148,1.12915,0.993471229069569
-0.249023,0.949219,0.019043,-21.476744,4.882813,4.173279,0.9815252418246817
-0.264893,0.951172,0.02124,-24.070738,-0.022888,4.386902,0.9875968877193771
-0.275635,0.955078,0.023926,-25.642393,-8.636475,2.380371,0.9943445543598054
-0.288818,0.959473,0.036133,-25.177,-15.647887,0.213623,1.0026514192589566
-0.289795,0.985107,0.041748,-25.05493,-20.324705,-2.624511,1.0276963748977612
-0.281738,1.037354,0.049316,-24.765013,-25.314329,-4.119873,1.0760630510411555
-0.289551,1.072754,0.039307,-21.064756,-30.96771,-3.425598,1.1118390019989406
-0.303711,1.067383,0.026123,-15.258788,-35.560608,-4.310608,1.1100582197970519
-0.313721,1.041016,0.026611,-11.306762,-38.848877,-7.781982,1.087586007365854
-0.317383,1.026855,0.030273,-9.44519,-42.572018,-11.764525,1.075211427693642
-0.312988,1.027832,0.03125,-6.607055,-46.089169,-14.404296,1.074884491872499
-0.307373,1.037354,0.0271,-2.937317,-49.026485,-15.602111,1.0822734832032983
-0.312744,1.047363,0.031006,1.075745,-50.636288,-15.319823,1.0934987130038152
-0.330322,1.040039,0.054688,5.477905,-49.766537,-14.213561,1.092604467567747
-0.333252,1.026855,0.065674,9.475708,-47.477718,-12.687682,1.0815734652833344
-0.328369,1.010742,0.060791,12.138366,-44.876095,-10.719298,1.0644816280265244
-0.323242,0.989502,0.059326,11.70349,-43.373104,-10.086059,1.042650072097058
-0.324219,0.969482,0.074951,6.332397,-42.839046,-11.169433,1.0250029076475833
-0.331299,0.965576,0.102051,-0.488281,-42.221066,-13.275146,1.0259193173822199
-0.33667,0.971191,0.121826,-4.257202,-41.099545,-13.267516,1.0350846446822597
-0.344238,0.970947,0.130615,-4.371643,-38.993835,-10.467528,1.0384113614931223
-0.349365,0.96582,0.136963,-2.189636,-36.827087,-9.811401,1.036157825330678
-0.350586,0.954102,0.140137,0.404358,-34.500122,-10.81848,1.0260894447215603
-0.349121,0.937256,0.144287,2.944946,-32.615662,-11.505126,1.0105211628392547
-0.332764,0.919922,0.134766,3.929138,-31.723021,-12.115478,0.9874969572287299
-0.330078,0.921631,0.131836,4.371643,-31.822203,-12.641906,0.9877934587458048
-0.334473,0.941406,0.137695,3.952026,-33.554077,-14.549254,1.0085025322675198
-0.342773,0.962402,0.141357,5.0354,-35.987854,-17.456055,1.0313548082895625
-0.337891,0.979492,0.142822,9.178162,-38.368225,-20.225523,1.0459316562897405
-0.331543,0.986328,0.136719,15.632628,-40.519711,-23.063658,1.0495026295317225
-0.343506,0.986816,0.122314,23.460386,-41.893002,-25.611876,1.0520279960571393
-0.350586,0.998535,0.086426,29.190062,-42.312618,-29.411314,1.0618154939051323
-0.34082,1.041748,0.018066,33.447266,-40.695187,-35.02655,1.0962315212855358
-0.304688,1.114258,-0.010742,39.604187,-40.267941,-41.488644,1.1552147239677997
-0.234863,1.174072,0.019043,52.841183,-48.492428,-51.307674,1.1974841651571013
-0.191162,1.177979,0.035156,77.62146,-68.908691,-67.993164,1.193906771494743
-0.22168,1.134766,0.016602,107.64312,-100.357048,-89.294426,1.1563353854137648
-0.342285,1.095703,-0.06665,132.949829,-134.95636,-109.466545,1.1498549073400524
-0.461426,1.102051,-0.180908,150.32959,-164.520248,-125.572197,1.208370003161697
-0.546875,1.147949,-0.229248,160.316467,-184.654221,-136.405945,1.2920579776968215
-0.637939,1.189209,-0.240967,168.601974,-194.86998,-143.165588,1.370857143721037
-0.730713,1.1875,-0.261475,181.167587,-195.465073,-149.040222,1.4186144345783318
-0.820801,1.140381,-0.261963,194.778427,-190.353378,-157.829285,1.4292682463872903
-0.941162,1.092041,-0.239746,203.620895,-182.594284,-168.777451,1.4614436699513944
-1.125244,1.077637,-0.300293,206.58873,-165.733322,-177.070602,1.5867108902235465
-1.22168,1.107178,-0.385498,203.102097,-132.034302,-181.00737,1.6932081543885855
-1.14917,1.146973,-0.473145,195.602402,-87.364189,-184.005722,1.6911549138544344
-1.012939,1.146484,-0.481934,186.912521,-49.682613,-189.033493,1.6039736158469067
-0.969238,1.112793,-0.471436,180.37413,-31.494139,-197.502121,1.549187678620315
-0.98584,1.046387,-0.406006,180.915817,-33.615112,-208.061203,1.4938698508923058
-1.029785,0.990723,-0.345459,185.523972,-45.94421,-215.484604,1.470146635419406
-1.094971,0.953125,-0.327393,193.916306,-61.149593,-220.985397,1.4881515154429
-1.158936,0.922363,-0.371338,202.67485,-76.026917,-226.432785,1.527016066093936
-1.175293,0.902588,-0.417969,208.22905,-87.654106,-231.307968,1.539700236589577
-1.180664,0.86377,-0.446533,210.250839,-94.024651,-234.779343,1.5295286247354116
-1.185547,0.804688,-0.512207,209.411606,-97.93853,-236.839279,1.5216440048191298
-1.215576,0.726074,-0.478271,205.055222,-98.762505,-237.792953,1.494507147755741
-1.327393,0.67627,-0.366455,196.75444,-95.726006,-238.685593,1.5341455460203248
-1.362305,0.673096,-0.257568,188.728317,-91.468803,-243.446335,1.5411925294605475
-1.355225,0.654053,-0.210938,185.943588,-82.511894,-249.992355,1.51951142387216
-1.383545,0.596436,-0.216309,186.607346,-69.442749,-249.992355,1.5220782675677358
-1.381836,0.531006,-0.240234,184.234604,-53.588863,-249.893173,1.4997167991617617
-1.326416,0.460938,-0.237061,178.421005,-34.927368,-249.984726,1.4240931018093586
-1.255859,0.385254,-0.22998,169.67009,-16.983032,-249.992355,1.3336016169744995
-1.28418,0.293213,-0.215332,158.27179,-0.984192,-249.992355,1.3347134546384853
-1.355469,0.226563,-0.167969,143.379211,10.44464,-249.992355,1.384500122026358
-1.267334,0.212402,-0.125244,129.898071,17.562866,-249.992355,1.29109880981124
-1.18042,0.179443,-0.079834,122.985832,28.129576,-249.992355,1.1966472471889953
-1.112305,0.129639,-0.047607,117.309563,37.956238,-249.992355,1.1208457118600224
-1.116455,0.075928,-0.07251,111.282341,43.128963,-249.992355,1.121380634891204
-1.133301,0.05957,-0.109619,104.164116,35.598755,-249.992355,1.1401473881310256
-1.04834,0.058838,-0.124512,98.037712,20.248411,-249.992355,1.057346633790452
-1.030273,0.033936,-0.081787,96.343987,12.329101,-249.992355,1.034071187101739
-1.037598,0.009766,-0.029785,94.932549,12.046813,-249.992355,1.0380713513940167
-0.954346,0.001709,-0.01416,93.376152,17.677307,-249.992355,0.9544525729427314
-0.861816,-0.021484,-0.04834,93.01757,26.68762,-249.992355,0.8634379744440246
-0.85791,-0.037109,-0.042236,92.666618,31.044004,-249.992355,0.8597502693672158
-0.917236,-0.033936,-0.028809,91.155998,26.138304,-249.992355,0.9183155722696855
-0.955322,-0.001465,0.008545,89.584343,12.939452,-249.992355,0.9553613384128542
-0.845215,0.016602,0.048828,89.553825,-2.838135,-249.992355,0.846786983965271
-0.701416,-0.03418,0.050049,91.339104,-11.863708,-249.992355,0.7040295305290823
-0.614746,-0.102295,0.045166,90.2481,-16.479492,-248.741135,0.6248334810947633
-0.564453,-0.150879,0.047363,86.082451,-18.531799,-241.836533,0.5861867583108646
-0.581299,-0.190674,0.048096,80.657951,-20.278929,-233.962997,0.6136597810619497
-0.588135,-0.206543,0.052246,73.440552,-25.596617,-226.24205,0.6255337189872341
-0.573242,-0.212646,0.045166,66.574097,-29.197691,-217.361435,0.6130780369871359
-0.545166,-0.213379,0.010254,60.546871,-28.533934,-207.458481,0.585526865065131
-0.481445,-0.210693,-0.001465,57.083126,-26.725767,-197.456345,0.5255311356132956
-0.422852,-0.232422,-0.009033,54.824825,-25.856016,-187.767014,0.48260273007619836
-0.396973,-0.270996,-0.009521,51.36108,-31.35681,-178.123459,0.4807463407931464
-0.388184,-0.319336,0.006348,47.569271,-43.869015,-169.181808,0.5026953310465495
-0.360596,-0.371582,0.029541,45.143124,-57.456966,-160.85051,0.5186283145191748
-0.312256,-0.449219,0.013428,42.083736,-64.231873,-152.275085,0.5472493313664257
-0.28125,-0.512939,-0.036621,37.696838,-60.028072,-144.172668,0.5861305979574859
-0.239014,-0.542236,-0.0625,34.40094,-49.819942,-136.58905,0.5958639290072861
-0.232422,-0.557373,-0.047363,29.731749,-39.44397,-127.449028,0.605745739549194
-0.272461,-0.562256,-0.019775,24.475096,-32.363892,-118.072502,0.6251062763098767
-0.323975,-0.557617,0.019287,21.202085,-32.203674,-109.931938,0.6451887380317484
-0.29126,-0.583496,0.058105,19.210815,-39.604187,-101.188652,0.6547336562610784
-0.233398,-0.650635,0.080078,17.456055,-47.485348,-91.293327,0.6958541626756285
-0.174805,-0.72876,0.066406,12.054442,-56.701656,-82.18383,0.7523680498672175
-0.118408,-0.79248,0.034912,5.500793,-67.512512,-78.048706,0.8020373137254899
-0.099365,-0.841309,-0.00415,-1.556396,-76.721191,-75.180054,0.8471667245625267
-0.128906,-0.848145,-0.02832,-8.720398,-79.795837,-67.848206,0.8583523287444381
-0.186523,-0.841797,-0.00708,-12.069701,-77.346802,-58.601376,0.8622430893535767
-0.253662,-0.86377,0.06665,-11.993407,-72.227478,-52.642818,0.9027099454664272
-0.306396,-0.895508,0.175293,-10.398864,-64.788818,-46.791073,0.9625698534283109
-0.286133,-0.925293,0.262695,-8.621216,-56.892391,-40.542599,1.0035177589674236
-0.206543,-0.96582,0.302979,-6.149292,-54.000851,-38.391113,1.0330849711858168
-0.147217,-1.010498,0.294189,-7.995605,-63.407894,-39.024353,1.06269761494698
-0.150391,-1.011963,0.288818,-17.89856,-85.197441,-38.085938,1.06306274667773
-0.223633,-0.982422,0.316406,-31.181334,-111.351006,-35.926819,1.0560669778044383
-0.365723,-0.963867,0.407227,-41.961666,-133.171082,-31.242369,1.1084343624892725
-0.43457,-0.981934,0.496582,-52.284237,-148.727417,-24.192808,1.1830634589826532
-0.425781,-1.018066,0.590088,-62.69836,-152.648926,-18.188477,1.251379913559827
-0.381836,-1.040771,0.669189,-74.989319,-149.940491,-15.541076,1.2949196589201972
-0.339844,-0.991699,0.736572,-91.461174,-151.290894,-14.335631,1.2812100382532912
-0.346924,-0.932373,0.835205,-107.673637,-163.078293,-13.22174,1.2989392075574593
-0.403564,-0.911865,0.922607,-135.314941,-185.928329,-13.641356,1.358515865483359
-0.489014,-0.832764,0.988037,-181.945786,-206.237778,-10.337829,1.3816105403698251
-0.465332,-0.705811,1.031494,-232.551559,-213.439926,1.419067,1.3336727147171452
-0.338135,-0.631104,1.033936,-249.992355,-207.122787,12.96234,1.2576371452597128
-0.259521,-0.577881,1.044922,-249.992355,-198.249802,14.762877,1.2219490929191772
-0.236084,-0.53125,1.014893,-249.54985,-205.314621,10.513305,1.169602504701918
-0.268311,-0.417969,0.98584,-249.992355,-225.402817,7.751464,1.1038883019952699
-0.347412,-0.209961,0.885742,-249.992355,-247.306808,16.181946,0.974329312824468
-0.668945,0.695313,-0.775635,-249.992355,-249.992355,31.509398,1.2379649567814914
-5.183594,6.123291,-7.236084,-120.323174,-229.919418,117.09594,10.803946088470314
-0.889404,-0.670166,0.323975,211.402878,11.375426,125.778191,1.1597938365920903
-0.623779,-2.308838,1.131836,-86.509697,249.992355,237.258896,2.6459187217261606
0.237305,-1.540039,-1.465576,-31.990049,234.764084,70.236206,2.139146277448553
1.089844,-1.794434,-1.641602,126.28936,99.357597,-73.631287,2.665072316297627
1.722168,-1.484863,-1.06958,80.520622,-86.242668,-55.39703,2.5129031269416258
0.58374,-1.282715,-0.815674,-9.033203,-154.266357,40.115356,1.6283225212165433
-0.468994,-1.148682,-0.310303,-30.700682,-163.734421,2.433777,1.2789502183310342
-0.701172,-0.906982,-0.251221,-59.17358,-150.917053,-53.894039,1.1736142947105748
-0.523193,-0.702148,-0.594971,-77.812195,-116.699211,-45.341488,1.058646881634287
-0.431152,-0.654297,-0.703613,-57.472225,-85.670464,-27.57263,1.0531229107193518
-0.514893,-0.711182,-0.630371,-38.55896,-79.64325,-11.253356,1.0808618025510939
-0.612793,-0.826904,-0.581543,-24.085997,-82.710258,-6.233215,1.1821496296636902
-0.631104,-0.944336,-0.510742,-9.613037,-75.508118,-3.990173,1.2453594381848156
-0.619873,-0.998779,-0.472412,-4.547119,-60.737606,10.169982,1.266876128401668
-0.59375,-0.991943,-0.447021,-6.843566,-50.422665,25.405882,1.2394828567551872
-0.567383,-0.9104,-0.431396,-11.650084,-47.767635,29.434202,1.1562240861982593
-0.556885,-0.806641,-0.433838,-14.991759,-50.514217,32.241821,1.071916982023328
-0.532227,-0.763428,-0.453125,-9.95636,-51.193233,34.301758,1.0350894436414662
-0.510742,-0.793213,-0.484131,-4.379272,-41.793819,28.877256,1.0603900598807967
-0.459717,-0.826172,-0.540527,-8.163452,-26.618956,11.19995,1.0890681022791917
-0.427734,-0.793945,-0.61084,-17.547607,-14.633178,-13.519286,1.0892339250046337
-0.490479,-0.70166,-0.709717,-24.932859,-16.014099,-29.045103,1.1120227628650414
-0.593018,-0.549805,-0.750977,-23.857115,-27.244566,-31.242369,1.1035951888613869
-0.687012,-0.35498,-0.641113,-26.832579,-46.119686,3.15094,1.0045009543614183
-0.782715,-0.408691,-0.7229,-12.748717,-52.070614,38.42926,1.1411641050725352
-0.829346,-0.550537,-0.752197,33.348083,-10.986327,28.533934,1.247680288733456
-0.745361,-0.582764,-0.832031,68.092346,50.056454,5.630493,1.2599414609330069
-0.693359,-0.467285,-1.026123,90.103142,99.380486,-4.066467,1.3236428465545378
-0.688721,-0.343018,-1.142578,119.73571,116.905205,-2.372742,1.3774913612248174
-0.63208,-0.371582,-1.118896,151.725769,99.769585,0.106812,1.337731874457658
-0.607666,-0.491943,-1.04126,172.882065,72.525024,-2.502441,1.3021091622460077
-0.656982,-0.583252,-0.985596,181.312546,57.563778,-6.141662,1.3203059187339878
-0.666992,-0.599609,-0.911133,183.769211,59.097286,-3.784179,1.2785040573396707
-0.645508,-0.601807,-0.782227,189.064011,72.631836,2.319336,1.1792927214402706
-0.594971,-0.657715,-0.597412,199.340805,89.24865,4.074097,1.0693365278573441
-0.515869,-0.758301,-0.402832,209.671005,103.416435,1.89209,1.0017059708247724
-0.469238,-0.845947,-0.241943,215.011581,113.723747,0.923157,0.997169515529832
-0.411377,-0.874756,-0.145264,211.318954,113.929741,0.022888,0.9775125192860703
-0.372314,-0.845215,-0.102051,201.904282,104.080193,-3.005981,0.9292042388097463
-0.455322,-0.800293,-0.074707,191.200241,90.179436,-4.53186,0.9237792730852972
-0.55957,-0.784668,-0.058105,179.107651,75.065613,-3.326416,0.9655043480735859
-0.5896,-0.781494,0.009766,165.443405,71.960449,1.647949,0.9790078686057636
-0.598145,-0.795898,0.081543,152.748108,90.164177,6.057739,0.9989396019169526
-0.602783,-0.828125,0.149414,143.753052,118.690483,5.714416,1.0351149231413872
-0.557373,-0.852051,0.227783,136.886597,144.042969,3.517151,1.0433315210511949
-0.508789,-0.862061,0.310059,132.575989,159.469604,-0.640869,1.0479274773203535
-0.491943,-0.865723,0.385498,129.173279,158.821106,-6.17218,1.067751345577237
-0.490479,-0.879883,0.437012,125.488274,142.829895,-9.757996,1.0980634003890668
-0.515869,-0.895264,0.468262,120.056145,121.37603,-9.727478,1.1344107525499747
-0.517822,-0.912109,0.466309,111.007683,101.226799,-9.101868,1.147835587114287
-0.4646,-0.920654,0.403809,99.586479,85.411064,-10.131835,1.1074830274983902
-0.425781,-0.900879,0.348877,90.675346,76.454163,-11.054992,1.0557403060085373
-0.396973,-0.89624,0.316406,85.517876,67.131042,-10.353087,1.03002255177496
-0.376221,-0.922852,0.332764,80.223083,55.618282,-11.680602,1.0506807005180023
-0.393066,-0.967285,0.380127,73.371887,43.647762,-15.2359,1.1111425145812754
-0.42627,-0.998535,0.431396,65.055847,30.433653,-16.609192,1.1682811168297638
-0.427979,-1.012939,0.511963,58.158871,17.158508,-16.426086,1.2129787943451444
-0.406738,-1.037354,0.613525,52.528378,3.982544,-16.403198,1.2719874400264337
-0.397217,-1.070557,0.697266,43.106075,-9.246826,-14.625548,1.3379288135375513
-0.423828,-1.077148,0.741699,26.664732,-18.623352,-11.474608,1.3747710333320964
-0.439453,-1.049316,0.748291,4.417419,-25.3067,-9.910583,1.3616616421659236
-0.390381,-1.011719,0.760986,-17.036438,-35.415649,-11.932372,1.3247914372904137
-0.355225,-0.994629,0.820068,-35.339355,-49.201962,-15.11383,1.3371548799185529
-0.390381,-1.00415,0.949707,-52.795406,-63.117977,-17.356873,1.4361956459723724
-0.457275,-1.021484,1.141357,-72.647095,-70.732117,-18.127441,1.598507362926427
-0.518555,-1.023926,1.33252,-100.639336,-73.120117,-20.294188,1.7586737309407336
-0.503906,-0.99292,1.436035,-137.985229,-83.808891,-25.0473,1.817142785930979
-0.433594,-0.916992,1.38916,-182.487473,-107.543938,-29.151915,1.720070809734297
-0.441162,-0.834961,1.348633,-226.921066,-137.565613,-31.631468,1.6463883959910552
-0.529297,-0.775635,1.391357,-249.992355,-167.709335,-33.927917,1.6785825177461489
-0.64624,-0.734619,1.446533,-249.992355,-192.634567,-33.569336,1.7463530378620469
-0.69458,-0.670166,1.434814,-249.519333,-218.025192,-32.012939,1.7292353970908645
-0.567871,-0.53418,1.342773,-249.992355,-246.215805,-32.440186,1.5526960663858205
-0.404053,-0.324219,1.206055,-249.992355,-249.992355,-24.398802,1.3126101667269685
-0.318115,-0.102051,1.024902,-249.992355,-249.732956,-2.433777,1.0779775829904812
-0.196289,0.104492,0.80957,-249.992355,-249.862656,25.718687,0.8395543666046887
-0.282227,0.426758,0.392822,-249.992355,-235.69487,50.819393,0.6450454199333564
-4.486816,4.943848,-6.197266,-112.159721,-188.041672,-32.752991,9.109295073698952
-1.245605,-1.135498,-3.775879,213.363632,14.48059,28.511045,4.134990900433761
-1.18335,-0.960938,-0.849854,-103.996269,249.992355,249.992355,1.74527100579251
-0.685059,-0.961182,-1.704102,31.188963,249.992355,193.344101,2.072954485030725
0.899902,-2.162598,-1.406738,249.992355,139.900208,-72.662354,2.7323187075910456
1.575195,-2.087402,-0.249756,176.551804,-7.835388,-151.794434,2.6269496487685102
1.140381,-1.541504,-0.370117,-59.55505,-147.499084,20.027161,1.952867123197582
-0.064941,-0.929932,-0.647217,-136.665344,-207.96965,101.806633,1.134848317262708
-0.367432,-0.524658,-0.457275,-94.779961,-231.147751,52.055355,0.7870023616311452
-0.669678,-0.388916,-0.238281,-54.64172,-206.153854,7.316589,0.8102481803132914
-0.860352,-0.41748,-0.23291,-41.572567,-188.232407,2.441406,0.9842470129007251
-1.019287,-0.453369,-0.279297,-35.568237,-166.709885,13.84735,1.149998370754933
-1.152344,-0.503418,-0.248291,-22.262571,-132.339478,26.542662,1.2817857846539724
-1.130371,-0.623047,-0.211182,-2.655029,-82.4356,33.485413,1.3078700237309517
-0.94458,-0.776611,-0.207275,16.220093,-27.778624,31.990049,1.2402898642438387
-0.744873,-0.940186,-0.199707,33.157349,8.995056,22.789,1.216005093152985
-0.588623,-1.005859,-0.256836,32.371521,20.202635,15.998839,1.1933960343934449
-0.527588,-0.979492,-0.404541,12.619018,15.11383,21.347044,1.1838104140820016
-0.569336,-0.851318,-0.55127,-7.987976,4.524231,25.154112,1.163092614936575
-0.611816,-0.680176,-0.688721,-10.44464,-12.664794,16.723633,1.1451178213061746
-0.641846,-0.614258,-0.845459,2.555847,-33.638,4.28009,1.2264094336562321
-0.731934,-0.631348,-0.912842,12.954711,-44.998165,-1.63269,1.3295142701092004
-0.854492,-0.643799,-0.868164,13.740539,-39.18457,-3.593445,1.377803491562204
-0.956543,-0.617188,-0.733398,12.4588,-15.853881,-8.407593,1.354166963338347
-0.937988,-0.490479,-0.695068,15.48767,12.039184,-11.787414,1.2662980147694303
-0.756836,-0.281006,-1.011963,31.295774,33.546448,-1.647949,1.2945401563107264
-0.801514,-0.229492,-1.347656,78.941345,63.606258,3.288269,1.5846980673289155
-0.87207,-0.266357,-1.365967,137.458801,84.678642,-8.331299,1.6423513574865762
-0.776367,-0.293945,-1.267578,175.796494,88.36364,-21.888731,1.5152238672216065
-0.673584,-0.349609,-1.151611,188.507065,86.738579,-17.280579,1.3791844522245746
-0.656006,-0.434814,-1.014893,194.923386,79.681396,-5.439758,1.28429548316616
-0.663818,-0.493652,-0.844727,204.109177,68.763733,-2.754211,1.1823325838176837
-0.645996,-0.519043,-0.677002,211.677536,61.767574,-6.271362,1.0700692388200868
-0.625244,-0.520508,-0.524658,216.499313,63.58337,-5.584716,0.9680519895976661
-0.628662,-0.52002,-0.395752,220.687851,72.319031,-1.548767,0.9067835222080296
-0.619629,-0.506348,-0.279785,223.564133,79.269409,1.594543,0.8477075208879534
-0.576172,-0.490723,-0.169434,227.165207,82.389824,1.777649,0.7755585836472961
-0.582031,-0.509766,-0.115967,231.864914,84.57946,0.778198,0.7823489022207419
-0.613525,-0.534668,-0.08667,231.40715,83.457939,1.113892,0.8184097291387732
-0.620117,-0.536377,-0.00415,225.181564,84.671013,3.028869,0.8199162166453351
-0.67041,-0.545654,0.094727,218.994125,98.152153,7.057189,0.8695752183365162
-0.731201,-0.573975,0.166748,214.241013,120.979301,11.70349,0.9444083325183021
-0.747559,-0.607178,0.262695,211.265549,148.612976,14.556884,0.9982576046241771
-0.706543,-0.656738,0.375244,210.975632,175.636276,15.373229,1.0350438981168866
-0.646729,-0.731934,0.483398,212.173447,195.49559,12.741088,1.0897978740119656
-0.615723,-0.828613,0.551758,210.479721,202.194199,5.096435,1.170534581745452
-0.60791,-0.903564,0.587402,201.019272,194.305405,-3.128052,1.2373453761177595
-0.603027,-0.935059,0.571045,184.638962,177.627548,-5.989074,1.250627557762502
-0.60498,-0.925537,0.535645,164.25322,159.492493,-1.708984,1.2286313950058414
-0.638916,-0.897217,0.526123,145.828247,147.689819,4.005432,1.2206626934882543
-0.685791,-0.867676,0.568848,130.752563,142.700195,7.148742,1.2436876552257805
-0.669189,-0.856934,0.621582,118.125908,135.673523,9.269714,1.2524032820146231
-0.6521,-0.890381,0.681885,110.618584,124.64904,10.505675,1.2972971472974109
-0.651855,-0.936768,0.736084,102.09655,105.148308,9.811401,1.3580386157635578
-0.65918,-0.966309,0.73584,85.922234,80.131531,8.506775,1.3819304835920654
-0.64917,-0.957764,0.716797,67.848206,55.709835,6.034851,1.361077333513787
-0.621582,-0.939697,0.708008,54.13055,34.40094,0.419617,1.330665233105983
-0.583984,-0.927246,0.712891,42.16766,13.275146,-6.828308,1.307301049740648
-0.567139,-0.92627,0.723145,31.60095,-5.867004,-11.291503,1.3048223822597464
-0.580078,-0.941162,0.733887,22.636412,-19.226074,-13.000487,1.326976459888042
-0.607422,-0.951172,0.74707,12.390136,-25.291441,-13.992309,1.3534412601099466
-0.62793,-0.950684,0.742188,-0.045776,-25.375364,-13.801574,1.3597570298034867
-0.622803,-0.93457,0.677979,-16.448975,-24.024961,-12.985229,1.3118537213233799
-0.563477,-0.904541,0.636963,-36.140442,-26.100157,-14.137267,1.2415404196315962
-0.523926,-0.880859,0.624756,-51.62048,-28.923033,-14.274596,1.200304582551029
-0.511963,-0.885986,0.650391,-62.736507,-32.798767,-13.648986,1.212470930969481
-0.506836,-0.900879,0.697998,-73.730469,-37.956238,-15.823363,1.247263769834192
-0.5271,-0.899658,0.788818,-85.754387,-45.356747,-17.76123,1.3074604254385676
-0.565918,-0.896484,0.902344,-98.525993,-54.084774,-16.586304,1.3921822579375158
-0.598145,-0.883301,0.959229,-116.867058,-62.19482,-15.121459,1.4346143635371145
-0.619141,-0.837402,0.943848,-142.173767,-67.123413,-15.769958,1.4054987494085507
-0.640381,-0.770508,0.888916,-168.594345,-71.06781,-19.470215,1.3393812221623087
-0.629395,-0.700439,0.843018,-191.97081,-80.528252,-26.44348,1.2638956472232983
-0.640137,-0.666992,0.852051,-210.456833,-96.542351,-34.172058,1.2572368963063405
-0.683594,-0.672607,0.901123,-225.639328,-119.537346,-40.100098,1.3159496929647425
-0.755371,-0.681641,0.982422,-243.041977,-144.058228,-42.449947,1.4143453562005286
-0.858398,-0.658936,1.078125,-249.992355,-166.107162,-39.672852,1.5275461675919977
-0.959473,-0.588135,1.147461,-249.992355,-185.264572,-35.545349,1.6072205705736222
-1.077148,-0.45752,1.161377,-249.824509,-201.774582,-33.561707,1.6487476763995756
-1.098877,-0.286377,1.130859,-249.992355,-221.923813,-33.340454,1.6026180222183326
-0.941895,-0.126709,1.039307,-249.992355,-244.094833,-37.17041,1.4083253892318353
-0.802979,0.003906,0.865479,-249.992355,-249.992355,-40.557858,1.1806118882672663
-0.699951,0.164307,0.748535,-249.992355,-249.992355,-41.076656,1.0378982796377496
-0.573242,0.32251,0.868408,-249.992355,-249.80162,-33.164978,1.0893812671089953
-1.643799,1.845947,-0.637207,-249.992355,-235.687241,-20.050049,2.5525728667481755
-1.874756,3.28833,-7.954346,112.152092,-226.005539,-168.067917,8.809054690269098
-0.822998,-1.830078,-2.631348,157.737732,-17.105103,156.822205,3.3091544979332714
-2.10498,-0.265381,-1.90625,-134.300232,183.319077,249.992355,2.8522196510894804
-1.011475,-1.821533,-2.40625,146.331787,121.414177,87.074272,3.18293939750885
0.43335,-1.96167,-0.395752,249.992355,38.925171,-111.999504,2.0475744325674707
0.696777,-1.934814,0.289795,146.102905,15.541076,-69.641113,2.0767726270225153
0.703857,-1.685303,-0.105713,-66.413879,-40.52734,45.845028,1.829436010530841
0.08667,-0.974121,-0.27832,-141.654968,-82.664482,90.995781,1.0168015705834643
-0.496094,-0.657959,-0.183594,-99.227898,-124.458305,58.982845,0.8442310461911477
-0.938721,-0.643311,-0.212402,-63.621517,-141.25061,17.593384,1.157653129467545
-1.121582,-0.648682,-0.271484,-66.894531,-134.162903,9.033203,1.3237968432142448
-1.278809,-0.594727,-0.289551,-77.423096,-98.548882,22.193907,1.4397543000842195
-1.339111,-0.539063,-0.355957,-63.84277,-52.093502,29.327391,1.4867792620759142
-1.143066,-0.595215,-0.411865,-30.250547,-8.728027,19.27948,1.352964727849917
-0.874512,-0.731689,-0.348389,6.271362,16.990662,10.31494,1.192273008243498
-0.696045,-0.82373,-0.285645,21.659849,18.592834,9.521484,1.1156176858359677
-0.591309,-0.809814,-0.277832,15.045165,3.540039,15.083312,1.0404977983162675
-0.519531,-0.693604,-0.323486,2.868652,-13.954162,19.165039,0.9250092761551097
-0.491943,-0.570557,-0.376953,0.511169,-21.980284,19.14978,0.8423994122190495
-0.492188,-0.499268,-0.421387,6.774902,-20.561216,18.867493,0.8179758963056307
-0.480713,-0.490234,-0.451172,14.61029,-15.083312,18.707275,0.8215659052741904
-0.456299,-0.544922,-0.469482,23.353575,-8.255005,16.204834,0.8517993377603672
-0.416504,-0.640869,-0.448242,32.196045,-1.220703,12.21466,0.8860640765435647
-0.36084,-0.717773,-0.394531,33.599854,3.707886,8.781433,0.8950186004156562
-0.330322,-0.733398,-0.347656,22.003172,3.799438,8.880615,0.8762704744677867
-0.334961,-0.679199,-0.344971,2.082825,-2.990722,15.892028,0.8321749479304217
-0.360596,-0.58374,-0.38501,-13.076781,-13.496398,27.94647,0.7867747853839752
-0.381592,-0.516602,-0.446289,-16.738892,-22.514341,39.955139,0.7820894785054968
-0.369873,-0.489258,-0.51123,-15.930175,-27.153013,48.782345,0.7984582265798256
-0.334717,-0.469727,-0.58667,-17.585754,-27.801512,54.969784,0.8227153903495424
-0.33374,-0.435791,-0.678223,-21.537779,-27.610777,62.889095,0.8725151121957716
-0.408447,-0.378662,-0.693115,-23.475645,-24.238585,77.537537,0.8891694243944739
-0.474854,-0.318115,-0.624023,-19.737244,-14.526366,95.329277,0.8462199354009571
-0.489746,-0.267578,-0.560791,-11.817931,1.655578,109.352104,0.791160967364417
-0.454834,-0.22998,-0.525879,-3.196716,19.805908,120.155327,0.7323342751756194
-0.363281,-0.211182,-0.450195,4.798889,35.163879,131.530762,0.615829895433796
-0.274902,-0.203369,-0.303467,8.628845,44.662472,145.874023,0.4571895447776556
-0.23291,-0.189697,-0.269775,2.967834,44.219967,161.430344,0.4037456755607421
-0.206055,-0.097656,-0.382324,-4.516602,30.639647,176.284775,0.4451595201015025
-0.19165,0.032227,-0.580078,3.051758,6.278991,192.024216,0.611766939375609
-0.273193,0.154053,-0.682129,25.741575,-18.814087,209.205612,0.7507774068916832
-0.342285,0.226563,-0.680908,51.979061,-38.81073,222.45787,0.7950632167683271
-0.334473,0.234131,-0.652344,72.265625,-49.942013,230.674728,0.7695727432972143
-0.335693,0.236084,-0.605713,82.618706,-52.909847,237.731918,0.7316513402393245
-0.395752,0.251221,-0.564697,87.203972,-55.343624,244.76622,0.7339034937605898
-0.482422,0.280518,-0.525635,91.499321,-60.768124,249.992355,0.7666247371648008
-0.616211,0.319824,-0.522461,96.107475,-69.961548,249.992355,0.868889454429043
-0.752197,0.383301,-0.494385,97.999565,-84.83123,249.908432,0.9783335380303592
-0.785156,0.470215,-0.404785,97.06115,-99.95269,249.992355,1.000711240461503
-0.760254,0.558105,-0.350342,98.884575,-108.093254,249.992355,1.0060849131683667
-0.735352,0.622314,-0.338379,107.734673,-111.267082,249.992355,1.0210375243550063
-0.69458,0.677246,-0.315186,120.826714,-112.495415,249.992355,1.0200224191222464
-0.702148,0.732666,-0.258545,133.422852,-106.086723,249.992355,1.0472138265344857
-0.94165,0.786865,-0.236572,140.197754,-86.708061,249.992355,1.2497309958183
-1.313965,0.890869,-0.237549,136.421204,-58.616634,249.992355,1.6051732379363295
-1.607666,1.054443,-0.18335,123.779289,-24.79553,249.992355,1.9313356078903015
-1.687012,1.19043,-0.027588,101.547234,14.442443,249.992355,2.0649198945208505
-1.556396,1.212891,0.142578,73.417664,48.759457,249.992355,1.9783330287848402
-1.328125,1.12207,0.267334,56.716915,63.880917,249.992355,1.7590976573462316
-1.131592,1.050049,0.323242,55.587765,54.328915,249.992355,1.5772091641342312
-0.993164,1.01123,0.381104,57.334896,22.987364,249.992355,1.4677196948368583
-0.968018,0.947021,0.359375,52.520748,-17.425537,249.992355,1.4010917219761168
-1.041016,0.937012,0.249756,43.533321,-55.969234,249.320969,1.4227030118531414
-1.151123,0.998535,0.167236,34.049988,-79.597473,241.561874,1.5330114764899836
-1.252197,1.070068,0.120117,24.559019,-74.363708,238.563522,1.6515056600332922
-1.291992,1.083496,0.099121,15.289306,-46.768185,242.11882,1.6890920290857452
-1.241455,1.041992,0.083252,3.952026,-13.435363,243.606552,1.6229259812428292
-1.150635,1.021484,0.074707,-8.842468,11.161803,243.164047,1.5404452607379466
-1.057861,1.049561,0.082031,-19.134521,20.523069,238.243088,1.4924400400026125
-0.992188,1.070801,0.122559,-25.939939,20.004272,230.751022,1.464947957241485
-1.019043,1.062256,0.133301,-34.873962,18.615723,224.449142,1.4780411367705568
-1.068115,1.089844,0.109619,-44.31152,20.286558,216.857895,1.5299169659566496
-1.050537,1.130127,0.089844,-50.47607,25.016783,207.427963,1.5456024614479624
-1.008789,1.140137,0.075439,-53.649899,31.211851,198.791489,1.5242239559890798
-0.984619,1.117676,0.056885,-57.02972,36.804199,191.535934,1.4906072988423207
-0.959229,1.098877,0.033447,-62.728878,41.877743,183.357224,1.4590303757561047
-0.900391,1.108643,0.036377,-69.519043,46.592709,174.102768,1.4286764995823933
-0.821777,1.102051,0.119873,-76.553345,50.682064,164.779648,1.37992875919701
-0.748535,1.062256,0.171631,-85.624687,51.879879,155.204773,1.3107820779679589
-0.69873,1.006592,0.180176,-89.942924,47.71423,147.468567,1.2385130028950038
-0.710449,0.948486,0.160645,-87.280266,39.733887,142.997742,1.195897273942039
-0.754395,0.893311,0.144287,-82.649223,31.158445,137.908936,1.1781065729020443
-0.806885,0.876709,0.105469,-83.076469,26.56555,131.568909,1.1961629420221143
-0.863037,0.903809,-0.01123,-86.189262,25.222776,125.526421,1.249731845137188
-0.886963,0.939941,-0.225342,-88.058464,21.354673,117.317192,1.3118580196858194
-0.854248,0.939697,-0.296875,-91.712944,12.08496,107.841484,1.304187433974887
-0.781006,0.946045,-0.269287,-103.958122,-2.63977,102.088921,1.2559804944464703
-0.662354,0.974365,-0.149658,-113.410942,-28.396605,97.05352,1.1876436719424728
-0.614502,0.962646,0.02417,-110.694878,-54.557796,87.165825,1.1423152884471082
-0.644531,0.939941,0.072021,-98.014824,-73.646545,72.479248,1.1419703664644718
-0.643799,0.942871,0.099365,-71.029663,-91.979973,57.868954,1.1460175732801832
-0.567871,0.98999,-0.003662,-40.756222,-116.493217,44.18182,1.1413023626476027
-0.578125,1.008789,-0.065918,-11.940001,-148.620605,33.439636,1.1645724300660736
-0.658691,0.992432,-0.103516,3.219604,-182.327255,28.419493,1.1956214578038484
-0.753418,0.983643,-0.194336,0.274658,-203.628525,20.881651,1.2541765087375063
-0.78833,1.012207,-0.269531,-7.629394,-208.251938,13.061522,1.3109821355418998
-0.72876,1.039063,-0.323975,-14.541625,-206.649765,18.2724,1.3098484096238008
-0.70459,1.052002,-0.359619,-21.293638,-200.202927,26.405333,1.3162374790534572
-0.775146,1.065674,-0.364258,-24.368284,-177.9785,25.123594,1.3671855346499246
-0.846924,1.085938,-0.310791,-25.230406,-137.825012,15.693664,1.4117834987351991
-0.840088,1.110352,-0.254395,-24.505613,-86.875908,9.361267,1.4153961380733662
-0.763916,1.134521,-0.171387,-20.538328,-35.240173,10.589599,1.3784335523578928
-0.64209,1.154053,-0.085449,-15.037536,8.773804,15.571593,1.3234120395817774
-0.546143,1.148682,-0.025391,-7.537841,43.388363,20.095823,1.2721584871603067
-0.470215,1.116211,0.021973,0.999451,69.534302,21.156309,1.2114090785011478
-0.385254,1.081543,0.046631,6.317138,88.729851,18.241882,1.1490562891024965
-0.314697,1.050293,0.060303,9.651184,100.700371,15.434264,1.0980828928031798
-0.279053,1.022949,0.040039,10.650634,107.925407,13.229369,1.0610835758464081
-0.291016,0.990967,0.044678,8.636475,113.227837,9.506226,1.0337804559136337
-0.303955,0.963135,0.095947,6.248474,117.500298,6.04248,1.014506528840007
-0.288086,0.946533,0.131592,3.501892,121.345512,5.081176,0.998115583461655
-0.235596,0.929199,0.158936,5.294799,121.368401,7.102966,0.9716876601629765
-0.178467,0.893311,0.169678,9.788513,114.860527,10.688781,0.9266313379624067
-0.154053,0.85791,0.178711,11.619567,103.439323,11.901855,0.8897637419169203
-0.185303,0.820557,0.188721,11.047362,88.760368,10.681151,0.8621291132417465
-0.233398,0.803467,0.18457,7.453918,73.783875,7.919311,0.8567963184987433
-0.267822,0.820801,0.182617,1.968384,61.645504,6.149292,0.8824918549051883
-0.243164,0.860107,0.193359,-4.013062,49.842831,5.187988,0.9144946611249297
-0.186768,0.895264,0.188965,-9.277344,37.727356,4.943848,0.9338563523074627
-0.185059,0.915039,0.16333,-13.183593,26.824949,3.234863,0.947744635385503
-0.209717,0.925537,0.139404,-17.341614,18.066406,-1.770019,0.9591837330115645
-0.231445,0.936523,0.135254,-22.064207,15.480041,-7.316589,0.9741333389582764
-0.252197,0.956787,0.12207,-28.411863,20.89691,-9.796143,0.9969682919120347
-0.282715,0.984131,0.110352,-34.606934,32.737732,-8.666992,1.0298636610202343
-0.308105,1.013184,0.108887,-39.268494,49.507137,-6.729125,1.0645782675078428
-0.259766,1.043945,0.115234,-42.388912,68.145752,-4.425049,1.081932720892108
-0.167969,1.063721,0.098633,-42.938229,83.183281,-0.709534,1.0814085349630822
-0.12085,1.073486,0.060547,-40.084839,89.462273,0.038147,1.0819625011547302
-0.111084,1.072754,0.03125,-35.064697,85.46447,-2.593994,1.078942705648451
-0.123047,1.062256,0.00415,-29.350279,78.353882,-4.776001,1.069366913760193
-0.121582,1.052734,-0.021729,-25.367735,73.272705,-4.379272,1.0599543419039332
-0.093994,1.045654,-0.041748,-23.048399,70.579529,-1.373291,1.0506997931169495
-0.081787,1.030029,-0.041016,-21.39282,66.497803,1.548767,1.0340846998510325
-0.093262,1.030273,-0.047607,-20.172117,58.639523,2.784729,1.0355803598089333
-0.089355,1.054932,-0.041504,-18.112183,49.316402,3.65448,1.059522733434729
-0.088623,1.074707,-0.027832,-13.053893,41.435238,4.91333,1.0787139529096674
-0.10791,1.074707,-0.016357,-5.676269,33.77533,5.172729,1.0802348149351604
-0.11377,1.062012,0.001221,0.808716,25.55084,3.730774,1.0680892246834999
-0.121338,1.040039,0.020752,4.447937,16.723633,1.945495,1.0472987526341277
-0.141357,1.025146,0.043701,4.920959,6.752014,0.396728,1.0357682656685325
-0.182129,1.02002,0.067383,4.684448,-1.693725,-0.137329,1.038341100857517
-0.224121,1.020264,0.095459,6.652832,-6.66809,0.053406,1.0489429312493603
-0.237305,1.015869,0.121094,10.101317,-8.644104,1.701355,1.0502224740606154
-0.241943,1.015137,0.13916,13.09204,-8.712769,3.890991,1.0528081732291024
-0.239014,1.012939,0.166016,14.778136,-8.087158,5.210876,1.053913858990857
-0.240234,1.003662,0.174316,14.328002,-7.225036,4.974365,1.0466307146534541
-0.22998,0.988037,0.162109,13.236999,-5.149841,3.440857,1.0273204181996969
-0.249512,0.966064,0.12915,13.114928,0.648498,2.815246,1.0060892667850105
-0.282959,0.946533,0.093506,12.413024,8.224487,2.677917,0.9923375876212691
-0.31543,0.924561,0.067383,11.215209,19.462585,3.280639,0.9792086582082492
-0.333008,0.897461,0.063721,7.972717,33.905029,5.630493,0.9593700748022109
-0.322021,0.878906,0.066162,2.288818,48.240658,6.912231,0.938376625625873
-0.281006,0.873047,0.070068,-3.120422,59.349056,7.484436,0.9198287671458204
-0.215088,0.883545,0.079834,-6.568908,64.544678,7.743835,0.9128461438407899
-0.15625,0.895264,0.093018,-8.407593,63.880917,7.56073,0.9135447665659302
-0.150146,0.911133,0.085938,-10.055541,58.616634,6.706237,0.9274117234804614
-0.161133,0.945557,0.082031,-10.910033,49.987789,5.676269,0.962689445719127
-0.162842,0.999512,0.071045,-11.070251,40.199276,7.644653,1.01517936697561
-0.186523,1.020508,0.065674,-9.208679,34.004211,12.001037,1.0394904914759924
-0.19873,1.004883,0.074951,-4.394531,31.654356,12.420653,1.0270837886900952
-0.203369,0.992188,0.074951,-1.686096,30.670164,8.644104,1.0155853631802696
-0.198242,1.000977,0.069824,-2.006531,28.778074,6.500244,1.0228050821485979
-0.19458,1.023193,0.067383,-3.166198,26.641844,6.896972,1.0437076987059164
-0.203613,1.0354,0.066162,-3.761291,25.222776,7.026672,1.0573026170463216
-0.209229,1.041992,0.074951,-3.860473,24.29199,5.500793,1.0654303144298083
-0.220703,1.046143,0.103516,-4.127502,23.582457,3.990173,1.07416970396395
-0.227539,1.056641,0.121094,-4.837036,21.705626,2.975464,1.0876249152341078
-0.200684,1.068359,0.113037,-5.371093,18.821716,0.816345,1.0929054781205922
-0.153809,1.06543,0.097168,-3.913879,14.778136,-2.14386,1.0808514762005927
-0.138184,1.039795,0.076904,-0.953674,7.232666,-4.699707,1.0517521975717474
-0.167236,1.014404,0.054688,1.274109,-3.456115,-7.331848,1.0295504515350378
-0.214355,1.004639,0.037598,2.792358,-11.878966,-9.765625,1.0279402686683696
-0.25293,0.996094,0.026611,4.302979,-13.748168,-10.238647,1.0280491170449981
-0.280029,0.996094,0.017578,5.15747,-10.246276,-8.666992,1.0348567455261621
-0.275635,1.006348,0.013428,5.355834,-5.294799,-7.148742,1.0434995263597393
-0.261719,1.014648,0.010254,6.500244,-1.228333,-6.454467,1.0479086522121097
-0.268555,1.008301,0.004395,8.68988,1.213074,-7.133483,1.0434615520712778
-0.281738,0.989502,-0.003418,10.940551,2.761841,-8.270264,1.0288353567855257
-0.286621,0.97168,-0.007813,12.008666,4.78363,-9.109497,1.0131015067652402
-0.282715,0.95874,-0.007324,11.909484,7.446289,-9.559631,0.9995818124600907
-0.282959,0.955566,-0.004395,10.902404,10.742187,-9.521484,0.9965899317482593
-0.29248,0.9646,0.001709,9.178162,14.457702,-9.498596,1.0079685665143532
-0.290771,0.980225,0.01416,7.644653,18.684387,-9.33075,1.0225406254354885
-0.27832,0.995605,0.031494,6.652832,23.246763,-9.246826,1.0342549059400203
-0.269287,1.007568,0.043701,6.958007,27.496336,-8.81958,1.043847948886235
-0.256104,1.004883,0.054199,8.262634,30.944822,-8.155823,1.0384202589058056
-0.250977,0.992188,0.061523,9.58252,34.217834,-7.263183,1.02528608758824
-0.251709,0.978271,0.057861,9.231567,36.727905,-7.118225,1.011790227983548
-0.245361,0.96875,0.063232,7.041931,39.131165,-7.614135,1.0013375398161202
-0.224121,0.9646,0.059814,4.051208,41.252132,-7.377624,0.9920993383915746
-0.202881,0.962402,0.059326,1.815796,42.16003,-6.011962,0.9853415063017492
-0.211914,0.962891,0.057861,0.144958,41.061398,-4.051208,0.987630759240517
-0.230469,0.97168,0.056152,-1.197815,38.635254,-2.578735,1.0002154915142036
-0.241455,0.979492,0.053467,-2.059937,36.888123,-0.823975,1.010229585380472
-0.249023,0.97998,0.049561,-2.853393,36.422729,0.747681,1.0123386526503864
-0.249268,0.977295,0.044434,-3.562927,36.483765,1.998901,1.0095615054096505
-0.24707,0.978271,0.040039,-4.15802,36.766052,3.005981,1.0097825785098493
-0.241455,0.983154,0.0354,-5.40924,37.368774,3.120422,1.012988383319868
-0.232422,0.984863,0.027832,-6.851196,37.590027,2.418518,1.012299231984792
-0.2229,0.98877,0.024414,-8.06427,37.42218,1.235962,1.0138769976165747
-0.220947,0.994873,0.023438,-9.178162,36.872864,0.137329,1.019381774793919
-0.225098,0.999023,0.009033,-9.315491,35.301208,-1.365662,1.0241082263227848
-0.226074,1.002686,-0.001465,-8.529663,33.874512,-2.799988,1.027857390058076
-0.223389,1.005859,0.001953,-6.866455,32.829285,-3.067016,1.0303682775643863
-0.215088,1.009277,0.016113,-5.508422,31.578062,-2.578735,1.0320671195431042
-0.198242,1.013672,0.0271,-4.241943,28.57971,-2.26593,1.033230479683986
-0.188965,1.017578,0.026611,-2.502441,23.071287,-2.235413,1.0353168126858563
-0.19751,1.014893,0.032471,-0.862122,16.38031,-3.14331,1.0344430227856922
-0.205322,1.017822,0.031494,0.518799,10.337829,-4.348755,1.0388024929715947
-0.202637,1.016846,0.039307,2.02179,5.577087,-4.966736,1.037584975668981
-0.208008,1.009033,0.049805,4.219055,1.38855,-4.570007,1.03145308239299
-0.22168,0.996094,0.05542,6.629943,-2.510071,-4.402161,1.0219670521283943
-0.236328,0.987305,0.058105,8.201599,-5.187988,-4.516602,1.0168570586046006
-0.249512,0.984131,0.060059,7.865905,-6.492614,-4.432678,1.017043335746319
-0.249268,0.983887,0.059082,6.530761,-6.210327,-3.921509,1.0166901432181783
-0.249756,0.988037,0.059082,5.371093,-4.570007,-3.204345,1.0208260653162222
-0.251465,0.986816,0.05249,4.669189,-2.27356,-2.204895,1.0197037139193914
-0.251465,0.980469,0.051514,4.142761,0.320435,-1.335144,1.0135126039581355
-0.257813,0.973145,0.044434,3.326416,3.387451,-0.656128,1.0076969357649155
-0.269531,0.969971,0.04126,1.564026,6.980896,0.1297,1.007567907588367
-0.269287,0.971436,0.038086,-0.770569,11.19995,1.075745,1.008788349388017
-0.266846,0.978271,0.025635,-3.341675,15.266418,2.082825,1.0143362807185792
-0.263672,0.986816,0.018311,-5.325317,18.928528,2.754211,1.0215987637820438
-0.258545,0.995117,0.008057,-6.41632,22.521971,3.250122,1.0281868876634248
-0.260254,1.00293,0.003174,-6.645202,25.894163,4.364014,1.0361519211447712
-0.259033,1.002441,-0.004883,-6.240844,28.656004,5.851745,1.03537910798847
-0.255859,0.998291,-0.011963,-5.325317,31.204222,6.614685,1.0306269266475625
-0.254883,0.995117,-0.013428,-5.012512,33.64563,6.553649,1.0273283304581842
-0.256592,0.988525,-0.017334,-5.279541,36.048889,6.401062,1.0214311516910966
-0.252686,0.987305,-0.013672,-5.41687,38.047791,6.080627,1.019219456841852
-0.244141,0.984619,-0.002197,-5.126953,39.123535,5.889892,1.0144378886117178
-0.22876,0.981201,0.008789,-4.425049,38.650513,6.034851,1.0075533665875966
-0.222656,0.979248,0.015869,-3.40271,36.651611,5.523681,1.0043675447768112
-0.227051,0.981934,0.019043,-2.13623,34.27124,4.623413,1.0080224068967911
-0.234375,0.984619,0.02124,-1.174927,31.959532,3.570556,1.0123523859733823
-0.236084,0.994141,0.021729,-0.762939,30.09796,2.449036,1.0220196340472134
-0.231689,0.996094,0.018066,-0.175476,29.014585,1.983642,1.0228437954609688
-0.235596,0.996582,0.016113,0.495911,28.274534,1.564026,1.0241781030216375
-0.236084,0.995361,0.019043,0.778198,27.244566,0.656128,1.023152877739197
-0.227051,0.991455,0.025635,0.915527,25.634764,-0.007629,1.0174440165684793
-0.2229,0.986084,0.028809,1.190186,24.314878,-0.465393,1.0113733353895584
-0.227051,0.979492,0.029541,1.747131,23.002623,-1.579285,1.0058973135196256
-0.228516,0.974609,0.030273,1.960754,21.697996,-2.487183,1.001498237475234
-0.226318,0.971924,0.040771,1.167297,20.729063,-3.067016,0.9987584159049675
-0.224609,0.987305,0.045654,-0.480652,19.90509,-3.067016,1.0135603847931312
-0.213379,1.002441,0.038574,-0.961304,18.2724,-2.662658,1.0256249361233374
-0.207764,1.002686,0.030273,0.007629,16.044617,-2.937317,1.02443230563127
-0.206543,0.99292,0.026855,0.892639,13.587951,-3.570556,1.0145301022019997
-0.20752,0.988281,0.026123,0.190735,11.344909,-4.516602,1.0101714193591105
-0.203857,0.990479,0.025879,-1.411438,8.987427,-5.325317,1.0115710793271029
-0.191406,1.000244,0.02417,-2.853393,6.584167,-5.645751,1.018679785443885
-0.177246,1.00293,0.020752,-3.005981,3.326416,-5.508422,1.01868315727708
-0.178223,0.994873,0.010498,-2.197266,-1.38855,-6.027221,1.0107650230701497
-0.185303,0.992188,-0.000977,-1.838684,-5.943298,-6.752014,1.0093439372592476
-0.196289,0.992676,0.000977,-2.304077,-9.460449,-7.209777,1.0118972116900018
-0.209473,0.994873,0.002441,-3.120422,-11.909484,-7.225036,1.0166893243951172
-0.217285,0.998291,0.001465,-3.204345,-13.534545,-6.904602,1.021665228013071
-0.221191,0.99707,0.000977,-2.510071,-14.85443,-6.462097,1.0213104317052675
-0.227783,0.989502,-0.001221,-1.708984,-15.838622,-6.484985,1.015382092580916
-0.240479,0.984131,-0.00293,-1.312256,-16.204834,-7.011413,1.0130905978746423
-0.246582,0.982422,0.002441,-1.502991,-15.930175,-7.469177,1.0128976390973572
-0.244385,0.982666,0.009766,-2.067566,-15.380858,-7.591247,1.0126459749275656
-0.246094,0.984619,0.012695,-1.518249,-15.090941,-7.263183,1.0149866969679948
-0.250244,0.981689,0.016602,0.12207,-15.548705,-7.133483,1.0132181298521064
-0.251465,0.981445,0.022705,1.182556,-16.273499,-7.217407,1.013402413296416
-0.260986,0.990723,0.030273,1.89209,-17.00592,-6.866455,1.024969370007709
-0.268311,1.010254,0.031982,2.388,-17.570496,-5.41687,1.0457661237394333
-0.277588,1.032227,0.03418,3.89862,-17.692566,-3.875732,1.0694465623269822
-0.275635,1.053955,0.030029,5.027771,-16.63208,-3.593445,1.0898153678908185
-0.269287,1.068848,0.030518,7.110595,-14.923095,-2.471924,1.1026707957486677
-0.267822,1.070068,0.032959,10.215758,-13.488769,-0.396728,1.1035671452109292
-0.268799,1.061768,0.029541,13.763427,-11.917113,0.801086,1.0956627487078312
-0.266602,1.048584,0.024658,17.158508,-9.536743,1.373291,1.0822259692060618
-0.255371,1.0271,0.026367,19.218445,-5.851745,2.372742,1.0586991906722134
-0.248779,1.000732,0.023926,20.286558,-1.670837,2.975464,1.0314688459381602
-0.251465,0.974609,0.0271,19.638062,2.304077,2.464294,1.006892128833074
-0.248779,0.952148,0.03125,17.433167,6.019592,1.342773,0.9846082303358021
-0.239746,0.934082,0.032471,14.083861,9.468079,0.389099,0.9649050176473329
-0.227539,0.919189,0.037842,10.124206,12.123107,-0.411987,0.9476889949798932
-0.222412,0.908203,0.045898,5.966186,14.320373,-0.747681,0.9361658044155426
-0.219238,0.903564,0.045898,1.976013,15.846251,-1.022339,0.930913438051036
-0.21582,0.905518,0.041016,-2.250671,15.922545,-1.88446,0.9317850787493863
-0.211426,0.916504,0.037109,-6.713867,14.167785,-3.356933,0.9413063334393326
-0.213135,0.930176,0.031006,-11.07788,11.314391,-4.760742,0.9547854686980736
-0.220947,0.943115,0.025146,-14.694213,7.5531,-5.363464,0.9689766774025059
-0.231201,0.958496,0.021484,-17.555237,4.096985,-5.41687,0.9862200802422347
-0.240723,0.981201,0.007568,-20.103453,0.946045,-4.768372,1.0103267984934379
-0.244141,1.005859,-0.012939,-21.568296,-2.182007,-4.135132,1.0351447113727628
-0.243896,1.025879,-0.030029,-22.041319,-5.828857,-4.364014,1.0549003376139376
-0.241211,1.039307,-0.039795,-21.202085,-10.253905,-4.615784,1.0676729034657573
-0.243408,1.049072,-0.047607,-17.845154,-15.075683,-4.508972,1.0779916243167198
-0.250488,1.04834,-0.05542,-12.054442,-19.66095,-4.241943,1.079274001421326
-0.265625,1.04126,-0.051514,-5.439758,-22.941587,-3.227234,1.0758404716411258
-0.275391,1.0271,-0.042969,0.541687,-24.826048,-1.472473,1.0642466574258054
-0.280029,1.017578,-0.03125,5.134582,-26.290892,0.099182,1.055868263290928
-0.279785,1.012695,-0.027588,8.750916,-27.511595,0.831604,1.0509956741081286
-0.279297,1.009033,-0.027588,12.031554,-27.534483,1.228333,1.0473373415676537
-0.282715,1.002197,-0.025146,14.808654,-26.115416,1.708984,1.0416136132702951
-0.284912,0.994385,-0.022949,16.342163,-23.246763,1.602173,1.0346511646782215
-0.283691,0.991943,-0.018066,17.219543,-19.40918,0.976562,1.031871057393316
-0.287598,0.989746,-0.013184,17.38739,-15.373229,0.686645,1.0307684376114743
-0.286621,0.991943,-0.008545,17.341614,-11.619567,0.419617,1.0325577610550416
-0.279541,0.988525,0.000488,17.39502,-7.92694,0.534058,1.027290165654281
-0.273438,0.980225,0.00708,16.777039,-4.890442,0.816345,1.0176735807069965
-0.273438,0.979004,0.021484,15.350341,-2.830505,0.900268,1.0166999233382483
-0.284912,0.982178,0.031982,13.206481,-1.266479,1.365662,1.0231672980270627
-0.293945,0.989746,0.0271,11.512755,0.869751,1.983642,1.0328287455047909
-0.291992,0.989746,0.028564,10.57434,3.990173,2.441406,1.03231408722152
-0.289307,0.975586,0.036865,9.719849,7.354736,3.265381,1.0182463414469014
-0.283936,0.959473,0.035156,7.499694,10.482787,3.883362,1.0012212713286708
-0.282959,0.950439,0.028809,3.829956,13.47351,3.974914,0.992083689455179
-0.283203,0.950195,0.020996,0.091553,17.311096,3.707886,0.9917234036010243
-0.28125,0.948975,0.014404,-3.105163,21.728514,3.677368,0.9898800878596357
-0.274658,0.949463,0.013672,-5.989074,26.245115,4.02832,0.988485674613952
-0.265137,0.950439,0.008789,-8.575439,29.861448,4.493713,0.9867670282346285
-0.257813,0.95752,-0.000244,-10.688781,32.188416,4.814148,0.9916209724007455
-0.250977,0.966309,-0.000977,-12.123107,33.355713,4.829407,0.9983704185015699
-0.249268,0.976074,-0.001465,-12.870788,33.615112,4.585266,1.0074011790369317
-0.239746,0.982178,-0.006592,-13.076781,32.943726,4.127502,1.0110367068825938
-0.231934,0.987793,-0.01416,-12.7182,31.387327,3.761291,1.0147555847616705
-0.228271,0.988525,-0.016357,-11.932372,29.235838,3.189087,1.0146708217520597
-0.228516,0.988037,-0.017578,-11.238097,27.297972,2.456665,1.0142710001321147
-0.223877,0.98584,-0.021484,-10.353087,25.825499,1.609802,1.0111691149283586
-0.221191,0.987793,-0.019287,-9.45282,24.482725,1.38092,1.0124388661539028
-0.224121,0.993652,-0.017578,-8.575439,23.200987,1.533508,1.018765677586853
-0.220703,1.002197,-0.018066,-7.400512,21.14868,1.792908,1.0263698268041592
-0.217285,1.010498,-0.01709,-6.004333,18.470764,2.204895,1.0337364496471042
-0.219238,1.011719,-0.013184,-4.554749,15.289306,2.449036,1.035284720963755
-0.224365,1.007813,-0.012695,-2.883911,12.4588,2.487183,1.032563731311051
-0.220459,1.00415,-0.01123,-1.251221,9.83429,2.601623,1.02812718380607
-0.219727,0.996338,-0.007568,-0.061035,6.965637,2.777099,1.0203071299353934
-0.222656,0.985352,-0.006104,0.587463,3.890991,2.548218,1.0102135997183963
-0.22876,0.981689,-0.003906,0.328064,0.900268,1.655578,1.007997860690686
-0.22876,0.98291,0.0,-0.213623,-1.846313,0.587463,1.0091794715014768
-0.229004,0.981445,0.009277,-0.63324,-3.967285,0.236511,1.0078507740583424
-0.236816,0.98291,0.00708,-0.953674,-5.203247,0.038147,1.0110608351409918
-0.250488,0.987305,0.008057,-1.029968,-5.943298,-0.038147,1.0186168643891578
-0.26416,0.992188,0.005615,-1.449585,-5.561828,0.259399,1.0267663128331588
-0.270752,1.000732,0.00415,-2.082825,-3.562927,0.465393,1.0367200219094834
-0.271729,1.004639,0.001709,-2.342224,-0.396728,0.709534,1.040739684283731
-0.267822,0.998291,0.001709,-2.174377,3.089905,0.999451,1.033593955596684
-0.258789,0.98999,-0.000977,-2.01416,5.928039,0.778198,1.0232560291295625
-0.255615,0.979492,-0.004639,-2.716064,7.56073,0.213623,1.0123068342207318
-0.254639,0.983643,-0.006836,-3.883362,8.338928,-0.556946,1.0160911881647237
-0.251709,0.990723,-0.008057,-4.66156,8.796692,-0.976562,1.0222301104247518
-0.248047,0.996826,-0.010742,-4.402161,9.048462,-0.900268,1.02728028261473
-0.24585,1.001953,-0.013916,-3.433227,9.117126,-0.75531,1.0317682354894437
-0.243652,1.002441,-0.016357,-2.326965,9.780884,-0.747681,1.031756660765512
-0.239746,1.001709,-0.016113,-1.464844,10.787963,-0.839233,1.030125571940625
-0.232666,1.004639,-0.014648,-0.801086,11.322021,-0.862122,1.0313329005616954
-0.219482,1.005615,-0.014648,-0.038147,10.780334,-0.457764,1.0293922675311875
-0.215332,0.999756,-0.014404,0.740051,9.223938,-0.061035,1.0227841438817868
-0.21875,0.992188,-0.013672,1.64032,7.377624,0.030518,1.0161080225192596
-0.219727,0.985596,-0.015625,2.288818,6.195068,0.236511,1.0099126548221882
-0.22168,0.986328,-0.015137,2.456665,5.355834,0.473022,1.0110460299872603
-0.219727,0.986084,-0.014648,2.365112,4.28009,0.801086,1.0103742739643562
-0.217773,0.987549,-0.011963,2.166748,2.937317,0.900268,1.0113462415508352
-0.223145,0.991455,-0.008301,1.754761,1.853943,0.976562,1.0162901232674653
-0.229492,0.996826,-0.005615,1.678467,1.159668,0.991821,1.0229174847293403
-0.23584,1.000977,-0.006104,2.166748,1.068115,0.984192,1.0284029944263096
-0.239502,1.004395,-0.00708,2.609253,1.548767,1.312256,1.0325796097294386
-0.238037,1.003418,-0.008057,3.257751,1.823425,1.89209,1.031297343806334
-0.236328,0.994141,-0.006592,3.608703,1.800537,2.388,1.021866285738501
-0.241211,0.98877,-0.006836,3.440857,2.243042,2.250671,1.0177895609196432
-0.245117,0.985352,-0.00708,2.914428,3.028869,2.029419,1.015406831763998
-0.244385,0.986328,-0.006104,2.227783,4.165649,1.655578,1.0161713490474922
-0.246582,0.988037,-0.004639,1.670837,5.897521,1.686096,1.0183522555648414
-0.246338,0.988281,-0.003174,1.350403,7.67517,1.449585,1.0185243342606007
-0.246338,0.990234,-0.000488,1.213074,8.804321,1.167297,1.020414632952703
-0.243408,0.992188,0.003418,1.00708,9.643555,0.907898,1.0216144891944319
-0.235107,0.993652,0.006836,0.839233,9.872437,0.648498,1.0211103414660925
-0.230469,0.988525,0.006104,1.144409,9.796143,0.450134,1.0150541337298224
-0.227783,0.985352,0.005615,1.464844,9.460449,0.335693,1.011353146639689
-0.227051,0.981689,0.005615,1.63269,8.895874,0.061035,1.0076194606829505
-0.227783,0.978516,0.006104,1.281738,8.850098,-0.389099,1.0046969275164526
-0.226807,0.974854,0.006104,0.488281,8.674622,-0.534058,1.0009090844732103
-0.227783,0.973633,0.007324,-0.434875,9.002686,-0.747681,0.9999499761258059
-0.228516,0.976807,0.008545,-1.434326,9.857178,-1.029968,1.0032170724873057
-0.227051,0.97876,0.01123,-1.968384,10.780334,-0.862122,1.0048131204860933
-0.226807,0.97876,0.006348,-2.5177,11.83319,-0.511169,1.004715307912147
-0.227539,0.981934,0.004395,-3.166198,12.908935,-0.152588,1.0079621485462635
-0.227539,0.988525,0.001465,-4.196167,13.610839,-0.114441,1.0143755805277452
-0.224609,0.995361,-0.001709,-4.806519,14.22882,-0.183105,1.020389946972725
-0.218506,0.999756,-0.008789,-5.043029,14.579772,-0.488281,1.0233934620139997
-0.21582,0.997803,-0.012939,-4.78363,14.411925,-1.068115,1.0209586264535895
-0.212891,0.993896,-0.01123,-4.440308,13.59558,-1.38092,1.0165028035362225
-0.213135,0.994629,-0.011963,-4.203796,12.702941,-1.419067,1.0172789633306096
-0.210693,0.997559,-0.01416,-3.608703,11.886596,-1.350403,1.0196646528785824
-0.209961,1.004395,-0.015625,-2.609253,10.368346,-1.13678,1.0262246723651698
-0.211426,1.004639,-0.01709,-1.350403,8.575439,-0.747681,1.0267874862389976
-0.212158,1.004639,-0.011719,-0.160217,7.041931,-0.823975,1.0268631224491414
-0.209961,1.006836,-0.01123,1.052856,5.531311,-0.900268,1.0285564959286388
-0.207764,1.007324,-0.011475,1.983642,3.486633,-1.174927,1.028590878968407
-0.213135,1.005127,-0.008789,2.990722,1.564026,-1.373291,1.0275135331833833
-0.213379,1.003662,-0.009766,3.65448,-0.358582,-1.808166,1.0261400404628016
-0.213379,0.995117,-0.006592,4.40979,-2.464294,-2.349854,1.017758269823439
-0.217529,0.986084,-0.002197,4.684448,-4.089355,-2.204895,1.0097947057229009
-0.224609,0.987793,-0.003906,4.096985,-4.966736,-2.029419,1.0130150396543973
-0.227783,0.987793,-0.00415,3.90625,-5.691528,-2.159119,1.0137244834953925
-0.232666,0.988037,0.003662,3.662109,-6.362915,-1.991272,1.0150684662469818
-0.240234,0.98877,0.012451,3.02124,-6.454467,-1.960754,1.017611672032608
-0.241211,0.996826,0.012939,2.334595,-5.516052,-1.655578,1.025676478485297
-0.238037,1.001221,0.014648,2.304077,-4.058838,-1.098633,1.029232562696109
-0.237793,1.001465,0.017822,2.563476,-2.998352,-0.564575,1.029463588845181
-0.236328,0.995605,0.01416,2.433777,-2.5177,-0.350952,1.0233673559426253
-0.236328,0.994873,0.007324,2.120972,-2.120972,-0.587463,1.022583419916928
-0.233398,0.991699,0.00293,1.686096,-1.502991,-0.556946,1.0187983696026413
-0.230225,0.987549,-0.005371,0.953674,-0.869751,-0.541687,1.0140440945378066
-0.226807,0.986816,-0.006104,0.228882,-0.37384,-0.961304,1.0125633273632815
-0.222412,0.987305,-0.011719,-0.114441,-0.190735,-1.396179,1.012114418299631
-0.216553,0.989502,-0.013428,-0.274658,-0.25177,-1.64032,1.0130102274888442
-0.216064,0.991943,-0.015137,0.106812,-0.526428,-1.617432,1.0153145798785714
-0.214844,0.991943,-0.015625,0.38147,-0.938415,-1.579285,1.0150630523322184
-0.210693,0.99585,-0.016357,0.892639,-1.541138,-1.609802,1.018025694272006
-0.207275,0.999023,-0.01709,1.815796,-2.418518,-1.663208,1.020442035714915
-0.212402,1.001221,-0.020752,2.738952,-3.501892,-1.525879,1.0237132146988237
-0.212891,1.005127,-0.012939,3.52478,-4.78363,-1.243591,1.0275068280702568
-0.216309,1.005127,-0.009766,4.28772,-6.050109,-0.778198,1.028185413418222
-0.217773,1.005371,-0.005859,4.875183,-6.828308,0.114441,1.028703190940419
-0.221924,1.001465,-0.001465,5.325317,-7.331848,0.434875,1.0257604760498427
-0.224121,0.998779,0.005859,5.737304,-8.049011,0.389099,1.023632766847076
-0.221436,0.999023,0.013428,5.294799,-8.613586,0.801086,1.0233577907110494
-0.223877,0.998047,0.014893,5.172729,-9.613037,1.228333,1.022956757046455
-0.226074,0.993896,0.014404,5.302429,-10.841369,1.075745,1.0193852007499422
-0.229004,0.990234,0.013672,4.600525,-11.795043,0.495911,1.0164610815746955
-0.230957,0.992676,0.012939,3.65448,-12.168883,0.25177,1.019271403771341
-0.231934,0.989502,0.013672,2.998352,-12.298583,0.350952,1.016412569749115
-0.233643,0.989258,0.010254,2.677917,-12.100219,0.183105,1.0165262350421655
-0.233887,0.989502,0.009521,2.166748,-11.558532,0.1297,1.0168126603332592
-0.232666,0.993408,0.011475,1.373291,-10.82611,0.267029,1.020355133100726
-0.233887,0.997559,0.008789,1.022339,-10.208129,0.984192,1.024648395192712
-0.230469,0.999268,0.007568,1.25885,-9.857178,1.213074,1.02552901977906
-0.226807,0.993652,0.001709,1.594543,-9.353638,1.106262,1.0192098081523744
-0.225098,0.988525,0.002686,1.731872,-8.804321,1.052856,1.0138333195476463
-0.224121,0.984375,0.002686,1.518249,-8.094788,1.037598,1.0095699965143576
-0.225586,0.981934,-0.001465,1.113892,-7.453918,0.907898,1.0075145507519978
-0.224854,0.983643,0.009521,0.62561,-6.91986,0.747681,1.009060712844376
-0.222656,0.995117,0.017822,-0.106812,-6.225585,1.419067,1.0198780131510827
-0.217529,1.002441,0.018066,-0.12207,-5.943298,2.471924,1.0259304092763797
-0.21167,1.001465,0.019775,0.679016,-6.027221,3.036499,1.023780926639093
-0.207275,0.993896,0.018555,1.426697,-6.54602,2.822876,1.0154489019473112
-0.204346,0.984619,0.020996,1.235962,-7.209777,2.105713,1.005819414653048
-0.201172,0.981689,0.021973,-0.030518,-7.728576,1.594543,1.0023304240788065
-0.204102,0.987061,0.020996,-1.701355,-8.003235,1.403808,1.0081606400475076
-0.207275,0.994385,0.023926,-2.89917,-7.850646,1.625061,1.0160398158172739
-0.205078,1.0,0.022705,-3.677368,-7.614135,2.14386,1.0210643971410422
-0.20752,1.003174,0.022217,-4.051208,-7.453918,2.548218,1.024654195211731
-0.209961,0.998779,0.021729,-3.952026,-6.805419,2.426147,1.0208404683411605
-0.209961,0.991455,0.022949,-3.768921,-5.500793,2.510071,1.013702764693379
-0.210938,0.989258,0.025391,-4.447937,-3.814697,3.166198,1.0118156617136345
-0.203613,0.994141,0.028076,-5.66101,-2.26593,4.142761,1.0151664116912065
-0.198975,1.003418,0.025146,-6.774902,-1.441955,5.111694,1.0232648995568057
-0.193604,1.011475,0.021484,-6.988525,-2.410889,5.432128,1.0300610402772254
-0.190918,1.011963,0.010498,-6.469726,-4.646301,4.951477,1.0298684401888427
-0.192139,1.00708,0.010498,-5.516052,-7.133483,4.623413,1.0252988489825783
-0.189941,1.001221,0.013428,-4.928589,-8.827209,4.707336,1.019167005699262
-0.187256,0.997314,0.015869,-4.722595,-10.253905,4.814148,1.0148654340812875
-0.186768,0.994141,0.013672,-4.646301,-12.008666,4.936218,1.0116251960528664
-0.186279,0.995117,0.010986,-4.821777,-13.999938,4.837036,1.0124615556780414
-0.19043,0.998291,0.01123,-4.882813,-16.036987,4.768372,1.0163535892990196
-0.192627,1.003174,0.011475,-4.364014,-17.372131,5.203247,1.02156493236113
-0.195068,1.007568,0.013916,-3.540039,-18.196106,6.263732,1.0263714991678208
-0.192627,1.006592,0.010254,-3.02124,-19.126892,6.599426,1.0249086593979972
-0.188721,0.999023,0.009766,-2.952575,-20.614622,6.050109,1.016738877552147
-0.190918,0.993164,0.009277,-2.822876,-22.270201,5.340576,1.011390367933668
-0.196777,0.991943,0.011719,-2.479553,-23.582457,5.340576,1.0113404164469053
-0.204834,0.991699,0.013428,-2.372742,-24.055479,5.828857,1.0127211784795458
-0.212646,0.992676,0.012939,-2.357483,-23.78845,6.355285,1.0152789665963735
-0.215332,0.994629,0.009277,-2.738952,-23.597715,6.721496,1.0177135061469902
-0.217529,0.997559,0.009277,-2.937317,-24.078367,6.446838,1.0210430387848497
-0.21582,0.997314,0.005127,-2.761841,-25.268553,5.92041,1.0204115704582146
-0.218506,0.993408,0.003662,-2.098083,-26.466368,5.485534,1.017161607977808
-0.226563,0.98584,0.006592,-1.350403,-26.840208,5.073547,1.011560553319968
-0.22998,0.979736,-0.000977,-1.197815,-26.382444,4.692078,1.006366923455357
-0.231934,0.97998,-0.004395,-1.64032,-25.115965,4.196167,1.0070618137835432
-0.234131,0.980225,-0.004639,-2.281189,-23.818968,3.639221,1.0078094542655371
-0.235107,0.980957,-0.003418,-2.975464,-22.575377,3.105163,1.0087435848727861
-0.234619,0.983887,0.003418,-3.417969,-21.179197,2.616882,1.0114798004181793
-0.240967,0.993896,0.015137,-3.440857,-19.363403,3.097534,1.022801780734664
-0.244141,1.003906,0.016846,-2.693176,-17.127991,3.974914,1.0333033787000794
-0.244873,1.004395,0.018066,-1.327515,-14.625548,4.837036,1.0339721865263107
-0.245361,0.994873,0.01709,-0.1297,-12.237548,5.126953,1.024825045824896
-0.239014,0.984131,0.020508,0.198364,-10.520934,5.264282,1.0129472322984057
-0.238037,0.979248,0.019775,-0.938415,-9.208679,5.264282,1.0079579899470017
-0.234375,0.977051,0.022705,-1.983642,-7.667541,4.325867,1.005025280403931
-0.229736,0.97583,0.039307,-2.700805,-5.561828,4.066467,1.0032785549611833
-0.227295,0.980225,0.050537,-3.761291,-3.562927,4.867554,1.0075008962869463
-0.22168,0.990723,0.051758,-3.944397,-2.380371,6.057739,1.0165397068944233
-0.217285,0.994873,0.054688,-3.738403,-2.059937,7.362365,1.0197920546356498
-0.214844,0.994385,0.053955,-4.112244,-1.609802,8.056641,1.0187593506741421
-0.213135,0.984863,0.047363,-3.974914,0.228882,8.239746,1.0087739641579774
-0.208496,0.976074,0.054932,-3.509521,2.838135,8.872986,0.9996042017298646
-0.20166,0.963623,0.056396,-3.890991,5.104064,10.742187,0.9861118347048675
-0.199707,0.949219,0.067139,-5.706787,6.126403,12.397765,0.9723205444353216
-0.19751,0.942383,0.074219,-8.651733,5.218505,13.557433,0.9657144395472194
-0.193848,0.948975,0.081787,-11.421203,3.303528,14.61029,0.9720183697327948
-0.203125,0.972656,0.075195,-14.236449,3.349304,14.770507,0.9964806811905587
-0.207031,0.99707,0.063721,-16.212463,5.615234,14.633178,1.0203287635375178
-0.205566,1.014404,0.053467,-16.204834,10.131835,15.121459,1.0364031916493697
-0.189941,1.013184,0.050293,-14.457702,15.594481,14.785766,1.0320604571370808
-0.166748,0.998779,0.04541,-13.832091,19.287109,14.167785,1.01362046863952
-0.149902,0.984863,0.046143,-14.038085,19.691467,14.404296,0.9972737411673889
-0.147217,0.984863,0.050293,-14.991759,18.516541,15.434264,0.9970744002866587
-0.1521,1.005371,0.060547,-17.51709,18.39447,16.25061,1.018612387932721
-0.150146,1.03833,0.054443,-19.851685,19.66095,16.914368,1.0505413130691243
-0.140381,1.061035,0.049072,-18.638611,20.51544,18.058777,1.0714056923360076
-0.133789,1.059326,0.044678,-15.594481,20.256041,18.447876,1.0686754392616122
-0.125,1.046631,0.041992,-12.794494,19.714355,16.777039,1.0549051038956063
-0.109131,1.032715,0.046143,-11.177062,18.028259,14.503478,1.03948978967328
-0.102051,1.029785,0.047852,-10.009766,12.825011,14.083861,1.0359350205152829
-0.105713,1.034424,0.044189,-8.834839,4.318237,13.557433,1.0407501707259048
-0.114014,1.035889,0.034668,-7.453918,-6.210327,11.756896,1.042720999472534
-0.125977,1.029541,0.027832,-6.240844,-17.288208,9.025574,1.0375931261501303
-0.13916,1.020264,0.023193,-5.424499,-26.885984,5.950927,1.0299718688124448
-0.149414,1.005127,0.022705,-4.859924,-34.965515,2.5177,1.016425278389907
-0.154541,0.990479,0.023193,-4.28772,-42.655941,-0.495911,1.0027310134682181
-0.164551,0.986328,0.030273,-4.180908,-50.750729,-2.822876,1.0004181174459006
-0.176514,0.98999,0.033936,-4.570007,-58.692928,-4.425049,1.0061754540794563
-0.198975,0.995605,0.043457,-4.425049,-63.514706,-5.111694,1.016222848345283
-0.22998,1.003174,0.041504,-4.074097,-63.308712,-5.065917,1.0300346871304868
-0.24707,1.012939,0.029541,-3.311157,-57.952877,-5.294799,1.0430540126484342
-0.250732,1.01709,0.016113,-2.388,-48.988338,-5.989074,1.047663224845179
-0.241943,1.013916,0.012939,-1.808166,-38.780212,-6.813049,1.0424631830554019
-0.232178,1.011963,0.016846,-1.312256,-27.420042,-7.118225,1.0383927603604524
-0.223633,1.017822,0.027832,-0.854492,-15.327453,-5.958557,1.0424720440361936
-0.210449,1.0271,0.040283,0.091553,-3.684997,-3.372192,1.0492120432448342
-0.189209,1.037354,0.043701,0.976562,5.966186,-0.869751,1.0553734620493356
-0.171631,1.04541,0.039307,1.548767,13.687133,0.816345,1.0601340993053663
-0.15332,1.046875,0.028809,1.960754,18.234253,0.526428,1.0584348097573133
-0.134521,1.034424,0.02417,1.579285,20.019531,-1.609802,1.0434141556050502
-0.131836,1.009033,0.037842,0.511169,20.874022,-4.997253,1.0183124976887008
-0.136963,0.979736,0.05542,-1.098633,21.90399,-8.56781,0.990814245691391
-0.136719,0.958008,0.082275,-2.601623,23.223875,-11.001586,0.9712057396092756
-0.135742,0.938965,0.115479,-2.929687,24.665831,-10.795592,0.9557282883905865
-0.140137,0.926025,0.143799,-2.548218,25.726316,-8.590698,0.9475435777815182
-0.134766,0.914551,0.162842,-2.14386,26.786802,-5.630493,0.9386601745685176
-0.123291,0.902832,0.178223,-1.571655,26.748655,-1.579285,0.9284771018361195
-0.117432,0.904541,0.172607,-2.563476,25.329588,1.144409,0.9283199188609497
-0.121582,0.917969,0.174072,-6.217956,24.139402,2.456665,0.94220503547211
-0.113281,0.946045,0.14624,-10.673522,20.973204,2.159119,0.9639605098685319
-0.095459,0.962646,0.131836,-10.093688,6.729125,1.083374,0.9763096193795286
-0.096924,0.988281,0.095703,-13.999938,-5.218505,-2.243042,0.9976235066125898
-0.125732,1.036133,0.081299,-18.90564,-11.20758,-5.020141,1.0468952463900103
-0.133545,1.071289,0.067871,-22.163389,-11.96289,-7.621765,1.0817120047346243
-0.140625,1.086914,0.058105,-22.727964,-4.66156,-8.262634,1.0975124714762925
-0.147705,1.083496,0.069336,-21.514891,6.980896,-7.667541,1.095713388590739
-0.147461,1.075928,0.075928,-20.065308,21.133421,-5.653381,1.0886371612658645
-0.141602,1.06665,0.082764,-18.218994,35.53009,-1.907349,1.0791863734313922
-0.128418,1.053711,0.103516,-15.48767,48.149105,2.388,1.0665428338801026
-0.10498,1.043945,0.112793,-11.497497,57.304379,6.500244,1.055255525583259
-0.073975,1.031982,0.113037,-7.057189,62.110897,10.215758,1.0407864873824986
-0.047363,1.018555,0.115723,-3.631592,63.072201,13.587951,1.0262014200550496
-0.031982,1.003418,0.121582,-1.220703,60.9436,16.525269,1.0112629300889062
-0.033203,0.984619,0.136963,0.259399,56.678768,18.89801,0.9946536471249678
-0.045898,0.968018,0.14917,-0.099182,51.429745,20.500181,0.9805188236989639
-0.057373,0.963867,0.161865,-1.76239,44.868465,21.614073,0.9790462364173615
-0.071045,0.965332,0.175537,-4.371643,36.842346,21.659849,0.9837309086421957
-0.084473,0.967529,0.179688,-7.377624,26.252745,19.416809,0.9876921741686526
-0.09668,0.972656,0.176025,-9.681702,12.283324,14.709472,0.9931724509676051
-0.113281,0.970459,0.18042,-11.177062,-2.929687,10.086059,0.9935666218437493
-0.134766,0.9729,0.181396,-12.413024,-17.425537,6.317138,0.9987996763976248
-0.145996,0.985352,0.176758,-14.152526,-29.876707,3.135681,1.011670295345277
-0.159912,1.005127,0.163818,-16.075134,-40.603634,0.717163,1.0308678242126872
-0.176758,1.030518,0.142334,-16.647339,-49.392696,-2.128601,1.0552107402997755
-0.186768,1.046631,0.12207,-15.663146,-55.282589,-5.630493,1.0701494385762207
-0.201172,1.050781,0.105957,-13.72528,-56.594845,-8.491516,1.0750989579541037
-0.220215,1.057373,0.091309,-11.444091,-52.131649,-10.002136,1.083914037567094
-0.226318,1.063232,0.081299,-9.468079,-42.213436,-10.353087,1.090087909459141
-0.216797,1.068115,0.078125,-7.713317,-28.099058,-9.58252,1.0926912226512118
-0.199463,1.069336,0.084229,-5.813598,-11.047362,-7.438659,1.0910359726910932
-0.179688,1.066406,0.095947,-2.868652,7.408142,-3.372192,1.0856865850644928
-0.153809,1.060303,0.104736,1.350403,24.848936,2.563476,1.0765079145022576
-0.122803,1.043945,0.109863,5.294799,39.344788,9.178162,1.0568687802196637
-0.098633,1.027344,0.109375,7.705688,49.697872,14.625548,1.0378473171184672
-0.074463,1.018311,0.10498,9.162903,55.160519,17.623901,1.026412602947762
-0.057617,1.002686,0.107666,9.95636,56.549068,19.744873,1.0100945009458273
-0.053223,0.982178,0.113281,10.009766,54.595943,20.996092,0.9901206473829338
-0.057617,0.963135,0.12207,9.269714,49.880978,22.003172,0.9725481128530351
-0.066406,0.956299,0.119629,8.033752,42.945858,22.743223,0.9660375934082482
-0.068359,0.955078,0.121826,6.469726,34.683228,22.254942,0.9652401324235332
-0.075684,0.959229,0.126953,4.493713,25.405882,20.256041,0.9705490232368481
-0.086426,0.966553,0.120117,3.364563,14.85443,16.921997,0.9778150382224646
-0.098389,0.968506,0.117432,3.684997,4.264832,13.366698,0.9805480824421615
-0.117432,0.958984,0.113037,4.135132,-4.753113,10.2005,0.9727373490562599
-0.12915,0.952881,0.108887,2.960205,-12.313842,6.530761,0.9677387568088818
-0.140625,0.959229,0.102295,0.518799,-18.440247,1.815796,0.9748640582619712
-0.151611,0.972168,0.099609,-1.197815,-23.16284,-2.670288,0.9889481626586907
-0.168213,0.988525,0.099365,-1.51062,-25.970457,-6.004333,1.0076461145754496
-0.1875,1.002686,0.090332,-0.541687,-25.466917,-7.705688,1.024058267297325
-0.19873,1.017822,0.083496,1.281738,-22.018431,-8.049011,1.0403974330033692
-0.195801,1.029541,0.07251,2.952575,-17.158508,-8.811951,1.0505000725283173
-0.189941,1.038574,0.062256,4.768372,-12.741088,-10.177611,1.05763384329975
-0.186279,1.047119,0.051758,7.041931,-8.476257,-11.680602,1.0648178043994192
-0.185791,1.054443,0.052979,9.963989,-3.868103,-12.290954,1.0719958537097987
-0.183105,1.05957,0.058838,12.596129,1.876831,-12.115478,1.0768834366675903
-0.174072,1.071289,0.068115,15.724181,7.614135,-11.054992,1.087474521968216
-0.156006,1.083984,0.071533,19.073486,11.642455,-9.986877,1.0974862889261987
-0.132568,1.082764,0.072998,22.727964,12.443542,-10.299682,1.0932890113432954
-0.118652,1.06958,0.075439,26.756285,10.215758,-11.940001,1.0787820522352973
-0.11377,1.047363,0.075684,30.548094,5.79071,-13.85498,1.056239051789414
-0.118164,1.021484,0.077393,33.576965,0.579834,-15.159606,1.0312041357563497
-0.127686,0.999512,0.091797,34.889221,-3.936767,-15.647887,1.0118076111341523
-0.13208,0.988525,0.108643,34.202576,-7.293701,-16.029358,1.0032099000079695
-0.13501,0.983643,0.114746,33.14209,-9.376526,-16.88385,0.9994738095943285
-0.135254,0.97998,0.123047,32.173157,-10.398864,-17.936707,0.9968926768338706
-0.13916,0.974121,0.130127,31.211851,-10.650634,-18.409729,0.9925775860707313
-0.141357,0.966553,0.131836,30.685423,-9.880066,-18.608093,0.9856912468689168
-0.143311,0.955322,0.133545,30.227659,-7.270813,-18.363953,0.9751986635706593
-0.145508,0.946777,0.141357,30.067442,-3.295898,-17.333984,0.9682670433521942
-0.137207,0.941406,0.146484,29.563902,0.656128,-15.495299,0.9625635459235925
-0.12793,0.941895,0.149902,28.335569,5.256652,-12.725829,0.9622904372012642
-0.131592,0.943848,0.139404,25.688169,8.81958,-11.131286,0.9631193990279711
-0.119141,0.945557,0.130615,22.90344,10.971068,-11.421203,0.96194225208949
-0.099365,0.943115,0.130127,20.225523,11.634826,-12.199401,0.9572211565667571
-0.089844,0.945557,0.123779,16.807556,10.406493,-12.512206,0.9578471827102693
-0.091797,0.955566,0.109863,12.519835,8.354187,-12.794494,0.9662313120231615
-0.094971,0.968506,0.096924,8.216858,5.882263,-13.389586,0.9779660651847792
-0.094482,0.986572,0.085205,4.920959,2.815246,-13.587951,0.9947417009118498
-0.088867,1.00293,0.075439,3.417969,-1.281738,-12.649535,1.009681618783862
-0.08667,1.016357,0.070801,3.211975,-5.874633,-10.406493,1.0224998884841014
-0.080078,1.029297,0.061523,3.662109,-10.215758,-8.743286,1.0342387924565581
-0.072754,1.034912,0.052979,3.921509,-14.35089,-8.68988,1.0388179661042642
-0.072266,1.036133,0.041504,3.532409,-19.638062,-9.750366,1.0394789802882018
-0.083008,1.039307,0.034424,2.922058,-25.421141,-10.56671,1.043184729608807
-0.099365,1.040771,0.034912,2.929687,-30.578611,-10.055541,1.0460862896577892
-0.120361,1.039551,0.042969,3.852844,-33.912659,-8.277893,1.0473773851305936
-0.141113,1.040039,0.048096,5.378723,-35.110474,-5.592346,1.0506698936897354
-0.160156,1.040283,0.054932,7.064819,-35.652161,-2.388,1.0539716263016763
-0.180176,1.033691,0.060547,9.33075,-36.865234,0.190735,1.0510216047570096
-0.198975,1.016602,0.064697,12.176513,-38.337708,1.174927,1.0379096197829558
-0.215088,0.998047,0.059082,14.648437,-39.077759,0.274658,1.022668736530554
-0.229248,0.974609,0.057129,16.334534,-38.757324,-1.296997,1.0028365126111034
-0.244141,0.95874,0.057373,16.464233,-36.193848,-3.288269,0.9909989286623876
-0.253174,0.947021,0.058838,15.777587,-32.188416,-5.935668,0.9820426462028011
-0.253174,0.941162,0.058838,14.007567,-29.655455,-10.421752,0.9763938215515295
-0.253906,0.92334,0.066406,10.864257,-31.700132,-14.770507,0.9599139384715695
-0.256836,0.921631,0.063965,6.584167,-36.140442,-17.959595,0.958884744003157
-0.277832,0.926025,0.065674,4.165649,-38.070679,-19.882202,0.9690335366358587
-0.282959,0.929932,0.064453,2.029419,-39.0625,-21.77429,0.9741629789280641
-0.276855,0.931152,0.059082,0.541687,-39.466858,-23.223875,0.97323348732614
-0.2854,0.92749,0.052979,-0.915527,-38.261414,-24.070738,0.9718526815011626
-0.29248,0.929932,0.051514,-3.227234,-34.156799,-24.475096,0.9762027285456643
-0.291992,0.940186,0.046631,-7.118225,-27.809141,-24.597166,0.9855878919817349
-0.286621,0.965576,0.037354,-11.474608,-19.981384,-24.589537,1.007910675969354
-0.28418,0.989502,0.038818,-13.031005,-11.062621,-23.78845,1.0302326521363998
-0.283691,1.010986,0.042969,-13.084411,-0.930786,-21.621702,1.0509137027548932
-0.282471,1.031738,0.046387,-12.062072,9.963989,-18.615723,1.0707123424403027
-0.281494,1.051758,0.045898,-10.887145,23.132322,-14.442443,1.0897432674735825
-0.266113,1.078369,0.039551,-9.857178,39.466858,-9.254456,1.11142256164386
-0.229492,1.099854,0.039795,-8.171082,54.542538,-3.547668,1.1242459879425855
-0.188232,1.11377,0.03418,-5.203247,63.270565,2.258301,1.130081046263497
-0.159912,1.117188,0.031006,-0.328064,64.89563,7.392883,1.1290005523134168
-0.147705,1.103516,0.026367,4.432678,60.523983,8.94928,1.1136694069471424
-0.130859,1.08667,0.021484,7.942199,52.360531,7.614135,1.094731624206134
-0.120117,1.068848,0.022461,10.871886,41.023251,7.316589,1.075810688417809
-0.125732,1.040039,0.022949,13.420104,29.144285,7.247924,1.047862736214052
-0.138672,1.002686,0.032227,15.800475,19.996643,5.889892,1.012742671022111
-0.150391,0.967041,0.047119,17.173767,14.945983,4.966736,0.9797989328035626
-0.149902,0.939697,0.055176,16.578674,11.817931,4.730225,0.9531765064189318
-0.14624,0.922119,0.060547,15.388488,8.300781,4.150391,0.9356043645526672
-0.14624,0.907959,0.070068,13.298034,3.417969,1.991272,0.9223259770303556
-0.14209,0.900879,0.072266,10.604857,-3.921509,-0.801086,0.9148742621240363
-0.137695,0.90625,0.068604,7.652282,-13.893126,-2.39563,0.9192146018971848
-0.150391,0.922607,0.065674,4.173279,-23.567198,-3.990173,0.9370881514596159
-0.168701,0.947266,0.059082,0.137329,-30.822752,-5.760192,0.9639831870323258
-0.184326,0.97168,0.050781,-3.074646,-35.362244,-6.103515,0.9903114695069426
-0.206543,0.983154,0.041504,-4.524231,-35.125732,-5.477905,1.0054722177071826
-0.210938,0.990723,0.040039,-6.187438,-32.608032,-5.615234,1.01372088076255
-0.195557,1.005615,0.025391,-8.621216,-29.96826,-5.966186,1.0247676670128698
-0.170898,1.020264,0.001953,-9.887695,-32.485962,-5.645751,1.0344798549556198
-0.151367,1.031494,-0.028076,-9.567261,-41.877743,-5.104064,1.0429190296954984
-0.143799,1.048584,-0.057129,-8.758545,-55.442806,-6.088256,1.0599388096008184
-0.142578,1.067627,-0.081543,-7.80487,-70.007324,-8.308411,1.080187556890932
-0.148682,1.088135,-0.098633,-5.058288,-83.366386,-10.726928,1.1026661253697785
-0.165283,1.098633,-0.102051,-0.007629,-93.261711,-12.771605,1.1156734940738708
-0.202393,1.089111,-0.089111,6.79779,-98.335258,-13.557433,1.1113354431003268
-0.235596,1.064697,-0.068604,13.313293,-99.601738,-13.153075,1.0926077456438792
-0.26709,1.03418,-0.04126,18.013,-98.228447,-12.496947,1.0689095977209673
-0.299072,1.003662,-0.013428,20.812986,-94.253532,-11.642455,1.0473594333427279
-0.331787,0.984619,0.005859,21.812437,-86.769096,-9.605408,1.0390339341960877
-0.35791,0.974365,0.023926,21.934507,-75.35553,-6.454467,1.0382962846899724
-0.377197,0.968506,0.040039,22.048948,-60.714718,-2.731323,1.040136803678247
-0.394775,0.95459,0.051025,21.537779,-43.189999,0.808716,1.034259599592868
-0.398926,0.940186,0.05249,19.607544,-24.208067,3.410339,1.022666547889389
-0.390869,0.927734,0.049072,15.998839,-6.347656,4.974365,1.00790724330218
-0.369873,0.921387,0.050049,11.32965,7.400512,6.263732,0.9941151554518218
-0.348633,0.921387,0.046875,6.858825,16.120911,7.67517,0.9862536378046978
-0.333496,0.929932,0.040283,2.5177,20.759581,8.033752,0.9887445710237807
-0.32251,0.945313,0.031494,-1.411438,22.209166,6.591796,0.9993103822661906
-0.313721,0.966309,0.016846,-4.547119,22.102354,4.074097,1.0160992751882072
-0.309082,0.981445,-0.000977,-6.004333,23.78845,1.556396,1.0289640058223612
-0.296631,0.985352,-0.015869,-5.950927,28.182981,0.091553,1.0291551579941676
-0.274902,0.98877,-0.032715,-5.378723,33.073425,-0.442505,1.0267947670927233
-0.253418,0.990723,-0.045654,-4.486084,37.055969,-0.480652,1.0236391127584956
-0.233643,0.996338,-0.059326,-3.799438,38.619995,-0.38147,1.025084404314591
-0.212158,1.005615,-0.068115,-3.044128,37.368774,-0.434875,1.0300059215431725
-0.196045,1.013916,-0.07251,-1.914978,33.966064,-1.083374,1.0352376525131803
-0.1875,1.021973,-0.068359,0.038147,28.854368,-2.281189,1.0412771079832688
-0.189209,1.02832,-0.058838,2.853393,22.811888,-2.937317,1.047236352656362
-0.198242,1.0271,-0.046631,6.301879,16.456604,-2.250671,1.0470953875960871
-0.20874,1.017578,-0.036133,9.925842,10.56671,-0.946045,1.0393954816974145
-0.223145,1.002441,-0.027832,12.428283,6.233215,0.083923,1.0273540138287287
-0.239258,0.993408,-0.021729,13.641356,4.112244,0.411987,1.0220450060877946
-0.249756,0.984619,-0.016357,13.442992,4.226685,0.396728,1.0159331602748283
-0.262451,0.974854,-0.006592,12.519835,6.370544,0.511169,1.009586203937534
-0.270752,0.96875,-0.001465,11.116027,9.750366,0.778198,1.0058754168529023
-0.2771,0.962891,0.003906,9.223938,13.336181,0.991821,1.0019774172689722
-0.279053,0.962158,0.009033,7.324218,16.021729,1.022339,1.001848386165292
-0.277832,0.960449,0.01001,5.638122,17.822266,0.63324,0.9998765433417267
-0.277832,0.959961,0.006348,4.165649,18.753052,0.091553,0.9993778258741786
-0.276855,0.957764,0.004395,2.777099,18.890381,-0.320435,0.9969853994648066
-0.273193,0.959473,-0.00415,1.312256,18.287659,-0.831604,0.9976171988683836
-0.268555,0.964355,-0.011719,0.144958,16.998291,-1.861572,1.0011192181808317
-0.266113,0.971436,-0.017578,-0.63324,15.907287,-3.593445,1.0073792815762095
-0.267334,0.97583,-0.023438,-0.938415,15.968322,-5.28717,1.0120578028452722
-0.268311,0.97998,-0.030029,-1.014709,16.76178,-6.401062,1.01649069546258
-0.265869,0.983398,-0.032959,-0.732422,17.776489,-6.91986,1.0192370907919315
-0.265381,0.987305,-0.031982,-0.244141,18.936157,-7.240295,1.0228494935766455
-0.264648,0.991699,-0.0354,0.343323,20.729063,-7.545471,1.0270144256557452
-0.263672,0.996094,-0.033691,0.862122,23.101805,-7.949829,1.0309516302431458
-0.260742,0.997314,-0.035156,1.419067,26.084898,-8.277893,1.0314347044267997
-0.255127,0.99585,-0.03418,2.059937,29.08325,-8.31604,1.028579253645046
-0.246582,0.993896,-0.03418,3.097534,30.96771,-8.132935,1.024597586343048
-0.238037,0.987549,-0.028564,4.371643,31.249998,-7.987976,1.016233508041336
-0.238037,0.981201,-0.021729,5.371093,30.34973,-7.8125,1.0098956209485217
-0.23584,0.986328,-0.016357,5.928039,28.549192,-7.461547,1.0142637628511628
-0.237549,0.990234,-0.01001,6.584167,26.046751,-7.324218,1.0183776815391232
-0.234619,0.990723,-0.013916,7.324218,23.193357,-7.17163,1.0182199138427808
-0.242188,0.989258,-0.013916,7.789611,21.224974,-7.156372,1.018567657528944
-0.242676,0.982178,-0.010742,7.637023,19.65332,-7.568359,1.0117710488168754
-0.241699,0.980957,-0.012695,7.156372,18.249512,-7.820129,1.0103742897931438
-0.238525,0.979248,-0.011719,6.790161,16.227722,-7.514953,1.0079474966931563
-0.240234,0.976318,-0.009277,6.278991,13.46588,-7.972717,1.0054826078102992
-0.243164,0.976563,-0.013428,5.027771,11.734008,-8.781433,1.0064712291213296
-0.24292,0.984375,-0.016113,4.318237,10.57434,-8.94928,1.0140334786356908
-0.247314,0.984131,-0.014893,3.822326,9.69696,-9.07135,1.0148398106134782
-0.240234,0.984131,-0.022217,2.677917,9.376526,-9.780884,1.0132718268095684
-0.230713,0.982178,-0.026367,1.991272,7.873535,-9.567261,1.0092558301748868
-0.227051,0.98584,-0.032959,1.586914,4.669189,-9.033203,1.0121852389172648
-0.229492,0.983887,-0.037109,1.625061,0.923157,-9.147644,1.0109783799439036
-0.22998,0.983887,-0.043213,1.792908,-2.578735,-9.69696,1.0113316926399567
-0.233154,0.983154,-0.044922,1.930237,-5.41687,-9.910583,1.011420071738741
-0.237793,0.982422,-0.045654,1.861572,-7.972717,-9.765625,1.011821518178478
-0.244385,0.98584,-0.04834,1.800537,-9.788513,-9.719849,1.0168290364781092
-0.248779,0.989746,-0.051514,2.037048,-11.192321,-9.361267,1.0218325829376358
-0.250977,0.990967,-0.048584,2.754211,-12.428283,-8.720398,1.0234087427191543
-0.259033,0.989502,-0.049561,3.387451,-13.687133,-8.125305,1.0240452118017054
-0.269287,0.988037,-0.050293,3.952026,-14.656066,-7.5531,1.025310678568696
-0.277832,0.987305,-0.053223,4.364014,-15.022277,-7.43103,1.0270318743729427
-0.285645,0.987549,-0.055908,4.562378,-14.60266,-7.217407,1.029549317852234
-0.287354,0.987061,-0.053467,4.814148,-13.938903,-6.851196,1.0294272480976983
-0.293457,0.986328,-0.051514,5.065917,-13.107299,-6.256103,1.0303463624573048
-0.30249,0.983398,-0.052246,5.264282,-11.901855,-5.821228,1.0301948704104482
-0.306641,0.981445,-0.051514,5.218505,-10.368346,-5.737304,1.0295225510410153
-0.307617,0.982178,-0.048828,5.043029,-8.331299,-5.874633,1.0303814904961173
-0.30957,0.981689,-0.051758,4.91333,-6.004333,-5.889892,1.0306433758507354
-0.311279,0.981689,-0.049316,4.974365,-3.471374,-5.676269,1.03103830017027
-0.310547,0.980957,-0.049561,4.951477,-0.75531,-5.615234,1.0301322088834035
-0.312012,0.977783,-0.048584,4.981995,2.120972,-5.706787,1.027507415199034
-0.310791,0.97876,-0.049561,4.737854,5.142211,-5.638122,1.0281140384227812
-0.309326,0.976074,-0.049805,4.28772,7.713317,-5.561828,1.0251261218879362
-0.305664,0.974609,-0.048584,3.959656,9.651184,-5.676269,1.0225720457909064
-0.301514,0.974854,-0.049072,3.40271,11.344909,-5.867004,1.0215963364734624
-0.30127,0.975586,-0.049072,2.838135,12.992858,-5.744934,1.022222929443475
-0.298828,0.980225,-0.049316,2.662658,14.282226,-5.432128,1.0259489714722656
-0.296631,0.981689,-0.046631,2.853393,15.449523,-5.256652,1.026585453356417
-0.293213,0.984863,-0.046143,3.097534,16.334534,-4.852295,1.028619545112283
-0.288574,0.981445,-0.045898,3.334045,16.639709,-4.684448,1.0240194665654554
-0.2854,0.97168,-0.047607,3.486633,16.792297,-4.875183,1.0138449629252986
-0.282959,0.966797,-0.043457,3.372192,16.830444,-4.867554,1.0082910025082046
-0.27832,0.967773,-0.041504,2.616882,17.150879,-4.554749,1.0078537512680101
-0.276123,0.975342,-0.037598,2.166748,16.281128,-4.28009,1.0143714988587762
-0.270996,0.976807,-0.036865,2.166748,14.625548,-3.883362,1.0143716160707574
-0.276367,0.976318,-0.041992,2.26593,13.229369,-3.715515,1.015548563032315
-0.276367,0.977051,-0.047852,2.082825,12.557982,-3.585815,1.0165122671143718
-0.272217,0.978271,-0.050293,1.594543,12.33673,-3.341675,1.0166836432140531
-0.269287,0.981689,-0.05249,0.762939,11.95526,-2.754211,1.019305636789084
-0.268311,0.984619,-0.051514,0.068665,11.100768,-2.212524,1.0218214423655436
-0.264893,0.984863,-0.054932,0.114441,10.345458,-1.686096,1.021342721539641
-0.258789,0.981689,-0.058838,0.083923,8.834839,-1.083374,1.0169301595911098
-0.259033,0.982666,-0.061279,0.282288,6.439209,-0.335693,1.0180794067684504
-0.261475,0.980469,-0.064941,0.465393,3.463745,-0.228882,1.016811668435704
-0.265381,0.980957,-0.070557,0.511169,0.648498,-0.541687,1.018666776359669
-0.269531,0.982178,-0.069336,0.770569,-1.533508,-0.694275,1.0208467390068894
-0.27002,0.980957,-0.071045,0.961304,-3.417969,-0.679016,1.0199190302538725
-0.272705,0.977783,-0.069824,1.518249,-4.91333,-0.75531,1.0174984044655795
-0.274658,0.976563,-0.067139,2.075195,-6.118774,-0.869751,1.0166710162358323
-0.278076,0.974121,-0.06665,2.01416,-7.446289,-0.732422,1.0152242150958575
-0.281006,0.978027,-0.067871,1.747131,-8.850098,-0.648498,1.019856684738596
-0.284424,0.983398,-0.068604,1.647949,-10.269164,-0.587463,1.0259995843059586
-0.292236,0.981689,-0.067627,1.495361,-11.222838,-0.480652,1.0264933431571779
-0.296143,0.981445,-0.069336,1.426697,-11.428832,-0.328064,1.0274932823965321
-0.300049,0.976074,-0.067139,1.182556,-10.887145,-0.236511,1.0233559992485508
-0.303223,0.977783,-0.063965,0.87738,-9.841919,-0.068665,1.0257169707297427
-0.304932,0.976807,-0.0625,0.473022,-8.811951,0.274658,1.0252032432025369
-0.307617,0.976563,-0.061768,0.007629,-7.873535,0.617981,1.0257284228693284
-0.310059,0.977783,-0.061523,-0.068665,-7.186889,0.923157,1.027609487158911
-0.310303,0.973389,-0.063721,-0.068665,-6.652832,1.014709,1.0236378573357865
-0.313965,0.97168,-0.062744,-0.091553,-5.462646,0.961304,1.0230703070468812
-0.320068,0.969482,-0.065674,-0.328064,-3.723144,0.862122,1.023060089742533
-0.319824,0.963867,-0.065918,-0.900268,-1.548767,0.770569,1.017679796099441
-0.31958,0.961426,-0.061279,-1.312256,0.869751,0.686645,1.0150007121756122
-0.315918,0.957275,-0.059082,-1.686096,2.998352,0.75531,1.0097872504012912
-0.309326,0.959717,-0.054932,-2.479553,4.455566,0.785828,1.0098300941193028
-0.307373,0.963623,-0.057861,-3.341675,5.546569,0.724792,1.0131117127834424
-0.308838,0.969482,-0.058105,-4.03595,6.591796,0.793457,1.0191429976176063
-0.309082,0.974365,-0.062012,-4.371643,7.591247,1.144409,1.0240919509951243
-0.305176,0.975342,-0.063232,-4.371643,8.522034,1.51062,1.0239251407031669
-0.301514,0.978027,-0.064209,-4.737854,9.368896,2.01416,1.0254610185696968
-0.29541,0.979736,-0.063477,-5.393981,9.552002,2.487183,1.025270221612332
-0.294678,0.983643,-0.063232,-5.462646,8.987427,2.937317,1.028779354845829
-0.299072,0.983398,-0.06543,-5.149841,8.163452,3.120422,1.0299498883382627
-0.299316,0.980225,-0.067383,-4.53186,7.591247,2.967834,1.027118097966344
-0.298828,0.974609,-0.06665,-3.822326,7.614135,2.601623,1.0215689398983312
-0.297607,0.972656,-0.06543,-3.608703,7.743835,2.326965,1.0192696923214188
-0.297119,0.974365,-0.065674,-3.837585,8.262634,1.815796,1.020774180542396
-0.293457,0.977783,-0.068604,-3.959656,8.865356,1.281738,1.0231730619763209
-0.290039,0.982178,-0.071533,-3.845215,9.002686,0.770569,1.0266027543767842
-0.287109,0.985352,-0.071045,-3.463745,8.178711,0.076294,1.0287844933755563
-0.281982,0.982666,-0.066162,-2.593994,7.034301,-0.595093,1.0244626523812375
-0.276611,0.983887,-0.063965,-2.02179,5.851745,-0.930786,1.0240306613158612
-0.274902,0.984619,-0.063965,-1.464844,5.233764,-1.060486,1.0242739897068558
-0.268066,0.982422,-0.058105,-1.213074,3.89862,-1.38855,1.0199943908987932
-0.268066,0.981201,-0.057861,-0.640869,2.182007,-1.487732,1.0188045337934064
-0.271729,0.979248,-0.055176,0.12207,1.213074,-1.525879,1.0177463760294114
-0.270508,0.977783,-0.05542,0.152588,0.114441,-1.586914,1.0160243843299235
-0.269531,0.972412,-0.055176,0.419617,-0.450134,-1.38092,1.0105822325179679
-0.270264,0.969727,-0.053223,0.221252,-1.564026,-1.098633,1.0080901606275106
-0.272705,0.969727,-0.050781,-0.160217,-2.090454,-0.900268,1.0086214262621036
-0.273926,0.968994,-0.046875,-0.480652,-1.754761,-0.961304,1.0080585752509623
-0.273193,0.970703,-0.045654,-0.984192,-1.342773,-0.808716,1.0094468867523443
-0.272949,0.971191,-0.045166,-1.037598,-1.213074,-0.617981,1.0098282441276833
-0.269043,0.969482,-0.044678,-1.327515,-1.525879,-0.411987,1.0071125100290432
-0.267334,0.968994,-0.042969,-1.785278,-2.39563,-0.358582,1.00611290348201
-0.268311,0.969971,-0.04248,-2.13623,-3.761291,-0.068665,1.0072929484325799
-0.272461,0.969238,-0.04834,-2.571106,-4.79126,-0.083923,1.0079653033537415
-0.275391,0.971191,-0.052246,-3.059387,-5.310058,-0.366211,1.0108322342891525
-0.27832,0.976318,-0.057617,-3.311157,-5.41687,-0.297546,1.0168473721326126
-0.279053,0.977783,-0.054932,-3.250122,-5.187988,0.137329,1.0183062881677596
-0.283936,0.977539,-0.056885,-3.219604,-5.050659,0.480652,1.019528347738306
-0.286133,0.978027,-0.05835,-3.410339,-5.104064,0.88501,1.0206927201258957
-0.287598,0.98291,-0.058594,-3.044128,-5.393981,0.892639,1.0257962441635278
-0.291504,0.987549,-0.060791,-2.433777,-5.516052,0.831604,1.0314665070170723
-0.29541,0.982178,-0.05957,-1.602173,-5.218505,0.602722,1.027370077763607
-0.297607,0.97998,-0.059814,-0.961304,-4.745483,0.228882,1.0259183405344696
-0.299561,0.978027,-0.057129,-0.434875,-4.325867,0.0,1.0244692909458046
-0.302979,0.976074,-0.05835,-0.061035,-4.264832,-0.366211,1.023680345819436
-0.302979,0.976563,-0.059082,0.083923,-4.173279,-1.13678,1.0241885813335354
-0.303467,0.974365,-0.055176,0.183105,-3.852844,-1.899719,1.0220194539684655
-0.30835,0.97583,-0.054443,0.343323,-3.097534,-2.326965,1.0248355729818321
-0.307129,0.978027,-0.053223,0.556946,-1.998901,-2.632141,1.0264977949800964
-0.303223,0.976318,-0.050781,0.839233,-0.991821,-3.005981,1.0235818163752226
-0.30127,0.972412,-0.050537,1.052856,-0.358582,-3.120422,1.019265764662485
-0.295898,0.97168,-0.048584,0.907898,-0.488281,-3.295898,1.0168962847114744
-0.295166,0.975098,-0.051758,0.63324,-1.12915,-3.601074,1.0201068413279073
-0.294678,0.979248,-0.054688,0.450134,-1.548767,-3.822326,1.024086200733122
-0.294189,0.977539,-0.052734,0.740051,-1.754761,-3.875732,1.022208657270129
-0.290283,0.976318,-0.050293,1.075745,-1.724243,-3.875732,1.0197992170334316
-0.287842,0.970459,-0.05127,1.327515,-1.876831,-3.631592,1.013544424554247
-0.287109,0.967041,-0.047363,1.220703,-1.914978,-3.540039,1.0098728273059931
-0.286865,0.971191,-0.041992,0.923157,-2.220154,-3.27301,1.0135417183175046
-0.287354,0.976318,-0.042969,0.778198,-2.487183,-2.906799,1.018634131276289
-0.291016,0.977051,-0.041748,0.88501,-2.357483,-2.441406,1.0203243917308848
-0.294189,0.978271,-0.046143,0.762939,-1.411438,-2.334595,1.0225900907064374
-0.290527,0.97876,-0.04541,0.396728,-0.190735,-1.930237,1.0219780542795427
-0.290771,0.978027,-0.043945,-0.236511,0.930786,-1.319885,1.0212814255605553
-0.292969,0.978027,-0.040283,-0.778198,1.647949,-0.709534,1.0217584684156036
-0.291016,0.979492,-0.039551,-1.014709,1.88446,-0.114441,1.0225747757112924
-0.293457,0.980225,-0.037109,-0.801086,1.937866,0.167847,1.0238823855087067
-0.295898,0.981445,-0.039551,-0.518799,1.976013,0.267029,1.0258431634660339
-0.295166,0.982178,-0.039307,-0.328064,2.006531,0.083923,1.0263243305549177
-0.294922,0.980713,-0.03833,-0.022888,1.724243,-0.12207,1.0248151849738565
-0.293945,0.980225,-0.039063,0.022888,1.083374,-0.488281,1.0240950305606409
-0.29248,0.980225,-0.040527,-0.045776,-0.213623,-1.052856,1.023732405833673
-0.292236,0.982666,-0.040771,-0.061035,-1.548767,-1.747131,1.0260100495087756
-0.293457,0.983154,-0.039551,0.099182,-2.632141,-2.5177,1.026778009194782
-0.292236,0.981445,-0.04248,0.205994,-3.250122,-3.196716,1.0249101024582594
-0.290283,0.981934,-0.041016,0.305176,-3.631592,-3.547668,1.02476383264682
-0.285645,0.985596,-0.045654,0.434875,-3.746032,-3.730774,1.0271693282789358
-0.282471,0.98291,-0.046387,0.88501,-4.112244,-3.662109,1.0237449329349573
-0.276123,0.980225,-0.049805,0.976562,-5.050659,-3.562927,1.0195908492032477
-0.272705,0.977295,-0.051758,0.801086,-5.897521,-3.372192,1.0159490265825348
-0.271484,0.979492,-0.053223,0.63324,-6.843566,-2.944946,1.017811784196371
-0.271484,0.97998,-0.051758,0.572205,-7.705688,-2.212524,1.018205899226674
-0.274414,0.983398,-0.048584,0.480652,-8.415222,-1.556396,1.0221228276758132
-0.276367,0.985596,-0.046631,0.694275,-9.109497,-0.823975,1.0246719690056911
-0.279053,0.984375,-0.044434,1.190186,-9.872437,0.053406,1.0241284576604637
-0.284668,0.985352,-0.043945,1.472473,-10.398864,0.976562,1.0265893030579465
-0.290283,0.987061,-0.044434,1.708984,-10.429381,1.815796,1.0298194104628247
-0.297119,0.987793,-0.041992,1.831055,-9.925842,2.403259,1.0323652643681887
-0.299805,0.984619,-0.041992,1.976013,-9.20105,2.593994,1.0301072474504778
-0.30127,0.981445,-0.039307,1.869202,-8.415222,2.426147,1.0273961948411139
-0.302734,0.979736,-0.037354,1.647949,-7.949829,2.296448,1.0261217402277374
-0.306396,0.980469,-0.036621,1.396179,-7.499694,2.212524,1.0278808619767177
-0.30957,0.976563,-0.036621,1.159668,-6.912231,2.159119,1.0251097382768344
-0.306152,0.972412,-0.037109,1.182556,-6.195068,1.930237,1.0201427462512294
-0.307129,0.969727,-0.035645,0.915527,-5.645751,1.831055,1.0178257430400353
-0.304443,0.971191,-0.034424,0.114441,-5.599975,1.739502,1.018372481219912
-0.304443,0.979248,-0.034668,-0.328064,-5.783081,1.678467,1.0260672765355106
-0.307129,0.98291,-0.034424,-0.068665,-5.851745,1.38092,1.0303520284431917
-0.30542,0.97998,-0.036621,0.473022,-5.088806,1.045227,1.0271237873017058
-0.303467,0.97583,-0.037109,0.854492,-4.043579,0.816345,1.0226013333014974
-0.29834,0.969727,-0.039307,0.854492,-3.196716,0.663757,1.0153434149971132
-0.294434,0.969238,-0.036377,0.350952,-2.708435,0.534058,1.0136256543364517
-0.294678,0.975098,-0.032471,-0.328064,-2.532959,0.450134,1.01916907288683
-0.291992,0.979492,-0.034424,-0.427246,-2.624511,0.694275,1.0226675500396012
-0.288818,0.976807,-0.0354,0.114441,-2.746582,1.083374,1.0192256435024583
-0.283203,0.974121,-0.036377,0.579834,-3.128052,1.190186,1.015105387621896
-0.280273,0.969727,-0.035645,0.534058,-3.845215,1.304626,1.0100465212469176
-0.276855,0.969238,-0.037598,0.022888,-4.516602,1.457214,1.008704417197129
-0.2771,0.97168,-0.036377,-0.526428,-5.378723,1.76239,1.0110735475369732
-0.280029,0.973145,-0.03833,-1.113892,-5.958557,2.037048,1.013359077901807
-0.283203,0.976563,-0.038818,-1.396179,-6.072998,2.365112,1.0175392224882538
-0.28125,0.97998,-0.039307,-1.411438,-6.134033,2.845764,1.020297703196964
-0.281006,0.97998,-0.040283,-1.327515,-6.248474,3.448486,1.0202685394174418
-0.281494,0.981934,-0.04126,-1.144409,-6.454467,3.753662,1.0223187565490521
-0.281494,0.981934,-0.039307,-1.251221,-6.584167,4.104614,1.02224179754156
-0.283447,0.98291,-0.035156,-1.319885,-6.851196,4.341125,1.0235673960443445
-0.28418,0.985352,-0.03418,-1.251221,-7.324218,4.432678,1.026082408339603
-0.289307,0.985107,-0.033691,-0.701904,-7.774353,4.371643,1.0272630749613265
-0.29126,0.982178,-0.027832,-0.305176,-8.140564,3.883362,1.0248320016022139
-0.291016,0.983887,-0.026611,0.022888,-8.31604,3.417969,1.0263683969930095
-0.291992,0.980469,-0.025879,0.305176,-8.232117,2.929687,1.0233516065683388
-0.291504,0.974609,-0.018066,0.450134,-7.789611,2.601623,1.017429931372672
-0.293213,0.973633,-0.016602,0.366211,-7.293701,2.540588,1.016961507856615
-0.293213,0.97168,-0.017578,-0.099182,-6.79779,2.685547,1.0151083054792724
-0.290771,0.974365,-0.017578,-0.732422,-6.462097,2.967834,1.016977833460494
-0.288818,0.975098,-0.017578,-1.434326,-6.584167,3.349304,1.0171238532312572
-0.289063,0.974121,-0.019287,-1.876831,-7.125854,3.570556,1.016287916379507
-0.283691,0.976074,-0.016357,-2.067566,-7.743835,3.349304,1.016596571116586
-0.282227,0.974854,-0.016357,-2.052307,-8.018494,2.746582,1.015017217732783
-0.281982,0.974121,-0.014893,-1.983642,-7.774353,2.067566,1.0142225458024487
-0.276123,0.975342,-0.015137,-2.105713,-7.461547,1.838684,1.0137874811132757
-0.272949,0.976563,-0.014648,-2.220154,-7.743835,2.349854,1.0140961559309847
-0.271973,0.978027,-0.015137,-2.220154,-8.605957,2.784729,1.0152513256465119
-0.273193,0.980713,-0.012207,-2.26593,-9.140015,3.074646,1.0181264236169298
-0.272949,0.984863,-0.014648,-2.334595,-9.056091,3.40271,1.0220914094512292
-0.271484,0.989746,-0.014404,-2.815246,-8.346558,4.043579,1.0264054666592535
-0.267334,0.996094,-0.015137,-3.707886,-8.071899,5.218505,1.03145521141783
-0.267822,1.002686,-0.015869,-4.386902,-8.087158,6.134033,1.0379593746582763
-0.27124,1.002441,-0.018555,-4.28772,-7.125854,5.935668,1.0386546028906816
-0.265625,0.999512,-0.016846,-4.249573,-5.836486,5.943298,1.0343426252867083
-0.26416,0.998291,-0.018799,-4.623413,-4.714966,6.652832,1.0328208115070105
-0.264404,0.998291,-0.021729,-5.004883,-4.226685,7.598876,1.0329407269238637
-0.266113,0.996094,-0.028564,-4.867554,-4.089355,8.31604,1.0314239127056344
-0.261475,0.994141,-0.029541,-4.508972,-3.845215,8.743286,1.0283764749288073
-0.258301,0.987549,-0.032959,-4.211426,-3.791809,9.056091,1.0213024672852797
-0.255859,0.983643,-0.032471,-4.173279,-4.005432,9.002686,1.0168931827733925
-0.25293,0.991211,-0.036865,-4.768372,-4.844666,8.926392,1.0236365857305023
-0.256836,1.000244,-0.043457,-5.088806,-6.034851,9.19342,1.033605970029682
-0.263184,1.000488,-0.047119,-4.348755,-6.835937,9.277344,1.0355975358028815
-0.265381,1.000977,-0.047852,-3.219604,-6.896972,9.277344,1.0366638045161989
-0.26416,0.994873,-0.049805,-2.388,-6.210327,9.086609,1.030550013223036
-0.262939,0.990723,-0.047363,-1.953125,-4.920959,8.68988,1.026115117430301
-0.262939,0.988281,-0.044189,-1.647949,-3.723144,8.651733,1.0236156116448205
-0.262207,0.990479,-0.043213,-1.38092,-2.662658,8.750916,1.0255089095951337
-0.265137,0.992432,-0.046631,-0.709534,-2.059937,8.872986,1.0282963354763062
-0.263672,0.997314,-0.043213,0.198364,-1.663208,8.712769,1.0324851096015866
-0.262207,0.996582,-0.042725,0.88501,-1.38855,8.537292,1.0313843217724419
-0.262695,0.992432,-0.040771,1.182556,-1.190186,8.125305,1.0274201730986208
-0.258789,0.990967,-0.038574,1.594543,-1.144409,7.362365,1.0249269706110773
-0.258789,0.986816,-0.031982,1.907349,-1.625061,6.660461,1.0206862459644492
-0.260986,0.987061,-0.030518,1.937866,-2.13623,6.019592,1.021437447052437
-0.259766,0.989258,-0.028564,2.120972,-2.403259,5.40924,1.0231938562247136
-0.256592,0.988525,-0.026123,2.159119,-3.349304,4.78363,1.0216180994960886
-0.25708,0.986572,-0.023926,2.243042,-4.226685,4.051208,1.0197974755116823
-0.258545,0.987793,-0.02124,2.349854,-4.890442,3.456115,1.0212892173493267
-0.258545,0.98584,-0.021729,2.830505,-4.890442,2.975464,1.0194106984263016
-0.259521,0.982422,-0.019287,2.601623,-5.180358,2.799988,1.0163051332616597
-0.26123,0.97998,-0.018066,2.105713,-5.676269,2.868652,1.014361027275792
-0.262939,0.974854,-0.014404,2.288818,-5.775451,2.723694,1.0097943920685042
-0.263672,0.970703,-0.011963,2.380371,-5.218505,1.960754,1.005947489266711
-0.262451,0.964355,-0.010742,2.14386,-3.944397,1.358032,0.9994881109798155
-0.261475,0.959717,-0.012207,1.89209,-2.883911,1.205444,0.9947737966809339
-0.262207,0.958008,-0.014404,1.548767,-2.426147,1.045227,0.9933475293818372
-0.265137,0.959717,-0.012207,0.991821,-2.220154,1.022339,0.9957426171993444
-0.265381,0.957764,-0.009766,0.808716,-2.128601,1.182556,0.9938985509663448
-0.264893,0.958984,-0.012451,0.808716,-1.968384,0.984192,0.9949741911758314
-0.263672,0.959473,-0.011963,0.595093,-1.655578,0.534058,0.9951153072292678
-0.264404,0.962891,-0.009033,0.289917,-1.228333,0.183105,0.9985740574369034
-0.26709,0.968018,-0.010986,0.221252,-0.984192,-0.068665,1.0042492761361594
-0.268555,0.970215,-0.010498,0.221252,-0.62561,-0.732422,1.006751777874765
-0.265381,0.974365,-0.009521,-0.038147,-0.099182,-1.091003,1.009903400245291
-0.265137,0.979248,-0.014893,-0.007629,0.572205,-1.548767,1.0146162209042393
-0.264404,0.981201,-0.016602,0.045776,1.411438,-1.945495,1.0163368063890041
-0.259521,0.986816,-0.017334,-0.274658,2.159119,-2.319336,1.0205182187756376
-0.259521,0.990967,-0.016113,-0.511169,2.616882,-2.540588,1.0245127492125221
-0.256836,0.994385,-0.015137,-0.480652,2.807617,-2.883911,1.0271296840662332
-0.253418,0.995117,-0.018799,-0.015259,2.6474,-3.219604,1.0270501101767138
-0.251465,0.992432,-0.021484,0.717163,2.372742,-3.692627,1.024020255222034
-0.243652,0.983154,-0.020752,1.434326,1.792908,-4.394531,1.013108449438657
-0.240967,0.980713,-0.02002,1.617432,1.182556,-4.875183,1.01008112736453
-0.240967,0.984619,-0.020996,1.190186,0.12207,-5.195617,1.0138937332215838
-0.239014,0.98877,-0.021973,1.037598,-0.701904,-5.195617,1.0174854386304504
-0.239502,0.994629,-0.021484,1.312256,-1.083374,-5.195617,1.0232837426154098
-0.24292,0.995361,-0.025635,1.647949,-1.243591,-5.310058,1.0248955068425267
-0.241211,0.993164,-0.027588,1.914978,-1.396179,-5.203247,1.0224082233437874
-0.236084,0.989014,-0.028564,1.861572,-1.426697,-4.684448,1.0172021673925
-0.234375,0.987061,-0.030762,1.647949,-1.625061,-4.203796,1.0149716050166133
-0.236816,0.988281,-0.029541,1.327515,-1.655578,-3.921509,1.0166876725415726
-0.238525,0.989258,-0.026611,1.106262,-1.403808,-3.540039,1.0179556530173601
-0.244873,0.992676,-0.029785,1.449585,-0.961304,-3.128052,1.0228663516461962
-0.245605,0.997314,-0.030518,2.075195,-0.808716,-2.677917,1.0275642943120398
-0.247803,0.995117,-0.031006,2.685547,-0.976562,-2.197266,1.0259754102969525
-0.245605,0.994141,-0.027588,3.372192,-1.556396,-1.998901,1.0244018945950852
-0.249023,0.99585,-0.023682,3.883362,-2.235413,-2.296448,1.0267864988170619
-0.250977,0.993408,-0.022705,4.127502,-3.013611,-2.548218,1.024872882858162
-0.250732,0.990479,-0.017822,4.53186,-3.639221,-2.792358,1.0218771007068315
-0.253418,0.988281,-0.016357,4.78363,-4.096985,-3.303528,1.0203859902674086
-0.251709,0.983398,-0.012939,5.050659,-4.66156,-3.700256,1.0151829710973288
-0.253662,0.981689,-0.006592,4.806519,-5.508422,-3.616333,1.0139532323677458
-0.258545,0.97876,-0.004395,4.127502,-6.118774,-3.639221,1.0123418250028
-0.261475,0.977539,-0.00293,3.562927,-6.103515,-3.64685,1.0119092138359054
-0.264648,0.976318,-0.005127,3.044128,-5.226135,-3.669739,1.0115639807530712
-0.263916,0.977783,-0.006836,2.357483,-4.043579,-3.479004,1.0127971075398072
-0.261475,0.979492,-0.007568,1.434326,-2.967834,-2.937317,1.0138200177117238
-0.262939,0.981445,-0.009521,0.473022,-2.113342,-2.349854,1.0161013016363083
-0.265381,0.98584,-0.012695,-0.205994,-1.403808,-2.159119,1.0210135864845287
-0.261475,0.984375,-0.016846,-0.587463,-0.839233,-2.044678,1.0186496473105953
-0.260742,0.98291,-0.020996,-0.854492,-0.602722,-1.953125,1.0171230459880456
-0.262207,0.981445,-0.023438,-1.12915,-0.556946,-1.960754,1.0161378541900699
-0.262207,0.980957,-0.029053,-1.167297,-0.923157,-1.914978,1.015811608275373
-0.263916,0.983887,-0.034912,-1.289368,-1.312256,-1.914978,1.0192664674014347
-0.26709,0.985596,-0.039795,-1.029968,-1.63269,-2.044678,1.02191985269932
-0.265869,0.988037,-0.043457,-0.610352,-1.731872,-2.26593,1.024105438604346
-0.26416,0.986816,-0.043945,-0.282288,-1.869202,-2.571106,1.022505494596973
-0.264648,0.984131,-0.045898,0.167847,-2.01416,-2.876281,1.020126960465706
-0.263184,0.984863,-0.046875,0.724792,-2.151489,-3.097534,1.0204990015918685
-0.26709,0.987793,-0.048828,1.113892,-2.357483,-3.288269,1.0244297206411965
-0.26709,0.991943,-0.047607,1.663208,-2.76947,-3.486633,1.0283746446689552
-0.268066,0.996582,-0.043457,2.159119,-3.318786,-3.250122,1.0329199261941846
-0.270752,0.999023,-0.046875,2.830505,-3.791809,-3.067016,1.0361229973598693
-0.276367,0.998535,-0.04541,4.013062,-3.990173,-3.372192,1.0370693964311164
-0.274414,0.993896,-0.04541,5.065917,-3.860473,-3.860473,1.0320825404549774
-0.2771,0.986084,-0.046143,5.615234,-3.677368,-4.28009,1.0253171419151246
-0.279541,0.980225,-0.044922,5.950927,-3.288269,-4.707336,1.0202951569962488
-0.280029,0.979492,-0.039063,5.485534,-2.914428,-5.004883,1.019483563807676
-0.281738,0.984375,-0.039307,4.936218,-2.693176,-5.088806,1.0246538349696448
-0.279785,0.98877,-0.040039,5.325317,-2.632141,-5.027771,1.0283719563689007
-0.278809,0.989014,-0.038086,5.683898,-2.609253,-5.142211,1.0282673261720416
-0.281006,0.987549,-0.035645,5.989074,-2.403259,-5.241394,1.0273694396184851
-0.281982,0.987793,-0.037842,6.103515,-2.189636,-5.439758,1.0279498412553991
-0.282715,0.985596,-0.036133,5.607605,-2.01416,-5.477905,1.025978966709357
-0.282715,0.986084,-0.037842,5.195617,-1.625061,-5.378723,1.0265093488346806
-0.286377,0.988525,-0.04126,4.951477,-0.900268,-5.40924,1.0299979851213301
-0.287842,0.990967,-0.041748,4.806519,0.389099,-5.378723,1.03276885485427
-0.288818,0.989746,-0.041748,4.859924,2.174377,-5.317688,1.0318700873385176
-0.285889,0.984131,-0.046631,5.020141,3.929138,-5.271911,1.0258756238662656
-0.281982,0.980469,-0.048584,4.859924,5.371093,-5.050659,1.0213685492225615
-0.279297,0.974854,-0.049316,4.898071,6.225585,-4.859924,1.0152729698859317
-0.276611,0.977539,-0.049805,4.699707,6.813049,-4.898071,1.0171414256960534
-0.276123,0.978516,-0.05127,4.608154,7.125854,-4.837036,1.0180206708534951
-0.274414,0.978271,-0.047363,4.943848,7.530212,-4.516602,1.0171334458201637
-0.276367,0.97876,-0.04248,5.340576,8.110046,-4.341125,1.017916699287815
-0.274658,0.977051,-0.04126,5.805969,8.598328,-4.348755,1.015759844237308
-0.271484,0.97583,-0.037842,6.027221,8.483887,-4.310608,1.0135974388878457
-0.272949,0.977539,-0.041504,6.248474,7.507324,-4.15802,1.015778634909201
-0.275635,0.977051,-0.037598,6.195068,6.484985,-4.386902,1.0158823354257127
-0.277344,0.981689,-0.033936,5.775451,5.851745,-4.631042,1.020678519002433
-0.279053,0.980469,-0.036377,5.462646,5.516052,-4.371643,1.0200555489280965
-0.279297,0.981201,-0.036133,5.195617,6.088256,-4.28009,1.0208172266860507
-0.281494,0.97998,-0.032471,4.776001,6.790161,-4.104614,1.0201245209664358
-0.274902,0.978027,-0.032715,4.341125,7.225036,-3.967285,1.0164537340961466
-0.270264,0.978516,-0.032471,4.096985,6.973266,-4.081726,1.0156724658043066
-0.267334,0.977051,-0.034424,3.860473,6.637573,-4.135132,1.0135487832033543
-0.265625,0.979248,-0.033447,3.463745,5.836486,-4.127502,1.01518569135799
-0.265869,0.981934,-0.034668,3.318786,5.203247,-4.364014,1.0178814153628113
-0.261719,0.982666,-0.03418,3.097534,4.577637,-4.455566,1.0174957370510207
-0.259766,0.982666,-0.032471,3.227234,3.623962,-4.180908,1.0169391368970908
-0.258545,0.981934,-0.033203,3.486633,2.708435,-4.104614,1.0159440617425746
-0.260498,0.978516,-0.035156,3.318786,2.189636,-4.142761,1.0132071429850857
-0.260498,0.978271,-0.036377,2.883911,1.89209,-4.005432,1.013013644317785
-0.259521,0.976074,-0.037109,2.380371,1.731872,-3.540039,1.0106674432265048
-0.258789,0.979736,-0.03833,1.991272,1.88446,-2.990722,1.0140628999805683
-0.253174,0.981689,-0.043701,1.434326,1.548767,-2.243042,1.0147512721834844
-0.256104,0.981934,-0.046387,0.900268,0.808716,-1.396179,1.0158422086825294
-0.255615,0.984131,-0.045898,0.793457,0.076294,-0.862122,1.0178209468221804
-0.255371,0.980713,-0.047119,0.778198,-0.839233,-0.404358,1.014510983760649
-0.25708,0.979248,-0.049561,0.465393,-2.235413,-0.083923,1.0136434603079132
-0.263184,0.981934,-0.052002,0.297546,-3.715515,-0.022888,1.0179216110369207
-0.268311,0.987061,-0.052979,0.1297,-4.730225,-0.061035,1.0242494739481198
-0.275391,0.989746,-0.048584,0.144958,-5.355834,-0.144958,1.0284929520677328
-0.280273,0.990479,-0.050293,0.717163,-5.66864,-0.25177,1.0305973946304154
-0.285889,0.987549,-0.047607,1.655578,-5.706787,-0.465393,1.0291996765307498
-0.28833,0.977051,-0.048096,2.304077,-5.714416,-0.595093,1.0198411987741032
-0.286865,0.971436,-0.047607,2.250671,-5.577087,-0.846863,1.0140245839081024
-0.286865,0.963623,-0.045898,1.976013,-5.41687,-1.022339,1.0064628362527848
-0.289307,0.959961,-0.045898,1.358032,-5.203247,-1.213074,1.0036584519516587
-0.289795,0.96167,-0.042725,0.740051,-4.776001,-1.449585,1.0052938657676174
-0.293701,0.965332,-0.045166,0.297546,-4.646301,-1.525879,1.0100327297573084
-0.296875,0.969238,-0.051514,0.167847,-4.623413,-1.38855,1.014992984441272
-0.296387,0.968262,-0.046631,-0.282288,-4.203796,-1.220703,1.013681905024451
-0.296631,0.967773,-0.047852,-0.671387,-3.448486,-0.854492,1.013343151945085
-0.295654,0.969238,-0.046143,-0.869751,-2.548218,-0.846863,1.0143780186937215
-0.297119,0.969238,-0.046631,-1.144409,-1.88446,-0.823975,1.0148282864435738
-0.297607,0.972656,-0.053467,-1.12915,-1.396179,-0.892639,1.0185717161172305
-0.296387,0.976563,-0.056152,-1.022339,-0.862122,-1.075745,1.0220927520739005
-0.297119,0.978516,-0.051758,-1.060486,-0.091553,-1.037598,1.0239395260370605
-0.292969,0.979736,-0.052002,-1.335144,0.640869,-0.938415,1.0239226888105373
-0.290527,0.980713,-0.054443,-1.525879,1.075745,-0.686645,1.0242890052846414
-0.285156,0.982178,-0.057617,-1.586914,0.961304,-0.62561,1.0243570113534635
-0.284668,0.981934,-0.05542,-1.289368,0.358582,-1.029968,1.0238660200338714
-0.28418,0.985107,-0.057373,-1.060486,-0.457764,-1.411438,1.0268815583980462
-0.286377,0.987305,-0.061279,-0.923157,-0.831604,-1.487732,1.029824288407979
-0.287598,0.986328,-0.061768,-0.457764,-0.915527,-1.518249,1.029257411443804
-0.286865,0.984863,-0.062012,0.053406,-1.205444,-1.556396,1.0276634396231092
-0.287109,0.982422,-0.062256,0.663757,-1.495361,-1.617432,1.02540741829821
-0.285645,0.982178,-0.062012,1.098633,-1.785278,-1.724243,1.0247498123215246
-0.282471,0.976318,-0.057373,1.213074,-1.64032,-1.327515,1.0179775852610902
-0.285645,0.972168,-0.055908,1.235962,-1.152039,-0.88501,1.0148050998654865
-0.286865,0.974365,-0.057617,1.182556,-0.900268,-0.968933,1.0173487111797017
-0.28418,0.978027,-0.054688,1.091003,-1.220703,-1.106262,1.0199440486972802
-0.282227,0.975342,-0.050293,1.121521,-1.899719,-0.869751,1.0165989781334626
-0.285156,0.976807,-0.04834,1.190186,-2.494812,-0.938415,1.0187259764946608
-0.28833,0.981201,-0.048828,1.274109,-2.807617,-1.13678,1.0238524136246396
-0.288818,0.982666,-0.047852,1.144409,-3.044128,-0.968933,1.0253478037154027
-0.286377,0.979004,-0.047119,1.037598,-2.914428,-0.717163,1.021117436099296
-0.286133,0.97583,-0.050537,1.13678,-2.807617,-0.732422,1.0181700599398904
-0.286621,0.976318,-0.050049,0.892639,-3.089905,-1.00708,1.0187508710013455
-0.283936,0.97998,-0.052002,0.648498,-3.829956,-1.152039,1.0216088588593975
-0.285156,0.980469,-0.048096,0.37384,-4.463196,-1.083374,1.0222263103212517
-0.286865,0.979736,-0.044678,0.350952,-5.195617,-1.289368,1.0218465058926416
-0.287598,0.977051,-0.052002,0.640869,-5.798339,-1.525879,1.0198261980401366
-0.28833,0.975586,-0.054443,0.694275,-6.103515,-1.693725,1.0187572196284058
-0.2854,0.9729,-0.054688,0.50354,-5.943298,-1.701355,1.015371039248215
-0.285156,0.976074,-0.048828,0.022888,-5.592346,-1.586914,1.0180464485454481
-0.285645,0.98291,-0.04834,-0.732422,-5.249023,-1.13678,1.0247155164849413
-0.286133,0.983154,-0.048096,-0.50354,-5.15747,-0.747681,1.025074195666343
-0.285645,0.979004,-0.050293,0.175476,-5.226135,-0.564575,1.0210638001075154
-0.284424,0.974609,-0.052979,0.564575,-5.592346,-0.297546,1.0166447211774623
-0.285889,0.971924,-0.056152,0.25177,-5.882263,-0.183105,1.0146535513173942
-0.290771,0.970703,-0.057861,-0.1297,-5.66101,-0.289917,1.0149679718941873
-0.294922,0.972168,-0.055664,-0.465393,-5.401611,-0.091553,1.0174419330870927
-0.296387,0.975342,-0.054443,-0.770569,-4.890442,0.541687,1.0208336353108671
-0.297119,0.97876,-0.053467,-0.671387,-4.226685,0.88501,1.0242604931607975
-0.300537,0.977783,-0.054199,-0.25177,-3.77655,0.991821,1.024363028939936
-0.298096,0.980225,-0.054932,0.236511,-3.433227,0.892639,1.0260213450338156
-0.300537,0.981445,-0.052979,0.37384,-3.288269,0.793457,1.0277954810345296
-0.301514,0.981689,-0.05127,0.518799,-3.456115,0.526428,1.0282278919660757
-0.300781,0.983398,-0.05249,0.801086,-3.784179,0.144958,1.0297067720788282
-0.30127,0.980713,-0.056641,0.839233,-4.295349,-0.114441,1.0275065956722613
-0.301758,0.979248,-0.053467,1.12915,-4.79126,-0.564575,1.0260815056110308
-0.30127,0.978516,-0.049072,1.106262,-4.79126,-0.976562,1.0250196272950096
-0.303467,0.978516,-0.051758,0.663757,-4.722595,-1.052856,1.0257995286160937
-0.301514,0.980469,-0.050781,0.679016,-4.631042,-1.075745,1.0270388805288726
-0.302734,0.980713,-0.04834,1.060486,-4.241943,-1.251221,1.027512831416231
-0.297363,0.977539,-0.047852,1.152039,-4.013062,-1.174927,1.0228866331094566
-0.296143,0.977783,-0.05249,0.892639,-3.494262,-0.907898,1.022993387875992
-0.297363,0.978516,-0.052246,0.686645,-2.906799,-0.793457,1.0240351363800952
-0.29541,0.979004,-0.053711,0.411987,-2.403259,-0.724792,1.0240120954544432
-0.293945,0.97583,-0.056152,0.274658,-1.739502,-0.259399,1.020686484200217
-0.291504,0.973633,-0.05542,0.480652,-1.152039,0.091553,1.0178443776457184
-0.290771,0.969971,-0.054688,0.396728,-0.808716,-0.053406,1.0140918561087058
-0.291992,0.969727,-0.052002,0.183105,-0.671387,-0.106812,1.0140680404179003
-0.293701,0.969238,-0.054443,-0.015259,-0.267029,-0.099182,1.0142221740299313
-0.295898,0.972168,-0.053711,-0.038147,0.37384,0.160217,1.0176203212146464
-0.297607,0.976318,-0.052734,0.015259,1.228333,0.434875,1.0220311337376178
-0.299072,0.977539,-0.051514,0.114441,1.945495,0.701904,1.0235625285740975
-0.297607,0.979492,-0.049072,0.1297,2.357483,0.816345,1.02488173254137
-0.296143,0.979736,-0.047852,0.244141,2.555847,0.839233,1.024633163648825
-0.296875,0.975342,-0.048096,0.25177,2.738952,0.915527,1.0206566552004646
-0.295898,0.973145,-0.042969,0.328064,2.738952,1.037598,1.0180437870691026
-0.293213,0.972168,-0.040527,0.183105,2.593994,0.839233,1.0162317261933913
-0.294189,0.974609,-0.041748,-0.541687,2.212524,0.62561,1.0188978192664855
-0.294189,0.980713,-0.044189,-1.243591,1.716614,0.38147,1.024840389431935
-0.294678,0.983154,-0.041992,-1.213074,1.548767,0.213623,1.0272245321564317
-0.295166,0.984131,-0.04834,-0.900268,1.770019,0.213623,1.0285784113605534
-0.289795,0.976563,-0.05127,-0.892639,2.26593,0.091553,1.0199436493718659
-0.283203,0.969482,-0.055176,-1.251221,2.502441,0.053406,1.0115056492719159
-0.280029,0.9729,-0.057129,-1.922607,2.593994,-0.068665,1.014009059861893
-0.275635,0.980469,-0.052979,-2.616882,2.243042,-0.175476,1.0198533657477433
-0.275146,0.987549,-0.053711,-2.593994,1.937866,0.106812,1.026568663187222
-0.273438,0.987793,-0.053955,-1.464844,1.419067,0.63324,1.026359826141885
-0.27832,0.984375,-0.061768,-0.549316,0.732422,1.106262,1.0248275215122786
-0.2771,0.98291,-0.060059,-0.38147,0.038147,1.235962,1.022987566679576
-0.272461,0.982666,-0.060547,-0.564575,-0.37384,1.686096,1.0215348272506424
-0.274414,0.977051,-0.058838,-0.907898,-0.25177,2.159119,1.0165596933977858
-0.270508,0.973633,-0.056396,-1.296997,-0.274658,2.471924,1.0120851276295881
-0.270996,0.978516,-0.056396,-2.037048,-0.839233,2.685547,1.016913419661674
-0.272461,0.991455,-0.061768,-2.746582,-1.815796,2.89154,1.0300647063995543
-0.276855,0.998291,-0.062256,-2.822876,-2.586365,2.922058,1.0378388223813948
-0.279297,0.999512,-0.059814,-2.288818,-2.418518,3.105163,1.0395233364138585
-0.2771,0.999512,-0.055664,-1.754761,-1.609802,3.509521,1.0387045436696616
-0.271729,0.992676,-0.05542,-1.594543,-1.068115,3.707886,1.0306860175713068
-0.267822,0.989502,-0.053955,-1.678467,-1.014709,3.845215,1.0265251939007634
-0.265625,0.987549,-0.046875,-1.701355,-1.037598,3.936767,1.0237220978620125
-0.263916,0.983154,-0.039307,-1.25885,-0.427246,3.829956,1.0187190402760715
-0.261475,0.97583,-0.031006,-0.808716,0.671387,4.440308,1.010729803934266
-0.258301,0.969482,-0.023438,-0.915527,1.25885,6.149292,1.0035756547311219
-0.258545,0.970703,-0.019043,-1.976013,0.534058,8.331299,1.0047250703963746
-0.260986,0.976074,-0.01709,-3.807068,-1.327515,9.895325,1.0105078989161838
-0.265137,0.984375,-0.010498,-5.928039,-3.036499,10.19287,1.019510655853091
-0.269775,0.990234,-0.006104,-7.507324,-3.433227,10.124206,1.0263426251486392
-0.27124,0.989014,-0.003906,-8.613586,-2.777099,9.979248,1.0255413627114216
-0.270508,0.981445,0.002197,-9.506226,-1.708984,9.933472,1.0180440525330916
-0.266602,0.96875,0.003418,-10.597228,-0.762939,10.055541,1.0047710543342696
-0.264648,0.957764,0.009521,-12.390136,0.343323,9.963989,0.9937007059678482
-0.263184,0.95459,0.015381,-14.625548,1.556396,10.253905,0.990325431924779
-0.260254,0.956055,0.019043,-17.066956,3.341675,10.887145,0.9910277207979603
-0.249268,0.964355,0.016602,-19.897461,5.233764,12.08496,0.9961880988312397
-0.230713,0.9729,0.011963,-22.430418,6.271362,13.259887,0.9999530047647238
-0.228516,0.969971,0.018311,-24.459837,4.806519,13.923644,0.9966938325373546
-0.240723,0.960205,0.040039,-26.580809,0.961304,14.259337,0.9907291891707845
-0.24292,0.946533,0.037842,-27.565001,-2.258301,14.533996,0.9779401124061738
-0.231934,0.942383,0.041748,-28.244017,-3.822326,14.526366,0.9714020766649616
-0.208252,0.948486,0.061279,-30.265806,-6.118774,15.159606,0.9730106389659879
-0.204834,0.957275,0.052002,-33.256531,-10.017395,18.1427,0.9803247427179423
-0.225098,0.956299,0.038818,-33.882141,-15.602111,19.172668,0.9832007547439129
-0.240234,0.938232,0.051758,-33.363342,-21.14105,15.716552,0.9698817201824148
-0.246582,0.92334,0.064209,-35.339355,-24.559019,12.695312,0.9578529292146055
-0.252686,0.913086,0.069824,-37.231445,-25.733946,11.291503,0.9499745517475717
-0.261719,0.898926,0.069824,-38.002014,-25.413511,9.819031,0.9388504563629929
