ax,ay,az,gx,gy,gz,acc_mag
-0.337891,-0.922119,-0.178467,0.892639,-0.465393,-1.777649,0.9981604320603978
-0.334961,-0.922852,-0.179199,0.930786,-0.732422,-2.029419,0.9979814462333456
-0.334473,-0.919922,-0.174072,0.923157,-1.098633,-1.998901,0.9941980361059863
-0.333008,-0.921387,-0.173096,0.968933,-1.51062,-2.006531,0.9948922338871683
-0.330078,-0.92334,-0.169922,0.892639,-1.419067,-2.212524,0.995179244039987
-0.318848,-0.920654,-0.180176,0.679016,-1.670837,-2.182007,0.9908235089035786
-0.302734,-0.921875,-0.183838,0.061035,-3.746032,-2.197266,0.9875716686018287
-0.30835,-0.922607,-0.185059,-1.13678,-7.980346,-2.441406,0.9902172652655578
-0.316162,-0.923828,-0.187988,-2.151489,-12.168883,-2.693176,0.9943621432717559
-0.318604,-0.921875,-0.183838,-2.433777,-14.709472,-2.655029,0.9925514770957726
-0.330078,-0.92627,-0.178467,-2.403259,-15.693664,-2.838135,0.9993888477829839
-0.333496,-0.927979,-0.174072,-2.26593,-15.319823,-3.15094,1.0013319467793886
-0.332764,-0.92334,-0.173828,-1.945495,-14.175414,-2.937317,0.9967471138057035
-0.337158,-0.921875,-0.169434,-1.594543,-12.474059,-3.051758,0.996110893899369
-0.342041,-0.923828,-0.163818,-1.068115,-10.368346,-3.044128,0.9986423565966948
-0.343262,-0.92334,-0.160645,-0.648498,-8.003235,-2.670288,0.9980943704224566
-0.34375,-0.921631,-0.166748,-0.335693,-5.828857,-2.250671,0.9976836463353501
-0.343506,-0.919189,-0.179443,-0.015259,-3.684997,-1.571655,0.9975492870059104
-0.335449,-0.918457,-0.183594,0.015259,-2.052307,-0.770569,0.9948849427376012
-0.331543,-0.922363,-0.181396,0.190735,-0.846863,-0.282288,0.9967842160839026
-0.329834,-0.923828,-0.177246,0.366211,-0.221252,-0.335693,0.9968273600057334
-0.329834,-0.923096,-0.178711,0.50354,0.183105,-0.587463,0.996410715665483
-0.327393,-0.924561,-0.17749,0.602722,0.328064,-0.816345,0.9967456642845254
-0.325195,-0.927002,-0.177979,0.411987,-0.244141,-1.167297,0.9983791967333854
-0.321777,-0.926514,-0.179443,0.228882,-1.266479,-1.594543,0.9970799467314544
-0.322266,-0.927979,-0.174805,-0.144958,-2.609253,-1.76239,0.9977761207916334
-0.323486,-0.923584,-0.168701,-0.411987,-4.074097,-1.800537,0.9930310290484381
-0.325195,-0.92041,-0.16333,-0.465393,-5.241394,-1.88446,0.989738877191858
-0.330322,-0.921143,-0.16748,-0.808716,-6.401062,-1.930237,0.9928074337619557
-0.33252,-0.917725,-0.174561,-1.060486,-7.278442,-2.037048,0.991594810770004
-0.332031,-0.918457,-0.178711,-1.251221,-7.835388,-2.075195,0.992847152048592
-0.333008,-0.920166,-0.177734,-1.228333,-7.911682,-1.701355,0.994579896426627
-0.337891,-0.922363,-0.173828,-0.869751,-6.752014,-1.571655,0.9975670429770623
-0.334961,-0.927246,-0.178223,-0.1297,-5.073547,-1.663208,1.0018719747382896
-0.320068,-0.92749,-0.193359,0.015259,-4.493713,-1.663208,1.0000344632086438
-0.299316,-0.933105,-0.199219,-1.167297,-7.019042,-1.197815,0.9999816092518902
-0.287598,-0.938232,-0.194824,-3.311157,-13.420104,-1.029968,1.000474030849377
-0.285156,-0.935303,-0.187988,-6.050109,-22.453306,-1.449585,0.9957133795872184
-0.287109,-0.931152,-0.192383,-8.659363,-32.066345,-1.907349,0.9932204406243359
-0.292969,-0.92627,-0.204346,-10.856627,-40.321346,-2.326965,0.9927558791450192
-0.293945,-0.923584,-0.216064,-12.992858,-46.646114,-2.6474,0.9930230209703096
-0.287842,-0.920898,-0.240967,-14.839171,-51.704403,-2.853393,0.9944703306067004
-0.256348,-0.926758,-0.26123,-16.738892,-57.167049,-2.670288,0.9964114614796439
-0.226074,-0.934326,-0.25708,-19.775391,-65.467834,-2.433777,0.9950701754911561
-0.228271,-0.944092,-0.249512,-24.147032,-76.713562,-3.15094,1.002832783692775
-0.238037,-0.950195,-0.25,-29.08325,-88.317863,-4.455566,1.0109560580925365
-0.26123,-0.953369,-0.233643,-33.39386,-99.342339,-4.852295,1.0157473182391377
-0.28418,-0.958252,-0.238525,-37.330627,-110.79406,-3.532409,1.0275696295283352
-0.296631,-0.958008,-0.238037,-42.060848,-123.626701,-0.167847,1.0307428833584058
-0.342041,-0.956055,-0.236572,-46.882626,-136.795044,4.020691,1.0425926912701815
-0.398926,-0.964844,-0.235596,-50.514217,-146.04187,8.247375,1.0703136797350579
-0.439209,-0.978027,-0.239746,-53.871151,-149.337769,15.129088,1.0985988817243535
-0.444092,-0.987061,-0.269043,-57.357784,-147.544861,25.016783,1.115298730400963
-0.445313,-1.005859,-0.30542,-61.759945,-144.02771,34.111023,1.141638021550614
-0.470459,-1.0271,-0.331055,-67.565918,-142.181396,41.618343,1.1772270357522374
-0.51416,-1.045898,-0.34668,-73.867798,-141.799927,51.208492,1.2159153565951866
-0.568848,-1.056885,-0.375732,-79.910278,-142.51709,63.613888,1.257683778281727
-0.593994,-1.060547,-0.403809,-85.96801,-144.287109,77.819824,1.280878807587197
-0.61377,-1.062256,-0.393066,-92.956535,-147.926331,91.972343,1.288255526979023
-0.678955,-1.061279,-0.398438,-99.136345,-151.817322,104.530327,1.3213802812627409
-0.759277,-1.060303,-0.415771,-103.286736,-152.404785,116.416924,1.36879857502081
-0.841064,-1.054688,-0.419434,-107.147209,-149.536133,129.920959,1.4126854957123332
-0.908203,-1.043457,-0.421631,-110.450737,-144.958496,144.599915,1.4461700799764183
-0.963867,-1.03418,-0.419678,-113.342278,-138.000488,157.951355,1.4746855562366508
-1.024658,-1.009521,-0.42041,-116.4627,-127.380363,168.762192,1.4985997579423933
-1.068604,-0.969971,-0.416016,-117.042534,-112.18261,178.207382,1.5019412644684214
-1.107178,-0.940186,-0.405029,-115.272514,-94.40612,187.202438,1.5079261683255583
-1.129639,-0.923096,-0.393555,-114.387505,-77.728271,196.556076,1.5109851202318307
-1.128906,-0.893555,-0.415527,-114.311211,-64.491272,205.70372,1.4985099207512775
-1.151855,-0.858154,-0.42749,-114.898674,-54.817196,211.898788,1.4986480336760197
-1.185059,-0.807129,-0.398682,-117.301933,-47.111507,216.079697,1.4882101307429674
-1.224121,-0.743652,-0.35083,-118.026726,-38.902283,222.71727,1.4746430783904967
-1.249268,-0.692871,-0.304443,-115.440361,-29.937742,230.506882,1.4606253108562786
-1.238037,-0.656738,-0.273438,-111.717216,-23.612974,237.304672,1.4278686052494467
-1.185791,-0.61377,-0.260498,-108.032219,-24.253843,243.278488,1.3603944709476734
-1.131104,-0.556641,-0.253662,-104.316704,-29.869078,248.680099,1.2859198544003434
-1.142334,-0.491455,-0.264404,-101.364128,-35.202026,249.992355,1.2713632288992
-1.133545,-0.425537,-0.292236,-98.281853,-33.52356,249.992355,1.2455552517210948
-1.094971,-0.35791,-0.311035,-95.191948,-25.3067,249.961838,1.1932325130359127
-1.087402,-0.296631,-0.260498,-93.612663,-17.158508,249.992355,1.1568458271390358
-1.099609,-0.237305,-0.172363,-92.544548,-11.100768,249.992355,1.1380521164142705
-1.093994,-0.196289,-0.110352,-89.49279,-6.072998,249.992355,1.1169287387568645
-1.080566,-0.166504,-0.076172,-85.449211,-3.204345,249.992355,1.0959692677972315
-1.086914,-0.144775,-0.10498,-81.192009,-2.510071,249.992355,1.1015274142848193
-1.054688,-0.120605,-0.172363,-76.454163,-1.686096,249.992355,1.0754633174302135
-1.012939,-0.083252,-0.256348,-72.685242,-0.549316,249.992355,1.0481844352636611
-1.006348,-0.039307,-0.342773,-70.43457,1.358032,249.992355,1.063848986878307
-0.994629,-0.005127,-0.419189,-69.107056,6.248474,249.992355,1.079366736327834
-0.9729,0.029785,-0.421143,-68.908691,14.373778,249.992355,1.0605578638971096
-0.945068,0.067383,-0.362061,-69.595337,23.002623,249.992355,1.0142889928585441
-0.903564,0.095703,-0.293701,-69.381714,31.692503,249.992355,0.9549069293423312
-0.888672,0.126709,-0.249512,-70.610046,40.870663,249.992355,0.9316916509280311
-0.877686,0.17041,-0.223877,-72.189331,51.528927,249.992355,0.9216795505082013
-0.820801,0.200928,-0.221436,-71.426392,62.667843,246.620163,0.8735675388205539
-0.749023,0.214844,-0.206055,-70.06073,68.885803,234.786972,0.8060099638900253
-0.714355,0.232178,-0.182861,-68.595886,65.834045,220.809921,0.7730768623041308
-0.667725,0.257568,-0.150635,-65.361023,54.588314,209.136948,0.7313609597688409
-0.610596,0.306641,-0.116943,-59.898373,36.994934,198.7686,0.6932040416399777
-0.586182,0.371094,-0.094482,-52.932735,14.541625,187.156662,0.7001763651281011
-0.580811,0.424805,-0.057129,-44.761654,-5.821228,178.642258,0.7218479260806946
-0.5979,0.459473,0.011963,-35.293579,-19.264221,171.30278,0.7541504896888949
-0.606445,0.474365,0.118164,-25.382994,-24.80316,161.781296,0.7789482795064124
-0.618164,0.506836,0.221436,-14.953612,-22.964476,151.260376,0.8294837936258912
-0.580322,0.552979,0.320557,-1.296997,-17.196655,141.853333,0.8633169686586729
-0.548096,0.587646,0.410645,13.900756,-18.104553,131.668091,0.9024224967037335
-0.550293,0.624023,0.509277,28.213499,-32.424927,122.558586,0.975494824746395
-0.582764,0.669922,0.587158,41.603085,-56.190487,116.775505,1.0645017063133342
-0.610352,0.698486,0.580811,55.183407,-81.146233,111.228935,1.0944193318015722
-0.628662,0.692139,0.557617,69.129944,-98.82354,105.12542,1.0886730566400546
-0.639648,0.676514,0.603027,82.733147,-112.365715,99.266045,1.1092620604839056
-0.645264,0.692383,0.702637,97.297661,-126.609795,95.100395,1.178752986063662
-0.669189,0.736084,0.84082,114.349358,-142.776489,91.484062,1.3025405349458419
-0.720703,0.766602,1.013672,132.965088,-161.331161,87.944023,1.4610346895939876
-0.753174,0.789307,1.097656,154.495239,-179.840073,83.70208,1.547619238979989
-0.739746,0.783691,1.086426,180.465683,-199.966415,77.400208,1.530267029466753
-0.746582,0.739014,1.017822,208.930954,-226.905807,72.891235,1.4626988748898386
-0.808838,0.650635,0.875732,238.273605,-249.992355,71.098328,1.3581057945878148
-0.950439,0.571289,0.669922,249.992355,-249.992355,68.93158,1.2955697203647514
-1.091797,0.464844,0.48584,249.992355,-249.572739,67.550659,1.2822406713035583
-1.174805,0.346436,0.367188,249.710068,-245.239243,68.717957,1.2786757671376274
-1.228271,0.223145,0.233154,249.992355,-226.066574,70.037842,1.2699622546288531
-1.117188,0.029785,0.00708,249.992355,-211.761459,73.799133,1.1176073997468878
-3.098389,-4.72876,-6.403076,178.451523,-233.909592,69.145203,8.541695838338955
-1.37207,-4.601318,-1.624756,-108.64257,-109.008781,14.869689,5.068977755086325
-0.108887,0.023682,2.259277,-165.733322,-82.977287,60.707088,2.262023381537423
-1.728271,2.477051,1.226563,-81.520073,-103.424065,107.406609,3.2599323764475545
-0.583252,3.293945,-0.036377,-88.081352,12.451171,61.271664,3.34538186828619
0.028809,1.505127,-0.614746,71.357727,92.712395,9.811401,1.626084219567363
-0.0271,-0.64502,-0.747559,160.804733,57.044979,-36.407471,0.9877396766765016
-0.114502,-0.916504,-1.024658,77.789307,-29.571531,-20.912169,1.3794978459511997
-0.633057,-0.159668,-1.552979,16.113281,-95.367424,-38.261414,1.6846361060816666
-1.198486,0.470703,-1.446533,14.617919,-47.775265,-107.13195,1.9365917810664177
-0.915283,0.734375,-1.125977,21.575926,78.269958,-127.731316,1.6263068023109908
-0.495605,0.777344,-0.858887,17.51709,143.371582,-89.881889,1.259990035329645
-0.43335,0.711914,-0.806885,14.587401,115.180962,-78.826904,1.1600332620752736
-0.54834,0.595703,-0.910889,8.18634,55.763241,-94.497673,1.2187114466230304
-0.840088,0.592041,-0.959473,-9.208679,18.295288,-99.670403,1.4060045629918845
-1.091553,0.648682,-0.874512,-22.247313,34.698486,-96.961967,1.5417676631311865
-1.038574,0.644287,-0.663086,-23.757933,79.89502,-91.629021,1.3904764418144595
-0.989258,0.606445,-0.415283,-27.076719,94.978325,-82.756035,1.2324231816539317
-1.150146,0.613525,-0.296875,-36.2854,71.418762,-69.046021,1.336930631172014
-1.425781,0.606689,-0.404053,-44.342037,48.812862,-50.704952,1.6013062884691984
-1.584473,0.583252,-0.576904,-55.755611,64.758301,-36.659241,1.784252170644329
-1.498535,0.522705,-0.830566,-72.647095,108.154289,-29.777525,1.7912753958021084
-1.221924,0.443115,-1.014648,-98.0606,137.138367,-22.926329,1.6489268415866727
-1.063477,0.408203,-1.0271,-132.789612,130.096436,-12.977599,1.5338016262665781
-1.095947,0.44873,-0.918213,-166.549667,111.640923,-3.463745,1.4985237912952867
-1.105225,0.552002,-0.760254,-189.857468,109.672539,4.104614,1.4505911392067028
-1.020752,0.613281,-0.647217,-202.80455,118.965141,10.131835,1.3553368863695847
-0.912598,0.588623,-0.598389,-212.234482,121.841423,15.464782,1.239911908586251
-0.862549,0.574463,-0.509033,-222.778305,115.57769,21.469114,1.154605175312756
-0.858887,0.623047,-0.427734,-230.979904,109.825127,25.947569,1.1440414405667305
-0.867432,0.676025,-0.3479,-232.734665,113.265984,28.20587,1.1534654243838434
-0.855225,0.732422,-0.273438,-229.415878,127.738945,30.868528,1.158714859899967
-0.804199,0.801758,-0.173096,-221.717819,147.888184,34.614563,1.148701069635177
-0.741943,0.848877,-0.05127,-210.49498,165.863022,36.53717,1.1285832664354012
-0.700439,0.861572,0.032715,-196.945175,179.36705,34.27887,1.1108516440686398
-0.661377,0.854736,0.080811,-183.78447,191.474899,29.235838,1.0837543926305442
-0.635254,0.850098,0.121094,-171.821579,200.378403,23.719786,1.0681189123669705
-0.630615,0.838379,0.171631,-159.988403,201.553329,18.363953,1.063020143754106
-0.632813,0.825928,0.236328,-149.055481,193.969711,14.564513,1.0669865405603765
-0.629395,0.838379,0.325684,-139.709473,177.368149,12.413024,1.0977647660232133
-0.608643,0.856445,0.395996,-130.737305,150.672913,11.978148,1.122834436366288
-0.577393,0.860352,0.459473,-121.231071,116.653435,13.450622,1.1334476953446067
-0.54834,0.854004,0.540039,-112.197868,77.888489,16.601563,1.1496267694939084
-0.507813,0.854248,0.632324,-103.088371,36.315918,21.232603,1.177899541323028
-0.483643,0.854248,0.799072,-93.749992,-3.578186,26.130674,1.2657670631427411
-0.500732,0.893066,0.979004,-83.000175,-32.531738,30.113218,1.416597419239496
-0.492676,0.947266,1.064697,-65.0177,-41.41235,31.471251,1.5078535132900013
-0.429932,0.933594,1.099854,-40.65704,-34.828186,28.999327,1.505363113264039
-0.404541,0.874023,1.114746,-14.579772,-27.389524,24.482725,1.473169464021706
-0.443115,0.813721,1.098877,13.107299,-25.581358,22.544859,1.4373668391176275
-0.494629,0.813721,1.055908,41.145321,-27.206419,23.147581,1.4218795370726733
-0.532227,0.868164,0.985596,70.465088,-33.195496,25.81024,1.417171050240937
-0.530273,0.896729,0.973633,99.845879,-49.194332,31.326292,1.4259290209049678
-0.506348,0.930176,1.007813,124.504082,-79.948425,36.254883,1.4619516856069492
-0.518799,0.961182,1.030518,146.339417,-116.516106,38.124084,1.5016626078613664
-0.530273,0.98999,1.040283,169.754013,-144.790649,36.605835,1.5308358418582968
-0.59082,0.971924,1.012451,197.280869,-162.559494,31.921385,1.5227480295758062
-0.737793,0.871826,0.942871,227.561935,-173.309311,27.236937,1.4810215419655448
-0.912109,0.754883,0.804932,249.992355,-180.305466,25.100706,1.4316796765317303
-0.974121,0.678223,0.67334,249.992355,-191.673264,29.373167,1.3646556034289385
-1.018799,0.590088,0.595215,249.603256,-217.658981,39.337158,1.3192559063237124
-1.131104,0.515137,0.664063,249.977097,-249.023422,49.934383,1.4091636014153928
-1.261963,0.514648,0.736328,249.992355,-249.992355,56.747433,1.5490616840064828
-1.390381,0.457275,0.686523,249.992355,-249.542221,59.196468,1.6166550591622817
-1.531982,0.255615,0.556396,249.992355,-249.916061,62.149044,1.6498134395636979
-1.529053,0.002686,0.527344,249.992355,-249.992355,70.167542,1.6174368568018351
-2.361816,-3.143555,-4.918457,226.882919,-249.992355,74.432373,6.296930372548993
-1.874268,-5.620117,-3.654297,-63.377377,-222.022995,-36.117554,6.960781722890181
0.613525,-0.507813,2.38501,-222.198471,-228.019699,-39.894104,2.514470057227566
-2.954834,1.517578,0.567139,-13.427733,-39.863586,147.781372,3.369826939022388
-0.830811,2.637695,-0.651367,-65.124512,179.100021,140.579224,2.8411196383529855
1.195313,2.704834,-0.983887,-81.17675,217.285141,12.298583,3.1165579995074695
0.565918,-0.248291,-0.760742,102.363579,27.236937,-26.824949,0.9801224382540173
-0.534912,-1.370605,-0.711426,55.747982,-114.990227,-17.868042,1.634263096091018
-0.921387,-0.19043,-1.218262,-71.136475,-153.747559,-37.193298,1.539279016069861
-1.217285,0.760498,-1.396729,-48.011776,-128.967285,-72.219849,2.002746084422586
-1.218018,0.789551,-1.100342,0.617981,-12.939452,-102.272026,1.8214585218689443
-0.604248,0.770752,-0.889404,-4.638672,110.198967,-90.301506,1.3229564491032952
-0.165771,0.779541,-0.787354,-9.559631,138.832092,-62.156673,1.1203082238553816
-0.205566,0.537598,-0.821533,-8.674622,73.638916,-80.192566,1.0030879622690125
-0.654297,0.374268,-0.885498,-32.50885,-9.063721,-105.163567,1.1628791029324588
-1.172119,0.489502,-0.855225,-59.776302,-21.194456,-97.122185,1.5313017203640829
-1.272949,0.675049,-0.664795,-63.873287,45.036312,-80.612175,1.5868341756550999
-1.05835,0.708252,-0.430908,-52.856441,99.922173,-75.302124,1.3443984983880337
-0.956543,0.618896,-0.372803,-48.057552,88.058464,-68.412781,1.1987446961192363
-1.048584,0.570557,-0.543701,-59.524532,39.466858,-54.405209,1.3117448199653772
-1.226318,0.542236,-0.786621,-80.230713,10.620116,-45.921322,1.554557272814675
-1.240234,0.535645,-0.95166,-103.210442,22.308348,-43.243404,1.6524989247745367
-1.128906,0.537598,-0.962158,-127.456657,49.09515,-37.979126,1.577716192286813
-1.07373,0.536621,-0.856934,-150.390625,66.749573,-28.373716,1.4748539218841301
-1.041748,0.555176,-0.718506,-171.18071,78.147888,-18.859863,1.381922631161383
-0.989258,0.598389,-0.568359,-187.095627,90.469353,-11.367797,1.2883061510238938
-0.910645,0.636475,-0.432861,-197.357162,100.364677,-5.340576,1.1923688133170038
-0.861328,0.656494,-0.368652,-204.147324,104.797356,-1.220703,1.1440168673249536
-0.83252,0.665283,-0.32251,-208.694443,108.680717,-0.068665,1.1134198312357293
-0.826416,0.693604,-0.227783,-211.448654,116.287224,-1.014709,1.1026944313639206
-0.821045,0.738037,-0.138672,-209.968552,126.9226,-2.693176,1.1126739994167205
-0.795166,0.778564,-0.05542,-203.399643,139.579773,-3.822326,1.1142361715776419
-0.76416,0.814453,0.013672,-194.290146,151.145935,-4.730225,1.1168979892510327
-0.731689,0.833496,0.049072,-183.90654,160.324097,-5.493164,1.1101767588636506
-0.718994,0.821045,0.075439,-172.462448,166.976913,-5.996704,1.0939644906403498
-0.727783,0.80127,0.106934,-161.323532,171.279892,-6.942749,1.0877208227964563
-0.74585,0.804443,0.152344,-151.359558,173.980698,-8.743286,1.1075330501095666
-0.767822,0.835693,0.2146,-140.319824,173.19487,-10.093688,1.1549833652191706
-0.780273,0.864258,0.2771,-127.975456,164.360031,-9.597778,1.1968927500377802
-0.738281,0.87207,0.3125,-115.531914,146.461487,-6.126403,1.184576367255822
-0.677002,0.874268,0.340088,-103.752129,121.444695,-2.708435,1.156864768057183
-0.630615,0.876953,0.351318,-92.750542,93.101494,-1.045227,1.135846019299271
-0.623047,0.886719,0.3479,-81.695549,68.572998,0.747681,1.1381970651736897
-0.603516,0.913574,0.354004,-69.885254,52.36816,3.14331,1.150724922710897
-0.587158,0.931152,0.371094,-57.113644,43.006893,5.584716,1.1616838300088366
-0.590088,0.938232,0.399902,-43.998714,35.263062,7.980346,1.1783058784424356
-0.564209,0.939209,0.445313,-30.731199,26.260374,12.397765,1.1826871984303373
-0.525635,0.948975,0.471436,-18.104553,14.030456,16.036987,1.1828345640646456
-0.50415,0.952393,0.486084,-6.195068,-0.160217,16.914368,1.1821579014687504
-0.496582,0.948242,0.51001,4.928589,-16.548157,17.089844,1.1856925290259697
-0.502441,0.935547,0.520996,16.159058,-34.797668,17.181396,1.1828490942237728
-0.51001,0.91748,0.525146,26.94702,-53.207394,16.921997,1.1737367983564286
-0.514648,0.916748,0.569092,37.42981,-70.678711,17.112732,1.1954727783902066
-0.541016,0.929932,0.651855,49.21722,-87.6007,17.097473,1.257929559993325
-0.572021,0.926758,0.700439,63.941952,-102.72979,17.234802,1.2948757499181147
-0.607666,0.90625,0.699463,81.100456,-114.585869,16.990662,1.296069256801117
-0.611084,0.887207,0.711914,98.869316,-125.625603,16.769409,1.2912712570567813
-0.631348,0.894287,0.797607,116.172783,-136.84845,17.631531,1.3544469210426815
-0.68457,0.956299,0.904541,135.002136,-143.165588,16.731262,1.483690763933644
-0.733398,1.047119,1.074707,156.974792,-142.044067,13.526916,1.6701275287875474
-0.802246,1.113037,1.290039,184.15831,-147.865295,10.536193,1.8832553277253725
-1.005615,1.081543,1.413086,217.155441,-170.509323,10.406493,2.0439688922461614
-1.181885,0.946777,1.419678,248.886093,-205.276474,17.066956,2.0757467245880457
-1.312256,0.770264,1.316406,249.992355,-244.232162,25.741575,2.0120256449826877
-1.40918,0.566406,1.084961,249.54985,-249.992355,36.79657,1.8664791455456984
-1.517334,0.330566,0.823242,249.916061,-249.656662,50.407406,1.757641527296166
-1.619629,0.176514,0.621582,249.992355,-249.80162,61.485287,1.743765888117152
-1.651367,0.068115,0.446289,249.992355,-249.992355,73.638916,1.711965681149888
-1.436279,-0.061035,0.477051,249.992355,-249.992355,85.952751,1.5146617753369893
-2.585938,-5.038086,-6.217529,249.992355,-236.228928,54.931637,8.409937737527015
-3.313965,-5.930664,-1.329102,179.817184,-87.234489,-114.06707,6.922546614398851
-1.934326,3.040771,0.466797,-228.851303,168.28154,-67.489624,3.633979194756899
1.321289,5.24292,0.609375,-179.855331,249.992355,247.070297,5.44108009852327
1.158936,1.04126,-0.078857,67.375183,-10.871886,217.514023,1.5599914955361134
-0.500977,-1.013184,-1.577148,66.390991,-246.108994,72.70813,1.9403390390055548
-0.779297,-1.159424,-1.542969,11.848449,-204.460129,-25.833128,2.0814228693242516
-1.03125,-0.03125,-1.113281,-58.654781,-107.215874,-20.294188,1.5178431111155724
-1.296875,0.83667,-0.985596,-31.196592,5.691528,14.915465,1.831202045035173
-0.812256,0.438477,-0.717773,47.424313,75.340271,-22.293089,1.1692818174392348
-0.229004,0.27124,-0.361084,35.28595,48.782345,-54.649349,0.5063552356518101
-0.137451,0.861572,-0.197266,-8.537292,-17.501831,-38.05542,0.8944903371982282
-0.406494,1.239502,-0.3396,2.13623,-40.168758,-46.173092,1.3479357329042065
-0.73291,0.931885,-0.520508,32.348633,-6.309509,-71.94519,1.2947954662374286
-0.826172,0.516113,-0.515381,37.200928,31.074522,-74.165344,1.1020664124788488
-0.676514,0.479004,-0.408447,19.752502,33.874512,-60.768124,0.9240914327170229
-0.542725,0.618408,-0.289307,5.393981,2.944946,-54.252621,0.8721682293789427
-0.602539,0.715332,-0.209473,1.586914,-38.742065,-52.001949,0.9584529484925173
-0.755859,0.736084,-0.227783,1.953125,-60.150143,-48.278805,1.0793644324443898
-0.862305,0.675537,-0.246826,6.271362,-49.453732,-45.700069,1.1228727557786768
-0.859863,0.600098,-0.246094,9.437561,-22.354124,-45.669552,1.07705350155366
-0.787598,0.584717,-0.253906,9.277344,-1.899719,-44.204708,1.013248654837005
-0.727783,0.625488,-0.275879,6.752014,3.166198,-40.809628,0.9985051606646808
-0.747314,0.686768,-0.307617,2.479553,-0.38147,-38.093567,1.0605454818672324
-0.81958,0.713379,-0.335449,-1.022339,-2.792358,-35.369873,1.1371662172444272
-0.837891,0.706299,-0.360596,-5.172729,0.175476,-30.838011,1.1536676646669093
-0.836914,0.707764,-0.362305,-12.382506,2.151489,-27.565001,1.1543915436787469
-0.804932,0.713867,-0.354004,-18.966675,-4.943848,-24.482725,1.1326254678087544
-0.753418,0.700439,-0.36084,-23.674009,-19.042969,-20.309446,1.0901646577673485
-0.730957,0.666992,-0.371826,-27.526854,-32.707214,-18.676758,1.0570861072727236
-0.72168,0.624268,-0.392578,-28.778074,-39.260864,-19.493103,1.0318188040096963
-0.707031,0.571533,-0.417969,-27.610777,-38.749695,-20.233152,1.0006202526488257
-0.68335,0.520752,-0.429199,-26.31378,-33.882141,-21.507261,0.9603966105755476
-0.68457,0.515625,-0.40625,-26.840208,-27.908323,-25.421141,0.9484430863393966
-0.703613,0.574219,-0.380859,-28.045652,-22.949217,-31.578062,0.9848107897515137
-0.699707,0.625244,-0.386963,-26.573179,-17.929077,-36.773682,1.0150173933258484
-0.720703,0.612061,-0.385254,-23.719786,-13.336181,-41.877743,1.0210054487836977
-0.736084,0.571289,-0.391113,-23.315428,-10.536193,-48.759457,1.0105246930906737
-0.724121,0.536377,-0.402588,-25.55847,-7.965087,-55.412289,0.9869795370290105
-0.718994,0.506104,-0.424072,-27.244566,-4.745483,-61.477657,0.9761816900741378
-0.754883,0.484131,-0.430176,-28.610228,-1.213074,-67.695618,0.9946268445130565
-0.765137,0.454346,-0.451416,-32.554626,2.456665,-72.990417,0.9978182808212125
-0.755859,0.420654,-0.462646,-34.507751,3.890991,-75.22583,0.9809760124044828
-0.707275,0.407227,-0.423828,-36.209106,-2.761841,-78.529358,0.9196205351872043
-0.626465,0.431396,-0.352051,-39.588928,-19.355774,-82.984917,0.8381532148968946
-0.585449,0.465332,-0.289795,-43.151852,-41.770931,-89.599602,0.8020383680660172
-0.595459,0.481201,-0.238281,-45.722958,-63.545223,-98.587029,0.8018127325273651
-0.634521,0.473145,-0.228027,-46.813961,-78.338623,-106.37664,0.82369861186905
-0.789063,0.448242,-0.235352,-45.387264,-84.060661,-114.784233,0.9375136652001398
-0.970947,0.391602,-0.20752,-44.128414,-78.941345,-122.276299,1.0673119289190953
-1.030029,0.339844,-0.209717,-41.954037,-60.111996,-121.994011,1.1047329565401767
-1.015381,0.311523,-0.204834,-38.9328,-35.224915,-119.934074,1.0816663636473127
-0.978027,0.297852,-0.193604,-36.735535,-12.809752,-123.863213,1.0405455950841367
-0.927979,0.287109,-0.205078,-34.118652,4.425049,-129.02832,0.9927908079781964
-0.880371,0.271729,-0.259766,-29.617308,15.563964,-133.323669,0.9572711851079609
-0.832275,0.266602,-0.20752,-26.153563,17.921448,-136.253357,0.8982331837718979
-0.889404,0.267578,-0.171875,-24.810789,11.428832,-139.99176,0.9445519979995808
-1.040283,0.254639,-0.160156,-20.828245,3.990173,-144.577026,1.0829033589134351
-1.116699,0.223633,-0.144043,-14.778136,2.250671,-143.814087,1.147944581039956
-1.122803,0.204834,-0.131104,-9.475708,0.534058,-137.817383,1.148839328705716
-1.096924,0.186035,-0.135986,-5.41687,-4.470825,-135.025024,1.1208672870581067
-1.032227,0.155029,-0.163574,-2.677917,-11.230468,-137.09259,1.0565429588265687
-1.01001,0.141846,-0.17627,-4.470825,-22.262571,-141.960144,1.0350418352491846
-1.02124,0.130859,-0.159912,-7.743835,-36.155701,-143.386841,1.0419342893028332
-1.019531,0.103516,-0.141846,-8.499146,-46.752926,-140.602112,1.0345430440213688
-1.067383,0.068359,-0.137695,-7.911682,-50.132748,-141.311646,1.0783966499368403
-1.112793,0.046875,-0.13501,-7.339477,-44.158932,-144.332886,1.1219328084043179
-1.092773,0.049316,-0.125,-4.78363,-34.255981,-144.706726,1.1010040405852286
-1.049561,0.049561,-0.114014,-0.350952,-32.112122,-144.439697,1.0568981869782916
-1.01709,0.024658,-0.128418,3.234863,-39.451599,-144.851685,1.0254614901535797
-1.023682,0.002441,-0.149414,3.425598,-48.629757,-146.156311,1.0345314586811751
-1.059814,-0.008057,-0.171387,1.647949,-53.024288,-148.460388,1.0736126552970582
-1.081299,-0.020752,-0.188965,-0.183105,-47.744747,-149.810791,1.097882481930557
-1.130615,-0.037842,-0.186768,-2.624511,-33.13446,-151.20697,1.1465620702835935
-1.205322,-0.059082,-0.171387,-5.119323,-13.732909,-151.939392,1.218878710199255
-1.246338,-0.100586,-0.150146,-5.485534,6.141662,-148.078918,1.2593727704520215
-1.220215,-0.152588,-0.148193,-5.180358,21.591185,-141.784668,1.2386157229819101
-1.145752,-0.180664,-0.154297,-6.484985,31.166075,-137.634277,1.17012592938068
-1.084473,-0.193359,-0.168213,-9.803772,35.629272,-136.871338,1.1143451009355225
-1.050537,-0.205322,-0.187256,-13.023376,40.611263,-137.22229,1.0866691868222822
-1.024414,-0.212402,-0.214355,-15.754699,51.452633,-138.626099,1.0679357279466775
-0.987793,-0.215088,-0.243652,-18.035889,68.237305,-141.174316,1.0398866071341626
-0.968262,-0.213623,-0.253174,-19.508362,86.898796,-144.561768,1.0233587645830762
-0.972656,-0.20459,-0.249023,-19.073486,100.425713,-149.31488,1.0246605374293478
-0.944336,-0.207764,-0.204102,-14.999389,100.07476,-152.450562,0.9882276999740495
-0.866455,-0.249756,-0.134277,-9.536743,76.73645,-151.573181,0.911675731436348
-0.821777,-0.329346,-0.102295,-6.820678,30.84564,-149.436951,0.8912073229445548
-0.835205,-0.408447,-0.123047,-7.102966,-21.430967,-148.582458,0.9378362906408559
-0.842773,-0.445313,-0.164307,-9.239197,-63.163754,-150.390625,0.9672470148555642
-0.837891,-0.457031,-0.204346,-12.443542,-89.62249,-154.190063,0.9760614481465806
-0.839111,-0.481445,-0.231689,-16.708374,-103.096001,-157.714844,0.9947745227271354
-0.838135,-0.518066,-0.226074,-21.736143,-105.255119,-161.262497,1.010926363320791
-0.836426,-0.543701,-0.175781,-26.405333,-100.120537,-165.916428,1.0129749211298371
-0.85498,-0.563965,-0.096436,-30.502317,-93.490593,-171.371445,1.0287600418567004
-0.879639,-0.581787,-0.052734,-32.371521,-89.141838,-176.109299,1.0559459069696706
-0.857178,-0.606934,-0.01001,-30.2124,-95.092766,-179.397568,1.050344326466326
-0.855225,-0.690186,0.031006,-27.275084,-115.631096,-179.313644,1.099421614876204
-0.908203,-0.804932,0.041992,-28.022764,-142.532349,-174.728378,1.2142946684791958
-0.977051,-0.876465,0.052734,-33.233643,-161.125168,-170.471176,1.3136211126432158
-1.002441,-0.890137,0.061035,-38.642883,-165.161118,-168.342575,1.3419974323652784
-0.996094,-0.88623,0.071533,-40.451046,-157.180786,-165.222153,1.3351868183235633
-0.966064,-0.894775,0.083984,-39.199829,-141.021729,-159.812927,1.3194526383985898
-0.919189,-0.901123,0.095215,-35.934448,-120.559685,-154.090881,1.2907350522376775
-0.868896,-0.905762,0.108398,-30.754087,-99.113457,-149.223328,1.2598155364433319
-0.842529,-0.90332,0.118164,-24.253843,-74.478149,-144.714355,1.2408887416432626
-0.85498,-0.897217,0.119385,-16.708374,-42.572018,-141.578674,1.2450871149096354
-0.882568,-0.893555,0.137695,-7.255554,-3.684997,-140.220642,1.2634582405738624
-0.890381,-0.898193,0.155518,2.13623,37.277222,-139.152527,1.274250696972146
-0.892822,-0.896484,0.152588,10.559081,76.73645,-137.374878,1.274400950911447
-0.888916,-0.893311,0.134033,19.233704,114.143364,-134.44519,1.2673361996195012
-0.867432,-0.900146,0.111084,28.427122,150.436401,-129.570007,1.2550062752815223
-0.826416,-0.908447,0.081543,37.895203,185.41716,-123.245232,1.2308081157166622
-0.762451,-0.911377,0.050781,47.286983,216.659531,-116.561882,1.1893352233457983
-0.688721,-0.918701,0.018066,56.549068,240.562424,-109.878532,1.1483355448639565
-0.617432,-0.933105,-0.012939,64.872742,249.992355,-102.943413,1.1189614083470438
-0.552246,-0.944336,-0.052734,71.640015,249.992355,-95.375053,1.0952291998335326
-0.508545,-0.961426,-0.112793,76.950073,248.985275,-86.212151,1.0934716417676318
-0.484375,-0.979248,-0.157715,78.842163,235.359177,-74.859619,1.103820550340498
-0.388428,-0.986816,-0.248291,75.6073,208.564743,-63.728329,1.089188023125943
-0.228271,-1.003174,-0.484863,64.720154,155.662537,-56.564327,1.1373468479254691
-0.117676,-1.047363,-0.814697,48.027035,43.785091,-39.962769,1.3321216523103288
-0.135498,-1.136963,-0.838867,23.773191,-98.281853,-14.030456,1.4194162233333816
-0.46582,-1.11499,-0.796387,-17.066956,-200.698837,-2.632141,1.4472122257184672
-0.763184,-0.977539,-0.669922,-40.977474,-210.220322,0.854492,1.4095487932175317
-0.790039,-0.916748,-0.494873,-41.16058,-155.479431,-1.289368,1.3074738250358973
-0.76001,-0.878174,-0.372803,-38.162231,-97.984306,-3.890991,1.219748683616834
-0.706299,-0.869873,-0.289307,-29.106138,-56.884762,-3.967285,1.157253582314179
-0.57666,-0.903076,-0.20752,-19.851685,-32.020569,-1.89209,1.091397071544541
-0.518799,-0.910645,-0.175049,-19.500732,-18.699646,2.13623,1.0625765246922219
-0.578857,-0.875488,-0.181396,-18.722534,0.587463,1.197815,1.065109934893577
-0.671387,-0.831055,-0.17749,-11.596679,39.710999,1.235962,1.0830122884316686
-0.686523,-0.825928,-0.148438,3.486633,96.30584,4.356384,1.0842069592826824
-0.587891,-0.852539,-0.09668,17.570496,148.170471,2.716064,1.040089225404244
-0.464844,-0.867676,-0.053467,22.079466,175.628647,0.25177,0.9857993230881222
-0.35083,-0.863281,-0.037354,14.678954,169.708237,-1.617432,0.9325937460529102
-0.340088,-0.855957,-0.045898,7.064819,140.533447,-2.01416,0.9221869983886131
-0.400879,-0.867188,-0.057373,5.859375,110.198967,-1.724243,0.9570844587151125
-0.445557,-0.876953,-0.064941,5.279541,90.087883,-2.502441,0.9857915286403104
-0.455322,-0.869629,-0.080811,3.471374,78.62854,-3.189087,0.9849381397052305
-0.45752,-0.864258,-0.101807,3.27301,71.266174,-3.044128,0.983173995899505
-0.456299,-0.872803,-0.112061,4.440308,65.490723,-2.662658,0.9912373691154909
-0.443604,-0.885254,-0.117432,4.570007,58.692928,-2.754211,0.9971205684148733
-0.426025,-0.892578,-0.117188,3.623962,49.278255,-2.494812,0.9959547249011874
-0.420166,-0.890137,-0.118408,2.098083,38.398743,-2.311707,0.9914150497087484
-0.432373,-0.883789,-0.115967,0.854492,29.891966,-2.571106,0.9906955903500329
-0.444336,-0.880371,-0.111572,0.694275,26.077269,-2.960205,0.9924393632464404
-0.439941,-0.878174,-0.113037,1.13678,25.695799,-3.013611,0.9886935931450148
-0.421875,-0.883545,-0.108154,1.220703,25.352476,-2.494812,0.9850520647996227
-0.404785,-0.89209,-0.105713,0.747681,22.590635,-2.01416,0.9853175643892684
-0.39502,-0.89624,-0.10791,-0.350952,17.570496,-1.861572,0.9853585672738631
-0.393555,-0.901855,-0.108154,-1.480102,12.123107,-1.533508,0.9899117469582831
-0.394043,-0.899658,-0.112549,-2.27356,7.637023,-0.793457,0.9885958123591259
-0.389648,-0.904541,-0.112305,-2.586365,4.28772,-0.022888,0.9912781635898171
-0.385254,-0.907471,-0.116699,-2.365112,1.983642,0.762939,0.9927451419966759
-0.38208,-0.910645,-0.121582,-1.998901,0.793457,1.556396,0.9950083543111585
-0.378662,-0.912842,-0.126465,-1.38855,1.190186,2.365112,0.9963226502659668
-0.36792,-0.914307,-0.134766,-0.656128,2.39563,3.128052,0.9947282500286196
-0.357666,-0.918701,-0.144043,0.061035,3.64685,4.127502,0.9963357269545241
-0.346191,-0.924072,-0.152588,0.846863,4.760742,4.829407,0.9985190871530699
-0.337158,-0.927734,-0.164795,1.197815,5.981445,5.302429,1.0007613520440324
-0.327393,-0.927734,-0.178711,1.464844,7.263183,5.401611,0.9999070820461269
-0.313965,-0.929688,-0.191406,1.564026,7.820129,5.256652,0.9997650000900211
-0.299316,-0.929932,-0.20166,1.251221,7.247924,5.050659,0.9975120791649592
-0.289307,-0.928223,-0.213379,0.808716,5.554199,4.501343,0.995402971473865
-0.281738,-0.927002,-0.224365,0.213623,2.815246,3.77655,0.9945092568060893
-0.277832,-0.927734,-0.228516,-0.198364,-0.953674,3.005981,0.995037967735905
-0.278564,-0.929932,-0.231445,-0.816345,-5.378723,2.090454,0.9979670409111715
-0.283691,-0.929199,-0.22876,-1.556396,-10.040282,1.060486,0.9981094642783426
-0.295898,-0.923584,-0.229736,-2.235413,-14.152526,-0.114441,0.9966652703671378
-0.310547,-0.920898,-0.228027,-2.731323,-17.021179,-1.144409,0.9982428954628227
-0.327881,-0.916016,-0.222168,-3.120422,-18.478394,-2.044678,0.997972886726388
-0.34375,-0.907715,-0.21582,-3.250122,-18.669128,-2.89154,0.994328344222873
-0.360107,-0.897705,-0.204834,-3.204345,-18.089294,-3.265381,0.9886901870808671
-0.373779,-0.890381,-0.197754,-2.975464,-16.868591,-3.517151,0.9856955465649624
-0.384521,-0.88501,-0.189697,-2.700805,-15.251159,-3.707886,0.983404317333415
-0.392822,-0.883057,-0.185547,-2.204895,-13.488769,-3.921509,0.984137428483441
-0.401367,-0.882324,-0.180176,-1.556396,-11.566161,-3.868103,0.9859282431500784
-0.406006,-0.884521,-0.177246,-0.808716,-9.719849,-3.814697,0.9892595291393457
-0.412354,-0.887695,-0.171631,-0.106812,-7.690429,-3.990173,0.9937280485635896
-0.416504,-0.897705,-0.171875,0.534058,-6.134033,-4.180908,1.004435595081138
-0.417969,-0.904297,-0.175293,0.839233,-5.500793,-4.577637,1.0115230027137299
-0.421387,-0.911621,-0.177002,0.534058,-5.577087,-5.111694,1.0197791718867375
-0.419434,-0.914795,-0.181885,0.183105,-5.966186,-5.889892,1.022671465137265
-0.417969,-0.914551,-0.188965,-0.152588,-5.897521,-6.706237,1.0231370327512341
-0.417969,-0.914551,-0.191895,-0.63324,-5.516052,-7.514953,1.0236822297895962
-0.415527,-0.907959,-0.19751,-0.892639,-5.424499,-8.079529,1.0178715211214036
-0.410889,-0.901367,-0.196777,-0.953674,-5.607605,-8.18634,1.0099571410406483
-0.408936,-0.901123,-0.196289,-1.037598,-6.034851,-8.049011,1.0088511707610792
-0.408447,-0.901855,-0.196533,-0.976562,-6.790161,-7.835388,1.0093545526340089
-0.402344,-0.9021,-0.191895,-0.915527,-7.080078,-7.713317,1.0062250222296203
-0.39624,-0.900879,-0.193604,-0.87738,-6.843566,-7.652282,1.0030312153951142
-0.393311,-0.900146,-0.19165,-0.823975,-6.248474,-7.67517,1.0008426882067931
-0.388428,-0.899658,-0.192627,-0.663757,-5.210876,-7.652282,0.9986821262428801
-0.38501,-0.89917,-0.189453,-0.488281,-4.051208,-7.774353,0.9963091027432199
-0.37793,-0.89502,-0.187744,-0.289917,-2.937317,-7.980346,0.9895148785318996
-0.374268,-0.894287,-0.185791,0.038147,-1.670837,-8.140564,0.9870886838952212
-0.366455,-0.898682,-0.186279,0.236511,-0.62561,-8.415222,0.9882400872207118
-0.360352,-0.901855,-0.183105,0.610352,-0.015259,-8.583069,0.9882931983748547
-0.357422,-0.904541,-0.183838,0.778198,0.007629,-8.682251,0.9898188303972602
-0.352295,-0.908447,-0.182373,0.907898,-0.366211,-8.69751,0.9912858467480508
-0.348633,-0.908447,-0.18335,1.052856,-0.938415,-8.453369,0.9901707645643756
-0.34375,-0.907715,-0.186768,1.144409,-1.792908,-7.972717,0.9884294964988651
-0.340576,-0.907715,-0.188477,1.235962,-2.63977,-7.568359,0.9876548549619953
-0.340332,-0.908936,-0.189697,1.251221,-3.120422,-7.141113,0.9889264250332276
-0.340332,-0.9104,-0.193848,1.213074,-3.341675,-6.752014,0.9910757172527234
-0.339844,-0.908691,-0.199219,0.961304,-3.051758,-6.530761,0.9904047090851296
-0.337646,-0.908203,-0.200684,0.930786,-2.105713,-6.584167,0.9895006712382766
-0.337402,-0.906738,-0.193115,0.831604,-0.709534,-6.698608,0.9865633854309616
-0.34082,-0.907227,-0.188965,0.87738,0.694275,-7.064819,0.9873838529943662
-0.3396,-0.909668,-0.187988,0.930786,1.838684,-7.316589,0.9890214954024003
-0.339355,-0.910889,-0.183838,0.823975,2.410889,-7.270813,0.9892810503542459
-0.337891,-0.912842,-0.182373,0.648498,1.968384,-7.347106,0.9903084145729552
-0.338135,-0.914795,-0.180176,0.495911,0.892639,-7.347106,0.9917905833521511
-0.340088,-0.919678,-0.178467,0.167847,-0.488281,-7.530212,0.9966533707949821
-0.341797,-0.924072,-0.182129,-0.38147,-1.609802,-7.949829,1.0019507088844242
-0.341797,-0.922363,-0.183105,-0.846863,-2.105713,-7.942199,1.0005529141444744
-0.341064,-0.922363,-0.179932,-1.052856,-2.39563,-8.071899,0.9997268029261794
-0.341064,-0.927246,-0.176758,-1.228333,-2.761841,-8.407593,1.0036698596530633
-0.341064,-0.931885,-0.171631,-1.411438,-3.27301,-8.628845,1.0070707549531959
-0.335205,-0.931396,-0.176025,-1.579285,-3.799438,-8.750916,1.005408226277267
-0.330811,-0.931396,-0.173828,-1.731872,-4.440308,-8.850098,1.0035689314247427
-0.326416,-0.936279,-0.174316,-1.861572,-5.332946,-9.124756,1.0067531170813429
-0.323242,-0.936768,-0.17334,-2.006531,-6.156921,-9.307861,1.006015125128842
-0.31543,-0.94043,-0.176025,-2.281189,-7.308959,-9.490967,1.007417227580013
-0.3125,-0.945801,-0.179199,-2.586365,-9.078979,-9.803772,1.0120810556482125
-0.318359,-0.948486,-0.180176,-2.792358,-11.093139,-9.910583,1.0165832656762555
-0.316406,-0.94873,-0.182617,-3.128052,-12.611388,-9.895325,1.0166367780210392
-0.31543,-0.942871,-0.186035,-3.326416,-13.961791,-9.735107,1.0114894110992958
-0.319824,-0.940918,-0.186768,-3.425598,-15.411376,-9.414673,1.011185620706703
-0.324463,-0.942139,-0.186035,-3.280639,-16.25824,-8.796692,1.0136622489345255
-0.320068,-0.937744,-0.182129,-3.181457,-16.433716,-8.171082,1.0074613177690745
-0.307129,-0.929443,-0.177734,-2.952575,-16.654968,-7.43103,0.9948778254871298
-0.311279,-0.923584,-0.178955,-2.868652,-17.402649,-6.683349,0.9909222537222585
-0.31665,-0.917725,-0.179443,-2.777099,-17.547607,-5.729675,0.9872619654245777
-0.30835,-0.909424,-0.177734,-2.342224,-15.953063,-4.463196,0.9765864575305149
-0.300049,-0.905762,-0.178711,-1.464844,-14.526366,-3.883362,0.9707583759957984
-0.293945,-0.904297,-0.174561,-0.762939,-13.961791,-3.730774,0.9667617441515775
-0.297363,-0.899902,-0.173096,-0.259399,-14.091491,-3.456115,0.9634368627933021
-0.299072,-0.898926,-0.175049,0.549316,-14.839171,-3.067016,0.9634075809650866
-0.304199,-0.899658,-0.177979,1.556396,-15.815734,-2.609253,0.9662287891622771
-0.307373,-0.905518,-0.184814,2.540588,-16.532898,-2.586365,0.9739595597605684
-0.310303,-0.902588,-0.195801,3.387451,-16.693115,-3.059387,0.9743156989159109
-0.306641,-0.888916,-0.20752,4.28772,-16.563416,-3.334045,0.9629459529677665
-0.305908,-0.877197,-0.209961,5.348205,-16.769409,-3.135681,0.9524378734563216
-0.310303,-0.865723,-0.205078,6.507873,-17.166138,-2.655029,0.9422426707711766
-0.320313,-0.861328,-0.198242,7.888793,-16.853333,-1.937866,0.9400990544176714
-0.329102,-0.854248,-0.193848,9.178162,-15.083312,-1.022339,0.935748266903017
-0.331543,-0.8479,-0.195068,10.269164,-11.840819,0.114441,0.9310782434752731
-0.328857,-0.847412,-0.197266,10.69641,-8.094788,1.411438,0.9301440205414429
-0.328613,-0.85498,-0.203125,10.810851,-4.821777,2.479553,0.9382095020804255
-0.329346,-0.866943,-0.206055,10.429381,-2.426147,3.349304,0.9500092715284415
-0.333984,-0.880615,-0.209717,9.857178,-1.152039,4.081726,0.9648882373466888
-0.340332,-0.888916,-0.20752,9.101868,-1.022339,5.043029,0.974198170640861
-0.343262,-0.891846,-0.203613,8.476257,-2.365112,6.034851,0.9770754024787442
-0.348633,-0.901855,-0.200684,8.018494,-4.78363,6.835937,0.9875026468673388
-0.359619,-0.921387,-0.200928,7.591247,-7.621765,7.827758,1.0092828593184369
-0.371582,-0.947998,-0.202637,6.91986,-9.44519,8.789063,1.0381883954740583
-0.383301,-0.96875,-0.200928,6.050109,-10.726928,9.651184,1.061022280767468
-0.392578,-0.980469,-0.201416,4.859924,-11.901855,10.658263,1.0751768929348324
-0.404053,-0.985352,-0.19873,3.479004,-13.21411,11.871337,1.0833609756738518
-0.41333,-0.98584,-0.191895,2.090454,-14.396667,13.084411,1.0860690058762381
-0.417725,-0.977539,-0.186523,1.251221,-14.793395,14.343261,1.0792902768370518
-0.411621,-0.96167,-0.177246,0.839233,-13.771056,15.457152,1.0609699246712887
-0.398193,-0.949707,-0.169434,1.098633,-11.665343,16.288757,1.0436517290044605
-0.382568,-0.944336,-0.165039,1.548767,-9.300232,16.876221,1.0321659881244876
-0.367188,-0.9375,-0.157959,1.808166,-7.118225,17.089844,1.0191586348675068
-0.353271,-0.932861,-0.153809,1.861572,-5.630493,17.028809,1.0093003781050516
-0.347412,-0.928711,-0.150146,1.907349,-4.806519,16.25061,1.0028674092725318
-0.34082,-0.925537,-0.154053,1.663208,-4.180908,14.884948,0.9982531430343708
-0.335938,-0.919922,-0.155273,1.319885,-3.448486,13.236999,0.991574773003529
-0.33667,-0.91626,-0.156982,1.182556,-2.906799,11.306762,0.9886973373201731
-0.336182,-0.918701,-0.154053,1.144409,-2.571106,9.338379,0.9903343835967727
-0.339355,-0.921143,-0.147461,0.991821,-2.403259,7.369995,0.9926786937347855
-0.344238,-0.923096,-0.141846,0.923157,-2.235413,5.401611,0.9953523564929156
-0.353516,-0.924561,-0.135254,0.823975,-2.326965,3.662109,0.9990396636235219
-0.361816,-0.924072,-0.123047,0.717163,-2.784729,2.098083,0.9999802214289041
-0.369873,-0.922119,-0.109863,0.75531,-2.975464,0.930786,0.9995895983147284
-0.375244,-0.920654,-0.101318,0.915527,-2.738952,-0.030518,0.9993383733130636
-0.379395,-0.918945,-0.090332,1.121521,-2.761841,-0.808716,0.9982786931884302
-0.377441,-0.919189,-0.084473,1.274109,-2.975464,-0.930786,0.9972491233042023
-0.378906,-0.918701,-0.083496,1.205444,-3.013611,-0.831604,0.9972727140822615
-0.380371,-0.916504,-0.07959,0.999451,-3.417969,-0.900268,0.9954879445563367
-0.380615,-0.911621,-0.075928,0.785828,-4.486084,-0.808716,0.9908005283860117
-0.383789,-0.905273,-0.075439,0.434875,-5.783081,-0.068665,0.9861562978407631
-0.388916,-0.900391,-0.068115,0.282288,-7.026672,0.724792,0.9831578007430954
-0.395508,-0.895996,-0.064209,0.541687,-7.659912,1.457214,0.9815081282195273
-0.403076,-0.898926,-0.06543,1.083374,-7.225036,1.983642,0.987329377741795
-0.410156,-0.906006,-0.064941,1.617432,-5.729675,2.494812,0.996640431576504
-0.416748,-0.918701,-0.067871,2.258301,-3.311157,2.723694,1.0110869871311765
-0.419434,-0.935303,-0.070068,2.799988,-0.617981,2.388,1.0274366680185207
-0.416016,-0.94751,-0.071045,2.838135,1.358032,1.373291,1.0372520929749913
-0.416016,-0.94873,-0.070801,2.098083,1.800537,0.144958,1.0383499924192228
-0.408936,-0.94043,-0.071533,1.083374,0.663757,-0.854492,1.0279855091804553
-0.40625,-0.933838,-0.071045,0.305176,-2.182007,-1.495361,1.02085251861814
-0.407715,-0.931641,-0.071045,-0.640869,-6.050109,-1.739502,1.0194282054813866
-0.406982,-0.927979,-0.069092,-1.922607,-9.925842,-1.586914,1.015654014529062
-0.407959,-0.918457,-0.070313,-3.227234,-13.816833,-1.373291,1.0074411766942029
-0.40918,-0.911377,-0.064941,-4.272461,-17.250061,-0.984192,1.0011261868565822
-0.411377,-0.903809,-0.060303,-5.126953,-19.767761,-0.305176,0.9948558671581527
-0.412842,-0.898438,-0.051025,-5.79071,-21.049498,0.526428,0.9900671226906789
-0.410156,-0.894531,-0.045654,-5.950927,-21.621702,0.823975,0.9851385395024397
-0.408447,-0.892822,-0.043945,-5.744934,-21.751402,0.694275,0.9827976589909033
-0.410156,-0.892578,-0.038574,-5.500793,-21.804808,0.297546,0.9830622482304974
-0.413818,-0.895264,-0.040771,-5.439758,-22.209166,-0.366211,0.9871196691693465
-0.419922,-0.896973,-0.036865,-5.210876,-22.979734,-1.235962,0.9910873205918841
-0.426025,-0.903564,-0.035889,-4.829407,-23.872374,-2.166748,0.999606534113298
-0.433838,-0.904541,-0.041748,-4.356384,-25.009153,-3.036499,1.004068088542306
-0.440674,-0.909424,-0.040283,-3.77655,-26.298521,-3.997802,1.011369520077108
-0.443604,-0.915039,-0.04126,-3.082275,-27.488707,-4.730225,1.0177343798540954
-0.45166,-0.919434,-0.043701,-2.120972,-27.984617,-5.226135,1.0253123491682912
-0.459717,-0.923096,-0.046143,-0.846863,-27.305601,-5.607605,1.0322669818191414
-0.46582,-0.927734,-0.049561,0.778198,-25.115965,-6.195068,1.0392954054921053
-0.469971,-0.929443,-0.051025,2.510071,-21.728514,-6.54602,1.0427562427120731
-0.468262,-0.928467,-0.054199,4.211426,-17.738342,-6.752014,1.0412770055724847
-0.465088,-0.926514,-0.055908,6.011962,-13.801574,-6.660461,1.0382007245248868
-0.462646,-0.926025,-0.061279,7.446289,-10.406493,-6.492614,1.0369757652819087
-0.460449,-0.927002,-0.067627,8.453369,-7.492065,-6.179809,1.037265347311863
-0.457275,-0.923096,-0.078369,9.117126,-4.79126,-5.271911,1.0331255252881908
-0.452393,-0.919434,-0.090576,9.429932,-2.174377,-4.043579,1.0286993334210925
-0.446533,-0.914795,-0.103271,9.628296,0.50354,-2.960205,1.0231844953648388
-0.436768,-0.912598,-0.114746,9.742737,2.830505,-1.899719,1.018218070918013
-0.428467,-0.914551,-0.126221,9.57489,4.501343,-0.946045,1.0178011802562423
-0.421387,-0.919678,-0.138916,9.025574,5.470275,-0.312805,1.0211132564554237
-0.412109,-0.92334,-0.150635,8.323669,5.699157,0.045776,1.022292270686813
-0.399902,-0.926514,-0.163818,7.43103,5.073547,-0.198364,1.0223434544828855
-0.389648,-0.93042,-0.171387,6.332397,3.196716,-1.075745,1.0231717568780914
-0.383789,-0.933838,-0.172607,5.012512,0.389099,-2.26593,1.0242756382995741
-0.38623,-0.936035,-0.172852,3.52478,-2.89917,-3.509521,1.0272355854569095
-0.395752,-0.936035,-0.171631,2.311707,-6.401062,-4.516602,1.0306494878910095
-0.408936,-0.9375,-0.167725,1.281738,-9.262085,-5.203247,1.0364683196899942
-0.427246,-0.936523,-0.16333,0.434875,-10.902404,-5.569458,1.0422529265706093
-0.440186,-0.940674,-0.155762,0.045776,-10.963439,-5.737304,1.0501871688018285
-0.442383,-0.940186,-0.14917,-0.183105,-9.429932,-5.737304,1.0497162103087672
-0.445068,-0.936279,-0.143555,-0.320435,-7.072448,-5.577087,1.0465715114076055
-0.442627,-0.929443,-0.139893,-0.50354,-4.219055,-5.378723,1.0389191512466214
-0.439697,-0.923828,-0.135498,-0.38147,-1.274109,-5.249023,1.0320616906934392
-0.437256,-0.919678,-0.130127,-0.198364,1.434326,-4.959106,1.0266126189313085
-0.434326,-0.911133,-0.127686,-0.160217,3.974914,-4.844666,1.017401657439676
-0.434082,-0.90625,-0.126709,0.038147,6.202697,-4.631042,1.012803740072577
-0.431641,-0.905029,-0.123779,0.144958,8.31604,-4.364014,1.0103032636604714
-0.430664,-0.904297,-0.122803,0.457764,10.32257,-4.264832,1.0091110552927265
-0.426758,-0.904541,-0.121582,0.50354,11.95526,-4.394531,1.0075212126645277
-0.424805,-0.903564,-0.118164,0.50354,13.191222,-4.425049,1.0054103247018105
-0.423096,-0.904297,-0.114258,0.564575,14.137267,-4.417419,1.0048970992041921
-0.42041,-0.905762,-0.11084,0.846863,15.1062,-4.394531,1.0047063622491896
-0.418701,-0.908203,-0.108398,1.174927,16.067505,-4.379272,1.00592909442664
-0.414795,-0.910645,-0.106201,1.373291,16.76178,-4.295349,1.0062841847365982
-0.411865,-0.911377,-0.105469,1.411438,17.227173,-4.272461,1.005666209194184
-0.410156,-0.911133,-0.103516,1.647949,17.303467,-4.15802,1.0045431052378986
-0.410645,-0.9104,-0.100342,1.770019,17.250061,-3.982544,1.0037559429408127
-0.407715,-0.912109,-0.098633,1.815796,17.036438,-3.936767,1.003943632777757
-0.40625,-0.912354,-0.094238,1.571655,16.815186,-3.837585,1.0031498813537287
-0.402588,-0.910645,-0.093506,1.701355,16.51001,-3.509521,1.0000473917795096
-0.399902,-0.911865,-0.089355,1.792908,16.487122,-3.295898,0.9997018074676068
-0.397461,-0.907715,-0.089844,1.647949,16.601563,-3.036499,0.994984277303918
-0.395508,-0.908447,-0.088867,1.609802,16.868591,-2.677917,0.9947863456853436
-0.393066,-0.907471,-0.085938,1.792908,17.250061,-2.342224,0.9926680391958834
-0.392822,-0.907471,-0.087646,2.01416,17.913818,-1.945495,0.9927207869491804
-0.389893,-0.9104,-0.087646,2.14386,18.90564,-1.792908,0.9942467162455202
-0.387939,-0.91626,-0.090332,2.403259,20.225523,-1.571655,0.9990940524019748
-0.381348,-0.920898,-0.093018,2.555847,21.423338,-1.434326,1.0010653184642848
-0.377197,-0.922607,-0.096436,2.281189,22.293089,-1.548767,1.001389612166014
-0.375244,-0.929199,-0.099609,2.006531,22.506712,-1.678467,1.0070455769318487
-0.374756,-0.937744,-0.105713,1.571655,22.422789,-1.708984,1.015372398404152
-0.377686,-0.942383,-0.106934,0.701904,21.743773,-1.670837,1.02086596262242
-0.378906,-0.939697,-0.106445,-0.579834,20.858763,-1.281738,1.0187888626550645
-0.378662,-0.94043,-0.107666,-1.670837,19.943237,-0.602722,1.0195025564950781
-0.370117,-0.941406,-0.102051,-2.716064,18.310547,0.038147,1.016683951445089
-0.35791,-0.94043,-0.098877,-3.639221,16.021729,0.579834,1.011081012643893
-0.349121,-0.938477,-0.099121,-4.501343,12.420653,1.205444,1.0062055082392463
-0.3479,-0.936035,-0.097168,-5.317688,7.652282,2.059937,1.0033132867898242
-0.354492,-0.93335,-0.09668,-6.019592,2.876281,3.364563,1.0030721922992383
-0.370117,-0.92749,-0.096191,-6.66809,-1.342773,4.882813,1.0032332741042833
-0.388428,-0.922363,-0.093506,-6.965637,-4.386902,6.660461,1.0051732124310715
-0.398438,-0.917725,-0.092773,-6.820678,-6.095886,8.598328,1.0047780078196378
-0.403564,-0.912598,-0.087402,-6.729125,-6.477355,10.269164,1.0016676700902352
-0.412109,-0.905273,-0.081055,-6.507873,-5.798339,11.466979,0.9979593906742898
-0.416992,-0.900635,-0.077637,-5.882263,-3.40271,12.351989,0.9955165669430116
-0.410889,-0.895996,-0.077881,-4.768372,0.900268,13.114928,0.9887891850632268
-0.398926,-0.895996,-0.08374,-3.40271,6.156921,13.198852,0.9843592703337537
-0.376953,-0.89624,-0.091309,-2.456665,10.56671,12.138366,0.9765638920674878
-0.364502,-0.897949,-0.093994,-1.914978,12.741088,10.787963,0.9736575304700313
-0.365234,-0.894287,-0.093994,-1.625061,13.09204,9.857178,0.970556533727428
-0.365967,-0.892334,-0.098389,-1.38855,12.33673,8.827209,0.9694700655337429
-0.361572,-0.892822,-0.101563,-1.12915,11.100768,7.499694,0.9685971700541975
-0.356689,-0.893555,-0.10498,-1.091003,9.346008,6.065368,0.9678266276281098
-0.353027,-0.89209,-0.108887,-1.228333,7.30133,4.478455,0.9655614996456725
-0.349365,-0.895996,-0.111572,-1.13678,5.455017,3.051758,0.9681492893273227
-0.34668,-0.898438,-0.113525,-0.869751,3.77655,1.63269,0.9696730314229637
-0.34668,-0.901123,-0.118164,-0.785828,1.831055,0.259399,0.9727139427524415
-0.349854,-0.899658,-0.115479,-0.75531,-0.473022,-0.709534,0.9721716606242953
-0.354004,-0.898682,-0.118652,-0.808716,-2.777099,-1.342773,0.9731528483460344
-0.367432,-0.895264,-0.119385,-0.488281,-4.707336,-1.724243,0.9750675271718364
-0.378662,-0.894287,-0.119873,-0.144958,-5.889892,-1.823425,0.9785211723524434
-0.391602,-0.901123,-0.121094,0.274658,-6.111145,-1.464844,0.9899689613159596
-0.398438,-0.905273,-0.119385,0.694275,-5.264282,-1.159668,0.9962554002854891
-0.404785,-0.909912,-0.121826,1.235962,-3.669739,-0.823975,1.0033106788253576
-0.406006,-0.912354,-0.125,1.518249,-1.647949,-0.511169,1.0064073198024743
-0.404297,-0.915771,-0.125,1.724243,0.457764,0.099182,1.0088198990156767
-0.404541,-0.920898,-0.127686,2.113342,2.27356,0.816345,1.0139084089211412
-0.404297,-0.923828,-0.130615,2.380371,3.715515,1.426697,1.0168453746848634
-0.397217,-0.925293,-0.13501,2.532959,4.615784,1.831055,1.0159607182553863
-0.392578,-0.927246,-0.135254,2.456665,5.096435,2.189636,1.0159706074075174
-0.384766,-0.927734,-0.133545,2.433777,5.065917,2.410889,1.0131976690345275
-0.382324,-0.925049,-0.131592,2.593994,4.821777,2.39563,1.0095562133140483
-0.380371,-0.928955,-0.132324,2.708435,4.692078,2.159119,1.0124964842615505
-0.375977,-0.929443,-0.133545,3.036499,4.623413,1.922607,1.0114629315021881
-0.374756,-0.929199,-0.132813,3.082275,4.585266,1.541138,1.0106889403303074
-0.371582,-0.927002,-0.129395,3.14331,4.302979,1.075745,1.007049629736787
-0.36792,-0.922852,-0.125488,3.158569,3.814697,0.663757,1.0013831326959728
-0.369629,-0.915283,-0.123291,3.158569,3.463745,0.434875,0.9947709477115825
-0.368408,-0.90918,-0.122314,3.082275,3.555298,0.259399,0.9885815300014461
-0.365234,-0.906006,-0.12207,3.181457,3.89862,0.274658,0.9844510306216353
-0.365479,-0.909424,-0.122314,3.463745,4.562378,0.083923,0.9877183939833256
-0.363281,-0.9104,-0.123047,3.738403,5.187988,0.0,0.9878976714063051
-0.364258,-0.912109,-0.119873,3.860473,5.424499,-0.175476,0.9894423957836049
-0.365479,-0.916992,-0.121826,3.761291,5.531311,-0.610352,0.9946309877441986
-0.367188,-0.92041,-0.123535,3.753662,5.424499,-0.961304,0.9986202940402322
-0.367432,-0.920654,-0.121582,3.738403,5.424499,-1.327515,0.9986952713736057
-0.373779,-0.924561,-0.12207,3.700256,5.371093,-1.747131,1.0047013827312072
-0.372314,-0.92627,-0.12207,3.723144,5.249023,-1.998901,1.005731033823656
-0.372803,-0.928955,-0.12207,3.440857,4.78363,-2.204895,1.008385121733755
-0.37207,-0.92749,-0.120117,3.14331,3.77655,-2.365112,1.0065296213669026
-0.375,-0.926025,-0.122559,3.005981,2.441406,-2.357483,1.0065624715366652
-0.375977,-0.92627,-0.123047,2.494812,1.457214,-2.349854,1.0072116866071403
-0.381348,-0.926758,-0.126221,2.174377,0.869751,-2.26593,1.0100685266401483
-0.384277,-0.926025,-0.127441,1.968384,0.610352,-2.067566,1.0106593500458005
-0.387939,-0.923584,-0.125,1.792908,0.740051,-1.571655,1.0095192285325723
-0.387451,-0.920898,-0.129883,1.739502,1.197815,-1.319885,1.0074924304896786
-0.383545,-0.916504,-0.126221,1.976013,1.869202,-1.144409,1.0015079080476599
-0.38208,-0.914795,-0.122559,2.250671,2.532959,-0.900268,0.9989272880975872
-0.372559,-0.910156,-0.120117,2.563476,2.89917,-0.839233,0.9907634664772415
-0.370605,-0.906494,-0.119873,3.211975,2.792358,-0.587463,0.9866351778595774
-0.369141,-0.900635,-0.115967,3.784179,2.182007,-0.686645,0.9802330468796693
-0.369629,-0.894043,-0.117676,3.944397,1.098633,-0.953674,0.9745697124710987
-0.378174,-0.891846,-0.121582,4.264832,-0.190735,-0.991821,0.9763129850186364
-0.390381,-0.891846,-0.123291,4.493713,-0.137329,-1.037598,0.9813191547901223
-0.394775,-0.894043,-0.124268,4.78363,1.373291,-1.091003,0.9851917185492375
-0.39624,-0.896484,-0.12207,5.15747,3.410339,-1.312256,0.9877199930931843
-0.396973,-0.901123,-0.123047,5.561828,5.15747,-1.731872,0.992346102963578
-0.401123,-0.900879,-0.121582,5.645751,5.882263,-1.983642,0.9936120050069847
-0.404785,-0.902588,-0.119873,5.424499,5.599975,-1.960754,0.9964364154816904
-0.409912,-0.909912,-0.120117,5.256652,4.898071,-1.823425,1.0051844553001206
-0.413818,-0.910645,-0.118408,5.065917,4.379272,-1.64032,1.0072438173615164
-0.419434,-0.916992,-0.116455,5.187988,4.03595,-1.373291,1.015066980767772
-0.420898,-0.921875,-0.109375,5.096435,3.784179,-1.022339,1.0192995303903558
-0.424316,-0.920654,-0.107178,4.981995,3.326416,-0.717163,1.0193797031803213
-0.424316,-0.920898,-0.112061,5.043029,3.005981,-0.38147,1.0201249246935395
-0.424561,-0.920898,-0.115234,5.020141,3.105163,-0.030518,1.0205802486237914
-0.425049,-0.91748,-0.120605,5.004883,3.692627,0.305176,1.018323017920149
-0.421875,-0.916016,-0.119629,4.882813,4.875183,0.617981,1.0155663077918644
-0.416016,-0.914307,-0.118408,4.905701,6.217956,0.938415,1.0114578868984117
-0.408936,-0.917725,-0.114014,4.981995,7.400512,1.098633,1.011161223503453
-0.40332,-0.924316,-0.116455,4.890442,8.293152,1.296997,1.0151792242165913
-0.400879,-0.922119,-0.119873,4.692078,8.537292,1.335144,1.0126089861990164
-0.39502,-0.924561,-0.118652,4.432678,8.407593,1.564026,1.012389322457028
-0.388428,-0.923584,-0.119141,4.142761,8.613586,1.731872,1.0089986591274538
-0.385742,-0.927979,-0.120117,4.089355,9.124756,1.930237,1.0121116582146459
-0.381836,-0.930908,-0.119141,4.081726,9.750366,2.128601,1.0132043294622264
-0.376465,-0.934814,-0.119385,4.043579,10.078429,2.26593,1.0148181556544995
-0.374023,-0.939941,-0.118896,3.875732,10.231017,2.357483,1.0185865436112926
-0.369873,-0.942627,-0.116211,3.52478,10.337829,2.365112,1.0192431965821502
-0.367432,-0.942383,-0.119629,3.166198,10.360717,2.082825,1.0185298674825398
-0.365723,-0.942383,-0.122559,2.960205,10.299682,1.831055,1.0182630995469686
-0.361328,-0.941895,-0.124023,2.792358,10.337829,1.716614,1.016418132039172
-0.360352,-0.942627,-0.124023,2.525329,10.398864,1.548767,1.0167501805074834
-0.360107,-0.94043,-0.12793,2.037048,10.429381,1.434326,1.0151116792003725
-0.358398,-0.935059,-0.128174,1.441955,10.345458,1.411438,1.00956081251255
-0.356201,-0.932373,-0.126465,0.862122,9.94873,1.571655,1.0060775118026444
-0.353271,-0.935547,-0.12207,0.366211,8.972168,1.731872,1.0074471070731208
-0.354248,-0.936523,-0.120117,-0.434875,7.217407,2.059937,1.0084617338907809
-0.352295,-0.9375,-0.118652,-1.220703,5.149841,2.326965,1.008511930583372
-0.355469,-0.934326,-0.11792,-1.861572,3.051758,2.540588,1.0065924749554807
-0.361572,-0.931885,-0.116699,-2.166748,1.579285,2.63977,1.0063610788429767
-0.367432,-0.926514,-0.119141,-2.105713,0.801086,2.731323,1.0038072746802544
-0.372803,-0.923584,-0.118896,-1.953125,0.442505,2.685547,1.0030581940650303
-0.376465,-0.921631,-0.117432,-1.655578,0.289917,2.571106,1.0024569172837305
-0.380371,-0.919922,-0.117188,-1.327515,0.404358,2.403259,1.0023330838942712
-0.384766,-0.916016,-0.116943,-1.029968,1.144409,1.693725,1.0004028449884577
-0.38916,-0.90625,-0.118896,-0.816345,2.128601,1.014709,0.9934137239418429
-0.39209,-0.904297,-0.119385,-0.465393,2.983093,0.610352,0.9928446054312831
-0.392822,-0.904053,-0.12085,-0.198364,3.677368,0.205994,0.9930889552265698
-0.395996,-0.902344,-0.12085,-0.152588,4.203796,-0.419617,0.992795169635711
-0.395508,-0.900391,-0.122559,0.015259,4.295349,-0.801086,0.991035438027319
-0.396729,-0.899414,-0.12207,-0.015259,4.165649,-0.923157,0.9905758566293649
-0.398926,-0.900879,-0.121094,0.015259,4.112244,-1.00708,0.992667458393293
-0.40332,-0.903809,-0.123779,0.312805,4.074097,-1.075745,0.9974261735697534
-0.404785,-0.905518,-0.123535,0.679016,4.417419,-1.12915,0.9995372133012358
-0.405029,-0.906982,-0.123779,1.060486,5.119323,-1.052856,1.0009925474278016
-0.40332,-0.90918,-0.122803,1.350403,5.706787,-0.961304,1.002175569253711
-0.400391,-0.907959,-0.122314,1.586914,6.17218,-0.808716,0.9998315923984399
-0.399658,-0.908447,-0.124268,1.846313,6.523132,-0.785828,1.0002224775503699
-0.398438,-0.9104,-0.123047,2.037048,6.698608,-0.63324,1.001359857420398
-0.397217,-0.91333,-0.120605,2.319336,6.988525,-0.526428,1.0032440381153531
-0.393799,-0.908936,-0.12207,2.349854,7.385253,-0.511169,0.9980698319240994
-0.392822,-0.9104,-0.120361,2.5177,7.858276,-0.465393,0.9988113205230505
-0.393799,-0.912598,-0.12085,2.876281,8.06427,-0.679016,1.0012579510321005
-0.391357,-0.914063,-0.120361,2.761841,8.422852,-0.63324,1.0015778750247033
-0.389648,-0.912109,-0.121826,2.983093,8.94165,-0.358582,0.9993047413381966
-0.386719,-0.912109,-0.12207,3.044128,9.498596,-0.465393,0.9981961218828692
-0.382568,-0.913574,-0.124512,3.036499,9.757996,-0.526428,0.9982379306778519
-0.382813,-0.915771,-0.120361,3.112793,10.032654,-0.511169,0.9998345301753686
-0.383301,-0.91626,-0.117188,3.036499,10.19287,-0.38147,1.0000925314914615
-0.381348,-0.919922,-0.117676,2.876281,10.475158,-0.152588,1.0027613994186255
-0.379883,-0.916992,-0.119873,2.807617,10.81848,0.1297,0.9997774541776785
-0.377197,-0.917236,-0.121582,2.914428,10.734557,0.312805,0.999190491962869
-0.378418,-0.918457,-0.120117,2.662658,10.513305,0.427246,1.0005955912665216
-0.376953,-0.92041,-0.117676,2.235413,10.2005,0.648498,1.0015466905167227
-0.374023,-0.918213,-0.119629,2.037048,9.391785,0.869751,0.9986588083720085
-0.373291,-0.919434,-0.121338,1.724243,8.346558,1.029968,0.9997139397252596
-0.371338,-0.923828,-0.119141,1.190186,7.316589,1.350403,1.002768498562355
-0.372559,-0.925049,-0.11792,0.62561,6.271362,1.441955,1.0042016666397244
-0.372314,-0.925537,-0.116699,0.411987,5.424499,1.480102,1.0044177963208338
-0.373047,-0.927002,-0.115723,0.183105,4.806519,1.663208,1.005926729410249
-0.372559,-0.928467,-0.114258,-0.038147,3.829956,1.792908,1.0069290288466213
-0.374023,-0.927979,-0.112061,-0.259399,2.838135,1.937866,1.0067749980462368
-0.377197,-0.928223,-0.110107,-0.267029,2.01416,1.976013,1.0079677901535347
-0.381592,-0.926025,-0.113281,-0.267029,1.358032,1.770019,1.0079520524558696
-0.382568,-0.925293,-0.118896,-0.25177,1.113892,1.785278,1.0082964193574229
-0.38208,-0.921387,-0.11792,-0.183105,1.045227,1.739502,1.004412393675526
-0.381836,-0.918213,-0.119385,-0.030518,1.113892,1.449585,1.0015820597884129
-0.383545,-0.917236,-0.118652,0.007629,1.052856,1.205444,1.0012526872997647
-0.38208,-0.919922,-0.118164,0.022888,1.38855,1.13678,1.003097374824598
-0.382568,-0.921875,-0.119385,0.25177,1.998901,0.953674,1.0052186669944008
-0.379395,-0.921143,-0.119141,0.221252,2.410889,0.854492,1.0033142929087575
-0.378418,-0.920898,-0.122559,0.0,2.670288,1.022339,1.0031321037674947
-0.375732,-0.921387,-0.122803,-0.061035,2.822876,1.106262,1.0026011751449326
-0.375732,-0.92334,-0.124268,0.022888,2.738952,1.312256,1.0045764417146164
-0.375977,-0.924561,-0.122803,-0.175476,2.372742,1.396179,1.0056104236029975
-0.376221,-0.921631,-0.122314,-0.511169,1.976013,1.731872,1.002948979558781
-0.373535,-0.917969,-0.122559,-0.640869,1.914978,1.678467,0.9986071247828148
-0.378662,-0.914307,-0.125244,-0.656128,1.945495,1.350403,0.9975110325349791
-0.37915,-0.914307,-0.128662,-0.854492,1.998901,1.13678,0.9981312153184069
-0.376709,-0.915527,-0.129639,-1.060486,1.853943,1.098633,0.9984516156184035
-0.378906,-0.9104,-0.12793,-1.457214,1.281738,0.953674,0.994366130625938
-0.379395,-0.911621,-0.123779,-1.899719,0.63324,0.862122,0.9951455443838354
-0.379883,-0.911621,-0.123535,-2.090454,-0.015259,0.854492,0.9953013802637873
-0.383301,-0.912598,-0.115723,-2.380371,-0.907898,0.869751,0.9965673980890606
-0.385498,-0.915283,-0.111816,-2.494812,-1.602173,1.052856,0.9994270838580471
-0.38501,-0.916504,-0.110596,-2.624511,-1.983642,1.296997,1.0002218540563887
-0.388428,-0.918213,-0.109375,-2.746582,-2.281189,1.464844,1.0029727390004177
-0.390381,-0.916504,-0.109863,-2.777099,-2.456665,1.754761,1.0022209267152626
-0.38916,-0.916992,-0.109375,-2.586365,-2.357483,2.075195,1.002139074325016
-0.391602,-0.91748,-0.110107,-2.380371,-2.449036,2.243042,1.0036160761232353
-0.392334,-0.914307,-0.110596,-2.288818,-2.532959,2.304077,1.0010568080888318
-0.390381,-0.917236,-0.108154,-2.159119,-2.5177,2.372742,1.0027045888859791
-0.391113,-0.919434,-0.108887,-1.831055,-2.540588,2.464294,1.0050794186998357
-0.390137,-0.92041,-0.108154,-1.502991,-2.571106,2.296448,1.0055141642885992
-0.386475,-0.917236,-0.107178,-1.312256,-2.632141,1.945495,1.001085375482531
-0.384521,-0.910645,-0.108154,-1.205444,-2.677917,1.747131,0.9943983121375458
-0.384277,-0.910645,-0.109619,-0.87738,-2.540588,1.625061,0.9944644055545678
-0.384033,-0.911377,-0.110107,-0.534058,-2.563476,1.312256,0.9950944340448298
-0.383789,-0.912842,-0.110596,-0.267029,-2.372742,0.854492,0.9963965017506836
-0.385498,-0.913574,-0.114014,0.0,-2.334595,0.282288,0.9981108924743783
-0.385498,-0.915283,-0.114014,0.099182,-2.723694,-0.114441,0.9996753824562251
-0.387207,-0.917236,-0.117188,0.015259,-3.288269,-0.534058,1.0024889864178061
-0.389648,-0.918457,-0.117188,-0.038147,-3.814697,-0.946045,1.0045505721948496
-0.392822,-0.918457,-0.120361,0.022888,-4.203796,-1.266479,1.0061606009251207
-0.393555,-0.916748,-0.123047,0.022888,-4.264832,-1.312256,1.0052129116450903
-0.394531,-0.916504,-0.122803,0.076294,-4.165649,-1.289368,1.0053431597151294
-0.396973,-0.912598,-0.124512,0.244141,-3.890991,-1.213074,1.0029585786447015
-0.397705,-0.914551,-0.128662,0.404358,-3.501892,-0.976562,1.005547964480064
-0.398193,-0.912842,-0.128662,0.343323,-3.044128,-0.839233,1.004187279573387
-0.394775,-0.915771,-0.131104,0.480652,-2.578735,-0.75531,1.005819110915079
-0.39502,-0.918213,-0.131104,0.358582,-2.319336,-0.808716,1.0081389649175356
-0.39624,-0.918457,-0.129395,0.190735,-2.14386,-0.907898,1.0086190878988954
-0.39209,-0.91626,-0.131592,-0.045776,-2.258301,-0.999451,1.00527777761373
-0.393311,-0.914551,-0.13208,-0.152588,-2.700805,-1.182556,1.004262017962444
-0.39502,-0.915527,-0.133057,-0.259399,-3.013611,-1.197815,1.0059496276543871
-0.397217,-0.916992,-0.130371,-0.320435,-3.166198,-1.098633,1.0077957485492783
-0.395264,-0.91626,-0.131592,-0.442505,-3.242492,-1.281738,1.0065199808051501
-0.397705,-0.918701,-0.129883,-0.549316,-3.204345,-1.411438,1.0094802564265435
-0.398682,-0.916504,-0.130371,-0.541687,-3.295898,-1.457214,1.0079303134547546
-0.399414,-0.918213,-0.130371,-0.480652,-3.334045,-1.480102,1.0097738630039896
-0.401123,-0.918701,-0.128418,-0.457764,-3.356933,-1.541138,1.0106445325899704
-0.401367,-0.916504,-0.128418,-0.526428,-3.280639,-1.686096,1.0087448802492134
-0.401123,-0.914307,-0.127197,-0.442505,-3.028869,-1.838684,1.0064969091790597
-0.404053,-0.912598,-0.128906,-0.198364,-2.693176,-1.770019,1.0063352787461046
-0.406494,-0.912598,-0.129883,-0.137329,-2.403259,-1.88446,1.0074433360388069
-0.406738,-0.912354,-0.131348,0.068665,-2.01416,-2.029419,1.0075107538205237
-0.405518,-0.912842,-0.134766,0.1297,-1.64032,-1.960754,1.0079123176368072
-0.405518,-0.911621,-0.134521,0.022888,-1.556396,-1.976013,1.0067738551462289
-0.407715,-0.908691,-0.135254,-0.068665,-1.647949,-1.983642,1.0051091976606323
-0.406494,-0.908691,-0.133545,-0.198364,-1.716614,-1.770019,1.0043858683504066
-0.405029,-0.907959,-0.132324,-0.1297,-1.495361,-1.579285,1.002969429991762
-0.404541,-0.90918,-0.132813,-0.183105,-1.13678,-1.365662,1.0039427205025195
-0.402588,-0.908203,-0.133789,-0.190735,-0.663757,-1.197815,1.0024017575174138
-0.401611,-0.906738,-0.130859,-0.213623,-0.411987,-1.144409,1.000294593530326
-0.398682,-0.905762,-0.128906,-0.1297,-0.106812,-1.12915,0.9979824119712731
-0.397949,-0.909668,-0.129639,0.007629,0.053406,-1.25885,1.0013318866120264
-0.395508,-0.907959,-0.131836,-0.083923,-0.022888,-1.281738,0.9990980205370241
-0.395996,-0.909424,-0.131348,-0.144958,-0.343323,-1.365662,1.0005584145346038
-0.39624,-0.910889,-0.126953,-0.282288,-0.808716,-1.25885,1.0014199778963868
-0.396729,-0.912109,-0.124756,-0.427246,-0.869751,-1.13678,1.0024473985491709
-0.397217,-0.913086,-0.125244,-0.495911,-0.587463,-1.052856,1.0035902789589983
-0.395264,-0.915771,-0.121094,-0.38147,-0.183105,-0.869751,1.0047556473954251
-0.38916,-0.91748,-0.121826,-0.50354,0.068665,-0.572205,1.0040202339973034
-0.388428,-0.917969,-0.123291,-0.587463,0.236511,-0.358582,1.0043625176329511
-0.386963,-0.919922,-0.122314,-0.572205,0.320435,-0.12207,1.0054638551678523
-0.381836,-0.920166,-0.121338,-0.579834,0.144958,-0.053406,1.0036070489469473
-0.37915,-0.920898,-0.120361,-0.724792,-0.648498,0.053406,1.003142372360474
-0.379883,-0.921631,-0.119873,-0.793457,-1.411438,0.053406,1.0040340282973481
-0.375977,-0.921143,-0.124023,-0.930786,-1.89209,-0.274658,1.002618988203894
-0.377686,-0.919189,-0.123291,-0.946045,-2.044678,-0.602722,1.0013769534985315
-0.378906,-0.916748,-0.125244,-0.968933,-1.861572,-0.862122,0.999841343352034
-0.375488,-0.916016,-0.127441,-0.976562,-1.922607,-1.213074,0.9981571814503967
-0.374023,-0.918213,-0.129639,-1.12915,-2.388,-1.289368,0.9999072898119105
-0.373291,-0.917236,-0.128662,-1.235962,-2.975464,-1.197815,0.9986100142803497
-0.37915,-0.917969,-0.127441,-1.434326,-3.501892,-1.190186,1.0013306226926248
-0.380615,-0.918213,-0.128174,-1.708984,-3.982544,-1.213074,1.0022033056570907
-0.383789,-0.92041,-0.128906,-1.937866,-4.302979,-1.167297,1.0055174396583084
-0.384033,-0.920654,-0.126465,-1.953125,-4.402161,-1.182556,1.0055240071872973
-0.386963,-0.921143,-0.128418,-2.006531,-4.66156,-1.266479,1.0073410408307606
-0.388672,-0.921631,-0.130859,-2.128601,-4.981995,-1.350403,1.0087584951939685
-0.390625,-0.921875,-0.132568,-2.26593,-5.111694,-1.472473,1.0099582569958028
-0.392822,-0.918457,-0.131836,-2.342224,-5.142211,-1.472473,1.0075976952281103
-0.392822,-0.914795,-0.131104,-2.464294,-5.149841,-1.419067,1.004164963800769
-0.391357,-0.911133,-0.128662,-2.502441,-5.279541,-1.365662,0.9999387758167996
-0.394531,-0.910156,-0.128418,-2.502441,-5.378723,-1.449585,1.0002648834288845
-0.397705,-0.908447,-0.126709,-2.403259,-5.393981,-1.457214,0.9997501635483738
-0.397217,-0.904785,-0.131348,-2.365112,-5.073547,-1.487732,0.9968297439472801
-0.397461,-0.902588,-0.12915,-2.311707,-4.821777,-1.426697,0.9946456991135084
-0.398682,-0.900879,-0.129639,-1.991272,-4.516602,-1.319885,0.9936481168331172
-0.397949,-0.902832,-0.130371,-2.044678,-4.142761,-1.296997,0.9952213946986871
-0.400635,-0.907715,-0.129883,-1.991272,-3.860473,-1.289368,1.0006620399210715
-0.401611,-0.908447,-0.126953,-1.800537,-3.669739,-1.319885,1.0013413061184484
-0.4021,-0.907471,-0.12793,-1.701355,-3.662109,-1.426697,1.0007767536973469
-0.403564,-0.912354,-0.12793,-1.747131,-3.585815,-1.449585,1.0057931240130846
-0.4021,-0.916016,-0.131104,-1.579285,-3.341675,-1.556396,1.0089390373417018
-0.403564,-0.912598,-0.131836,-1.472473,-3.051758,-1.426697,1.006518625061653
-0.400635,-0.911133,-0.130859,-1.365662,-2.754211,-1.235962,1.0038903450053696
-0.399414,-0.910889,-0.12915,-1.304626,-2.632141,-1.083374,1.0029606354274327
-0.394775,-0.910645,-0.130127,-1.113892,-2.63977,-0.808716,1.0010267992311694
-0.394287,-0.911133,-0.12915,-0.915527,-2.502441,-0.610352,1.0011519887399714
-0.393311,-0.911377,-0.129395,-0.762939,-2.326965,-0.511169,1.0010218003994718
-0.390381,-0.913818,-0.130615,-0.541687,-2.082825,-0.411987,1.0022579211510378
-0.387451,-0.913574,-0.133545,-0.488281,-1.823425,-0.480652,1.0012841743990564
-0.38623,-0.909668,-0.133545,-0.396728,-1.808166,-0.602722,0.9972480885662304
-0.385986,-0.908447,-0.133057,-0.404358,-1.846313,-0.709534,0.9959745525132658
-0.386475,-0.913086,-0.134033,-0.312805,-2.128601,-0.823975,1.0005267683125723
-0.387939,-0.912842,-0.133301,-0.389099,-2.487183,-0.915527,1.0007728719774533
-0.388428,-0.910645,-0.134033,-0.442505,-2.5177,-1.060486,0.9990572917996244
-0.388916,-0.910156,-0.132568,-0.282288,-2.540588,-1.13678,0.9986059653416857
-0.391113,-0.912109,-0.133057,-0.289917,-2.609253,-1.266479,1.001307331391816
-0.393311,-0.914551,-0.134277,-0.198364,-2.555847,-1.296997,1.0045533271315168
-0.393555,-0.916992,-0.133301,-0.236511,-2.563476,-1.319885,1.006741785509075
-0.395264,-0.914795,-0.132813,-0.274658,-2.471924,-1.312256,1.0053471115440678
-0.396484,-0.912598,-0.130859,-0.335693,-2.403259,-1.25885,1.003572991735529
-0.399414,-0.9104,-0.133057,-0.297546,-2.365112,-1.213074,1.0030273518927586
-0.399658,-0.913574,-0.130127,-0.221252,-2.326965,-1.068115,1.0056226959297407
-0.39917,-0.915527,-0.130615,-0.228882,-2.120972,-0.953674,1.0072669233395881
-0.397705,-0.913574,-0.133301,-0.213623,-1.815796,-0.862122,1.0052640832646913
-0.399414,-0.910889,-0.130615,-0.038147,-1.38855,-0.892639,1.0031503336698842
-0.397949,-0.907227,-0.133301,-0.030518,-1.113892,-0.900268,0.9995966150057732
-0.39502,-0.908203,-0.13208,-0.045776,-1.060486,-0.816345,0.9991589543255868
-0.39624,-0.90625,-0.129639,0.007629,-1.083374,-0.724792,0.9975477283924815
-0.395752,-0.908691,-0.130127,0.106812,-0.999451,-0.63324,0.999635941287627
-0.392334,-0.90918,-0.130615,0.038147,-0.740051,-0.694275,0.9987965349264083
-0.392334,-0.908936,-0.127686,0.1297,-0.495911,-0.770569,0.9981955390844021
-0.391357,-0.910889,-0.126709,0.37384,-0.411987,-0.785828,0.9994669791698974
-0.390869,-0.913086,-0.126953,0.450134,-0.366211,-0.938415,1.0013099833548051
-0.393066,-0.915283,-0.127441,0.564575,-0.305176,-0.961304,1.0042335679143573
-0.39209,-0.917725,-0.126953,0.617981,-0.022888,-0.854492,1.0060173000172512
-0.392578,-0.917236,-0.130615,0.62561,-0.038147,-0.961304,1.006230412979552
-0.394531,-0.92041,-0.127441,0.427246,-0.335693,-0.854492,1.0094803051778671
-0.390869,-0.919434,-0.126953,0.167847,-0.564575,-0.617981,1.0071020403742612
-0.389404,-0.921143,-0.12793,0.083923,-0.793457,-0.389099,1.0082192155305314
-0.388428,-0.923096,-0.126465,-0.007629,-0.976562,-0.221252,1.0094433776220437
-0.385498,-0.922852,-0.126953,-0.007629,-0.961304,-0.099182,1.008157520488242
-0.383057,-0.918701,-0.12915,-0.076294,-0.869751,0.137329,1.0037050937152805
-0.383057,-0.915771,-0.130127,-0.091553,-0.75531,0.38147,1.0011504511405867
-0.379395,-0.918213,-0.129639,-0.045776,-0.747681,0.450134,1.001929114116862
-0.375,-0.918213,-0.128906,-0.305176,-1.213074,0.427246,1.000178419185797
-0.374756,-0.916016,-0.12915,-0.457764,-1.663208,0.289917,0.9981017454608524
-0.376465,-0.913818,-0.127441,-0.556946,-1.991272,-0.1297,0.996509127820714
-0.379639,-0.913086,-0.128174,-0.480652,-2.250671,-0.595093,0.9971360930148903
-0.381836,-0.916016,-0.130127,-0.457764,-2.27356,-1.00708,1.0009081272929101
-0.385254,-0.91333,-0.128418,-0.457764,-2.449036,-1.228333,0.9995416530290271
-0.388184,-0.916748,-0.130615,-0.488281,-2.487183,-1.495361,1.0040786779854454
-0.391846,-0.916504,-0.128418,-0.564575,-2.632141,-1.541138,1.004994553445938
-0.395264,-0.917969,-0.127197,-0.595093,-2.632141,-1.487732,1.0075116830419388
-0.39624,-0.916992,-0.128418,-0.602722,-2.494812,-1.289368,1.0071601900333433
-0.398926,-0.917236,-0.128174,-0.579834,-2.182007,-1.113892,1.0084108326708912
-0.400635,-0.918213,-0.129883,-0.648498,-1.937866,-0.984192,1.010194590305749
-0.399658,-0.916504,-0.129395,-0.694275,-1.838684,-0.839233,1.0081910359673905
-0.39917,-0.913574,-0.12793,-0.724792,-1.792908,-0.610352,1.0051468685102691
-0.397949,-0.913574,-0.127197,-0.732422,-1.861572,-0.457764,1.0045695281492466
-0.398926,-0.910645,-0.129639,-0.663757,-1.708984,-0.404358,1.0026078694195453
-0.397217,-0.908936,-0.133789,-0.671387,-1.541138,-0.343323,1.000922321514512
-0.393799,-0.906006,-0.131592,-0.762939,-1.266479,-0.213623,0.9966147595239596
-0.395752,-0.906006,-0.129639,-0.564575,-1.014709,-0.160217,0.9971322820273145
-0.395508,-0.908203,-0.127441,-0.427246,-0.831604,-0.25177,0.9987494559467855
-0.391846,-0.908691,-0.128906,-0.358582,-0.617981,-0.366211,0.9979375621916433
-0.391113,-0.908936,-0.130859,-0.411987,-0.480652,-0.358582,0.998127300871988
-0.391357,-0.909912,-0.131592,-0.404358,-0.747681,-0.297546,0.9992079881871442
-0.391357,-0.911865,-0.129395,-0.259399,-0.907898,-0.259399,1.0007003276201123
-0.393066,-0.916992,-0.130615,-0.404358,-1.014709,-0.282288,1.0061985324204166
-0.393066,-0.916992,-0.131104,-0.480652,-1.098633,-0.25177,1.006262126503825
-0.394775,-0.920898,-0.128418,-0.465393,-1.281738,-0.091553,1.0101443509484176
-0.395264,-0.923584,-0.126221,-0.610352,-1.464844,-0.061035,1.012508160753779
-0.395508,-0.924072,-0.12915,-0.701904,-1.441955,0.083923,1.0134176640201216
-0.395508,-0.920166,-0.131348,-0.732422,-1.281738,0.137329,1.0101407539169975
-0.393311,-0.920166,-0.130859,-0.816345,-1.281738,0.198364,1.0092190486499946
-0.390869,-0.918457,-0.129639,-0.793457,-1.396179,0.198364,1.0065525849805363
-0.387695,-0.914551,-0.128174,-0.839233,-1.548767,0.320435,1.0015685293089036
-0.387451,-0.910156,-0.127686,-0.717163,-1.495361,0.358582,0.9973995870928561
-0.38623,-0.910889,-0.126465,-0.549316,-1.396179,0.389099,0.9974396119294641
-0.385742,-0.909912,-0.129883,-0.305176,-0.961304,0.259399,0.9967980397236945
-0.385254,-0.912842,-0.129395,-0.320435,-0.518799,0.083923,0.9992218109634117
-0.385986,-0.911865,-0.12915,-0.144958,-0.259399,-0.205994,0.9985803387414556
-0.387451,-0.914063,-0.131104,-0.038147,-0.053406,-0.518799,1.0014078610566226
-0.387207,-0.91626,-0.130127,-0.144958,-0.190735,-0.724792,1.0031922470683274
-0.389404,-0.917725,-0.131348,-0.183105,-0.648498,-0.785828,1.0055381384835684
-0.391602,-0.915283,-0.132813,-0.289917,-1.052856,-0.747681,1.0043576999565442
-0.397461,-0.915771,-0.131592,-0.473022,-1.167297,-0.63324,1.0069400306999419
-0.397461,-0.916992,-0.129639,-0.404358,-1.190186,-0.450134,1.0077975217800448
-0.397705,-0.91626,-0.12915,-0.389099,-1.083374,-0.228882,1.0071650198080748
-0.399658,-0.914063,-0.133057,-0.50354,-0.701904,-0.053406,1.006450123047337
-0.404297,-0.908447,-0.135986,-0.335693,1.00708,0.259399,1.0036056039171963
-0.391846,-0.910889,-0.133057,0.366211,2.632141,0.793457,1.0004829950009144
-0.377197,-0.915283,-0.129395,0.434875,1.76239,0.724792,0.9983804950633801
-0.380371,-0.918701,-0.12793,-0.358582,-0.732422,0.030518,1.002526662958148
-0.38916,-0.916016,-0.125732,-0.953674,-2.89917,-0.106812,1.0031646692741927
-0.394531,-0.913818,-0.126953,-1.327515,-3.425598,0.25177,1.0034117356768357
-0.395752,-0.914307,-0.124512,-1.693725,-2.845764,0.167847,1.00403195860341
-0.394775,-0.915771,-0.125977,-1.861572,-2.243042,-0.221252,1.0051636829865074
-0.396973,-0.917725,-0.126709,-1.792908,-1.815796,-0.205994,1.007899751480771
-0.395508,-0.919189,-0.128418,-1.686096,-1.670837,0.221252,1.008873717820521
-0.392822,-0.920166,-0.127686,-1.89209,-2.288818,0.450134,1.008621983617252
-0.391357,-0.917969,-0.128418,-2.037048,-3.364563,0.488281,1.0061404321137284
-0.397217,-0.914063,-0.127441,-2.120972,-3.944397,0.427246,1.0047555531267294
-0.399414,-0.910156,-0.128174,-1.899719,-3.486633,0.419617,1.002169677254306
-0.396729,-0.907959,-0.12915,-1.63269,-2.685547,0.38147,0.9992312883522013
-0.39209,-0.906738,-0.130371,-1.464844,-2.26593,0.267029,0.9964461683327404
-0.393799,-0.907715,-0.131348,-1.426697,-2.243042,-0.007629,0.9981364990470993
-0.397217,-0.90918,-0.130371,-1.266479,-2.082825,-0.183105,1.0006928675322913
-0.399658,-0.915771,-0.133301,-0.892639,-1.38092,-0.480652,1.0080338278083727
-0.397461,-0.919922,-0.137451,-0.724792,-0.801086,-0.656128,1.0114961739947412
-0.395508,-0.919922,-0.141602,-0.740051,-0.663757,-0.778198,1.0113032139531646
-0.395752,-0.919189,-0.141846,-0.740051,-0.976562,-0.656128,1.010766219726896
-0.397949,-0.916748,-0.138184,-0.801086,-0.915527,-0.610352,1.0089029289089213
-0.39624,-0.917969,-0.141113,-0.534058,-0.389099,-0.465393,1.009745562669131
-0.391357,-0.919189,-0.14209,-0.236511,0.106812,-0.175476,1.0090878491340582
-0.387207,-0.916992,-0.142822,-0.061035,0.488281,0.015259,1.0055852587408987
-0.385254,-0.912354,-0.142334,0.022888,0.816345,0.053406,1.0005345738094211
-0.384766,-0.908936,-0.140381,0.091553,0.961304,0.061035,0.9969535355336275
-0.383301,-0.906738,-0.138916,0.152588,0.88501,0.083923,0.9941786118706236
-0.381836,-0.905762,-0.137695,0.061035,0.610352,0.167847,0.9925540008306852
-0.382813,-0.902344,-0.134277,-0.221252,0.099182,0.007629,0.989343620808261
-0.385498,-0.901611,-0.135742,-0.297546,-0.244141,-0.350952,0.9899176702579867
-0.391357,-0.903076,-0.134277,-0.427246,-0.1297,-0.808716,0.993346302129323
-0.395752,-0.905762,-0.133545,-0.587463,0.068665,-1.113892,0.9974260439616562
-0.398193,-0.907471,-0.13208,-0.595093,-0.015259,-1.312256,0.999753173283286
-0.399414,-0.908691,-0.129639,-0.686645,-0.328064,-1.312256,1.001028045160574
-0.403809,-0.912109,-0.12793,-0.740051,-0.709534,-1.251221,1.0056692404871495
-0.408447,-0.914063,-0.126221,-0.869751,-1.091003,-0.900268,1.0090945746653284
-0.409668,-0.916016,-0.125,-0.953674,-1.251221,-0.511169,1.0112063006528391
-0.413086,-0.915771,-0.124023,-0.946045,-1.319885,-0.236511,1.0122540552479895
-0.412842,-0.914795,-0.124512,-0.831604,-1.159668,0.106812,1.0113316207520655
-0.410645,-0.911133,-0.126221,-0.75531,-1.075745,0.434875,1.0073352969865594
-0.410156,-0.908447,-0.127197,-0.679016,-1.00708,0.724792,1.004829822882462
-0.407227,-0.907471,-0.130127,-0.518799,-1.052856,0.869751,1.0031303412313877
-0.407715,-0.905029,-0.133545,-0.488281,-0.869751,1.045227,1.0015704064572792
-0.40332,-0.904297,-0.132813,-0.37384,-0.465393,1.121521,0.999029218580718
-0.39917,-0.902588,-0.132568,-0.236511,-0.099182,1.052856,0.9957791227315422
-0.39917,-0.90332,-0.136475,0.015259,0.221252,0.953674,0.9969699779456751
-0.397217,-0.906006,-0.137695,0.183105,0.427246,0.823975,0.9987933370572712
-0.395508,-0.905273,-0.141357,0.213623,0.480652,0.656128,0.9979617147175537
-0.395752,-0.904785,-0.144287,0.25177,0.595093,0.50354,0.9980352098488309
-0.392822,-0.908203,-0.143555,0.37384,0.587463,0.434875,0.9998749176362012
-0.391113,-0.908936,-0.142334,0.442505,0.610352,0.37384,0.9996964531401519
-0.393555,-0.911133,-0.143799,0.419617,0.816345,0.274658,1.0028594288907096
-0.393799,-0.912354,-0.142822,0.465393,0.961304,0.106812,1.0039250955131065
-0.391602,-0.913818,-0.142334,0.358582,0.839233,-0.022888,1.0043278503974686
-0.394287,-0.91333,-0.144043,0.106812,0.556946,-0.1297,1.0051777520011074
-0.394775,-0.915039,-0.142334,0.068665,0.526428,-0.221252,1.006679015228787
-0.396484,-0.913086,-0.140625,-0.061035,0.694275,-0.411987,1.0053362603014973
-0.397461,-0.913086,-0.140625,0.0,0.801086,-0.442505,1.0057219698017936
-0.395996,-0.914307,-0.138184,-0.083923,0.686645,-0.411987,1.0059149765864908
-0.396973,-0.912598,-0.134277,-0.137329,0.396728,-0.411987,1.0042175984626043
-0.398193,-0.911621,-0.134033,-0.038147,0.289917,-0.427246,1.003780532775467
-0.398926,-0.909424,-0.132568,0.007629,0.244141,-0.305176,1.0018823483204005
-0.397705,-0.912354,-0.13208,0.061035,0.274658,-0.343323,1.0039941308299567
-0.397217,-0.912842,-0.131348,0.152588,0.396728,-0.396728,1.004148474657508
-0.399414,-0.911377,-0.13208,0.190735,0.37384,-0.320435,1.0037851891341096
-0.395996,-0.90918,-0.132568,0.228882,0.114441,-0.289917,1.0004975657341701
-0.396973,-0.9104,-0.132324,0.228882,-0.228882,-0.366211,1.001960759563467
-0.398926,-0.910645,-0.133545,0.12207,-0.427246,-0.450134,1.0031203998154956
-0.400146,-0.908691,-0.133789,0.343323,-0.411987,-0.411987,1.001866084523276
-0.399658,-0.908936,-0.135742,0.434875,-0.144958,-0.389099,1.0021562052015642
-0.400635,-0.908691,-0.131836,0.579834,-0.007629,-0.442505,1.0018026091012142
-0.398438,-0.911377,-0.133057,0.671387,0.167847,-0.495911,1.0035263032038573
-0.395508,-0.911865,-0.137207,0.816345,0.434875,-0.572205,1.0033693822007925
-0.39624,-0.911377,-0.136963,0.801086,0.434875,-0.701904,1.003181457712412
-0.396973,-0.915283,-0.13916,0.724792,0.312805,-0.808716,1.007321219084558
-0.397705,-0.912598,-0.139404,0.686645,0.030518,-0.991821,1.0052053779427368
-0.399658,-0.912109,-0.140381,0.62561,-0.198364,-0.961304,1.00567199921545
-0.400391,-0.912354,-0.138916,0.663757,-0.335693,-1.00708,1.005982320546937
-0.400879,-0.914551,-0.140869,0.694275,-0.289917,-0.984192,1.00844017145441
-0.401367,-0.91333,-0.143799,0.747681,0.061035,-0.862122,1.0079411242676826
-0.400635,-0.912109,-0.142578,0.816345,0.38147,-0.679016,1.0063695728657538
-0.39917,-0.916748,-0.145752,0.724792,0.534058,-0.679016,1.0104490239037296
-0.398682,-0.916748,-0.14502,0.488281,0.457764,-0.762939,1.0101509951626044
-0.396973,-0.913818,-0.143066,0.37384,0.083923,-0.686645,1.0065380172695912
-0.397705,-0.914551,-0.145996,0.259399,-0.213623,-0.549316,1.0079125114026515
-0.393066,-0.911865,-0.14502,0.167847,-0.534058,-0.450134,1.0035085744431884
-0.392578,-0.910889,-0.146484,0.061035,-0.595093,-0.404358,1.0026434155077266
-0.395752,-0.910645,-0.142334,0.1297,-0.640869,-0.289917,1.003071746728518
-0.394531,-0.911377,-0.137451,0.061035,-0.556946,-0.236511,1.002574447854622
-0.393311,-0.910889,-0.139648,0.12207,-0.427246,-0.267029,1.001955027406919
-0.393311,-0.912598,-0.139404,0.0,-0.1297,-0.495911,1.003475025868108
-0.395508,-0.914063,-0.13916,-0.167847,-0.244141,-0.75531,1.0056357450056157
-0.397217,-0.913818,-0.135498,-0.457764,-0.75531,-0.88501,1.0055865901139494
-0.396729,-0.90918,-0.13208,-0.75531,-1.304626,-1.091003,1.00072338747578
-0.401367,-0.910156,-0.131592,-0.778198,-1.731872,-1.152039,1.0033921803009032
-0.400635,-0.915771,-0.131836,-0.846863,-1.770019,-1.091003,1.008228971296699
-0.401611,-0.91626,-0.132324,-0.640869,-1.663208,-0.923157,1.0091250784204107
-0.400879,-0.909668,-0.134277,-0.556946,-1.403808,-0.62561,1.0031102409974688
-0.401367,-0.905273,-0.132813,-0.450134,-0.953674,-0.236511,0.9991266016811883
-0.398193,-0.904297,-0.13208,-0.289917,-0.694275,0.045776,0.9968730389864098
-0.394043,-0.90625,-0.131104,-0.411987,-0.747681,0.350952,0.9968687010659929
-0.39502,-0.90332,-0.12915,-0.640869,-1.022339,0.404358,0.9943377420675532
-0.393555,-0.899414,-0.129639,-0.556946,-1.213074,0.267029,0.9902713525806954
-0.394287,-0.901367,-0.12915,-0.579834,-1.190186,-0.091553,0.9922723565422954
-0.392578,-0.905273,-0.131592,-0.610352,-1.319885,-0.442505,0.9954662952993436
-0.39624,-0.910645,-0.130859,-0.50354,-1.724243,-0.648498,1.0017008193597527
-0.398926,-0.911133,-0.130615,-0.686645,-2.090454,-0.770569,1.0031777386834297
-0.402588,-0.911865,-0.13208,-0.579834,-2.189636,-0.831604,1.0054949041984251
-0.406738,-0.91333,-0.133057,-0.358582,-2.02179,-0.793457,1.0086186865178535
-0.408203,-0.912842,-0.132568,-0.267029,-1.686096,-0.579834,1.0087043574789394
-0.408447,-0.912354,-0.134521,-0.099182,-1.319885,-0.343323,1.0086201825097494
-0.405029,-0.913818,-0.136719,0.091553,-0.984192,-0.160217,1.0088626828890044
-0.407227,-0.9104,-0.137939,0.022888,-0.846863,0.007629,1.0068213134662973
-0.405029,-0.908936,-0.139404,-0.038147,-0.770569,0.213623,1.0048117326907564
-0.401855,-0.907715,-0.140381,-0.015259,-0.62561,0.366211,1.0025670987076127
-0.400146,-0.905029,-0.139648,0.068665,-0.37384,0.442505,0.9993477252993574
-0.395752,-0.902344,-0.13916,0.068665,-0.022888,0.511169,0.9950928828204934
-0.394287,-0.903809,-0.138916,-0.022888,0.244141,0.480652,0.9958065082665407
-0.395264,-0.907471,-0.136719,0.106812,0.228882,0.37384,0.9992143566312486
-0.394775,-0.912354,-0.134277,0.083923,0.183105,0.198364,1.0031288225696637
-0.394287,-0.909668,-0.131592,0.053406,-0.152588,-0.152588,1.0001372721066843
-0.394043,-0.907471,-0.129883,0.0,-0.595093,-0.396728,0.9978191696790557
-0.395996,-0.90625,-0.130127,0.137329,-0.968933,-0.62561,0.997514376159562
-0.398926,-0.907715,-0.129883,0.465393,-0.839233,-0.770569,0.9999790339752129
-0.402588,-0.907959,-0.130859,0.839233,-0.434875,-0.732422,1.0017937518800963
-0.402832,-0.90918,-0.130615,1.121521,0.1297,-0.953674,1.002966684815104
-0.403564,-0.911133,-0.13208,1.38092,0.63324,-1.12915,1.0052225485856354
-0.406006,-0.909912,-0.133057,1.411438,0.732422,-1.342773,1.005228772483657
-0.408691,-0.910156,-0.135742,1.464844,0.724792,-1.533508,1.0068953115299524
-0.408936,-0.912842,-0.136963,1.426697,0.801086,-1.609802,1.009588050854902
-0.409668,-0.910645,-0.137939,1.434326,1.052856,-1.617432,1.0080324171225845
-0.409912,-0.912109,-0.141113,1.579285,1.419067,-1.571655,1.009892843025437
-0.411621,-0.910156,-0.144043,1.564026,1.853943,-1.396179,1.009239405605033
-0.409424,-0.908936,-0.141602,1.602173,2.166748,-1.098633,1.006898103223956
-0.40625,-0.912598,-0.143066,1.480102,2.601623,-0.923157,1.0091293536806865
-0.403076,-0.913818,-0.143555,1.419067,2.876281,-0.686645,1.009030047582826
-0.39917,-0.911377,-0.140137,1.167297,3.013611,-0.411987,1.0047801270914947
-0.396973,-0.911865,-0.13916,0.976562,2.990722,-0.312805,1.0042165336987836
-0.392578,-0.912842,-0.138916,0.793457,2.555847,-0.114441,1.00334224375534
-0.391846,-0.915771,-0.135986,0.434875,2.029419,0.030518,1.005321841179729
-0.389648,-0.916504,-0.136963,0.244141,1.594543,0.144958,1.0052681280578828
-0.389893,-0.917725,-0.132568,0.167847,1.411438,0.106812,1.0058876685286484
-0.388672,-0.920898,-0.132568,0.083923,1.350403,0.213623,1.0083121166642797
-0.388428,-0.920654,-0.132324,0.114441,1.274109,0.320435,1.007963163947969
-0.388672,-0.92041,-0.130859,0.053406,1.25885,0.297546,1.00764307647351
-0.383545,-0.918945,-0.127197,-0.061035,1.022339,0.335693,1.0038654077409979
-0.382568,-0.915527,-0.128662,-0.244141,0.63324,0.312805,1.000550784616653
-0.381348,-0.916504,-0.128662,-0.25177,0.167847,0.205994,1.000979415055075
-0.380859,-0.914551,-0.126709,-0.259399,0.0,0.205994,0.9987553655240107
-0.381592,-0.913818,-0.126465,-0.267029,-0.183105,0.061035,0.9983332048033863
-0.380127,-0.911865,-0.12793,-0.061035,-0.526428,-0.083923,0.9961728761886663
-0.380371,-0.912109,-0.128662,0.068665,-0.709534,-0.305176,0.9965835819267744
-0.38501,-0.911621,-0.128662,0.12207,-0.938415,-0.511169,0.9979175607158138
-0.387695,-0.911865,-0.128418,0.25177,-1.068115,-0.747681,0.9991478238849345
-0.389893,-0.915283,-0.129395,0.511169,-0.87738,-1.00708,1.0032460254409186
-0.391602,-0.91626,-0.130127,0.62561,-0.770569,-1.159668,1.0048967858108613
-0.395264,-0.913818,-0.131348,0.62561,-0.75531,-1.25885,1.0042655345694185
-0.397217,-0.912109,-0.133057,0.556946,-0.900268,-1.281738,1.0037072970836667
-0.399658,-0.9104,-0.134277,0.541687,-1.068115,-1.106262,1.0032870923584136
-0.400391,-0.908691,-0.134521,0.587463,-1.121521,-0.915527,1.0020619670474475
-0.401123,-0.907715,-0.135986,0.656128,-0.892639,-0.785828,1.0016677965024134
-0.401123,-0.907227,-0.136719,0.62561,-0.602722,-0.617981,1.001325409454389
-0.398193,-0.907715,-0.138672,0.701904,-0.366211,-0.648498,1.0008666794623546
-0.401611,-0.906494,-0.136719,0.816345,-0.213623,-0.617981,1.0008570588840346
-0.402832,-0.907227,-0.13916,0.823975,-0.076294,-0.686645,1.0023472229487145
-0.4021,-0.911865,-0.141846,0.87738,0.328064,-0.846863,1.0066292643972756
-0.404297,-0.913818,-0.143311,0.793457,0.640869,-1.060486,1.009483751258038
-0.404053,-0.914551,-0.14624,0.541687,0.640869,-1.052856,1.010469443382629
-0.404541,-0.915283,-0.144043,0.320435,0.495911,-0.938415,1.0110117588925462
-0.403564,-0.913086,-0.137939,0.061035,0.305176,-0.907898,1.0077783055875928
-0.403809,-0.917969,-0.136963,-0.022888,0.37384,-0.778198,1.0121697766733602
-0.399658,-0.919434,-0.139404,-0.030518,0.556946,-0.473022,1.0121851967579845
-0.395996,-0.916016,-0.138916,-0.228882,0.793457,-0.076294,1.0075692528694988
-0.393799,-0.91333,-0.138184,-0.221252,0.88501,0.267029,1.0041634125763594
-0.387939,-0.914795,-0.136719,-0.25177,0.846863,0.480652,1.003014777910575
-0.384277,-0.913574,-0.131348,-0.37384,0.366211,0.579834,0.99976925503288
-0.382324,-0.914307,-0.129883,-0.640869,-0.274658,0.663757,0.9994991370251401
-0.383789,-0.9104,-0.129395,-0.63324,-0.869751,0.312805,0.9964262253403409
-0.384766,-0.912109,-0.128418,-0.640869,-0.999451,0.030518,0.9982378901649646
-0.386475,-0.911621,-0.129639,-0.389099,-0.823975,-0.167847,0.9986100558210897
-0.386719,-0.911621,-0.128662,-0.366211,-0.808716,-0.442505,0.9985781606093737
-0.386963,-0.910156,-0.131836,-0.175476,-0.854492,-0.640869,0.9977499880235529
-0.389404,-0.912109,-0.130859,0.015259,-1.014709,-0.656128,1.0003511288432676
-0.391846,-0.914307,-0.130615,0.0,-1.190186,-0.663757,1.0032750650693958
-0.392334,-0.914307,-0.131348,0.015259,-1.113892,-0.663757,1.0035614355429368
-0.395996,-0.91626,-0.133057,-0.106812,-0.892639,-0.495911,1.007000191094818
-0.397705,-0.918457,-0.13623,-0.25177,-0.701904,-0.457764,1.0100946197134206
-0.395508,-0.914307,-0.137451,-0.190735,-0.801086,-0.457764,1.0056225165110415
-0.396729,-0.917725,-0.136475,-0.343323,-1.312256,-0.389099,1.0090780448959338
-0.397949,-0.921387,-0.134277,-0.778198,-2.044678,-0.358582,1.0125945502021032
-0.399902,-0.921143,-0.132324,-0.854492,-2.670288,-0.404358,1.0128848291039807
-0.399902,-0.915039,-0.133789,-0.938415,-2.983093,-0.38147,1.0075303854703341
-0.399414,-0.908936,-0.133057,-0.938415,-2.830505,-0.221252,1.001698737515926
-0.400391,-0.907959,-0.131104,-0.709534,-2.548218,0.083923,1.0009449322405304
-0.399658,-0.908936,-0.131104,-0.473022,-2.082825,0.091553,1.0015385304001039
-0.398926,-0.904297,-0.134521,-0.343323,-1.403808,0.137329,0.9974923143192633
-0.396729,-0.9021,-0.132813,-0.228882,-0.831604,0.205994,0.9943930824427532
-0.395996,-0.900879,-0.135498,-0.213623,-0.63324,0.137329,0.9933556828553406
-0.397217,-0.899414,-0.133789,-0.091553,-0.740051,0.030518,0.9922834196972153
-0.397461,-0.903564,-0.135498,-0.091553,-0.617981,-0.022888,0.9963748574813598
-0.397705,-0.906494,-0.137207,-0.038147,-0.488281,-0.160217,0.9993629970686327
-0.402344,-0.911865,-0.136719,-0.038147,-0.541687,-0.389099,1.0060171755601393
-0.40332,-0.914795,-0.135742,-0.083923,-0.694275,-0.595093,1.0089315165009962
-0.406006,-0.914063,-0.134521,-0.282288,-0.511169,-0.640869,1.0091818168427333
-0.405762,-0.916016,-0.135986,-0.213623,-0.289917,-0.663757,1.011049111119732
-0.405029,-0.914063,-0.138184,-0.152588,-0.152588,-0.473022,1.009284140698743
-0.407227,-0.912598,-0.138184,-0.1297,0.061035,-0.328064,1.0088427811056588
-0.405762,-0.913574,-0.139893,-0.175476,0.213623,-0.183105,1.0093712426897252
-0.404785,-0.913086,-0.138184,-0.221252,0.541687,0.137329,1.008301421935425
-0.400391,-0.910645,-0.135254,-0.152588,0.709534,0.411987,1.003932723553725
-0.397461,-0.909912,-0.134766,-0.198364,0.778198,0.473022,1.0020364110255675
-0.39624,-0.90918,-0.135498,-0.312805,0.869751,0.259399,1.0009865723395095
-0.397217,-0.908203,-0.137451,-0.190735,1.060486,0.213623,1.000753122252936
-0.392822,-0.907959,-0.134521,-0.1297,1.167297,0.137329,0.9983959979917788
-0.390869,-0.910889,-0.135498,-0.045776,1.113892,0.015259,1.0004284349647405
-0.393799,-0.909668,-0.13501,-0.007629,1.00708,-0.213623,1.000400531149899
-0.394287,-0.910645,-0.136719,0.076294,0.808716,-0.488281,1.0017128527452366
-0.395996,-0.912842,-0.134277,0.144958,0.549316,-0.62561,1.0040536149573887
-0.396729,-0.912842,-0.134033,0.099182,0.213623,-0.572205,1.0043103412262566
-0.400635,-0.913086,-0.13501,0.137329,0.1297,-0.541687,1.0062117802535409
-0.400635,-0.912842,-0.134033,0.152588,0.228882,-0.602722,1.0058597145119195
-0.400879,-0.913574,-0.135986,0.061035,0.389099,-0.38147,1.0068831204827102
-0.401123,-0.913574,-0.135254,-0.053406,0.511169,-0.259399,1.0068817006585231
-0.398926,-0.911865,-0.133545,-0.12207,0.511169,-0.175476,1.004228061112614
-0.398682,-0.912842,-0.13501,-0.198364,0.37384,-0.030518,1.005214183240567
-0.397705,-0.912842,-0.137695,-0.228882,0.267029,-0.167847,1.0051913733284823
-0.39502,-0.9104,-0.135986,-0.213623,0.183105,-0.205994,1.001679166497936
-0.396484,-0.9104,-0.134766,-0.198364,0.015259,-0.244141,1.002092608999787
-0.395264,-0.912109,-0.13623,-0.190735,-0.099182,-0.358582,1.0033618841061285
-0.39502,-0.911621,-0.135986,-0.152588,-0.106812,-0.480652,1.002789030772176
-0.395264,-0.909912,-0.136475,0.015259,0.106812,-0.511169,1.0013984736681996
-0.396729,-0.9104,-0.138916,0.068665,0.221252,-0.740051,1.0027560593170204
-0.397461,-0.911133,-0.138184,-0.015259,0.236511,-0.793457,1.0036101873068048
-0.39624,-0.913086,-0.137207,0.015259,0.175476,-0.793457,1.004767605889541
-0.399658,-0.913574,-0.137207,0.007629,0.1297,-0.747681,1.0065633270137553
-0.400146,-0.911621,-0.141113,-0.083923,0.068665,-0.686645,1.0055260054946367
-0.39917,-0.910156,-0.142334,-0.137329,-0.038147,-0.549316,1.0039818727407384
-0.397949,-0.909424,-0.139404,-0.091553,0.030518,-0.442505,1.0024215149292237
-0.396973,-0.9104,-0.139893,-0.045776,0.030518,-0.297546,1.002988421756702
-0.394531,-0.908936,-0.13916,0.030518,0.068665,-0.236511,1.000592258443468
-0.393799,-0.909424,-0.13916,-0.030518,-0.144958,-0.305176,1.0007473056556286
-0.39502,-0.9104,-0.136475,0.007629,-0.411987,-0.442505,1.0017456693317919
-0.398438,-0.910156,-0.138916,0.1297,-0.450134,-0.640869,1.003212060950226
-0.399414,-0.911133,-0.138916,0.259399,-0.297546,-0.808716,1.0044862080392143
-0.399658,-0.911377,-0.139404,0.312805,-0.236511,-0.854492,1.004872145254808
-0.401123,-0.910645,-0.138672,0.274658,-0.114441,-0.946045,1.0046909478730264
-0.401611,-0.906982,-0.135986,0.167847,-0.068665,-0.953674,1.001199248821632
-0.401855,-0.909668,-0.135986,0.267029,0.038147,-0.946045,1.0037307923168444
-0.401855,-0.912109,-0.136963,0.396728,0.205994,-0.75531,1.0060761066017818
-0.398682,-0.908691,-0.137207,0.427246,0.442505,-0.572205,1.0017446937488612
-0.396729,-0.907227,-0.13916,0.518799,0.785828,-0.442505,0.9999101132451857
-0.394043,-0.905762,-0.13916,0.640869,1.159668,-0.25177,0.9975170134353599
-0.391846,-0.906982,-0.138428,0.686645,1.029968,-0.297546,0.9976582316725502
-0.391846,-0.907471,-0.13623,0.610352,0.50354,-0.25177,0.9978003389741859
-0.392334,-0.905273,-0.137695,0.579834,0.137329,-0.160217,0.996195304701844
-0.397461,-0.907227,-0.138428,0.511169,0.076294,-0.488281,1.0000991886978012
-0.398438,-0.909424,-0.13916,0.63324,0.106812,-0.793457,1.0025818456465287
-0.399414,-0.90918,-0.137695,0.63324,0.137329,-0.953674,1.002546621769282
-0.401855,-0.909912,-0.13916,0.640869,0.091553,-1.113892,1.004386775285796
-0.401611,-0.910156,-0.138428,0.549316,0.061035,-1.106262,1.0044091053156576
-0.405029,-0.911133,-0.139893,0.511169,0.076294,-0.785828,1.0068673626545852
-0.403076,-0.911133,-0.137207,0.541687,0.228882,-0.617981,1.005713361904872
-0.404785,-0.912109,-0.137939,0.640869,0.419617,-0.328064,1.007383190164994
-0.403809,-0.911865,-0.13623,0.595093,0.801086,-0.053406,1.0065376791784797
-0.401367,-0.91333,-0.13623,0.587463,0.793457,0.12207,1.0068891550160821
-0.401123,-0.911133,-0.138428,0.495911,0.808716,0.099182,1.005099654761656
-0.398438,-0.912109,-0.141357,0.488281,0.62561,0.12207,1.0053245591220776
-0.397949,-0.913086,-0.14209,0.37384,0.50354,0.038147,1.0061207770923926
-0.394531,-0.910156,-0.139404,0.335693,0.579834,0.045776,1.001734560406598
-0.395264,-0.907227,-0.138672,0.221252,0.595093,0.007629,0.9992619190227355
-0.394287,-0.910156,-0.137207,0.274658,0.427246,0.038147,1.0013350805569532
-0.395996,-0.912842,-0.136475,0.267029,0.1297,-0.038147,1.0043499263727758
-0.395508,-0.912109,-0.136719,0.328064,0.366211,0.045776,1.0035245342820474
-0.393311,-0.909668,-0.137695,0.320435,0.602722,-0.007629,1.0005744979610465
-0.394775,-0.908936,-0.138672,0.297546,0.610352,-0.083923,1.0006207454900182
-0.394043,-0.909912,-0.13501,0.320435,0.297546,-0.053406,1.0007184587550086
-0.393311,-0.910645,-0.136475,0.305176,0.045776,0.0,1.0012958026332677
-0.392578,-0.911377,-0.134521,0.259399,-0.144958,-0.175476,1.0014097171757423
-0.39624,-0.912354,-0.13501,0.160217,-0.419617,-0.282288,1.0038045920476752
-0.395752,-0.912109,-0.13501,0.106812,-0.671387,-0.297546,1.003389342919786
-0.397217,-0.912354,-0.13501,0.160217,-0.717163,-0.350952,1.0041906524684445
-0.400879,-0.910889,-0.136963,0.160217,-0.50354,-0.473022,1.0045803135294857
-0.400879,-0.911621,-0.136963,0.175476,-0.289917,-0.465393,1.0052440915772647
-0.400879,-0.912354,-0.135498,0.175476,-0.228882,-0.358582,1.0057104463815616
-0.400635,-0.913086,-0.136719,0.106812,-0.411987,-0.25177,1.0064425128053762
-0.400391,-0.91333,-0.135498,0.030518,-0.62561,-0.205994,1.00640168411276
-0.399902,-0.912354,-0.135254,-0.106812,-0.732422,-0.068665,1.0052885533198914
-0.399658,-0.910889,-0.138184,-0.137329,-0.694275,0.030518,1.0042609746181517
-0.400391,-0.912842,-0.137695,-0.106812,-0.686645,0.007629,1.006257115686642
-0.399414,-0.91333,-0.138428,-0.236511,-0.640869,0.038147,1.0064122134990214
-0.399902,-0.910156,-0.140381,-0.289917,-0.640869,-0.053406,1.0039981967618268
-0.396484,-0.910889,-0.136719,-0.190735,-0.686645,-0.144958,1.002801285169699
-0.39624,-0.911865,-0.137451,-0.259399,-0.846863,-0.228882,1.0036915329054041
-0.39502,-0.909912,-0.137695,-0.312805,-0.953674,-0.175476,1.001469201308258
-0.39502,-0.911377,-0.135742,-0.289917,-1.235962,-0.267029,1.002534152581846
-0.396973,-0.911133,-0.138428,-0.25177,-1.327515,-0.442505,1.0034506552900346
-0.398926,-0.910645,-0.139648,-0.221252,-1.350403,-0.396728,1.0039511110631831
-0.400146,-0.910156,-0.137695,-0.198364,-1.213074,-0.411987,1.0037234074569548
-0.401123,-0.91333,-0.138428,-0.083923,-1.052856,-0.343323,1.0070916846111877
-0.400879,-0.911621,-0.136719,-0.083923,-0.892639,-0.389099,1.0052108760071192
-0.39917,-0.909668,-0.139893,-0.091553,-0.862122,-0.37384,1.0031961974474386
-0.398926,-0.909668,-0.137451,-0.114441,-0.793457,-0.366211,1.0027614876434974
-0.39917,-0.911865,-0.138184,-0.076294,-0.732422,-0.419617,1.0049523794593453
-0.399902,-0.908447,-0.138184,-0.152588,-0.63324,-0.404358,1.0021438914991199
-0.399902,-0.909668,-0.137939,-0.137329,-0.549316,-0.38147,1.0032171487514556
-0.399902,-0.912354,-0.135742,-0.091553,-0.549316,-0.473022,1.00535432633674
-0.399902,-0.909912,-0.135742,-0.091553,-0.617981,-0.450134,1.0031387480862257
-0.400879,-0.909424,-0.134521,-0.022888,-0.701904,-0.526428,1.0029216738399864
-0.399902,-0.9104,-0.13623,-0.083923,-0.823975,-0.587463,1.0036475389816886
-0.400635,-0.911865,-0.133789,0.022888,-0.854492,-0.511169,1.0049406340530769
-0.4021,-0.912354,-0.13501,0.1297,-0.686645,-0.549316,1.0061321639903975
-0.402344,-0.910889,-0.134033,0.221252,-0.320435,-0.541687,1.0047707747272507
-0.402588,-0.907227,-0.13501,0.442505,0.1297,-0.473022,1.0016814001332959
-0.401123,-0.907227,-0.134521,0.442505,0.518799,-0.37384,1.0010276669997689
-0.399902,-0.906738,-0.135986,0.457764,0.617981,-0.328064,1.0002937580750966
-0.400146,-0.904541,-0.137695,0.389099,0.526428,-0.12207,0.9986346454144279
-0.396973,-0.906982,-0.13916,0.411987,0.480652,-0.053406,0.9997846851462568
-0.398438,-0.906982,-0.139648,0.259399,0.411987,-0.030518,1.0004352813010944
-0.396484,-0.9104,-0.136475,0.213623,0.198364,-0.022888,1.0023238737459066
-0.395264,-0.910645,-0.135986,0.221252,-0.022888,-0.099182,1.001998072811021
-0.397461,-0.909424,-0.132324,0.213623,-0.1297,-0.175476,1.00126764617309
-0.397949,-0.909912,-0.133057,0.396728,-0.152588,-0.175476,1.0020017063827786
-0.400635,-0.909912,-0.135742,0.648498,0.114441,-0.328064,1.0034311842538082
-0.403564,-0.911621,-0.13916,0.938415,0.526428,-0.450134,1.0066192206276412
-0.400635,-0.914307,-0.137939,0.946045,0.907898,-0.62561,1.0077166571983416
-0.39917,-0.909668,-0.13623,0.846863,0.87738,-0.701904,1.0026919626804636
-0.400146,-0.909912,-0.137207,0.801086,0.62561,-0.724792,1.003435314262459
-0.397461,-0.907959,-0.134033,0.770569,0.511169,-0.762939,1.0001648050651453
-0.397461,-0.902832,-0.13501,0.724792,0.534058,-0.793457,0.9956447995369634
-0.395264,-0.898193,-0.137695,0.770569,0.663757,-0.442505,0.9909309804269922
-0.394043,-0.900879,-0.138672,1.052856,0.923157,-0.045776,0.9930170099620651
-0.392822,-0.907471,-0.138672,1.228333,1.144409,0.152588,0.9985202367047951
-0.393311,-0.910156,-0.134521,1.13678,0.984192,0.205994,1.0005865212454144
-0.38916,-0.911865,-0.131592,1.167297,0.564575,0.106812,1.0001298607125977
-0.390869,-0.915527,-0.133545,1.213074,0.015259,-0.12207,1.0043916217865418
-0.393555,-0.914551,-0.135254,1.197815,-0.450134,-0.411987,1.004779933190348
-0.397461,-0.912842,-0.135254,1.121521,-0.976562,-0.801086,1.004763359205042
-0.399658,-0.911377,-0.135742,1.205444,-1.144409,-1.060486,1.0043706704484157
-0.399902,-0.908936,-0.135498,1.350403,-0.900268,-0.961304,1.0022205194985783
-0.401367,-0.907959,-0.136963,1.441955,-0.442505,-0.862122,1.0021196923217306
-0.402588,-0.910889,-0.133789,1.571655,-0.053406,-0.732422,1.004835988898686
-0.403809,-0.911865,-0.135498,1.647949,0.473022,-0.488281,1.0064388678454346
-0.404053,-0.911865,-0.137207,1.88446,1.060486,-0.457764,1.0067682781469627
-0.4021,-0.915527,-0.137939,1.976013,1.411438,-0.549316,1.0094063926139958
-0.401367,-0.919189,-0.13916,1.983642,1.716614,-0.541687,1.0126052498431952
-0.403076,-0.91748,-0.144287,1.998901,1.808166,-0.717163,1.0124517522060001
-0.405518,-0.916016,-0.144043,1.89209,1.792908,-0.900268,1.0120664733252458
-0.404785,-0.91333,-0.145996,1.701355,1.853943,-0.938415,1.009622413153056
-0.403076,-0.910889,-0.147461,1.625061,2.059937,-0.869751,1.0069427881553152
-0.4021,-0.9104,-0.143799,1.472473,2.098083,-0.602722,1.0055797941491267
-0.403076,-0.907471,-0.140137,1.319885,1.914978,-0.411987,1.0028022020249059
-0.404785,-0.909424,-0.140381,1.243591,1.861572,-0.297546,1.0052908699286989
-0.406006,-0.907959,-0.138672,1.274109,2.128601,-0.015259,1.0042212611277457
-0.403564,-0.907959,-0.140625,1.350403,2.609253,0.030518,1.0035082652385081
-0.401367,-0.911133,-0.141357,1.335144,2.998352,0.1297,1.00560460113655
-0.4021,-0.910645,-0.137695,1.396179,3.097534,0.152588,1.0049470827113238
-0.399902,-0.907227,-0.13501,1.281738,3.013611,0.083923,1.0006048866725568
-0.397705,-0.905762,-0.131348,1.106262,2.792358,0.144958,0.9979110004268917
-0.397461,-0.90625,-0.132324,1.052856,2.403259,0.198364,0.9983856719710075
-0.39917,-0.912109,-0.130615,1.113892,2.27356,0.190735,1.0041612395457216
-0.401367,-0.914307,-0.129395,1.174927,2.601623,0.160217,1.0068742845872072
-0.399658,-0.916016,-0.12915,1.205444,3.120422,0.236511,1.007716007474328
-0.395752,-0.919434,-0.127441,1.403808,3.417969,0.274658,1.0090687460926533
-0.395264,-0.919434,-0.129395,1.541138,3.158569,0.221252,1.0091261447792343
-0.39502,-0.919189,-0.132568,1.64032,2.677917,0.114441,1.009219249095557
-0.396973,-0.916748,-0.133057,1.64032,2.433777,0.099182,1.0078286677218504
-0.394775,-0.916748,-0.134766,1.655578,2.334595,0.061035,1.007192171775079
-0.394287,-0.913818,-0.133545,1.594543,2.380371,-0.015259,1.0041712217137075
-0.394043,-0.909912,-0.133789,1.518249,2.449036,-0.160217,1.0005544613433095
-0.391357,-0.907227,-0.134277,1.327515,2.39563,-0.183105,0.99712157920035
-0.393555,-0.903809,-0.133545,1.319885,2.288818,-0.175476,0.9947816411308563
-0.393311,-0.904785,-0.132813,1.274109,2.227783,-0.190735,0.9954741241815379
-0.395264,-0.906006,-0.134766,1.205444,2.235413,-0.152588,0.9976183521206894
-0.39502,-0.908936,-0.132324,1.403808,2.578735,-0.144958,0.9998575365880882
-0.394775,-0.910889,-0.133301,1.571655,2.700805,-0.389099,1.0016662256195923
-0.397461,-0.915039,-0.13208,1.586914,2.830505,-0.526428,1.0063382852907865
-0.398438,-0.915527,-0.133545,1.319885,2.532959,-0.62561,1.007361302908743
-0.400879,-0.915771,-0.132324,1.190186,2.212524,-0.854492,1.0083898740358315
-0.399658,-0.915283,-0.129639,1.029968,2.13623,-0.88501,1.0071125842595752
-0.4021,-0.916504,-0.132813,0.900268,2.128601,-0.75531,1.0096055095853034
-0.401855,-0.912842,-0.132324,0.732422,2.006531,-0.663757,1.0061200718428194
-0.403076,-0.912842,-0.129395,0.610352,1.831055,-0.427246,1.0062275313093954
-0.400391,-0.913086,-0.12793,0.411987,1.617432,-0.190735,1.0051890773267484
-0.397949,-0.915039,-0.128906,0.50354,1.586914,0.045776,1.006119543075275
-0.395508,-0.911621,-0.128906,0.465393,1.548767,0.175476,1.0020459982161498
-0.394287,-0.914551,-0.128418,0.404358,1.38092,0.114441,1.0041697828026892
-0.394287,-0.914307,-0.127686,0.442505,1.098633,-0.022888,1.0038541942005323
-0.394287,-0.914063,-0.126953,0.389099,0.709534,-0.228882,1.0035389731081696
-0.393311,-0.914063,-0.127441,0.267029,0.396728,-0.457764,1.0032177825233164
-0.392822,-0.913818,-0.129639,0.213623,0.320435,-0.50354,1.0030846081607474
-0.393066,-0.90918,-0.130615,0.25177,0.37384,-0.556946,0.9990842962338063
-0.393311,-0.906494,-0.131104,0.343323,0.518799,-0.480652,0.9968014714941987
-0.390869,-0.908691,-0.127686,0.404358,0.717163,-0.335693,0.9973974249204778
-0.391846,-0.908447,-0.126465,0.289917,0.709534,-0.236511,0.9974029455290374
-0.387695,-0.909424,-0.12793,0.236511,0.473022,-0.160217,0.9968578181972593
-0.384277,-0.911621,-0.127197,0.236511,0.038147,-0.175476,0.9974471099657365
-0.38623,-0.907959,-0.125244,0.350952,-0.442505,-0.350952,0.9946100834583369
-0.388916,-0.909424,-0.127197,0.389099,-0.816345,-0.648498,0.9972395618110024
-0.389404,-0.911621,-0.127686,0.488281,-1.075745,-0.984192,0.9994958916638927
-0.392578,-0.912598,-0.128174,0.694275,-1.296997,-1.327515,1.0016891583540275
-0.396484,-0.913818,-0.128906,0.816345,-1.441955,-1.579285,1.004430015588941
-0.397461,-0.91626,-0.130127,0.87738,-1.480102,-1.686096,1.0071944550333862
-0.397705,-0.912354,-0.130127,0.88501,-1.319885,-1.731872,1.0037390719056423
-0.400391,-0.907715,-0.129639,0.953674,-1.121521,-1.754761,1.000532730312707
-0.401611,-0.910156,-0.131348,1.190186,-0.686645,-1.625061,1.0034578400515888
-0.402344,-0.915527,-0.131348,1.426697,-0.114441,-1.419067,1.0086241515891832
-0.401611,-0.914307,-0.131592,1.419067,0.289917,-1.251221,1.0072562434822632
-0.397461,-0.912842,-0.133545,1.327515,0.63324,-1.052856,1.0045347333517145
-0.393555,-0.910889,-0.135742,1.304626,0.526428,-0.923157,1.0015139534275097
-0.392334,-0.90918,-0.13623,1.144409,0.198364,-0.854492,0.9995463235168243
-0.391602,-0.908691,-0.134033,1.068115,-0.190735,-0.747681,0.9985170529209804
-0.390381,-0.906006,-0.134766,1.00708,-0.404358,-0.747681,0.9956937641428714
-0.389648,-0.908203,-0.134277,0.839233,-0.312805,-0.999451,0.9973407471080282
-0.390381,-0.909912,-0.135498,0.709534,-0.320435,-1.266479,0.9993482280511634
-0.392334,-0.910645,-0.134277,0.709534,-0.541687,-1.449585,1.0006151089754742
-0.394775,-0.912598,-0.131348,0.610352,-0.87738,-1.441955,1.0029629640884055
-0.395264,-0.91333,-0.130127,0.465393,-1.304626,-1.434326,1.0036624705173547
-0.396973,-0.912354,-0.130615,0.396728,-1.548767,-1.220703,1.0035126617387546
-0.398682,-0.915039,-0.129883,0.282288,-1.754761,-0.968933,1.0065352961193166
-0.399658,-0.917236,-0.128906,0.312805,-1.838684,-0.747681,1.0087939103186538
-0.397461,-0.917725,-0.125977,0.213623,-1.853943,-0.62561,1.0080003108506466
-0.396729,-0.918213,-0.125,0.190735,-1.693725,-0.450134,1.0080347279781585
-0.393311,-0.913574,-0.125977,0.236511,-1.800537,-0.427246,1.0025872534228628
-0.39209,-0.914307,-0.126953,0.274658,-2.029419,-0.450134,1.0029002555379074
-0.39209,-0.911377,-0.126953,0.312805,-2.189636,-0.617981,1.0002298078131846
-0.390137,-0.911377,-0.129639,0.434875,-1.89209,-0.762939,0.999810574668522
-0.388672,-0.908936,-0.129395,0.579834,-1.655578,-0.915527,0.9969822674977724
-0.389893,-0.910156,-0.127441,0.694275,-1.708984,-1.113892,0.9983194399920298
-0.39209,-0.913086,-0.124756,0.869751,-1.869202,-1.182556,1.0015111936628567
-0.396484,-0.915039,-0.126953,0.991821,-1.88446,-1.335144,1.005292493747964
-0.396729,-0.912354,-0.130371,1.022339,-1.808166,-1.586914,1.0033844320089882
-0.398682,-0.909668,-0.130859,1.083374,-1.663208,-1.594543,1.0017820547549252
-0.399658,-0.911865,-0.130371,1.281738,-1.556396,-1.365662,1.0041020330773163
-0.401123,-0.913086,-0.130859,1.38092,-1.296997,-1.319885,1.005857734675237
-0.399902,-0.912109,-0.131348,1.419067,-0.984192,-1.243591,1.0045480250286691
-0.399658,-0.912842,-0.129639,1.525879,-0.976562,-1.060486,1.004894673211576
-0.401611,-0.912842,-0.132568,1.296997,-1.335144,-1.045227,1.006054763374738
-0.399414,-0.915527,-0.131348,1.121521,-1.441955,-1.091003,1.0074589461754755
-0.4021,-0.911377,-0.130371,1.220703,-1.068115,-1.106262,1.0046337858991206
-0.397705,-0.910156,-0.130615,1.167297,-0.701904,-1.052856,1.001805115571886
-0.396729,-0.911621,-0.130371,1.174927,-0.442505,-1.029968,1.0027179786575087
-0.395752,-0.910645,-0.130859,1.228333,-0.320435,-0.984192,1.0015078828496558
-0.395996,-0.911621,-0.129639,1.174927,-0.160217,-0.923157,1.0023332529543256
-0.397461,-0.912354,-0.130615,1.174927,0.045776,-0.87738,1.003705806529981
-0.395996,-0.915771,-0.12793,1.25885,0.152588,-0.900268,1.0058903724347896
-0.394531,-0.916504,-0.128418,1.167297,0.221252,-1.052856,1.006044469544463
-0.393066,-0.915039,-0.128662,1.251221,0.228882,-0.984192,1.0041668995346342
-0.389893,-0.914307,-0.127686,1.152039,0.030518,-0.862122,1.0021364958397634
-0.390869,-0.916016,-0.125977,1.068115,-0.106812,-0.846863,1.0038595977256979
-0.38916,-0.915771,-0.124512,1.029968,-0.12207,-0.717163,1.002788745541652
-0.388428,-0.916504,-0.12207,0.961304,-0.076294,-0.732422,1.002874358082806
-0.388672,-0.917236,-0.124268,1.037598,-0.106812,-0.686645,1.0039075351365783
-0.386963,-0.917969,-0.123535,1.091003,-0.305176,-0.648498,1.0038268498874694
-0.38501,-0.918945,-0.125488,0.938415,-0.473022,-0.656128,1.0042110591250228
-0.38623,-0.917236,-0.126953,0.961304,-0.75531,-0.62561,1.0033008306609739
-0.384033,-0.918213,-0.125732,0.923157,-0.839233,-0.778198,1.0031973855039695
-0.384033,-0.918457,-0.125,0.923157,-0.854492,-0.854492,1.0033292609796645
-0.385986,-0.917969,-0.125488,0.930786,-1.060486,-0.953674,1.0036929387521862
-0.386963,-0.917725,-0.125732,0.907898,-1.350403,-1.052856,1.0038765236910365
-0.389893,-0.916992,-0.123047,0.823975,-1.602173,-1.13678,1.0040076910671552
-0.391602,-0.918701,-0.124756,0.75531,-1.770019,-1.235962,1.0064430999023244
-0.392334,-0.920654,-0.124756,0.701904,-1.747131,-1.167297,1.0085106914693567
-0.393555,-0.919922,-0.122559,0.595093,-1.731872,-1.083374,1.0080489733093327
-0.393555,-0.92041,-0.123047,0.511169,-1.670837,-1.045227,1.0085537518318
-0.393066,-0.921143,-0.122803,0.404358,-1.861572,-0.991821,1.009002420023857
-0.394043,-0.919922,-0.121826,0.495911,-1.991272,-0.991821,1.0081507556952978
-0.393311,-0.919434,-0.125,0.419617,-1.983642,-0.938415,1.0078082273314701
-0.393066,-0.916992,-0.126465,0.366211,-1.724243,-0.915527,1.0056682378622683
-0.390869,-0.915771,-0.125732,0.450134,-1.541138,-0.862122,1.003605318552069
-0.38916,-0.914795,-0.125244,0.473022,-1.441955,-0.839233,1.0019887510152
-0.390137,-0.913086,-0.125732,0.50354,-1.38855,-0.892639,1.00087035023973
-0.390625,-0.914063,-0.125732,0.419617,-1.304626,-0.946045,1.0019518922672885
-0.389893,-0.914307,-0.126953,0.434875,-1.083374,-0.968933,1.0020433652826608
-0.38916,-0.915039,-0.122314,0.457764,-1.060486,-1.045227,1.0018495853754694
-0.390137,-0.916504,-0.12085,0.335693,-1.113892,-1.167297,1.003389846114161
-0.393311,-0.912598,-0.122803,0.419617,-0.991821,-1.190186,1.001303764665848
-0.393066,-0.916016,-0.124023,0.587463,-0.846863,-1.296997,1.004473940498707
-0.393799,-0.918457,-0.12207,0.679016,-0.694275,-1.113892,1.006748229772469
-0.39502,-0.921387,-0.124023,0.686645,-0.434875,-1.045227,1.0101368762192575
-0.396729,-0.920654,-0.122314,0.587463,-0.259399,-1.068115,1.0099298994252026
-0.394775,-0.917725,-0.122314,0.556946,-0.167847,-1.113892,1.0064925190213785
-0.392822,-0.919189,-0.120361,0.518799,-0.267029,-1.022339,1.006828839339637
-0.388672,-0.918701,-0.121826,0.427246,-0.465393,-0.915527,1.0049472748661992
-0.38916,-0.918701,-0.121826,0.228882,-0.465393,-0.793457,1.005136113805986
-0.389893,-0.916992,-0.122803,0.205994,-0.152588,-0.587463,1.0039778166483562
-0.38501,-0.912598,-0.121094,0.450134,0.015259,-0.221252,0.9978635009559174
-0.383301,-0.912109,-0.12207,0.457764,-0.144958,-0.030518,0.9968769078386759
-0.381348,-0.912842,-0.120605,0.358582,-0.63324,0.038147,0.9966204794669835
-0.382324,-0.913574,-0.118408,0.244141,-0.968933,0.030518,0.9974013980920621
-0.384033,-0.912842,-0.119385,0.236511,-1.00708,-0.320435,0.997504205644267
-0.385742,-0.915283,-0.117188,0.312805,-1.00708,-0.617981,1.0001364346912873
-0.388428,-0.916748,-0.118408,0.228882,-1.182556,-0.839233,1.0026582973037226
-0.391357,-0.920898,-0.118652,0.022888,-1.571655,-0.946045,1.0076168542442112
-0.392578,-0.921631,-0.121094,-0.228882,-2.204895,-1.014709,1.009051506654145
-0.396973,-0.918213,-0.118652,-0.602722,-2.662658,-0.747681,1.0073633769410124
-0.397949,-0.919434,-0.117188,-0.839233,-2.792358,-0.320435,1.0086898999697578
-0.400879,-0.919922,-0.116699,-0.740051,-2.494812,-0.137329,1.0102371579614362
-0.399414,-0.917725,-0.114258,-0.640869,-1.823425,0.183105,1.0073756050178106
-0.396729,-0.915527,-0.11377,-0.595093,-1.13678,0.358582,1.0042545494395332
-0.392334,-0.914307,-0.115234,-0.38147,-0.770569,0.419617,1.001579818367463
-0.38916,-0.915039,-0.114014,-0.205994,-0.709534,0.267029,1.0008701560727047
-0.388184,-0.911377,-0.112793,-0.12207,-0.724792,0.091553,0.9970040696175718
-0.388428,-0.914307,-0.115723,0.068665,-0.717163,-0.099182,1.0001127007302726
-0.387939,-0.913574,-0.115723,-0.030518,-0.656128,-0.350952,0.9992526877251819
-0.384521,-0.913574,-0.111572,-0.068665,-0.572205,-0.610352,0.997457850789195
-0.387451,-0.918945,-0.113525,0.152588,-0.701904,-0.663757,1.0037261160550721
-0.387451,-0.917725,-0.115967,0.205994,-0.717163,-0.663757,1.0028887266865651
-0.386475,-0.919434,-0.115967,0.282288,-0.62561,-0.610352,1.0040767655264211
-0.385986,-0.917725,-0.114258,0.183105,-0.823975,-0.450134,1.0021273663487091
-0.386963,-0.916504,-0.11499,0.228882,-0.991821,-0.320435,1.0014702419368235
-0.386963,-0.914795,-0.113525,0.175476,-0.87738,-0.228882,0.9997390564637354
-0.385742,-0.916748,-0.114258,0.282288,-0.816345,-0.289917,1.0011386900085322
-0.383545,-0.916992,-0.114502,0.297546,-1.014709,-0.236511,1.000545752623537
-0.385498,-0.918213,-0.112061,0.244141,-1.312256,-0.434875,1.0021384580455936
-0.386963,-0.915771,-0.112549,0.228882,-1.655578,-0.679016,1.0005219463914823
-0.388916,-0.918213,-0.113037,0.244141,-1.76239,-0.961304,1.0035677016494702
-0.389648,-0.918945,-0.115234,0.312805,-1.777649,-1.235962,1.004770795597185
-0.391602,-0.918701,-0.118408,0.343323,-1.800537,-1.38092,1.0056759459532678
-0.388916,-0.919678,-0.117188,0.282288,-1.792908,-1.205444,1.0053836611383735
-0.38501,-0.924316,-0.122314,0.328064,-1.647949,-0.75531,1.0087385600600385
-0.378662,-0.927979,-0.124023,0.297546,-1.716614,-0.144958,1.0099067477811998
-0.383301,-0.926758,-0.121094,0.144958,-2.197266,0.144958,1.0101800849358493
-0.388184,-0.926514,-0.124756,-0.007629,-2.212524,0.587463,1.012264327924283
-0.383545,-0.923828,-0.128906,0.061035,-1.464844,1.281738,1.0085542610316016
-0.373047,-0.922119,-0.12207,0.167847,-0.770569,1.564026,1.002181919249195
-0.372314,-0.925049,-0.11792,0.183105,-0.62561,1.564026,1.0041107973709873
-0.375977,-0.926514,-0.119385,0.152588,-0.717163,1.083374,1.0069953698751548
-0.375488,-0.925781,-0.124268,0.167847,-0.915527,0.541687,1.0067294740539783
-0.369873,-0.925293,-0.125977,0.068665,-1.922607,0.350952,1.004411955577491
-0.366699,-0.926025,-0.122803,-0.434875,-4.066467,0.183105,1.0035292890768062
-0.370361,-0.922852,-0.118164,-1.022339,-6.530761,-0.228882,1.0013919388136696
-0.375977,-0.918213,-0.117676,-1.319885,-7.728576,-0.442505,0.99916037695357
-0.37915,-0.919434,-0.117188,-1.068115,-7.873535,-0.076294,1.0014223036261973
-0.379639,-0.917969,-0.12207,-0.938415,-7.339477,0.205994,1.0008466117153016
-0.37915,-0.914795,-0.12793,-0.892639,-6.385803,0.572205,0.9984842008890276
-0.375244,-0.916992,-0.129639,-0.785828,-5.371093,0.694275,0.9992440432251773
-0.363525,-0.924805,-0.135986,-0.907898,-4.882813,0.900268,1.00294910431487
-0.345947,-0.930664,-0.143555,-1.472473,-6.141662,1.594543,1.0032062827404942
-0.334717,-0.927246,-0.148193,-2.746582,-10.208129,2.044678,0.9968860415584121
-0.331299,-0.925049,-0.145508,-4.631042,-16.471863,1.89209,0.9933011919181411
-0.339844,-0.920166,-0.143311,-6.744384,-23.04077,1.327515,0.9913311528510541
-0.350098,-0.918213,-0.140381,-8.338928,-27.648924,0.953674,0.9926683978721192
-0.346924,-0.91333,-0.136719,-9.773254,-29.785154,0.770569,0.9865191511759921
-0.358154,-0.904053,-0.145996,-10.368346,-30.189512,0.221252,0.9833112155065659
-0.377686,-0.906006,-0.139648,-9.689331,-28.808592,-0.488281,0.9914611190238375
-0.387207,-0.907959,-0.143066,-10.017395,-25.398252,-1.106262,0.9973899372291661
-0.358398,-0.898926,-0.165283,-11.07788,-22.727964,-1.350403,0.981751266853779
-0.323242,-0.892334,-0.174316,-12.771605,-25.527952,-2.326965,0.9649515148317038
-0.313477,-0.889648,-0.165527,-16.036987,-34.561157,-4.074097,0.957674569549594
-0.331055,-0.877197,-0.152832,-19.65332,-44.754025,-5.523681,0.9499629519397059
-0.352051,-0.86499,-0.141846,-21.629332,-51.635738,-6.515502,0.9445993300955702
-0.36792,-0.857422,-0.133545,-22.048948,-54.611202,-8.06427,0.9425348160725947
-0.374512,-0.852539,-0.143311,-21.804808,-54.687496,-9.460449,0.9421358858391926
-0.368896,-0.856445,-0.15918,-21.39282,-52.818295,-10.330199,0.9460024150291584
-0.361328,-0.849854,-0.172607,-21.614073,-50.361629,-11.20758,0.9394694893124523
-0.354004,-0.839844,-0.178711,-22.560118,-48.72131,-11.901855,0.9287596017662483
-0.36377,-0.826416,-0.172852,-23.979185,-48.835751,-12.428283,0.9193311872551698
-0.369629,-0.806396,-0.158936,-25.497435,-49.896236,-11.848449,0.9011996219223575
-0.355957,-0.774658,-0.154785,-26.420591,-50.621029,-10.124206,0.8664633858611683
-0.335938,-0.743652,-0.15918,-26.786802,-52.101131,-8.918762,0.8313909485603027
-0.333008,-0.723389,-0.162109,-26.847837,-54.450985,-7.316589,0.8126901631409106
-0.345215,-0.702881,-0.161133,-26.977537,-55.564877,-4.005432,0.7994866728564022
-0.359863,-0.67627,-0.155273,-26.68762,-52.757259,-0.007629,0.7816343110419347
-0.374023,-0.656982,-0.15625,-25.68054,-45.997616,3.097534,0.7719667190708418
-0.362549,-0.644043,-0.179199,-24.192808,-37.467957,5.66101,0.7604902661119339
-0.330566,-0.640869,-0.199951,-24.192808,-30.639647,8.712769,0.7483096671285224
-0.306641,-0.640137,-0.197021,-26.451109,-28.541563,11.596679,0.7366283704087156
-0.295166,-0.633545,-0.183594,-29.930113,-29.937742,13.160705,0.7226402918582662
