ax,ay,az,gx,gy,gz,acc_mag
-0.422119,0.937744,-0.040527,0.785828,1.449585,-0.732422,1.0291699069764915
-0.421875,0.936523,-0.040771,0.770569,1.106262,-0.816345,1.027966983708621
-0.42334,0.938477,-0.039551,0.823975,0.823975,-0.923157,1.0303009835625703
-0.42041,0.939697,-0.040771,0.907898,0.350952,-1.083374,1.0302607894848759
-0.42041,0.940674,-0.040039,1.060486,-0.12207,-1.38092,1.031123301985267
-0.418701,0.943359,-0.04126,1.335144,-0.938415,-1.556396,1.0329274504446089
-0.407227,0.947021,-0.043457,1.739502,-2.029419,-1.777649,1.0317805555538444
-0.397949,0.94873,-0.040283,2.487183,-4.165649,-2.098083,1.0295993102124728
-0.401855,0.945068,-0.030029,3.616333,-7.598876,-2.13623,1.027396080628109
-0.383301,0.943359,-0.03125,4.40979,-11.360168,-2.662658,1.018735697804882
-0.339355,0.94751,-0.056396,5.027771,-16.677856,-2.922058,1.0080265497202938
-0.279541,0.961426,-0.085693,7.011413,-27.381895,-2.89154,1.0049011963402175
-0.299561,0.969238,-0.090332,10.559081,-41.587826,-3.334045,1.01848856821714
-0.510742,0.970459,-0.081787,15.243529,-54.504391,-4.806519,1.0996986744622366
-0.606445,0.969971,-0.087646,19.020081,-55.572506,-12.96234,1.1473016604982318
-0.549316,0.970947,-0.083008,21.324156,-51.353451,-22.010801,1.1186493966963018
-0.522949,0.984131,-0.092285,24.765013,-57.090755,-30.555723,1.1182602572688523
-0.494141,1.009521,-0.106689,29.58679,-74.829102,-43.04504,1.129021930718354
-0.514893,1.024902,-0.115479,34.889221,-95.611565,-55.694576,1.1527681078577772
-0.567871,1.032471,-0.123291,39.726257,-112.449638,-66.978455,1.1847677026164243
-0.614258,1.036621,-0.126221,44.731136,-122.978203,-79.093933,1.2115394046608636
-0.674316,1.052246,-0.11792,50.239559,-129.997253,-93.719475,1.255320213639532
-0.794678,1.073975,-0.11499,56.52618,-134.109497,-106.056206,1.3409541843064587
-0.911377,1.094727,-0.125977,62.652584,-132.087708,-119.071953,1.4300019039102712
-0.992676,1.108887,-0.138184,69.221497,-128.089905,-134.83429,1.4947009191142555
-1.049561,1.140625,-0.154053,74.020386,-125.877373,-150.871277,1.5576700581814493
-1.057617,1.153809,-0.184814,77.926636,-122.924797,-164.031967,1.5760663506864172
-1.057861,1.160889,-0.213135,81.947319,-119.674675,-175.506577,1.5849793985623284
-1.127197,1.146973,-0.21167,86.997978,-115.173332,-183.998093,1.622012431653346
-1.190674,1.121826,-0.180664,89.179985,-104.423515,-195.320114,1.645854680537744
-1.250977,1.068848,-0.170654,88.98925,-86.029045,-204.086288,1.6542376761968034
-1.277832,1.007324,-0.178223,88.035576,-66.246033,-211.868271,1.6368627611773077
-1.282959,0.955078,-0.170166,86.34948,-49.804684,-222.557053,1.6084508849576353
-1.257568,0.924805,-0.160156,82.794182,-37.574768,-231.849655,1.5692009135177687
-1.242432,0.913818,-0.163574,79.277039,-33.13446,-241.157516,1.5509535986688965
-1.268799,0.914063,-0.193848,78.613281,-35.484314,-249.671921,1.5757344692155464
-1.321533,0.857422,-0.202637,81.93969,-37.54425,-249.992355,1.5882958508860998
-1.332275,0.762939,-0.19458,81.924431,-29.479979,-249.885544,1.5475444968549372
-1.285889,0.681152,-0.193604,78.75824,-10.902404,-249.977097,1.4679785680455284
-1.212891,0.608643,-0.171631,76.004028,8.773804,-249.992355,1.3678479738227491
-1.168457,0.553467,-0.144531,73.722839,26.084898,-249.992355,1.3009637546446098
-1.148193,0.484375,-0.116943,71.327209,41.336056,-249.992355,1.2516556919229025
-1.134033,0.42334,-0.096924,68.946838,52.925106,-249.992355,1.214348328308233
-1.081543,0.381836,-0.089355,66.246033,60.18829,-249.992355,1.1504426573150006
-1.046631,0.333984,-0.094971,64.346313,62.789913,-249.992355,1.1027244684226427
-1.009766,0.286377,-0.087891,62.126156,61.264034,-249.992355,1.0532634944618557
-1.013428,0.24292,-0.081543,60.455318,58.471676,-249.992355,1.0453208590825116
-0.985352,0.213135,-0.069824,58.891293,56.968685,-249.992355,1.010554542370178
-0.93457,0.180664,-0.062988,58.479305,60.302731,-249.992355,0.953953905563576
-0.936279,0.148193,-0.056152,58.853146,63.674923,-249.992355,0.9495960078865117
-0.886963,0.128418,-0.053467,59.333797,68.000793,-249.992355,0.8978046926709616
-0.796143,0.082031,-0.057129,59.959408,72.19696,-249.992355,0.8023942198514393
-0.727539,0.028564,-0.063965,60.020443,72.898865,-249.923691,0.7309038376161395
-0.774902,0.009033,-0.112305,61.767574,69.778442,-246.238693,0.783049882011357
-0.8396,0.001465,-0.151611,64.659119,66.566467,-240.844711,0.8531800522433703
-0.838623,-0.02002,-0.161621,67.817688,67.230225,-238.105759,0.8542895786382976
-0.777832,-0.057617,-0.15625,71.235657,70.243835,-232.612595,0.7954598678833521
-0.714355,-0.118652,-0.126709,74.272156,71.708679,-223.709091,0.7351438864671324
-0.679199,-0.184082,-0.080322,75.912476,69.641113,-213.577255,0.7082719025974418
-0.687988,-0.240723,-0.041748,76.255798,64.735413,-203.536972,0.7300807807201886
-0.720947,-0.285645,-0.025391,74.97406,57.670589,-193.344101,0.775888101284586
-0.721924,-0.30835,-0.024658,72.692871,48.866268,-184.226974,0.7854056284748665
-0.708984,-0.320313,-0.027344,70.327759,38.299561,-176.238998,0.7784641446855467
-0.733398,-0.341064,-0.008301,66.642761,27.44293,-168.312057,0.8088672234062894
-0.731934,-0.361084,0.039307,60.974117,19.40918,-163.215622,0.817101019250986
-0.690186,-0.411865,0.104736,53.863522,15.380858,-158.309937,0.8105301490487569
-0.662842,-0.469482,0.179199,44.334408,12.268065,-151.023865,0.8317963373861417
-0.664795,-0.502441,0.236572,35.797119,8.18634,-144.302368,0.866236492933656
-0.688477,-0.51416,0.272461,26.908873,2.960205,-138.748169,0.9014411138005631
-0.706787,-0.504395,0.304443,17.379761,-1.716614,-134.300232,0.9201346203914947
-0.714844,-0.515869,0.332764,8.728027,-6.851196,-129.966736,0.9422603935181613
-0.725098,-0.556152,0.398926,-3.189087,-13.648986,-127.143852,0.9971028583772088
-0.732422,-0.600586,0.504395,-18.630981,-22.018431,-127.159111,1.0731075647412984
-0.728516,-0.625977,0.584961,-33.332825,-30.998228,-126.586906,1.1246164405280583
-0.736328,-0.632568,0.622559,-48.858639,-40.588375,-124.435417,1.1532132962678674
-0.767334,-0.632324,0.660889,-65.612793,-48.866268,-122.840874,1.1939050962505353
-0.800293,-0.661377,0.735107,-85.243217,-52.459713,-121.337883,1.2721127007568944
-0.80127,-0.691162,0.831787,-108.688347,-54.328915,-119.812004,1.3459599312434973
-0.817383,-0.720459,0.942383,-135.498047,-61.210629,-119.422905,1.4405769184805788
-0.787109,-0.725342,0.969971,-165.962204,-79.498291,-122.154228,1.4444740688866657
-0.76123,-0.697754,0.989258,-198.425278,-112.495415,-126.113884,1.43002207954283
-0.822266,-0.615479,0.958984,-234.588608,-151.290894,-127.67028,1.4051996607076873
-0.857422,-0.407471,0.789307,-249.992355,-176.773056,-128.181458,1.2345892605129853
-0.915039,-0.165283,0.484131,-249.992355,-180.725082,-125.648491,1.0483308956484112
-0.881348,0.044922,0.139648,-249.618515,-169.66246,-126.602165,0.8934729134629656
-0.763916,0.227539,-0.140869,-249.992355,-154.815674,-130.081177,0.8094354370411515
-0.684326,0.350586,-0.374756,-249.992355,-134.208679,-125.976555,0.8553681530241818
-0.283936,0.397705,0.91333,-249.992355,-111.839287,-116.867058,1.0358381186367878
-1.422607,5.042725,-6.691162,-43.54858,-51.87225,-4.79126,8.498501927535111
-0.685059,3.26001,-6.609131,34.690857,160.125732,6.866455,7.4011879863128724
-0.177979,-0.072754,-1.531982,8.087158,154.190063,-36.903381,1.5440008151814557
0.27124,-1.877686,0.45874,96.603386,-8.750916,-36.743164,1.9518499531972227
-0.285889,-1.386475,0.814209,53.436275,-94.512932,-56.266781,1.6330896306164582
-0.294678,-1.287109,0.652832,13.778686,-110.046379,-17.929077,1.4729814397299783
-0.317383,-1.094238,0.102539,-39.024353,-88.203423,7.499694,1.1439418760819975
-0.304932,-0.789551,-0.430176,-75.141907,-39.512634,19.676208,0.9494344091094444
-0.302734,-0.627441,-0.695801,-82.450859,16.830444,20.668028,0.9846162271860037
-0.32666,-0.583496,-0.766357,-85.502617,65.315247,30.609129,1.017092615775476
-0.255615,-0.510498,-0.841309,-82.160942,92.224113,43.891903,1.016734021123519
-0.14917,-0.609863,-0.897705,-68.634033,89.706413,48.896786,1.0954719689220715
-0.210938,-0.671387,-0.901855,-58.265682,72.982788,54.710384,1.143939589592912
-0.284912,-0.670166,-0.898193,-42.434689,40.840145,58.959957,1.1563079090575312
-0.327148,-0.705322,-0.947021,-26.023863,-6.912231,56.396481,1.2252973973811419
-0.461914,-0.695557,-0.971436,-9.620667,-57.601925,52.558895,1.280957448840905
-0.653564,-0.640137,-0.922607,7.67517,-97.389214,46.203609,1.2992786295918208
-0.878174,-0.572021,-0.833252,22.628782,-113.388054,37.216187,1.338919898358748
-1.070801,-0.489258,-0.774414,37.078857,-98.648064,27.145384,1.4091505297735227
-1.181885,-0.380615,-0.802979,53.87878,-55.000301,16.288757,1.478680224352446
-1.118896,-0.344238,-0.86499,72.731018,2.098083,7.919311,1.4555534203731582
-0.924561,-0.328857,-0.98584,92.208855,50.781246,2.716064,1.3909854329826752
-0.808105,-0.338867,-1.07666,115.272514,69.168091,-1.304626,1.3881863312660876
-0.820801,-0.385254,-1.082031,140.457153,66.833496,-3.40271,1.4117103141501801
-0.825928,-0.459961,-0.99292,159.584045,64.628601,-1.075745,1.3709891717679612
-0.763672,-0.516846,-0.841309,169.548019,66.375732,2.090454,1.2482489915000934
-0.69165,-0.560059,-0.702637,175.399765,64.857483,5.729675,1.1339067685440456
-0.628174,-0.575928,-0.592529,176.437363,54.244991,9.513855,1.037972182334864
-0.677734,-0.544678,-0.525391,180.412277,40.588375,9.841919,1.0158903490638151
-0.678955,-0.564453,-0.449951,180.809006,34.393311,6.561279,0.990980819004586
-0.625977,-0.60083,-0.405762,176.109299,37.773132,4.074097,0.9578552573708619
-0.568604,-0.641113,-0.337646,168.952927,45.356747,2.914428,0.9210544006197462
-0.544922,-0.67749,-0.245117,159.515381,54.367062,1.495361,0.9033355023871253
-0.550781,-0.724365,-0.158203,149.06311,63.781734,0.953674,0.9236300950028642
-0.519043,-0.768555,-0.081787,138.496399,72.875977,2.044678,0.9310056590821562
-0.513916,-0.802002,-0.04541,128.852844,79.00238,5.081176,0.9536136173314641
-0.525391,-0.815674,0.001221,120.300285,79.940796,8.06427,0.97023773787562
-0.532959,-0.826172,0.061768,110.931389,77.590942,8.102417,0.9850993630537987
-0.534424,-0.854492,0.134277,99.403374,74.378967,5.737304,1.0167575436499108
-0.520508,-0.901367,0.200195,86.738579,70.861816,2.960205,1.0599382457379298
-0.514893,-0.942383,0.259277,75.59967,66.223145,0.221252,1.1047285109324372
-0.506104,-0.984863,0.299316,66.627502,60.554501,-2.39563,1.147033763862686
-0.486816,-1.008789,0.32373,58.151241,54.954525,-5.447387,1.1659529052568975
-0.465332,-1.003418,0.354492,50.582882,47.760006,-8.178711,1.1614844514723388
-0.462891,-1.005371,0.390381,43.113705,38.520813,-10.299682,1.173642300994217
-0.506836,-1.011963,0.413818,34.324646,28.350828,-11.772155,1.2050714424418993
-0.55249,-1.019043,0.438721,24.284361,18.470764,-15.510558,1.239423233520334
-0.54126,-1.032959,0.446533,13.694762,8.811951,-21.476744,1.2487427290559092
-0.521484,-1.044922,0.434326,2.861023,-1.976013,-25.81024,1.2459721596472368
-0.518555,-1.04248,0.415283,-7.873535,-14.793395,-29.037474,1.2361730495824603
-0.531494,-1.037109,0.416504,-18.249512,-28.32794,-32.752991,1.2375607184833397
-0.572266,-1.038086,0.430908,-29.014585,-41.297909,-36.079407,1.2612662774434271
-0.620605,-1.019287,0.458984,-42.16003,-50.743099,-38.871765,1.2785784554144497
-0.665039,-0.999756,0.507813,-58.212276,-54.13818,-41.618343,1.303711231073047
-0.700195,-0.986816,0.578613,-79.063416,-53.108212,-43.724056,1.34122028751805
-0.677979,-0.984619,0.624023,-106.704704,-53.863522,-47.851559,1.348530609267361
-0.652588,-0.942627,0.599121,-138.22937,-63.4613,-53.291317,1.2935852239083439
-0.699951,-0.875977,0.539063,-167.945847,-83.236687,-59.410091,1.2441286207217483
-0.764648,-0.803711,0.455078,-195.968613,-106.246941,-67.596436,1.1990554288726605
-0.793213,-0.734619,0.370605,-224.555954,-123.146049,-75.431824,1.1428910729177124
-0.801514,-0.65625,0.296387,-248.649582,-130.508423,-80.703728,1.0774664767244502
-0.774414,-0.584473,0.222412,-249.992355,-125.984184,-83.831779,0.9953857688700397
-0.686523,-0.507813,0.160156,-249.68718,-110.633842,-84.289543,0.8688140289118264
-0.602783,-0.40625,0.091064,-249.923691,-85.71624,-81.611626,0.7325838243402594
-0.549561,-0.270508,-0.043945,-249.992355,-57.525631,-78.529358,0.6141034390149595
-0.594727,-0.161621,0.16333,-249.992355,-33.615112,-80.390923,0.6375721457764604
-0.143066,1.59082,-0.592285,-210.632309,-83.999626,-85.861198,1.70351920270392
-1.310791,6.495361,-7.999756,40.344234,-26.023863,37.857056,10.387684228235761
-1.347168,3.522461,-3.914551,44.952389,84.762566,25.627134,5.43565107860558
-0.243408,-2.611816,-1.048828,81.18438,59.120174,2.006531,2.8250434414189103
0.169922,-2.684082,-0.124512,41.191097,-26.649473,-66.093445,2.6923359572965633
-0.316895,-2.018311,0.462158,58.92181,-87.219231,-47.950741,2.0946579078002214
-0.337891,-1.437988,0.707764,56.808468,-85.372917,-12.20703,1.6379590030647897
-0.031494,-1.003662,0.571045,5.79071,-29.426573,7.652282,1.1551717077149182
0.082764,-0.686768,0.034668,-53.558346,44.517513,20.591734,0.6926052524663671
0.30957,-0.52417,-0.631104,-76.652527,83.015434,22.293089,0.8768580458751576
0.331787,-0.441406,-1.030518,-68.771362,70.526123,43.04504,1.1691403758869163
0.093018,-0.412842,-1.151611,-52.238461,48.095699,59.036251,1.2269061743299687
-0.283447,-0.456543,-1.164063,-36.590576,42.358395,63.232418,1.2821140279347232
-0.496338,-0.557617,-1.149658,-29.937742,59.715267,66.184998,1.3707668094526508
-0.443848,-0.595947,-1.128418,-25.123594,63.865658,63.064571,1.3511036439285478
-0.338867,-0.580566,-0.972412,-14.328002,21.232603,50.888058,1.182147546539348
-0.436523,-0.557617,-0.789551,4.302979,-47.821041,45.104977,1.0606035215003768
-0.704102,-0.510254,-0.666992,22.384642,-102.355949,39.604187,1.0959001318477883
-0.901367,-0.395508,-0.702148,38.101196,-114.158623,27.809141,1.2090909232381988
-0.976563,-0.31958,-1.002686,55.679317,-79.833984,23.193357,1.435683072256896
-0.871826,-0.379639,-1.247559,71.44928,-23.101805,24.024961,1.5686331002111362
-0.735596,-0.404785,-1.336182,89.202873,25.764463,21.90399,1.5780794367093818
-0.677979,-0.420898,-1.300049,110.191338,58.708187,20.820616,1.5254304485115011
-0.653564,-0.469727,-1.166504,128.700256,80.184937,22.613523,1.4172229671583085
-0.604736,-0.538574,-0.981934,143.623352,91.552727,26.80969,1.272777263910697
-0.566895,-0.578613,-0.82373,155.921936,91.903679,32.112122,1.155289599059041
-0.515381,-0.606445,-0.699219,165.145859,81.390373,36.376953,1.0593867674966495
-0.482422,-0.612061,-0.601807,170.440659,63.285824,38.970947,0.9846427367598869
-0.476074,-0.601563,-0.516602,174.446091,42.335506,40.016174,0.9248795180178875
-0.51416,-0.597656,-0.442627,175.315842,27.343748,40.176388,0.9041415050007383
-0.543457,-0.611816,-0.35498,172.836288,24.581907,38.475037,0.8920062382657421
-0.525391,-0.653076,-0.287598,166.908249,34.072876,35.972595,0.8861470387362359
-0.502197,-0.675537,-0.234131,157.859802,50.270077,35.713196,0.8737101294702952
-0.480225,-0.701904,-0.17334,147.155762,67.443848,36.270142,0.8679470211026707
-0.460449,-0.729248,-0.104736,135.856628,80.726616,36.277771,0.868783952891051
-0.453125,-0.766113,-0.053955,124.588005,88.310234,36.514282,0.8917188662459711
-0.479736,-0.806641,0.002197,113.777153,90.240471,36.941528,0.9385207293320698
-0.510742,-0.848877,0.052979,103.385918,86.837761,36.109924,0.9920969338396325
-0.514648,-0.880859,0.088135,92.849724,79.071045,34.393311,1.023983847533739
-0.52124,-0.900146,0.112549,84.182732,67.016602,33.39386,1.0462414808814455
-0.561279,-0.922119,0.137939,76.698303,53.749081,32.287598,1.0882852262725062
-0.579346,-0.934326,0.161865,69.17572,42.41943,29.060362,1.111218763438145
-0.553711,-0.949463,0.182373,61.965939,33.050537,24.818419,1.1141524900205537
-0.543457,-0.965576,0.201904,55.114742,24.818419,22.033689,1.126253855860658
-0.5354,-0.970947,0.213623,47.973629,17.028809,19.294739,1.1291705021554541
-0.528809,-0.970459,0.212891,40.534969,8.811951,15.594481,1.1255008694101485
-0.534912,-0.963623,0.221191,32.798767,-0.564575,12.100219,1.1241110231440665
-0.547852,-0.950439,0.22583,24.864195,-10.124206,8.743286,1.1200336135692537
-0.57251,-0.945068,0.219238,16.75415,-19.668579,5.584716,1.126493020558938
-0.594971,-0.947998,0.225342,7.575988,-28.823851,1.541138,1.141695982216369
-0.612793,-0.945557,0.223877,-1.518249,-38.002014,-3.196716,1.1487881494109347
-0.623779,-0.945068,0.227783,-10.398864,-46.768185,-7.087707,1.1550492892314164
-0.621338,-0.932129,0.230713,-20.51544,-55.374142,-10.986327,1.1437455448018146
-0.605957,-0.924072,0.239502,-31.555174,-64.704895,-14.785766,1.13068747009817
-0.606445,-0.910889,0.254883,-43.899532,-74.813843,-17.791748,1.123592297959985
-0.625977,-0.881592,0.253906,-56.701656,-84.251396,-20.309446,1.110639417555941
-0.682373,-0.865723,0.273193,-71.281433,-90.652458,-22.796629,1.1356688069622236
-0.718506,-0.857666,0.306885,-88.729851,-94.398491,-25.466917,1.1601811250046261
-0.753906,-0.842285,0.336914,-107.536308,-96.832268,-28.121946,1.1795462354045305
-0.815674,-0.842041,0.39917,-127.464287,-101.058952,-31.166075,1.2384239213036061
-0.865234,-0.822266,0.450684,-150.749207,-110.008232,-37.200928,1.2758790371222501
-0.852051,-0.741211,0.389648,-176.650986,-128.448486,-48.072811,1.1946590379794562
-0.804199,-0.672607,0.360596,-203.81163,-151.748657,-61.027523,1.108677447802561
-0.82666,-0.650635,0.38916,-234.893784,-167.915329,-68.17627,1.1216675819622317
-0.807861,-0.598877,0.381592,-249.992355,-171.56218,-72.486877,1.0755954215754175
-0.69165,-0.500977,0.294922,-249.992355,-165.145859,-76.416016,0.9035135101994879
-0.571289,-0.429932,0.168701,-249.641403,-146.987915,-74.073792,0.7346241716319986
-0.548828,-0.361572,0.019531,-249.992355,-117.904655,-67.398071,0.6575164976857996
-0.57959,-0.262451,0.072266,-249.992355,-76.774597,-63.194271,0.6403338740508736
0.121582,0.716553,0.862549,-229.553207,-75.042725,-52.337643,1.1279278176966823
-1.758789,4.921387,-7.999756,-42.259212,21.667479,75.660706,9.555599657259924
-1.62915,4.637451,-5.518311,78.811646,144.340515,34.301758,7.389982259290072
-0.66626,-1.304199,-1.264404,88.821404,153.961182,23.750303,1.9348268383545335
-0.077881,-2.175781,-0.557373,86.09008,30.082701,-15.220641,2.2473880553324563
-1.043457,-2.209717,0.14917,78.37677,-121.582024,-59.242245,2.448244967285341
-0.615234,-2.009766,0.5896,66.680908,-169.975266,-79.177856,2.1829568043165675
-0.204346,-1.411621,0.553223,38.108826,-113.945,-40.748592,1.5298649689060797
-0.116211,-1.005859,0.218262,-28.030394,4.951477,-20.095823,1.0358067508208275
0.346436,-0.803955,-0.24292,-72.540283,97.320549,-17.906189,0.9084996810791955
0.490234,-0.574951,-0.51416,-81.916801,109.443657,6.019592,0.9139247960073082
0.191406,-0.466553,-0.555664,-75.767517,76.728821,27.427671,0.7503801966609993
-0.170898,-0.479004,-0.564697,-72.158813,44.692989,28.228758,0.7599563541605531
-0.419189,-0.550049,-0.639404,-70.709229,35.903931,25.131224,0.9418655930322543
-0.493408,-0.586426,-0.683594,-68.595886,52.284237,24.436949,1.026960400782815
-0.45752,-0.578613,-0.643311,-58.738705,58.906551,24.024961,0.9787576803734416
-0.487305,-0.577148,-0.552002,-44.105526,39.802551,22.14813,0.9355598243474332
-0.551514,-0.583984,-0.461914,-32.569885,13.748168,18.241882,0.9265902804627296
-0.579834,-0.585938,-0.404297,-26.985167,-3.64685,13.427733,0.9181431650940935
-0.574707,-0.567139,-0.409668,-26.130674,-11.512755,11.245727,0.9054074504851393
-0.561035,-0.534424,-0.463135,-25.611876,-14.72473,10.910033,0.9026977961787654
-0.563721,-0.512695,-0.513916,-24.520872,-14.823913,11.756896,0.9191012914374563
-0.568115,-0.522705,-0.565918,-22.575377,-11.810302,13.885497,0.9572034020906947
-0.578125,-0.523682,-0.648193,-19.187927,-7.743835,17.105103,1.0142117717705705
-0.590332,-0.508545,-0.717773,-12.237548,-6.652832,21.240232,1.0593903750638856
-0.620117,-0.504639,-0.748535,-3.211975,-10.536193,25.352476,1.0952215576014745
-0.666016,-0.514893,-0.744385,4.920959,-18.234253,27.687071,1.1237442511221138
-0.691162,-0.530273,-0.714111,11.45172,-26.214598,27.610777,1.1264319265246348
-0.69458,-0.533447,-0.677979,15.99121,-32.516479,26.664732,1.1075480136996319
-0.670654,-0.520264,-0.643066,17.601013,-37.559509,25.344847,1.0648874577944845
-0.622803,-0.500732,-0.633057,16.838074,-42.198177,24.124144,1.0194985423638427
-0.571777,-0.473633,-0.643066,14.98413,-46.585079,23.971556,0.9822377699793468
-0.539795,-0.448975,-0.657959,12.725829,-48.332211,24.559019,0.9622199531972926
-0.510986,-0.45459,-0.657471,9.32312,-45.265194,26.229856,0.9486974629127033
-0.466309,-0.480713,-0.664795,4.53949,-38.269043,28.945921,0.9436532540477991
-0.426758,-0.490723,-0.69165,0.50354,-30.036924,33.187866,0.9493740968622433
-0.40625,-0.471191,-0.724854,-1.609802,-22.727964,38.749695,0.9552347053457595
-0.40918,-0.45166,-0.751953,-2.63977,-17.677307,44.281002,0.9679144291769805
-0.434082,-0.435547,-0.767334,-2.601623,-15.129088,48.896786,0.9833259070567602
-0.466309,-0.428711,-0.763672,-2.63977,-15.289306,52.146908,0.9921855313327241
-0.48584,-0.418701,-0.756348,-2.738952,-18.798828,53.649899,0.9916719871535145
-0.508545,-0.396484,-0.751221,-1.609802,-23.811338,55.000301,0.9900255401362129
-0.5354,-0.406982,-0.719727,-1.419067,-27.832029,56.03027,0.9850352597003825
-0.556885,-0.447266,-0.685059,-3.082275,-29.655455,56.106564,0.9896835915897565
-0.57373,-0.476074,-0.676025,-4.943848,-28.877256,57.449337,1.00639076257734
-0.593506,-0.474121,-0.677246,-5.355834,-25.93231,60.264584,1.0176945706807126
-0.604248,-0.453369,-0.678467,-5.302429,-23.04077,62.873837,1.0153701619379998
-0.593506,-0.435303,-0.683838,-5.065917,-21.614073,65.414429,1.0046753127697525
-0.583252,-0.415527,-0.690674,-4.333496,-23.353575,68.031311,0.994925201966962
-0.57666,-0.396729,-0.686279,-3.52478,-28.511045,70.800781,0.9802599251637292
-0.558105,-0.375977,-0.671875,-3.105163,-35.919189,72.746277,0.9509237147000804
-0.544678,-0.355957,-0.648926,-1.693725,-43.968197,74.783325,0.9189583576033247
-0.543213,-0.339355,-0.612793,-0.465393,-50.041195,77.438354,0.8864296025308497
-0.552246,-0.31958,-0.564453,-0.37384,-53.497311,80.528252,0.8518886136843243
-0.560547,-0.28418,-0.514893,-0.442505,-54.016109,83.869926,0.812456776116736
-0.595215,-0.253174,-0.47876,-1.739502,-49.331661,88.36364,0.8047292141465974
-0.665283,-0.219971,-0.471191,-5.615234,-43.403622,93.086235,0.8443989989400745
-0.712646,-0.206299,-0.456787,-9.986877,-40.382381,95.222466,0.8712508032053686
-0.749268,-0.20874,-0.447998,-13.96942,-41.336056,96.214287,0.897595193518771
-0.738525,-0.204346,-0.449707,-17.852783,-44.273373,97.206108,0.8884890822007888
-0.693115,-0.200439,-0.459473,-20.751951,-48.622128,100.700371,0.8553944316366573
-0.684082,-0.196289,-0.440674,-24.490355,-56.495663,106.307976,0.837072952926446
-0.695313,-0.17041,-0.423584,-29.075621,-66.665649,111.465446,0.831819175737732
-0.731445,-0.133545,-0.412598,-32.142639,-77.087402,116.905205,0.8503429688390445
-0.786377,-0.126221,-0.410645,-30.937193,-82.603447,123.062126,0.8960746860585896
-0.837402,-0.127197,-0.434082,-28.686522,-78.132629,128.181458,0.9517606679922217
-0.864502,-0.110596,-0.45752,-26.489256,-63.514706,133.491516,0.9843372052401554
-0.878906,-0.086914,-0.477051,-23.986814,-44.990536,139.152527,1.003796521628263
-0.884766,-0.077393,-0.48999,-21.659849,-26.550291,143.173218,1.0143425216883102
-0.860107,-0.08667,-0.49292,-20.065308,-10.757445,145.530701,0.9951210312062548
-0.831543,-0.0979,-0.493408,-18.356323,-1.083374,149.154663,0.9718537057155259
-0.825439,-0.104736,-0.489014,-16.792297,0.663757,153.442383,0.9651185754159952
-0.837402,-0.092285,-0.479004,-16.273499,-3.341675,156.028748,0.9691251017515747
-0.861084,-0.068115,-0.468262,-15.930175,-10.848998,157.722473,0.9825347876411298
-0.911377,-0.035645,-0.464844,-15.426635,-19.546509,159.614563,1.023698464632042
-0.961182,-0.001221,-0.454346,-14.442443,-26.367186,160.621643,1.0631569101882374
-0.977539,0.031494,-0.431396,-14.076232,-28.526304,159.477234,1.0689606528647349
-0.973389,0.066162,-0.429199,-13.748168,-26.084898,158.576965,1.065868348890237
-0.932861,0.088135,-0.422363,-14.22119,-20.339964,158.279419,1.0278073395899643
-0.876221,0.101563,-0.414795,-16.494751,-14.526366,158.500671,0.9747477498486468
-0.842285,0.122803,-0.407959,-19.165039,-11.169433,159.545898,0.9439042026153925
-0.826416,0.144043,-0.389648,-21.278379,-10.925292,161.170944,0.9249526230077949
-0.789307,0.16333,-0.36084,-24.353025,-12.21466,163.024887,0.8831125266629389
-0.766846,0.194336,-0.346924,-27.900694,-14.648437,166.01561,0.8638145231402399
-0.800049,0.238281,-0.352051,-30.052183,-18.676758,171.035751,0.9059780041275837
-0.85498,0.28833,-0.354004,-31.249998,-22.193907,175.544724,0.9692491017875642
-0.882813,0.330566,-0.352783,-32.821655,-23.376463,177.078232,1.0065229845433237
-0.880615,0.366455,-0.359131,-34.858704,-23.780821,177.238449,1.0191894428471089
-0.860107,0.400391,-0.352783,-36.628723,-25.375364,179.12291,1.012201980544891
-0.825439,0.411377,-0.330322,-39.024353,-28.442381,183.036789,0.9796393226764635
-0.762451,0.414063,-0.29541,-42.526241,-34.103394,186.668381,0.9165406502005243
-0.670898,0.4375,-0.240723,-47.065731,-43.624874,191.558823,0.8363360204684479
-0.573486,0.472412,-0.165283,-52.505489,-55.549618,198.822006,0.7611686804046788
-0.550537,0.542969,-0.104004,-57.571407,-67.54303,207.855209,0.7802071233627647
-0.696289,0.650391,-0.118896,-57.296749,-74.84436,217.460617,0.9601890872208453
-0.919922,0.713623,-0.169922,-52.711483,-70.4422,223.915085,1.1766000842669526
-1.041992,0.726074,-0.220215,-54.801937,-56.587215,223.754868,1.2889629272267686
-1.042969,0.754639,-0.262207,-64.552307,-45.349117,219.032272,1.3137796109435553
-0.973877,0.789551,-0.282959,-72.807312,-49.652096,213.64592,1.2852598913881192
-0.894531,0.843018,-0.275879,-76.698303,-74.172974,210.502609,1.2597516743096633
-0.855469,0.911621,-0.249512,-77.865601,-112.731926,209.579453,1.2748083368671543
-0.834961,1.003418,-0.217285,-73.745728,-155.647278,208.213791,1.3233368148245555
-0.879639,1.095947,-0.170898,-62.44659,-190.750107,207.191452,1.4156520488926647
-0.960693,1.124023,-0.122559,-49.148556,-208.633408,207.351669,1.483704638147027
-1.018799,1.093506,-0.092041,-40.992733,-204.902634,206.7108,1.497390503548757
-1.015625,1.086182,-0.093506,-38.398743,-184.425339,203.117355,1.4899761238976281
-1.005127,1.100098,-0.105225,-37.376404,-152.832031,197.097763,1.493843431005405
-0.971924,1.107422,-0.138184,-38.94043,-114.44854,188.934311,1.4799035663569435
-0.907715,1.133057,-0.1521,-43.434139,-78.208923,180.480942,1.4597599448107896
-0.866211,1.160889,-0.160889,-48.309322,-52.391048,172.431931,1.4573503481191474
-0.801025,1.173584,-0.211914,-48.568722,-43.571468,156.25,1.4366098980158113
-0.567383,1.188232,-0.396729,-44.219967,-74.241638,131.843567,1.375213675744246
-0.521729,1.193604,-0.541016,-34.500122,-177.307114,105.75103,1.410528259381215
-0.993408,1.159668,-0.447754,-15.464782,-249.992355,82.527153,1.5912802924701857
-1.186279,1.048584,-0.371826,-9.689331,-228.01207,62.683102,1.6263581540278882
-1.044189,0.995117,-0.287354,-18.64624,-160.270691,41.213985,1.4707687896899364
-0.868896,1.008545,-0.189209,-22.933958,-105.812065,26.931761,1.3445978289146536
-0.684082,1.04126,-0.102539,-19.676208,-80.459587,17.524719,1.2500819240533798
-0.552734,1.035645,-0.001221,-9.979248,-71.861267,9.086609,1.1739152148353815
-0.52002,1.007324,0.023682,4.524231,-68.634033,2.212524,1.1338797460489363
-0.554932,0.958008,0.045654,17.25769,-57.28912,-6.462097,1.1080672995824756
-0.684814,0.957031,0.031982,12.046813,-37.635803,-15.327453,1.1772431345652434
-0.770996,0.975098,-0.012695,7.209777,-9.902954,-20.606993,1.2431460512124068
-0.763428,0.935791,0.034912,2.593994,32.821655,-26.161192,1.2081994680552546
-0.648193,0.90332,0.058838,-6.126403,83.19091,-33.279419,1.1133746439959014
-0.505127,0.896484,0.043457,-12.870788,120.36895,-36.018372,1.0299152194399304
-0.446533,0.888916,0.034912,-17.234802,131.027222,-36.453247,0.9953804412831307
-0.429199,0.885742,0.007324,-17.486572,119.705193,-39.848328,0.9842785749679813
-0.423828,0.888184,-0.018066,-14.86206,99.548332,-45.181271,0.9842902883783828
-0.444092,0.890137,-0.030273,-12.222289,79.933167,-48.33984,0.995227631128678
-0.483154,0.888428,-0.041016,-11.970519,66.711426,-49.995419,1.0121385335792723
-0.483398,0.89624,-0.052246,-13.336181,59.577938,-51.277157,1.019631996614465
-0.460449,0.904297,-0.062012,-13.900756,53.016659,-49.98016,1.0166670221631073
-0.446045,0.907227,-0.063232,-13.130187,43.731686,-46.440121,1.0129241123489954
-0.438477,0.898926,-0.053955,-11.054992,32.592773,-42.205807,1.0016192764868297
-0.441406,0.887451,-0.032959,-8.682251,21.926878,-37.162781,0.9917130784243999
-0.450684,0.873779,-0.015625,-7.118225,13.793944,-31.890867,0.9832852837920437
-0.46582,0.859863,0.001221,-6.370544,9.57489,-26.855467,0.9779336081810462
-0.473145,0.848633,0.010742,-6.195068,9.361267,-21.598814,0.9716787279126778
-0.475342,0.844482,0.016846,-6.622314,12.176513,-16.029358,0.9692180626690775
-0.4729,0.841797,0.02124,-7.186889,16.647339,-10.276793,0.9657679518440234
-0.467529,0.838379,0.021729,-7.80487,21.263121,-4.852295,0.9601743919325281
-0.460693,0.842285,0.018555,-8.552551,25.05493,-0.007629,0.9602220313547278
-0.446777,0.847168,0.017578,-9.216309,27.976988,4.249573,0.9579208182501308
-0.437988,0.854736,0.013672,-9.262085,29.891966,8.224487,0.9605175903771883
-0.435059,0.869629,0.01001,-9.590149,31.059263,11.375426,0.9724356694517123
-0.432617,0.887939,0.006592,-9.57489,31.318663,14.633178,0.9877431806264217
-0.435791,0.898926,0.005371,-9.185791,30.96771,17.402649,0.9990048031906553
-0.435547,0.908691,0.002441,-8.850098,29.869078,19.02771,1.0076837208028122
-0.434814,0.920654,-0.001953,-8.598328,27.6947,20.080564,1.018170327853351
-0.436768,0.929443,-0.004395,-8.537292,24.749754,21.034239,1.0269614852067237
-0.440186,0.938477,-0.008301,-7.957458,21.041868,21.476744,1.0366155028389263
-0.439941,0.94458,-0.009033,-7.705688,16.88385,21.179197,1.0420465704420316
-0.440674,0.951904,-0.008545,-7.865905,12.191772,20.408628,1.0489937161475278
-0.439697,0.95166,-0.011963,-7.17926,7.194519,19.477844,1.0483955936467875
-0.442871,0.952393,-0.012695,-6.889343,1.670837,18.310547,1.0504038804740774
-0.442627,0.955078,-0.01709,-7.17926,-4.150391,16.365051,1.0527985160100672
-0.44458,0.958252,-0.026367,-7.278442,-10.185241,13.96942,1.0566898743685396
-0.44873,0.95874,-0.034424,-7.263183,-16.059875,11.543273,1.0591156746437096
-0.457275,0.955078,-0.039795,-6.759643,-21.331785,9.361267,1.059649967552493
-0.465576,0.953369,-0.053223,-6.248474,-25.329588,7.148742,1.0623117008044296
-0.475342,0.950684,-0.059814,-5.714416,-27.976988,5.142211,1.0645786957364871
-0.480225,0.947266,-0.066406,-4.638672,-29.762266,3.578186,1.0641140362841757
-0.490234,0.940186,-0.06665,-2.861023,-30.998228,2.304077,1.0624129667186861
-0.503662,0.9375,-0.064453,-0.892639,-31.234739,1.25885,1.0661781508983383
-0.51709,0.933105,-0.066406,0.717163,-29.953001,0.244141,1.0688670478413114
-0.53125,0.93457,-0.073975,1.914978,-26.802061,-0.701904,1.0775527588127645
-0.534424,0.929932,-0.074463,2.89154,-21.957396,-1.396179,1.0751405837233565
-0.531006,0.92041,-0.067871,3.448486,-16.334534,-1.853943,1.0647668349347663
-0.526855,0.915527,-0.055908,3.532409,-11.283874,-1.876831,1.0577767170901429
-0.520996,0.911377,-0.043457,3.135681,-6.935119,-1.853943,1.050682339717386
-0.51416,0.903809,-0.032471,2.388,-2.204895,-1.579285,1.040329553517538
-0.507568,0.891113,-0.026611,0.923157,3.356933,-1.502991,1.025873188417555
-0.504395,0.884033,-0.018311,-1.426697,9.590149,-1.312256,1.0179705073502867
-0.494385,0.87915,-0.011963,-3.90625,15.640258,-0.900268,1.0086943858741357
-0.479736,0.87915,-0.01123,-5.249023,20.095823,-0.785828,1.0015874725135094
-0.47168,0.880371,-0.005859,-5.126953,23.086546,-0.534058,0.9987839846142909
-0.467529,0.884521,0.001465,-4.180908,25.619505,0.144958,1.0004813399094459
-0.464111,0.896729,0.008545,-3.77655,27.595518,1.091003,1.0097499377504313
-0.459473,0.910645,0.011719,-4.081726,28.549192,1.945495,1.0200622964873274
-0.449463,0.92334,0.016602,-4.478455,27.732847,2.510071,1.0270586012360736
-0.445068,0.932617,0.01123,-4.943848,24.200438,3.166198,1.0334341324985352
-0.45166,0.941406,0.01123,-4.692078,19.691467,3.852844,1.0442069360696662
-0.45874,0.943604,0.008057,-3.990173,16.204834,4.844666,1.0492358227133687
-0.457764,0.945801,0.002441,-3.288269,13.999938,5.973815,1.0507584735694497
-0.44751,0.94873,0.001709,-2.754211,10.963439,6.568908,1.0489789004937133
-0.447021,0.949219,-0.002197,-1.968384,6.355285,6.446838,1.0492136632788385
-0.45874,0.943604,-0.004883,-0.732422,1.647949,6.088256,1.0492162504007456
-0.466553,0.939209,-0.005371,0.709534,-1.525879,5.363464,1.0487202177563852
-0.467529,0.944092,-0.006348,1.571655,-3.562927,4.562378,1.0535337523824284
-0.472412,0.942383,-0.007568,2.464294,-5.615234,3.509521,1.0541897794311041
-0.474365,0.933594,-0.012451,3.494262,-7.598876,2.166748,1.0472702313452817
-0.477783,0.928223,-0.021484,4.180908,-8.918762,0.694275,1.0441915988332793
-0.477051,0.920654,-0.025146,4.440308,-9.223938,-0.617981,1.0372144260629044
-0.477539,0.914063,-0.028564,4.364014,-9.292603,-1.853943,1.0316833654692703
-0.481201,0.909912,-0.03418,3.868103,-9.620667,-2.716064,1.0298847132300781
-0.482666,0.900635,-0.039551,3.456115,-9.315491,-3.471374,1.0225821005581899
-0.482666,0.892578,-0.045654,3.067016,-8.102417,-3.875732,1.0157491035467372
-0.481445,0.886719,-0.044922,2.479553,-5.699157,-3.807068,1.0099890390840884
-0.480713,0.885986,-0.043213,1.51062,-3.005981,-3.448486,1.008921971182113
-0.48291,0.891357,-0.03833,0.38147,-0.37384,-2.746582,1.0144893091841825
-0.487061,0.897705,-0.028076,-0.396728,2.220154,-1.586914,1.0217098152225024
-0.495117,0.902344,-0.026855,-1.342773,5.058288,0.267029,1.0296051325872457
-0.502197,0.90625,-0.030273,-2.26593,8.148193,2.166748,1.0365362240838474
-0.508057,0.908447,-0.030762,-2.754211,11.688231,4.03595,1.0413184756365366
-0.510254,0.908936,-0.025391,-3.440857,15.327453,5.714416,1.0426737262888137
-0.511963,0.909424,-0.023193,-3.997802,18.783569,7.110595,1.0438850704909999
-0.510742,0.914795,-0.014404,-3.89862,22.193907,8.117676,1.0478142763891891
-0.508301,0.920654,-0.007324,-3.936767,24.955748,8.392334,1.0516783421241496
-0.499268,0.929199,-0.010986,-4.15802,27.351377,7.972717,1.054893364099424
-0.491699,0.937256,-0.009277,-4.058838,29.129026,7.080078,1.058443564327357
-0.490234,0.939697,-0.011719,-3.623962,30.532835,6.309509,1.0599514901758478
-0.489258,0.944824,-0.011475,-2.6474,31.921385,5.104064,1.0640476761710445
-0.47998,0.943604,-0.011963,-1.777649,33.172607,3.738403,1.0587315158173956
-0.464355,0.947021,-0.018066,-1.518249,34.164429,2.632141,1.0548937011955282
-0.45166,0.946045,-0.021484,-1.38855,34.057617,1.960754,1.0485511241141274
-0.44458,0.942627,-0.023193,-0.663757,32.691956,0.961304,1.0424658041288453
-0.440674,0.936279,-0.020996,0.267029,30.509947,-0.061035,1.0350134164024156
-0.441406,0.9375,-0.025879,0.808716,28.038023,-0.709534,1.0365400279183625
-0.438232,0.941162,-0.031006,0.778198,25.115965,-1.159668,1.0386503589293175
-0.428467,0.939453,-0.032959,1.289368,20.927427,-1.564026,1.0330741527010536
-0.423828,0.937744,-0.03125,1.998901,15.792846,-1.76239,1.0295487096878904
-0.428955,0.932129,-0.027344,2.655029,10.620116,-1.25885,1.0264572855223932
-0.436035,0.928955,-0.025391,2.830505,6.408691,-0.617981,1.0265128426527357
-0.440186,0.924805,-0.024658,1.991272,3.318786,-0.244141,1.0245174569449755
-0.442383,0.926514,-0.019043,0.869751,0.778198,0.198364,1.0268853620214868
-0.446777,0.924316,-0.020264,-0.495911,-1.602173,0.709534,1.026830261182928
-0.449219,0.919678,-0.019531,-1.159668,-3.578186,1.434326,1.0237122611388416
-0.459717,0.910889,-0.017334,-1.937866,-4.859924,2.02179,1.0204699691642083
-0.466797,0.900391,-0.015381,-2.868652,-5.203247,2.510071,1.0143174883886208
-0.471436,0.896729,-0.016113,-3.982544,-4.730225,2.975464,1.0132297026370674
-0.476563,0.896973,-0.016846,-5.317688,-3.471374,3.417969,1.015852668163056
-0.47876,0.893555,-0.016846,-5.958557,-2.426147,3.631592,1.0138715221077077
-0.485596,0.887451,-0.016113,-6.408691,-1.564026,3.791809,1.0117471924280295
-0.493652,0.882813,-0.01123,-7.415771,0.099182,3.616333,1.0115222207015524
-0.503418,0.886963,-0.013428,-8.43811,2.960205,4.249573,1.0199575271926768
-0.517334,0.888916,-0.018799,-9.292603,7.003784,5.340576,1.0286688121125283
-0.52832,0.887451,-0.027588,-10.253905,12.359618,5.851745,1.0331758792891945
-0.52832,0.888184,-0.036865,-11.184691,18.722534,6.179809,1.034094709628185
-0.52417,0.895996,-0.043213,-12.413024,25.848387,6.385803,1.038956391907283
-0.520264,0.907959,-0.037109,-14.213561,32.836914,6.538391,1.0471109078115841
-0.512207,0.925049,-0.026123,-15.480041,38.322449,6.500244,1.057711716101793
-0.503418,0.938232,-0.02417,-15.800475,41.763302,6.324768,1.0650319983211771
-0.494629,0.94165,-0.031006,-15.136718,43.846127,5.821228,1.064107110293414
-0.494141,0.937744,-0.037842,-13.870238,46.340939,5.744934,1.060646573737454
-0.489502,0.937988,-0.04126,-12.672423,49.613949,6.217956,1.0588371374994363
-0.471436,0.94165,-0.035645,-11.146544,51.895138,6.187438,1.053673189666037
-0.458008,0.940186,-0.03125,-9.735107,52.391048,5.592346,1.0462779770022879
-0.440674,0.939697,-0.029541,-8.522034,51.002499,5.294799,1.038314353539428
-0.428467,0.936279,-0.027588,-7.308959,48.370358,5.325317,1.0300307925853478
-0.419922,0.933594,-0.02417,-6.301879,45.410152,5.203247,1.0239709135615132
-0.414551,0.938232,-0.021973,-5.729675,42.755123,4.78363,1.0259700922317374
-0.408447,0.945313,-0.024414,-5.348205,40.100098,4.524231,1.0300687662355363
-0.404053,0.954346,-0.025146,-5.020141,37.193298,4.470825,1.0366616785822653
-0.4021,0.95874,-0.029541,-4.150391,34.156799,4.53186,1.0400670498967843
-0.397217,0.959229,-0.029053,-2.952575,31.295774,4.570007,1.0386268320908139
-0.395996,0.961914,-0.025879,-2.418518,29.235838,5.264282,1.040558070485737
-0.403076,0.974854,-0.027832,-2.296448,27.725218,6.301879,1.0552654658027998
-0.405518,0.990479,-0.0354,-1.464844,26.000975,6.996154,1.0708625765078357
-0.404541,1.001465,-0.037842,0.495911,24.009703,7.568359,1.0807486219607223
-0.395996,1.00708,-0.040527,3.135681,21.957396,8.598328,1.0828967615359277
-0.387695,1.00415,-0.042725,6.103515,18.676758,9.666443,1.0772418768085468
-0.383057,0.994873,-0.046387,9.429932,13.72528,10.292052,1.0670785843352868
-0.385254,0.983643,-0.051025,12.46643,8.018494,10.543822,1.0576283593918991
-0.389648,0.973633,-0.060547,14.801024,3.211975,10.56671,1.0504535790800085
-0.390869,0.968262,-0.066406,16.838074,-0.671387,10.665893,1.046288503540491
-0.386963,0.957275,-0.071533,19.050598,-4.234314,10.612487,1.0350037483424879
-0.383301,0.943604,-0.074951,21.049498,-7.606506,10.19287,1.0212373954267442
-0.385986,0.932129,-0.074951,22.377012,-10.894774,10.047912,1.0116656153285037
-0.390869,0.927002,-0.081299,23.178099,-13.412475,10.124206,1.0093170020196827
-0.398438,0.920654,-0.085693,22.842405,-14.617919,9.933472,1.006826657279693
-0.399658,0.915527,-0.087646,22.056578,-15.136718,9.498596,1.002795106693785
-0.399658,0.910889,-0.087402,20.721434,-15.304564,8.674622,0.9985411342999345
-0.401855,0.909912,-0.08667,19.035339,-15.411376,7.705688,0.9984683158062654
-0.405273,0.905029,-0.084961,17.715454,-14.396667,7.232666,0.9952597986912763
-0.407227,0.904541,-0.085205,16.159058,-12.329101,6.958007,0.9956345425079426
-0.406006,0.900391,-0.08374,14.175414,-9.086609,6.774902,0.9912402395569906
-0.399902,0.900146,-0.08374,11.810302,-5.325317,6.29425,0.9885326593087352
-0.392578,0.899658,-0.080322,8.811951,-2.128601,5.828857,0.9848622374383129
-0.381348,0.898193,-0.082764,6.034851,0.62561,5.332946,0.9792991586073175
-0.376709,0.898193,-0.088135,3.39508,3.074646,5.226135,0.9779714280872422
-0.383057,0.901855,-0.100098,0.564575,5.851745,5.622863,0.9849338637076096
-0.385742,0.914063,-0.11084,-2.227783,9.498596,5.500793,0.998295329115087
-0.37793,0.924805,-0.12207,-4.53186,13.47351,5.279541,1.0064772515188805
-0.366455,0.92334,-0.131592,-6.011962,16.807556,5.378723,1.0020790772633665
-0.361816,0.924561,-0.129395,-7.041931,19.821167,5.91278,1.0012327035220134
-0.362305,0.929688,-0.131592,-7.751464,22.926329,6.568908,1.006429900605601
-0.360352,0.943604,-0.140137,-8.255005,26.718138,6.950378,1.0197452875542008
-0.358887,0.958008,-0.141846,-7.980346,30.700682,7.453918,1.0328114515965632
-0.358643,0.970947,-0.148438,-7.690429,34.324646,7.652282,1.0456561184739466
-0.356445,0.97876,-0.150635,-7.156372,37.994385,7.469177,1.0524804410771726
-0.345947,0.991455,-0.151611,-7.019042,41.78619,7.30133,1.0609657106405466
-0.331787,0.999756,-0.145996,-6.355285,44.860836,7.095336,1.0634422903575915
-0.331055,1.001221,-0.139404,-5.554199,47.233578,7.324218,1.0637078447966808
-0.327148,1.00293,-0.133789,-4.997253,49.690243,7.942199,1.0633879326591025
-0.322266,0.998291,-0.124512,-4.623413,51.757809,8.033752,1.056382285719048
-0.305176,0.990723,-0.115234,-4.951477,53.161617,8.117676,1.0430452187997412
-0.295654,0.980957,-0.111572,-5.271911,52.841183,8.003235,1.0305999392339396
-0.293457,0.970215,-0.109375,-5.584716,51.11694,7.026672,1.0195082381712273
-0.286133,0.959717,-0.106201,-6.156921,49.942013,5.783081,1.0070786792396114
-0.289551,0.949951,-0.118164,-7.240295,49.499508,4.936218,1.000104701967749
-0.294434,0.945801,-0.126953,-8.682251,50.048824,4.005432,0.9986731077614937
-0.280518,0.945313,-0.135498,-10.0708,51.23901,2.670288,0.9953224222818453
-0.266602,0.939209,-0.143311,-10.910033,51.704403,1.312256,0.9867766792978034
-0.256836,0.932861,-0.142334,-11.230468,52.139278,1.014709,0.9779843269567259
-0.243896,0.935791,-0.14624,-12.008666,51.475521,1.220703,0.9780471318382361
-0.239502,0.94458,-0.150879,-12.779235,49.354549,1.846313,0.9860816685472862
-0.237061,0.956055,-0.161865,-13.450622,45.967098,2.14386,0.9982180918872389
-0.238037,0.961426,-0.171631,-13.267516,42.015072,2.990722,1.0052157813156337
-0.244873,0.968506,-0.177002,-12.809752,37.963867,4.127502,1.0145424417780657
-0.244873,0.972412,-0.178223,-11.909484,33.843994,4.615784,1.01848481657902
-0.234863,0.972412,-0.170898,-10.879516,28.877256,4.676819,1.014865435866746
-0.230225,0.975098,-0.16626,-10.025024,22.514341,4.959106,1.0156092003467674
-0.23877,0.978271,-0.161377,-9.155273,15.296935,5.256652,1.0198371431115851
-0.251953,0.978516,-0.158447,-7.980346,7.995605,5.241394,1.0227801954838587
-0.266113,0.97876,-0.153076,-6.896972,2.258301,4.928589,1.0257775237082356
-0.271973,0.979004,-0.145508,-5.699157,-2.311707,4.554749,1.026445674553213
-0.279541,0.979248,-0.138916,-4.920959,-6.347656,3.814697,1.0277973882244495
-0.293457,0.982666,-0.132813,-4.264832,-9.689331,3.234863,1.0341125525657253
-0.300781,0.981934,-0.128906,-3.723144,-11.932372,2.693176,1.0350267374097153
-0.310059,0.982666,-0.124756,-3.14331,-13.275146,1.914978,1.0379465836800081
-0.32251,0.977051,-0.12085,-3.204345,-13.748168,0.663757,1.035975906670131
-0.327637,0.959961,-0.11792,-3.288269,-12.825011,-0.366211,1.0211641649068968
-0.329102,0.948486,-0.11792,-3.753662,-10.414123,-1.312256,1.010860497299207
-0.330566,0.944092,-0.118408,-4.226685,-7.232666,-2.311707,1.0072755528076713
-0.321045,0.944336,-0.120605,-5.027771,-3.730774,-2.914428,1.004682008869473
-0.316895,0.9375,-0.121826,-4.91333,-0.534058,-3.15094,0.9970808719963491
-0.310059,0.938721,-0.125244,-5.142211,2.113342,-3.204345,0.9965037676085324
-0.306396,0.943604,-0.127686,-5.40924,4.348755,-3.051758,1.0002853254087056
-0.296143,0.946289,-0.123779,-5.40924,5.851745,-3.02124,0.9992421072047555
-0.277344,0.946289,-0.124268,-5.310058,6.729125,-2.853393,0.9938939086648032
-0.276123,0.950928,-0.122803,-5.439758,6.179809,-2.059937,0.9977918365681291
-0.289795,0.959473,-0.123291,-6.072998,5.40924,-1.571655,1.0098367444468437
-0.289795,0.972656,-0.124756,-6.210327,5.40924,-1.861572,1.0225482364646667
-0.281494,0.977783,-0.118164,-6.126403,5.332946,-1.945495,1.0243345147074758
-0.281738,0.976074,-0.110352,-6.019592,3.860473,-1.777649,1.0218974107140109
-0.286377,0.973633,-0.105225,-5.813598,1.792908,-1.930237,1.0203162771626257
-0.282715,0.97998,-0.111572,-5.844116,-0.320435,-2.449036,1.026029669555905
-0.286133,0.983887,-0.11377,-5.737304,-2.227783,-2.845764,1.0309458450170892
-0.292969,0.980957,-0.116699,-5.096435,-3.608703,-2.708435,1.0304009546826904
-0.281494,0.971924,-0.116455,-4.325867,-5.317688,-3.364563,1.0185464647412998
-0.282715,0.963379,-0.108398,-3.547668,-7.80487,-4.165649,1.0098400840083543
-0.287354,0.966064,-0.107422,-3.410339,-10.482787,-4.600525,1.013603206139365
-0.284668,0.973877,-0.107666,-3.158569,-12.817382,-5.53894,1.0203255602546668
-0.276367,0.970703,-0.104736,-2.449036,-15.678405,-6.134033,1.0146983111220793
-0.279541,0.966064,-0.0979,-1.602173,-19.691467,-6.027221,1.0104490253233955
-0.303467,0.963379,-0.096191,-1.335144,-23.620604,-6.118774,1.0146152109105204
-0.320313,0.967285,-0.09668,-0.938415,-25.650023,-6.614685,1.0235173235436712
-0.324463,0.9729,-0.102051,-0.50354,-25.863646,-6.782531,1.0306430298459306
-0.313965,0.970459,-0.104248,0.061035,-25.42877,-6.484985,1.0252962193483404
-0.314209,0.9646,-0.099121,0.595093,-25.947569,-6.286621,1.0193161571965785
-0.319336,0.961914,-0.095459,0.640869,-27.153013,-6.54602,1.0180208470227907
-0.323486,0.961914,-0.095947,0.663757,-28.091429,-6.813049,1.019376065248248
-0.328857,0.9646,-0.0979,0.839233,-28.648375,-6.835937,1.0238088183098444
-0.337158,0.966309,-0.101563,0.63324,-28.648375,-6.683349,1.0284666467192798
-0.342529,0.965332,-0.103271,0.892639,-27.9541,-6.66809,1.0294935092102329
-0.341064,0.962646,-0.103516,1.037598,-27.229307,-6.805419,1.0265123163742362
-0.340576,0.958496,-0.10376,0.88501,-26.840208,-6.767272,1.0224836093512697
-0.343994,0.956787,-0.104248,0.717163,-26.893614,-6.904602,1.0220767490306195
-0.344482,0.953857,-0.110352,0.915527,-27.397154,-7.316589,1.0201414552291266
-0.351318,0.955566,-0.110352,1.358032,-28.053282,-7.759094,1.024064588482582
-0.346924,0.959229,-0.109375,1.754761,-28.671263,-8.270264,1.0258847044585468
-0.34375,0.956299,-0.107422,2.479553,-29.571531,-8.613586,1.0218665891323582
-0.351318,0.956543,-0.101318,2.799988,-31.005857,-8.56781,1.0240430582241158
-0.359863,0.958496,-0.09668,3.128052,-31.867979,-8.43811,1.0283788130766793
-0.367676,0.956299,-0.093018,3.356933,-31.806944,-8.224487,1.0287593337127008
-0.373047,0.958008,-0.086426,3.173828,-30.830381,-8.262634,1.0317038556431783
-0.370117,0.958252,-0.090576,2.555847,-29.327391,-8.422852,1.0312310609019688
-0.36084,0.955322,-0.093262,2.029419,-28.190611,-8.621216,1.0254479167310253
-0.358398,0.953125,-0.096924,1.548767,-27.94647,-8.842468,1.0228834996249572
-0.359375,0.952148,-0.10498,1.342773,-27.908323,-9.109497,1.0231114332901379
-0.372559,0.95166,-0.103516,1.266479,-27.801512,-9.223938,1.0272159102822542
-0.382568,0.95459,-0.109619,1.274109,-26.840208,-9.559631,1.0342227361091034
-0.383545,0.954834,-0.112061,1.098633,-24.841307,-9.735107,1.0350712063921013
-0.378418,0.953613,-0.115479,0.984192,-22.552488,-9.57489,1.0324307899002239
-0.36792,0.955566,-0.112305,1.037598,-20.88928,-9.468079,1.0300892775779196
-0.363037,0.953613,-0.106934,1.052856,-20.103453,-9.498596,1.0259671035145328
-0.368164,0.952148,-0.101074,0.656128,-19.760132,-9.45282,1.0258394115435419
-0.377686,0.951172,-0.094482,0.167847,-18.928528,-9.651184,1.0277654092758717
-0.38916,0.955078,-0.094727,-0.480652,-17.181396,-9.803772,1.0356605120467808
-0.406494,0.958984,-0.090576,-0.709534,-14.343261,-9.83429,1.0455102563188943
-0.40332,0.965088,-0.088135,-0.808716,-10.337829,-10.093688,1.0496807363998826
-0.392822,0.967041,-0.083984,-0.869751,-6.278991,-10.353087,1.0471536332463351
-0.394043,0.965332,-0.078125,-0.953674,-3.128052,-10.742187,1.045580829825222
-0.392578,0.964111,-0.074707,-1.480102,-0.396728,-11.45935,1.0436515904524843
-0.386475,0.964355,-0.072266,-1.983642,2.349854,-12.268065,1.0414249211565854
-0.383545,0.9646,-0.067871,-2.464294,4.737854,-12.512206,1.0402722718913544
-0.38208,0.966553,-0.064453,-2.89154,6.401062,-12.7182,1.0413280066424797
-0.383789,0.969727,-0.062988,-3.074646,7.644653,-12.519835,1.0448119157025344
-0.381592,0.973145,-0.066406,-2.655029,8.552551,-11.772155,1.0473936233933259
-0.376465,0.979004,-0.069336,-1.754761,8.926392,-10.429381,1.0511813397968022
-0.375488,0.983398,-0.071533,-0.267029,8.926392,-8.850098,1.055073378792679
-0.374756,0.980713,-0.07373,1.472473,8.613586,-7.408142,1.0524619521887715
-0.370605,0.969482,-0.073486,3.059387,8.659363,-6.240844,1.0405016129468516
-0.362793,0.958252,-0.072021,4.104614,8.750916,-5.073547,1.0271575734978542
-0.35498,0.951904,-0.06665,4.417419,8.407593,-4.142761,1.0181229042291504
-0.351318,0.955322,-0.065918,4.379272,7.232666,-3.494262,1.0200047272106145
-0.350098,0.958252,-0.064697,4.310608,5.500793,-3.082275,1.022253005335274
-0.348145,0.959473,-0.061279,4.53949,3.39508,-2.754211,1.0225206572950005
-0.350342,0.956543,-0.056152,4.760742,1.419067,-2.227783,1.020228932601404
-0.355713,0.949219,-0.052734,4.66156,0.053406,-1.548767,1.0150513893818383
-0.358154,0.940186,-0.049072,4.196167,-0.770569,-1.197815,1.0072894636081526
-0.359863,0.937744,-0.045654,3.242492,-1.25885,-0.976562,1.005459833121642
-0.359619,0.936768,-0.046387,2.151489,-1.853943,-0.526428,1.0044958261506118
-0.360107,0.93335,-0.043701,1.228333,-2.784729,0.007629,1.0013635959780043
-0.362793,0.932129,-0.040771,0.488281,-3.936767,0.602722,1.0010721791814015
-0.36792,0.937256,-0.041992,-0.366211,-5.111694,1.190186,1.007758534570658
-0.369873,0.939209,-0.043701,-0.732422,-6.378173,1.838684,1.0103610043994176
-0.375732,0.940918,-0.047363,-0.823975,-7.713317,2.586365,1.0142704138034393
-0.382813,0.94165,-0.049561,-0.907898,-9.208679,3.166198,1.017696815456352
-0.391357,0.943604,-0.050293,-0.770569,-10.604857,3.494262,1.0227796420119046
-0.401611,0.946289,-0.054199,-0.495911,-11.863708,3.631592,1.0294133273097839
-0.40918,0.942871,-0.054932,-0.091553,-12.893676,3.501892,1.0292966140355266
-0.414551,0.938232,-0.050537,0.244141,-13.59558,3.204345,1.0269789704731056
-0.416992,0.936768,-0.048828,0.175476,-14.122008,2.746582,1.0265479956982042
-0.421143,0.942383,-0.051758,0.099182,-14.411925,2.227783,1.033501831494265
-0.42749,0.944824,-0.055664,0.1297,-14.320373,1.63269,1.03852711662816
-0.433105,0.945801,-0.052734,0.1297,-13.458251,1.174927,1.0415854969141995
-0.438477,0.943115,-0.056396,0.343323,-11.940001,0.671387,1.0415894064217435
-0.437012,0.943848,-0.055664,0.671387,-9.796143,0.213623,1.0415982988388566
-0.432861,0.943115,-0.055176,0.953674,-7.217407,-0.144958,1.0391722376593786
-0.431885,0.94458,-0.051758,0.862122,-4.974365,-0.480652,1.0399206316777256
-0.427246,0.949219,-0.053467,0.595093,-2.967834,-0.541687,1.0423121291465431
-0.422119,0.947266,-0.053223,0.25177,-0.740051,-0.602722,1.0384267006611492
-0.412354,0.943359,-0.053955,0.083923,1.121521,-0.556946,1.0309574027194333
-0.402832,0.944336,-0.052734,-0.160217,2.372742,-0.671387,1.028019929707591
-0.398926,0.954102,-0.054932,-0.602722,2.868652,-0.572205,1.0356013250783334
-0.395752,0.960449,-0.061523,-0.305176,3.204345,-0.320435,1.0406089595203376
-0.390381,0.959961,-0.067383,-0.083923,3.837585,-0.175476,1.038490691037238
-0.389648,0.956543,-0.067383,0.0,4.463196,-0.022888,1.0350558165828547
-0.385742,0.953857,-0.068359,0.106812,5.058288,0.167847,1.031170703566582
-0.383301,0.951416,-0.06958,0.411987,5.40924,0.312805,1.028082408203253
-0.379883,0.947266,-0.066162,1.098633,5.027771,0.549316,1.0227420880598392
-0.375977,0.945313,-0.066895,1.449585,4.302979,0.679016,1.0195343611291383
-0.375488,0.94751,-0.064209,1.525879,3.173828,0.747681,1.0212194837178734
-0.373779,0.950195,-0.065674,1.655578,1.747131,0.915527,1.0231785538907665
-0.373779,0.952881,-0.063965,2.075195,0.198364,1.037598,1.0255654353706545
-0.375977,0.952148,-0.067139,2.433777,0.328064,1.487732,1.0258909122094804
-0.377197,0.955322,-0.064209,2.5177,1.976013,2.235413,1.029096932350884
-0.369873,0.95874,-0.066406,2.784729,3.059387,2.662658,1.0297563695190237
-0.363281,0.961426,-0.066895,3.356933,3.067016,2.929687,1.029945619662514
-0.359863,0.959717,-0.065674,3.784179,2.540588,3.494262,1.027069215356979
-0.359619,0.959961,-0.064209,4.180908,1.182556,3.890991,1.0271191471114731
-0.359619,0.962646,-0.063232,4.28772,-0.724792,4.150391,1.0295685660998979
-0.362061,0.967773,-0.062744,4.295349,-2.861023,4.142761,1.0351857595552598
-0.365967,0.96875,-0.065918,4.394531,-5.180358,4.104614,1.0376673794203033
-0.368408,0.96875,-0.069824,4.920959,-7.362365,3.837585,1.0387860260611903
-0.371094,0.962646,-0.075439,5.622863,-9.361267,3.578186,1.034451120581828
-0.374268,0.953613,-0.078369,6.29425,-11.245727,3.341675,1.0274220115191226
-0.374756,0.947266,-0.07666,6.996154,-12.832641,2.952575,1.0215829334381032
-0.376221,0.942139,-0.074707,7.56073,-14.511107,2.380371,1.0172262639211593
-0.379639,0.937012,-0.074463,7.827758,-16.311646,2.220154,1.0137366506317111
-0.384766,0.929443,-0.077393,7.919311,-17.776489,2.14386,1.0089097290907645
-0.391602,0.923828,-0.080811,7.621765,-18.592834,1.785278,1.0066482591794415
-0.395996,0.921387,-0.081299,7.003784,-18.859863,1.480102,1.0061691523725023
-0.401367,0.922119,-0.077148,5.958557,-18.699646,1.205444,1.0086380583509627
-0.404053,0.925293,-0.074951,4.974365,-18.501282,1.052856,1.0124443762790132
-0.407959,0.930908,-0.075928,4.356384,-18.302917,1.106262,1.0192081786018987
-0.414795,0.931885,-0.078369,4.112244,-18.013,1.419067,1.023037753658681
-0.422607,0.929688,-0.078613,3.761291,-17.39502,1.647949,1.0242540981426436
-0.429932,0.927734,-0.077637,3.280639,-16.288757,1.686096,1.0254557051130975
-0.432617,0.929443,-0.07959,2.746582,-14.72473,1.487732,1.0282783315027113
-0.435303,0.931885,-0.073975,2.01416,-12.924193,1.25885,1.0311986499501442
-0.438232,0.937256,-0.077393,1.571655,-10.82611,0.862122,1.0375383230555872
-0.441895,0.940674,-0.079102,1.533508,-8.590698,0.534058,1.042303166888118
-0.438477,0.937744,-0.07959,1.617432,-6.072998,0.312805,1.0382487453231042
-0.437744,0.936523,-0.078613,1.335144,-3.295898,-0.053406,1.0367618544458512
-0.433838,0.938721,-0.077881,0.923157,-0.816345,-0.473022,1.037052542664064
-0.430664,0.940918,-0.075928,0.38147,1.502991,-1.098633,1.037575647750081
-0.424561,0.940918,-0.073975,0.106812,3.379822,-1.808166,1.034915951210532
-0.419434,0.943359,-0.07373,0.022888,5.012512,-2.532959,1.035030046006878
-0.41626,0.94458,-0.076904,-0.1297,6.462097,-3.074646,1.0350932273066036
-0.410889,0.950195,-0.076172,-0.183105,7.8125,-3.547668,1.0380281701042608
-0.403076,0.951172,-0.074707,-0.022888,9.056091,-4.150391,1.0357507283169054
-0.391846,0.950684,-0.073975,0.198364,9.727478,-4.638672,1.0309295107799563
-0.383057,0.951416,-0.074219,0.267029,9.773254,-4.875183,1.0283158708616726
-0.382324,0.952637,-0.072021,0.312805,9.559631,-5.050659,1.0290169673946101
-0.375977,0.950439,-0.075684,0.846863,9.223938,-5.218505,1.0249005147359427
-0.367432,0.946777,-0.073975,1.411438,8.460999,-5.195617,1.0182658115531524
-0.358643,0.942139,-0.077148,1.976013,6.843566,-5.104064,1.0110403111023811
-0.352295,0.944092,-0.074951,2.586365,4.325867,-4.920959,1.0104648058641132
-0.348389,0.944336,-0.074463,3.051758,1.022339,-4.676819,1.0093017955923786
-0.346436,0.947266,-0.071777,3.486633,-2.700805,-4.341125,1.0111788736821
-0.3479,0.945557,-0.069824,3.837585,-6.607055,-3.936767,1.009944474327673
-0.355469,0.943604,-0.069824,4.104614,-10.330199,-3.593445,1.0107532388041107
-0.364502,0.947266,-0.06543,4.28772,-13.374328,-3.303528,1.0170819375350246
-0.367188,0.947266,-0.064941,4.440308,-15.701293,-3.036499,1.018016323828356
-0.371094,0.942627,-0.064941,4.562378,-17.555237,-2.754211,1.015122530262234
-0.378418,0.944336,-0.064453,4.684448,-19.226074,-2.403259,1.0193747362128414
-0.386719,0.947754,-0.064453,4.707336,-20.339964,-1.914978,1.0256429294281708
-0.392822,0.948242,-0.065918,4.753113,-20.881651,-1.495361,1.028502404942254
-0.398193,0.941895,-0.06665,4.776001,-20.904539,-1.213074,1.0247761115355882
-0.406494,0.934814,-0.067627,4.638672,-20.729063,-0.923157,1.0216104921940652
-0.417725,0.939697,-0.067627,4.264832,-20.149229,-0.709534,1.0305814080231603
-0.418701,0.94165,-0.068604,4.150391,-18.623352,-0.564575,1.0328222299684493
-0.420654,0.940674,-0.069092,4.043579,-16.998291,-0.396728,1.0327589585455068
-0.423584,0.945557,-0.067139,3.868103,-15.35797,-0.427246,1.03827216596902
-0.423096,0.94751,-0.068848,3.64685,-14.030456,-0.587463,1.0399641688154453
-0.423584,0.946533,-0.071533,3.494262,-12.878417,-0.663757,1.039454229504118
-0.424805,0.943604,-0.072754,3.509521,-11.71112,-0.801086,1.037372132533451
-0.42627,0.943359,-0.075439,3.387451,-10.482787,-0.961304,1.0379418858982423
-0.423828,0.939941,-0.074219,3.181457,-9.178162,-1.106262,1.033744512452666
-0.420654,0.939697,-0.077148,3.105163,-7.92694,-1.25885,1.032439854630283
-0.418457,0.940918,-0.078613,2.838135,-6.79779,-1.350403,1.0327695519049735
-0.41333,0.938965,-0.077148,2.601623,-6.057739,-1.564026,1.028809396355321
-0.410156,0.935547,-0.073975,2.357483,-5.615234,-1.747131,1.0241818364772928
-0.407227,0.937256,-0.073242,1.937866,-5.256652,-1.945495,1.024522830213656
-0.406982,0.937256,-0.069824,1.831055,-5.027771,-2.006531,1.0241867743902964
-0.404541,0.936035,-0.071533,1.937866,-4.699707,-2.090454,1.022219111538715
-0.400391,0.94043,-0.068359,1.823425,-4.341125,-1.914978,1.024399575684215
-0.395264,0.944336,-0.070068,1.777649,-4.318237,-1.617432,1.026115800100554
-0.394775,0.94458,-0.067383,1.937866,-4.608154,-1.190186,1.0259722928588275
-0.4021,0.94458,-0.06665,1.846313,-5.104064,-0.915527,1.0287652836774772
-0.405029,0.947266,-0.067383,2.006531,-5.104064,-1.13678,1.032425219706493
-0.40332,0.951416,-0.070068,1.960754,-4.486084,-0.946045,1.035745602008524
-0.402832,0.954102,-0.068848,1.930237,-4.112244,-0.587463,1.0379423364195142
-0.40332,0.953857,-0.069336,1.937866,-3.952026,-0.396728,1.0379391503094004
-0.402344,0.951416,-0.074219,2.105713,-3.952026,-0.175476,1.0356551353384968
-0.403564,0.949463,-0.07959,2.510071,-4.066467,-0.221252,1.0347359366355264
-0.401123,0.945557,-0.078125,3.028869,-4.272461,-0.328064,1.0300879656626418
-0.402832,0.944824,-0.075928,3.288269,-4.653931,-0.534058,1.0299179930382807
-0.404053,0.945313,-0.077881,3.52478,-5.058288,-0.648498,1.0309902739303605
-0.404785,0.937988,-0.080811,3.761291,-5.493164,-0.587463,1.0247940291053612
-0.403076,0.93335,-0.080322,3.860473,-5.760192,-0.686645,1.0198353337475614
-0.406006,0.929443,-0.076172,3.761291,-6.072998,-0.854492,1.0171073374374013
-0.409424,0.932861,-0.070557,3.334045,-6.149292,-0.953674,1.0211933937046402
-0.410645,0.934814,-0.066162,2.990722,-5.729675,-1.281738,1.023173465676764
-0.406738,0.932861,-0.059814,2.578735,-5.439758,-1.403808,1.0194327641198315
-0.412354,0.9375,-0.060303,2.01416,-5.53894,-1.235962,1.0259524955498671
-0.419678,0.941406,-0.063965,1.716614,-5.134582,-1.174927,1.0326986015992274
-0.420898,0.939209,-0.063721,1.289368,-3.761291,-1.174927,1.0311784704531024
-0.418701,0.935547,-0.061768,1.00708,-2.365112,-1.235962,1.0268271531440918
-0.415771,0.932129,-0.063232,0.801086,-1.037598,-1.213074,1.0226085677843697
-0.415527,0.936035,-0.066162,0.511169,0.053406,-1.045227,1.0262561177396214
-0.412109,0.939697,-0.064697,0.480652,0.808716,-0.938415,1.028129360294219
-0.408447,0.94043,-0.071289,0.389099,1.495361,-0.968933,1.0277741280213273
-0.405762,0.941895,-0.075439,0.320435,1.754761,-1.235962,1.0283482067811467
-0.401611,0.944092,-0.074707,0.411987,1.701355,-1.312256,1.0286798508933672
-0.400391,0.946289,-0.073975,0.358582,1.464844,-1.220703,1.0301689788704569
-0.398438,0.947021,-0.077881,0.228882,1.113892,-1.411438,1.0303722940985942
-0.395508,0.948242,-0.080566,0.350952,0.63324,-1.403808,1.0305728256576534
-0.395752,0.948242,-0.084961,0.50354,0.099182,-1.106262,1.0310193536442465
-0.399658,0.945068,-0.084717,0.724792,-0.335693,-0.87738,1.029590701044352
-0.406494,0.947021,-0.084717,0.747681,-0.144958,-0.587463,1.0340517958816182
-0.404297,0.948242,-0.081055,0.869751,0.526428,-0.572205,1.0340158933971955
-0.400635,0.943848,-0.078613,1.022339,1.121521,-0.442505,1.028366400704535
-0.404297,0.944824,-0.079102,0.862122,1.319885,-0.221252,1.0307306057302266
-0.409424,0.944824,-0.077881,0.846863,1.907349,-0.12207,1.0326596016660088
-0.407471,0.941162,-0.076904,0.839233,2.89154,-0.114441,1.0284613513890546
-0.40332,0.938721,-0.073242,0.808716,3.684997,-0.045776,1.0243185680270568
-0.40625,0.941162,-0.069092,0.205994,4.074097,0.114441,1.027423319381062
-0.408447,0.944336,-0.070313,-0.205994,4.547119,0.183105,1.031282381636572
-0.401367,0.943115,-0.067383,-0.358582,5.393981,0.37384,1.027181503242246
-0.393799,0.936279,-0.067139,-0.38147,5.79071,0.50354,1.0179408939437495
-0.392578,0.935791,-0.067383,-0.480652,5.233764,0.648498,1.017036258180602
-0.396973,0.941406,-0.068359,-0.663757,4.554749,0.816345,1.0239657086279794
-0.400146,0.944092,-0.07251,-0.610352,4.478455,0.892639,1.0279514705860389
-0.391846,0.942383,-0.077393,-0.442505,4.371643,0.88501,1.0235324532490409
-0.389648,0.940674,-0.07666,-0.488281,3.707886,0.923157,1.021063119390765
-0.39624,0.942383,-0.07666,-0.602722,2.738952,0.785828,1.0251676018529847
-0.397461,0.942139,-0.072998,-0.75531,2.006531,0.457764,1.025148696456275
-0.398438,0.941895,-0.072754,-0.770569,1.617432,0.144958,1.0252863870085276
-0.402832,0.943115,-0.075195,-0.656128,1.190186,-0.053406,1.0282965581358328
-0.4021,0.943359,-0.078369,-0.663757,0.991821,-0.091553,1.0284708615425135
-0.400391,0.942139,-0.083252,-0.518799,1.281738,-0.12207,1.0270685194795914
-0.395508,0.9375,-0.081543,-0.335693,1.106262,-0.160217,1.0207752391751086
-0.39209,0.94043,-0.077393,-0.320435,0.663757,-0.114441,1.0218281800033702
-0.383301,0.940674,-0.074463,-0.518799,0.045776,-0.160217,1.0184949529801313
-0.371582,0.942871,-0.072754,-0.411987,-1.472473,-0.083923,1.0160571095568398
-0.371826,0.941895,-0.074463,-0.335693,-3.89862,0.205994,1.0153647146075149
-0.401367,0.943848,-0.079834,-0.228882,-6.16455,0.411987,1.0287458302948305
-0.433594,0.944092,-0.08374,-0.091553,-6.210327,0.061035,1.0422695663310906
-0.433838,0.9375,-0.08252,0.007629,-3.364563,-0.50354,1.0363065234977535
-0.417969,0.938477,-0.081787,-0.25177,-0.190735,-0.709534,1.030595108594544
-0.402832,0.943359,-0.084961,-0.640869,1.197815,-0.747681,1.0292804256498809
-0.393311,0.940918,-0.080566,-0.801086,1.152039,-0.579834,1.0229912540197985
-0.393555,0.937744,-0.074463,-0.907898,0.541687,-0.549316,1.0197029400418536
-0.399658,0.94165,-0.071289,-1.014709,0.350952,-0.457764,1.0254332552560406
-0.397461,0.940918,-0.068604,-1.296997,0.747681,-0.259399,1.0237228326363539
-0.394287,0.940186,-0.064209,-1.609802,0.892639,-0.015259,1.021535485749761
-0.393311,0.941895,-0.065186,-2.067566,0.488281,0.106812,1.0227946755541897
-0.398193,0.945313,-0.069336,-2.342224,0.289917,0.183105,1.0280962085884764
-0.399902,0.945313,-0.072754,-2.311707,0.564575,0.297546,1.0289953459996795
-0.397461,0.939209,-0.073486,-2.166748,0.968933,0.37384,1.0224915571279793
-0.39624,0.9375,-0.072266,-1.968384,0.808716,0.411987,1.0203601140558172
-0.39917,0.939453,-0.070068,-1.88446,0.396728,0.335693,1.0231413161108294
-0.398682,0.943359,-0.071289,-2.044678,-0.1297,0.434875,1.0266234273218198
-0.397217,0.942383,-0.072754,-2.105713,-0.38147,0.541687,1.0252610439756307
-0.39917,0.940918,-0.076416,-2.128601,-0.709534,0.511169,1.024940377134202
-0.399658,0.941895,-0.076416,-2.052307,-1.121521,0.450134,1.0260273451740942
-0.400879,0.943848,-0.07373,-1.998901,-1.182556,0.25177,1.0280997678460004
-0.399902,0.944092,-0.074219,-1.670837,-1.197815,0.221252,1.027978489088658
-0.399658,0.947754,-0.072021,-1.602173,-1.220703,0.1297,1.0310922295900595
-0.401123,0.950928,-0.071533,-1.472473,-1.365662,0.183105,1.0345437121755658
-0.399902,0.949219,-0.06958,-1.411438,-1.861572,0.1297,1.032366066841118
-0.398926,0.949951,-0.071533,-1.281738,-2.456665,-0.083923,1.032795151986104
-0.397461,0.943359,-0.070801,-1.113892,-3.219604,-0.160217,1.0261160904122884
-0.395996,0.942383,-0.067627,-1.091003,-3.982544,-0.205994,1.0244373879520405
-0.397217,0.945557,-0.070068,-1.060486,-4.852295,-0.221252,1.0279926604611533
-0.39624,0.94873,-0.072754,-0.923157,-5.928039,-0.198364,1.030722026065224
-0.401367,0.950195,-0.075928,-0.526428,-7.102966,-0.205994,1.0342780418717203
-0.406494,0.948486,-0.079102,-0.167847,-8.079529,-0.152588,1.034949366218464
-0.407959,0.943848,-0.080322,0.358582,-8.399963,-0.022888,1.0313734612006458
-0.414307,0.945557,-0.07959,0.656128,-8.056641,0.030518,1.03540470280852
-0.418701,0.943115,-0.079102,1.014709,-7.240295,0.137329,1.0349075113409894
-0.417969,0.937744,-0.082764,1.373291,-6.217956,-0.007629,1.0300057156118114
-0.414551,0.931396,-0.084229,1.655578,-5.630493,-0.358582,1.022959219547876
-0.413574,0.928223,-0.081055,1.686096,-5.607605,-0.556946,1.0194171394625462
-0.418213,0.928711,-0.077148,1.403808,-5.561828,-0.686645,1.0214489947099659
-0.421631,0.931885,-0.075684,0.930786,-5.088806,-1.022339,1.0256268430779296
-0.420654,0.929199,-0.07373,0.541687,-3.929138,-1.426697,1.0226420107823655
-0.414551,0.926514,-0.068848,0.015259,-2.655029,-1.449585,1.0173597057584893
-0.415283,0.929199,-0.062012,-0.488281,-1.51062,-1.487732,1.01966476835968
-0.418701,0.938721,-0.060303,-0.976562,-0.12207,-1.403808,1.0296329904635924
-0.414307,0.943359,-0.063477,-1.144409,1.571655,-1.411438,1.0322818523344288
-0.405518,0.940186,-0.061523,-1.426697,2.792358,-1.213074,1.025758081834601
-0.407959,0.942871,-0.063721,-1.747131,2.929687,-0.991821,1.0293185290098492
-0.409912,0.948486,-0.064697,-2.037048,3.089905,-0.869751,1.0352966926195601
-0.408936,0.949219,-0.067627,-1.922607,3.921509,-0.892639,1.0357696525704931
-0.407959,0.949463,-0.068604,-1.586914,4.890442,-0.854492,1.03567226614697
-0.404785,0.946289,-0.068848,-1.480102,5.439758,-0.63324,1.0315298419580503
-0.398926,0.942871,-0.071045,-1.38855,5.584716,-0.762939,1.0262529260089834
-0.392578,0.941406,-0.070313,-1.060486,5.203247,-0.854492,1.0224023967543308
-0.391113,0.942383,-0.071045,-0.801086,4.341125,-0.907898,1.022791518093008
-0.393066,0.943359,-0.070557,-0.450134,3.39508,-1.052856,1.0244048874766267
-0.392334,0.943604,-0.068848,-0.305176,2.731323,-1.251221,1.024233627389767
-0.388916,0.944092,-0.066895,-0.236511,2.120972,-1.304626,1.0232498719985261
-0.386963,0.94165,-0.064941,-0.190735,1.358032,-1.426697,1.0201286288257967
-0.388184,0.941895,-0.060547,-0.549316,0.404358,-1.419067,1.020548356566214
-0.396973,0.946045,-0.060303,-0.785828,-0.312805,-1.335144,1.0277281530458335
-0.399414,0.946533,-0.064453,-0.701904,-0.350952,-1.197815,1.0293738158191124
-0.394287,0.943848,-0.062988,-0.610352,-0.160217,-0.930786,1.0248310951649544
-0.39624,0.9375,-0.061035,-0.701904,-0.411987,-0.793457,1.0196262348650118
-0.397949,0.937012,-0.058838,-0.63324,-0.679016,-0.785828,1.019714080019002
-0.399658,0.939697,-0.059814,-0.701904,-0.732422,-0.793457,1.022905021675522
-0.400635,0.942139,-0.060059,-0.816345,-0.656128,-0.62561,1.0255444320101397
-0.399902,0.946533,-0.062256,-0.808716,-0.610352,-0.587463,1.0294280641351292
-0.400391,0.945557,-0.062012,-1.00708,-0.679016,-0.518799,1.0287062171844787
-0.404297,0.946533,-0.062744,-1.091003,-0.511169,-0.488281,1.031172921402613
-0.405518,0.948242,-0.062988,-1.213074,0.343323,-0.526428,1.0332353202596203
-0.40332,0.947021,-0.062256,-1.281738,1.197815,-0.457764,1.0312088083298165
-0.396484,0.946533,-0.0625,-1.296997,1.663208,-0.366211,1.0281199017356877
-0.394531,0.94458,-0.065918,-1.182556,1.647949,-0.328064,1.0257832466388794
-0.39624,0.945557,-0.066895,-1.205444,1.434326,-0.274658,1.0274040679664451
-0.394775,0.945801,-0.069092,-0.938415,1.205444,-0.244141,1.0272100742740016
-0.391357,0.946045,-0.066406,-0.770569,0.656128,-0.099182,1.0259489267551285
-0.39209,0.949951,-0.066895,-0.762939,0.015259,-0.061035,1.0298623264912645
-0.393555,0.947754,-0.06958,-0.610352,-0.396728,-0.137329,1.0285740415453812
-0.391113,0.943848,-0.068604,-0.442505,-0.663757,-0.221252,1.0239750654625337
-0.394287,0.943604,-0.065674,-0.282288,-0.991821,-0.205994,1.024775010166134
-0.397705,0.945557,-0.063965,-0.312805,-1.205444,-0.358582,1.0277834540889437
-0.391602,0.94458,-0.061768,-0.320435,-1.541138,-0.465393,1.024401673479695
-0.389893,0.942871,-0.060791,-0.335693,-2.326965,-0.282288,1.022114386833
-0.400391,0.948242,-0.061035,-0.404358,-3.013611,-0.236511,1.0311164408882247
-0.400146,0.948486,-0.062988,-0.427246,-2.792358,-0.244141,1.0313631764107152
-0.398438,0.944824,-0.0625,-0.259399,-2.494812,-0.160217,1.0273030131465595
-0.402344,0.945801,-0.063965,-0.25177,-2.357483,-0.038147,1.0298115105018004
-0.401855,0.946045,-0.062988,-0.305176,-2.182007,-0.198364,1.0297844780312044
-0.403809,0.94458,-0.060303,-0.320435,-1.953125,0.0,1.0290430198441656
-0.404297,0.94458,-0.061035,-0.37384,-1.480102,0.061035,1.0292777622362197
-0.401611,0.944824,-0.060547,-0.37384,-1.052856,-0.045776,1.028420986515736
-0.397461,0.94043,-0.059814,-0.411987,-0.892639,-0.114441,1.022722614405783
-0.394775,0.937744,-0.062744,-0.236511,-1.434326,-0.106812,1.0193860503739494
-0.402832,0.939941,-0.062988,-0.198364,-2.258301,-0.030518,1.0245634152403646
-0.403809,0.943604,-0.063232,-0.038147,-2.326965,-0.221252,1.028323151115932
-0.401855,0.942627,-0.060303,0.244141,-2.02179,-0.236511,1.0264840738964243
-0.400146,0.942383,-0.060791,0.419617,-2.059937,-0.274658,1.0256208293935922
-0.400391,0.939209,-0.059082,0.419617,-2.410889,-0.38147,1.0227009246529506
-0.400635,0.937988,-0.058838,0.244141,-2.63977,-0.38147,1.0216612949568953
-0.403076,0.939941,-0.053955,-0.053406,-2.487183,-0.587463,1.0241437825237236
-0.406494,0.944092,-0.053467,-0.244141,-2.319336,-0.579834,1.029274402960163
-0.407227,0.950684,-0.052002,-0.335693,-1.76239,-0.595093,1.0355375924557253
-0.402344,0.950195,-0.054932,-0.335693,-1.243591,-0.511169,1.0333289684243834
-0.40625,0.947266,-0.055908,-0.38147,-1.098633,-0.419617,1.032219764255655
-0.407959,0.946533,-0.059326,-0.564575,-0.732422,-0.335693,1.0324121464056881
-0.408203,0.946533,-0.0625,-0.442505,-0.076294,-0.167847,1.0326958212842734
-0.405029,0.94458,-0.061035,-0.38147,0.999451,-0.022888,1.0295655095553657
-0.39917,0.941895,-0.064697,-0.282288,2.052307,-0.007629,1.0250310150107653
-0.395264,0.943359,-0.063965,-0.289917,2.227783,-0.12207,1.0248177173536763
-0.392334,0.941406,-0.065918,-0.312805,1.770019,-0.404358,1.0220158546304456
-0.388672,0.941406,-0.06543,-0.190735,1.022339,-0.572205,1.0205842764416861
-0.38916,0.942871,-0.065186,-0.175476,-0.061035,-0.480652,1.022105886313644
-0.391602,0.945557,-0.065186,-0.1297,-0.938415,-0.427246,1.0255142033385007
-0.392822,0.947266,-0.063232,0.076294,-1.64032,-0.404358,1.0274338344944651
-0.396484,0.947021,-0.061523,0.190735,-2.403259,-0.366211,1.028510289800739
-0.399658,0.945313,-0.060059,0.480652,-2.838135,-0.434875,1.0280808666705163
-0.402344,0.946045,-0.057373,0.587463,-3.166198,-0.610352,1.0296472684808133
-0.405762,0.94458,-0.059326,0.663757,-3.27301,-0.846863,1.0297542188891482
-0.410645,0.944336,-0.058838,0.75531,-3.120422,-1.014709,1.0314367199033587
-0.407959,0.946045,-0.056641,0.785828,-2.563476,-1.083374,1.0318138836956015
-0.406982,0.946533,-0.057129,0.87738,-1.922607,-1.029968,1.0319025104407875
-0.403809,0.946045,-0.057129,0.823975,-1.228333,-0.907898,1.0302070535319585
-0.401855,0.945068,-0.056396,0.648498,-0.640869,-0.823975,1.0285044844165727
-0.404785,0.943115,-0.062012,0.419617,-0.244141,-0.602722,1.0281839755578766
-0.402832,0.942871,-0.060303,0.213623,0.358582,-0.328064,1.027090937879407
-0.404053,0.945801,-0.060059,0.038147,0.854492,-0.114441,1.0302453309241444
-0.404053,0.943848,-0.058838,-0.106812,1.487732,-0.083923,1.0283821197186385
-0.39624,0.942139,-0.060059,-0.305176,1.991272,-0.213623,1.0238354928415014
-0.395752,0.939209,-0.061035,-0.389099,2.044678,-0.045776,1.021008551585147
-0.403564,0.945068,-0.062012,-0.610352,2.159119,-0.053406,1.0294964375188482
-0.401367,0.948242,-0.063477,-0.572205,2.532959,-0.167847,1.0316431983888614
-0.394531,0.945801,-0.064697,-0.404358,2.876281,-0.091553,1.0268300460012845
-0.395264,0.944092,-0.063232,-0.389099,2.708435,-0.114441,1.025447034216785
-0.397461,0.945801,-0.060303,-0.473022,2.334595,-0.267029,1.0276921863724564
-0.397705,0.946289,-0.061279,-0.541687,2.159119,-0.343323,1.0282933698060104
-0.39502,0.947754,-0.064941,-0.366211,2.044678,-0.343323,1.028832240162117
-0.396973,0.947754,-0.060303,-0.015259,1.808166,-0.282288,1.029301539420786
-0.393066,0.948486,-0.059326,-0.061035,1.647949,-0.366211,1.0284192466246438
-0.390381,0.946045,-0.059326,0.312805,1.182556,-0.495911,1.0251429370882872
-0.394287,0.946777,-0.057129,0.320435,0.534058,-0.541687,1.0271867642931347
-0.395508,0.944336,-0.05957,0.389099,0.312805,-0.587463,1.0255465098473107
-0.391846,0.942139,-0.06543,0.419617,-0.061035,-0.694275,1.0224726245416058
-0.395508,0.946289,-0.062012,0.350952,-0.587463,-0.572205,1.0274896290128674
-0.400146,0.94751,-0.0625,0.518799,-1.00708,-0.686645,1.0304359618219854
-0.39917,0.946533,-0.064697,0.617981,-1.029968,-0.717163,1.029294472344042
-0.398926,0.94751,-0.062256,0.671387,-1.068115,-0.617981,1.0299480390349796
-0.402832,0.947266,-0.063721,0.823975,-1.152039,-0.686645,1.0313325655776608
-0.401855,0.946289,-0.063477,0.854492,-0.740051,-0.915527,1.0300386604759066
-0.398193,0.946533,-0.062988,0.991821,-0.396728,-1.00708,1.0288099306878797
-0.396484,0.943848,-0.062012,1.022339,-0.434875,-0.953674,1.025618885114739
-0.397949,0.942871,-0.060547,0.915527,-0.610352,-0.869751,1.025200013875829
-0.398682,0.944824,-0.061279,0.900268,-0.38147,-0.854492,1.027324118251392
-0.396973,0.943359,-0.060791,0.900268,0.015259,-0.564575,1.0252849902788004
-0.396729,0.94165,-0.058838,0.816345,-0.007629,-0.442505,1.023504046003239
-0.395752,0.94043,-0.057617,0.717163,0.106812,-0.434875,1.0219334367232535
-0.394287,0.940186,-0.05835,0.396728,0.289917,-0.473022,1.0211839577005701
-0.397705,0.943115,-0.056641,0.167847,0.289917,-0.450134,1.0251065179438672
-0.400635,0.945801,-0.056885,-0.061035,0.38147,-0.190735,1.0287292345661223
-0.404297,0.949463,-0.055176,-0.25177,0.816345,0.068665,1.0334313927658672
-0.404053,0.952148,-0.055664,-0.358582,1.556396,0.335693,1.0358296778954539
-0.404053,0.951416,-0.058594,-0.442505,2.510071,0.419617,1.0353185445557325
-0.405762,0.948975,-0.05957,-0.419617,3.250122,0.38147,1.0338012072777822
-0.404541,0.945557,-0.061523,-0.488281,3.768921,0.228882,1.0302992480143816
-0.400146,0.941406,-0.060303,-0.610352,4.089355,0.114441,1.024694359290125
-0.400391,0.938477,-0.05957,-0.694275,4.203796,-0.022888,1.0220570518860481
-0.393555,0.938721,-0.062256,-0.793457,4.135132,-0.213623,1.019783537522547
-0.389648,0.941162,-0.063965,-0.62561,4.013062,-0.305176,1.0206385233631934
-0.389404,0.94043,-0.062744,-0.465393,3.601074,-0.534058,1.0197945232506398
-0.385254,0.938477,-0.064453,-0.419617,2.685547,-0.823975,1.016520493277927
-0.380859,0.935791,-0.064941,-0.396728,1.358032,-0.984192,1.012410839058433
-0.383789,0.939209,-0.065674,-0.328064,-0.694275,-0.991821,1.0167205203388
-0.390625,0.944336,-0.065186,-0.091553,-2.967834,-0.801086,1.0240154227925475
-0.39917,0.946533,-0.066162,0.213623,-4.585266,-0.602722,1.0293875942680677
-0.403809,0.942871,-0.070313,0.572205,-5.447387,-0.740051,1.0281105724050308
-0.408936,0.941162,-0.067871,0.976562,-5.783081,-0.984192,1.0284070375979542
-0.41626,0.948242,-0.063232,1.13678,-5.455017,-1.319885,1.0375131632842063
-0.416992,0.950195,-0.060303,1.38092,-4.638672,-1.670837,1.039417778324962
-0.416992,0.951904,-0.0625,1.480102,-3.761291,-1.808166,1.0411098901076676
-0.416748,0.953613,-0.062988,1.617432,-2.777099,-1.708984,1.042604497121032
-0.416992,0.953369,-0.065674,1.861572,-1.350403,-1.342773,1.042644643443297
-0.412598,0.948486,-0.067627,1.945495,0.183105,-1.205444,1.036550149741439
-0.404785,0.942383,-0.067871,1.754761,1.51062,-1.182556,1.0278828180074808
-0.397949,0.940674,-0.063721,1.655578,2.685547,-0.968933,1.0233725356476984
-0.39502,0.941406,-0.065918,1.64032,3.051758,-0.770569,1.0230499694345334
-0.392334,0.94165,-0.068848,1.594543,3.166198,-0.831604,1.0224337324051862
-0.386719,0.944336,-0.071045,1.548767,3.067016,-0.75531,1.022922019453096
-0.384766,0.944336,-0.067627,1.609802,2.39563,-0.602722,1.0219534073435048
-0.384277,0.942871,-0.066162,1.63269,1.51062,-0.740051,1.0203195311342423
-0.385254,0.946777,-0.064209,1.541138,0.617981,-0.701904,1.0241728994295836
-0.388428,0.948486,-0.062988,1.396179,-0.183105,-0.808716,1.0268736492499941
-0.388672,0.949219,-0.062988,1.319885,-0.671387,-0.793457,1.027642993305068
-0.391113,0.946533,-0.064941,1.426697,-1.220703,-0.656128,1.0262121770564798
-0.398926,0.948486,-0.06665,1.38092,-1.716614,-0.679016,1.0311206855514052
-0.397949,0.94751,-0.067627,1.663208,-1.899719,-0.617981,1.0299087424767301
-0.396973,0.947754,-0.068115,1.754761,-2.258301,-0.526428,1.029788745554155
-0.4021,0.94873,-0.06958,1.701355,-2.708435,-0.488281,1.0327702548485795
-0.406006,0.949219,-0.067139,1.876831,-2.471924,-0.465393,1.0345845675042713
-0.405029,0.944336,-0.073242,2.067566,-1.937866,-0.480652,1.0301375453312047
-0.40332,0.938721,-0.075684,2.220154,-1.548767,-0.595093,1.0244960742223468
-0.398926,0.936523,-0.072021,1.983642,-1.319885,-0.732422,1.020492188821649
-0.400146,0.939697,-0.072998,1.937866,-1.091003,-0.740051,1.0239511614959964
-0.397949,0.942383,-0.071533,1.914978,-1.113892,-0.778198,1.0254589681596236
-0.400635,0.941895,-0.069824,1.754761,-1.533508,-0.648498,1.0259385874534597
-0.401611,0.942383,-0.070313,1.655578,-1.739502,-0.526428,1.026801359552567
-0.401611,0.94165,-0.068848,1.63269,-1.777649,-0.579834,1.0260293197199581
-0.400635,0.937744,-0.067139,1.701355,-1.930237,-0.572205,1.021949048672193
-0.400635,0.940918,-0.067871,1.533508,-1.831055,-0.541687,1.0249105124790163
-0.403564,0.939697,-0.067139,1.243591,-1.876831,-0.610352,1.0248912133616914
-0.405518,0.942139,-0.062744,1.228333,-1.846313,-0.709534,1.0276222813762845
-0.407715,0.947021,-0.065674,1.266479,-1.739502,-0.701904,1.0331473127981314
-0.402832,0.945313,-0.067871,1.342773,-1.495361,-0.793457,1.02980423422804
-0.398926,0.942871,-0.069824,1.518249,-1.335144,-0.88501,1.0261691220715032
-0.397461,0.939697,-0.071289,1.396179,-1.602173,-0.976562,1.0227843466982667
-0.399414,0.939209,-0.069092,1.243591,-2.029419,-1.037598,1.0229461342323944
-0.399414,0.944092,-0.070801,1.106262,-2.311707,-0.915527,1.0275475801445888
-0.397217,0.946533,-0.070068,1.091003,-2.410889,-0.701904,1.0288904654053317
-0.395264,0.944824,-0.072754,1.296997,-2.700805,-0.534058,1.0267517544119416
-0.399414,0.943848,-0.073242,1.373291,-3.097534,-0.411987,1.0274945163182139
-0.402832,0.945801,-0.073486,1.396179,-3.120422,-0.488281,1.0306373484504625
-0.398682,0.942627,-0.076172,1.403808,-2.929687,-0.579834,1.0263016963042593
-0.400635,0.937012,-0.07251,1.396179,-3.013611,-0.419617,1.0216445524099858
-0.406982,0.938965,-0.07251,1.197815,-3.227234,-0.38147,1.0259372883607458
-0.408447,0.942383,-0.072754,1.182556,-3.02124,-0.274658,1.0296639330451465
-0.405273,0.942139,-0.072021,1.266479,-2.624511,-0.244141,1.0281338066083616
-0.403564,0.938965,-0.067383,1.037598,-2.296448,-0.236511,1.0242361261008128
-0.404053,0.937012,-0.066895,0.854492,-2.098083,-0.335693,1.0226070877800524
-0.405518,0.940186,-0.063721,0.419617,-2.082825,-0.480652,1.0258922598211764
-0.404297,0.939453,-0.063721,0.282288,-1.693725,-0.579834,1.024738195471897
-0.401367,0.941162,-0.064697,0.076294,-1.426697,-0.534058,1.0252156264620629
-0.39917,0.938965,-0.063965,0.0,-1.419067,-0.274658,1.0222932462605825
-0.39917,0.936768,-0.064697,-0.190735,-1.564026,-0.274658,1.0203218494832893
-0.395996,0.936768,-0.066162,-0.297546,-2.006531,-0.106812,1.0191783593091055
-0.400635,0.940186,-0.067627,-0.411987,-2.777099,-0.038147,1.0242224020934125
-0.404297,0.944092,-0.068604,-0.511169,-3.379822,0.022888,1.0293066974857397
-0.405762,0.945313,-0.071045,-0.236511,-3.410339,0.015259,1.0311677170266726
-0.411377,0.946777,-0.070313,-0.114441,-3.189087,-0.053406,1.0346794874873089
-0.413086,0.94751,-0.071289,-0.389099,-2.510071,-0.297546,1.0360971793306841
-0.407959,0.945313,-0.07251,-0.389099,-1.770019,-0.488281,1.032136092649608
-0.40625,0.945068,-0.070801,-0.434875,-1.419067,-0.465393,1.0311185037254447
-0.409668,0.946533,-0.071533,-0.511169,-1.190186,-0.350952,1.0338614802777013
-0.406006,0.946289,-0.079834,-0.282288,-0.770569,-0.022888,1.0328006637841594
-0.4021,0.943359,-0.080811,-0.007629,-0.335693,0.366211,1.0286598225856787
-0.396729,0.939697,-0.079834,0.137329,-0.541687,0.541687,1.0231313790545182
-0.398438,0.940186,-0.07666,0.190735,-1.403808,0.549316,1.0240016162291932
-0.400879,0.939209,-0.073975,0.106812,-2.288818,0.25177,1.0238602536220458
-0.39917,0.939209,-0.071045,0.183105,-2.761841,0.144958,1.0229846658704127
-0.400146,0.936279,-0.070068,0.259399,-3.189087,-0.030518,1.0206099704495346
-0.404541,0.933594,-0.072754,0.022888,-3.433227,-0.297546,1.0200707436413419
-0.410156,0.938721,-0.075195,-0.267029,-3.181457,-0.534058,1.0271705545828307
-0.411621,0.943115,-0.075195,-0.335693,-2.487183,-0.762939,1.0317713113335725
-0.410645,0.943848,-0.073486,-0.488281,-1.792908,-0.923157,1.0319295302126983
-0.411865,0.946533,-0.074219,-0.442505,-1.296997,-0.801086,1.0349231653968327
-0.410889,0.947021,-0.074707,-0.198364,-0.801086,-0.617981,1.0350167537827588
-0.408203,0.945068,-0.072754,0.335693,-0.411987,-0.541687,1.0320253671053827
-0.410889,0.946045,-0.071533,0.488281,-0.015259,-0.289917,1.0338993579817137
-0.406982,0.946533,-0.070557,0.762939,0.526428,-0.350952,1.0327329561227336
-0.406006,0.941162,-0.073242,1.068115,0.946045,-0.511169,1.0276143113269687
-0.404053,0.941406,-0.073975,1.12915,1.121521,-0.610352,1.027120433186878
-0.397949,0.94165,-0.070068,1.022339,0.976562,-0.968933,1.0246841726722435
-0.392334,0.942871,-0.069824,0.923157,0.595093,-1.014709,1.0236244824998082
-0.396484,0.945313,-0.069092,0.839233,-0.045776,-0.984192,1.027419064787587
-0.393555,0.946045,-0.070313,0.846863,-0.312805,-1.152039,1.0270494623040314
-0.393799,0.946777,-0.071045,0.999451,-0.572205,-1.098633,1.027867565474755
-0.397949,0.949463,-0.073242,0.961304,-0.686645,-1.083374,1.0320890395377715
-0.396729,0.947754,-0.074951,1.037598,-0.595093,-1.159668,1.0301694988486119
-0.397217,0.943604,-0.073242,1.312256,-0.495911,-1.037598,1.026418162577514
-0.395996,0.943848,-0.070801,1.327515,-0.320435,-1.00708,1.0259993473297144
-0.397461,0.943604,-0.06958,1.419067,-0.25177,-1.037598,1.0262578290746434
-0.39502,0.94458,-0.065674,1.411438,-0.213623,-0.923157,1.0259557744249992
-0.390625,0.941895,-0.064697,1.518249,-0.495911,-0.63324,1.021733714555314
-0.394775,0.942627,-0.063721,1.441955,-0.892639,-0.442505,1.0239400996127654
-0.397217,0.943848,-0.066895,1.197815,-0.999451,-0.450134,1.0262092053855296
-0.397705,0.943848,-0.064453,1.190186,-0.801086,-0.350952,1.0262419321670695
-0.399414,0.943848,-0.063232,0.991821,-0.457764,-0.442505,1.0268295264180904
-0.398438,0.945801,-0.0625,0.793457,0.007629,-0.564575,1.028201644350465
-0.395508,0.944092,-0.057129,0.495911,0.236511,-0.717163,1.0251829130301577
-0.391113,0.942627,-0.05957,0.350952,0.091553,-0.732422,1.0222835344453123
-0.392578,0.942627,-0.062012,0.228882,-0.267029,-0.640869,1.0229900465581276
-0.393311,0.944824,-0.067871,0.045776,-0.541687,-0.556946,1.0256668105861668
-0.390869,0.945557,-0.069336,0.099182,-1.045227,-0.37384,1.0255067509802165
-0.396484,0.947998,-0.070801,0.190735,-1.708984,0.045776,1.0300060931183854
-0.400146,0.949219,-0.071533,0.564575,-1.937866,0.1297,1.0325940641733324
-0.397949,0.947998,-0.070801,0.816345,-2.075195,0.198364,1.0305709078981415
-0.399414,0.949219,-0.072998,0.900268,-2.372742,0.267029,1.0324131737637796
-0.398682,0.946045,-0.071533,1.312256,-2.388,0.015259,1.0291090560470255
-0.395508,0.944336,-0.071777,1.533508,-2.311707,-0.350952,1.0263279186931435
-0.395752,0.944092,-0.072998,1.670837,-2.593994,-0.572205,1.0262836147829704
-0.39209,0.941895,-0.072754,1.754761,-3.028869,-0.732422,1.0228362056756695
-0.390625,0.9375,-0.072021,1.76239,-3.700256,-0.839233,1.0181754097727955
-0.391357,0.937988,-0.071045,1.708984,-4.615784,-0.869751,1.0188371712977498
-0.392822,0.937988,-0.068848,1.63269,-5.493164,-0.785828,1.0192500473053705
-0.396729,0.938232,-0.070068,1.426697,-6.034851,-0.518799,1.0210693952366803
-0.40332,0.938232,-0.071289,1.13678,-6.134033,-0.335693,1.0237325967971325
-0.406006,0.939941,-0.071289,1.045227,-5.729675,-0.244141,1.026358649321961
-0.408447,0.938232,-0.073486,0.938415,-4.875183,-0.289917,1.0259183348732004
-0.409668,0.940186,-0.071045,0.862122,-4.188538,-0.267029,1.0280199301788853
-0.411377,0.941406,-0.070068,0.640869,-3.807068,-0.297546,1.0297503666369825
-0.414063,0.941406,-0.06958,0.770569,-3.517151,-0.228882,1.0307932873302
-0.416504,0.944336,-0.070313,0.617981,-2.975464,-0.144958,1.0344998699279762
-0.417236,0.946533,-0.071777,0.740051,-1.960754,-0.244141,1.0369004472532548
-0.414795,0.946289,-0.071777,0.75531,-0.88501,-0.320435,1.0356976881672568
-0.410645,0.945801,-0.070557,0.686645,0.144958,-0.50354,1.0335120405079952
-0.404785,0.942139,-0.070557,0.656128,0.823975,-0.938415,1.0278400078781718
-0.399902,0.939209,-0.069092,0.518799,0.75531,-1.106262,1.0231367747026787
-0.397949,0.937744,-0.070801,0.411987,0.335693,-1.060486,1.021146413467726
-0.395752,0.938232,-0.07251,0.465393,-0.12207,-1.060486,1.0208607306719168
-0.392578,0.938721,-0.069336,0.656128,-0.785828,-0.88501,1.0198637569896285
-0.392822,0.942139,-0.06958,0.63324,-1.533508,-0.587463,1.0231209094750238
-0.395264,0.942383,-0.070801,0.808716,-2.120972,-0.572205,1.024369137560284
-0.395996,0.942383,-0.068115,0.846863,-2.418518,-0.450134,1.0244697184055758
-0.397705,0.940918,-0.069824,0.762939,-2.670288,-0.282288,1.0239000638367985
-0.404785,0.945313,-0.070068,0.732422,-2.952575,-0.236511,1.030716783999368
-0.406982,0.945068,-0.069092,0.946045,-2.693176,-0.312805,1.0312912185275311
-0.405273,0.945313,-0.067383,1.052856,-2.403259,-0.396728,1.030729518926765
-0.405029,0.942871,-0.065674,0.831604,-2.464294,-0.450134,1.0282836611353892
-0.406982,0.942627,-0.067139,0.610352,-2.456665,-0.701904,1.0289254855304149
-0.406982,0.942871,-0.067871,0.640869,-2.311707,-0.816345,1.0291970382808142
-0.407227,0.943115,-0.071289,0.610352,-1.693725,-0.846863,1.0297484422299459
-0.40625,0.941406,-0.070313,0.411987,-1.098633,-0.747681,1.0277296518564598
-0.405273,0.942383,-0.070313,0.244141,-0.854492,-0.663757,1.0282391945393834
-0.403076,0.94043,-0.071045,0.137329,-0.617981,-0.656128,1.025634554166834
-0.404541,0.939209,-0.070313,-0.053406,-0.488281,-0.534058,1.0250418939394623
-0.403076,0.938232,-0.074707,-0.213623,-0.099182,-0.450134,1.023880209521114
-0.401611,0.937012,-0.073486,-0.175476,0.259399,-0.427246,1.0220973904971091
-0.398193,0.94043,-0.069336,-0.213623,0.183105,-0.465393,1.0236081921541074
-0.398926,0.943604,-0.067383,-0.099182,-0.320435,-0.465393,1.0266795658729164
-0.39917,0.946533,-0.064941,0.091553,-1.106262,-0.343323,1.0293098379351089
-0.404541,0.950195,-0.064209,0.312805,-1.808166,-0.244141,1.0347206165854625
-0.405518,0.949463,-0.068848,0.419617,-2.105713,-0.282288,1.0347293770822397
-0.405029,0.946289,-0.073486,0.648498,-1.76239,-0.25177,1.0319455191811242
-0.409668,0.942139,-0.073486,0.610352,-1.083374,-0.289917,1.0299776491463297
-0.407959,0.937988,-0.070801,0.556946,-0.396728,-0.595093,1.0253120575834462
-0.400635,0.938477,-0.068115,0.572205,0.12207,-0.862122,1.0226862353522705
-0.395996,0.940918,-0.067139,0.457764,0.1297,-0.953674,1.0230577501104228
-0.396484,0.941895,-0.069336,0.564575,-0.366211,-1.068115,1.024291576738284
-0.396729,0.941162,-0.072998,0.694275,-0.846863,-0.839233,1.0239670491226758
-0.397705,0.939453,-0.07251,0.87738,-1.319885,-0.762939,1.0227408793697454
-0.398193,0.939453,-0.071045,0.869751,-1.518249,-0.617981,1.0228279408008956
-0.399658,0.940674,-0.07373,0.907898,-1.426697,-0.419617,1.0247098146011875
-0.402832,0.944824,-0.068604,0.87738,-1.411438,-0.404358,1.0294039634740095
-0.403809,0.94458,-0.068604,0.999451,-1.358032,-0.556946,1.0295628167805013
-0.403076,0.942627,-0.070068,1.167297,-1.38092,-0.793457,1.0275823312654806
-0.4021,0.945068,-0.06665,1.190186,-1.63269,-0.915527,1.029213368123442
-0.404785,0.946777,-0.066162,1.144409,-1.846313,-1.060486,1.031801819245343
-0.403076,0.947266,-0.067627,1.304626,-1.625061,-1.075745,1.031676571247501
-0.400391,0.947266,-0.068604,1.480102,-1.296997,-1.167297,1.0306950744293872
-0.398438,0.939941,-0.069824,1.525879,-1.243591,-1.098633,1.023287503246766
-0.396973,0.938965,-0.06665,1.358032,-1.373291,-0.946045,1.0216090526488106
-0.400391,0.943359,-0.069336,1.12915,-1.449585,-0.862122,1.0271546313277276
-0.397461,0.942383,-0.07373,1.121521,-1.38092,-0.808716,1.0254253157153865
-0.396973,0.940918,-0.071289,1.159668,-1.235962,-0.663757,1.0237169369381363
-0.399902,0.940918,-0.070801,1.205444,-1.205444,-0.602722,1.024822459711437
-0.4021,0.94043,-0.074463,1.014709,-1.045227,-0.610352,1.0254938972363512
-0.401123,0.940186,-0.070068,0.915527,-1.00708,-0.488281,1.0245774252583355
-0.400146,0.941162,-0.06958,0.87738,-0.938415,-0.442505,1.025058099797275
-0.400391,0.943115,-0.071777,0.854492,-0.785828,-0.495911,1.0270982396221893
-0.401367,0.945557,-0.070068,0.892639,-0.785828,-0.473022,1.0296033379714733
-0.399902,0.945068,-0.068115,0.953674,-0.823975,-0.50354,1.0284526179912228
-0.399902,0.94458,-0.070068,0.915527,-0.961304,-0.50354,1.028135453443757
-0.399902,0.943359,-0.070068,0.976562,-1.243591,-0.526428,1.0270137959681944
-0.401367,0.943604,-0.073486,1.068115,-1.602173,-0.663757,1.028048719517222
-0.398438,0.941162,-0.072998,1.220703,-1.88446,-0.778198,1.0246304007260376
-0.400391,0.937988,-0.071045,1.159668,-2.182007,-0.846863,1.022341348596446
-0.401367,0.94165,-0.070801,1.220703,-2.235413,-0.808716,1.0260667487010775
-0.404053,0.945068,-0.071533,1.159668,-2.342224,-0.839233,1.0303054505931724
-0.401855,0.943115,-0.070801,1.174927,-2.311707,-0.778198,1.0276021242927635
-0.4021,0.942871,-0.070801,1.182556,-2.189636,-0.740051,1.0274740455320512
-0.404785,0.941162,-0.072021,1.197815,-2.113342,-0.808716,1.027046167857122
-0.404297,0.942627,-0.073486,1.075745,-1.937866,-0.816345,1.0283004996274192
-0.401855,0.943359,-0.073975,0.87738,-1.792908,-0.831604,1.0280495827201137
-0.402344,0.94458,-0.072266,0.869751,-1.716614,-0.816345,1.0292397415043786
-0.403564,0.943848,-0.073486,0.961304,-1.625061,-0.762939,1.0291322273624512
-0.39917,0.940918,-0.07666,0.862122,-1.419067,-0.732422,1.0249585978096871
-0.397949,0.937988,-0.075195,0.900268,-1.235962,-0.701904,1.0216844829838614
-0.397949,0.939941,-0.074219,0.961304,-1.335144,-0.740051,1.0234065419191927
-0.396484,0.942871,-0.074463,0.862122,-1.701355,-0.556946,1.025548645002274
-0.400391,0.940674,-0.074951,0.778198,-2.197266,-0.572205,1.025084474352236
-0.405762,0.939941,-0.075439,0.816345,-2.555847,-0.579834,1.026558779050669
-0.405273,0.938721,-0.075195,0.839233,-2.746582,-0.549316,1.0252305147599734
-0.40625,0.94043,-0.074219,0.915527,-2.761841,-0.549316,1.0271105623841088
-0.406006,0.939697,-0.070068,0.999451,-2.708435,-0.724792,1.0260510944728825
-0.407959,0.940674,-0.067871,0.946045,-2.738952,-0.907898,1.0275721836435627
-0.408691,0.94165,-0.070801,0.846863,-2.616882,-0.999451,1.0289537587190203
-0.406006,0.94165,-0.071045,0.816345,-2.548218,-1.014709,1.0279070904323016
-0.407471,0.940186,-0.073486,0.701904,-2.616882,-1.091003,1.0273181214370746
-0.40918,0.941162,-0.072266,0.762939,-2.532959,-1.091003,1.028803459072723
-0.408691,0.939209,-0.074951,0.732422,-2.27356,-0.999451,1.0270148643340076
-0.407715,0.940186,-0.075439,0.656128,-2.02179,-0.991821,1.0275564600264064
-0.406494,0.94165,-0.072021,0.694275,-1.983642,-0.907898,1.0281678457221857
-0.405273,0.940186,-0.075928,0.686645,-1.846313,-0.976562,1.026626017744047
-0.40625,0.938477,-0.073975,0.656128,-1.693725,-0.915527,1.025305048585054
-0.404541,0.942871,-0.07373,0.541687,-1.556396,-0.808716,1.0286375728224204
-0.403564,0.943848,-0.070801,0.419617,-1.296997,-0.740051,1.0289439881747693
-0.402832,0.943604,-0.071533,0.297546,-1.197815,-0.686645,1.0284838837478203
-0.401855,0.941895,-0.071777,0.274658,-1.304626,-0.640869,1.0265503250104207
-0.402832,0.939209,-0.072021,0.205994,-1.281738,-0.579834,1.0244872816907
-0.401855,0.939941,-0.070313,0.228882,-1.396179,-0.488281,1.0246562557633658
-0.401855,0.939941,-0.071045,0.144958,-1.525879,-0.480652,1.0247067466016802
-0.401611,0.941162,-0.068359,0.045776,-1.670837,-0.442505,1.0255487596628452
-0.401123,0.939941,-0.070801,0.061035,-2.151489,-0.442505,1.0244030096651415
-0.401123,0.935791,-0.074463,0.068665,-2.311707,-0.518799,1.0208570885187602
-0.402344,0.937744,-0.074219,0.099182,-2.494812,-0.427246,1.0231094583831195
-0.405273,0.941406,-0.069336,0.068665,-2.731323,-0.50354,1.0272774417171828
-0.405029,0.948242,-0.068848,0.144958,-2.952575,-0.595093,1.0334173544647873
-0.405762,0.950928,-0.070801,0.457764,-3.120422,-0.518799,1.0363009425012601
-0.407715,0.945557,-0.071777,0.694275,-3.387451,-0.282288,1.0322119449042428
-0.409424,0.946289,-0.071533,0.831604,-3.234863,-0.259399,1.033541413483756
-0.412109,0.94458,-0.071533,0.75531,-2.792358,-0.25177,1.0330450979361936
-0.410645,0.940918,-0.070557,0.770569,-2.281189,-0.328064,1.0290453289325987
-0.408203,0.94043,-0.072021,0.801086,-1.693725,-0.473022,1.027728222123923
-0.405273,0.94043,-0.074219,0.709534,-1.350403,-0.587463,1.0267245245877785
-0.400635,0.937012,-0.074219,0.778198,-1.518249,-0.541687,1.0217672686722745
-0.400879,0.937744,-0.074951,0.831604,-1.953125,-0.564575,1.0225876170666257
-0.400879,0.938232,-0.075195,0.88501,-2.319336,-0.534058,1.0230530516498153
-0.404297,0.939209,-0.075684,0.816345,-2.479553,-0.450134,1.025328082979297
-0.405029,0.938721,-0.074463,0.892639,-2.799988,-0.259399,1.025080652949318
-0.407959,0.941162,-0.074951,0.953674,-2.868652,-0.213623,1.0285106262581831
-0.408447,0.942139,-0.073242,1.022339,-2.616882,-0.267029,1.029475224419704
-0.407471,0.942139,-0.07251,0.846863,-2.449036,-0.320435,1.0290365451537666
-0.407959,0.942139,-0.075195,0.862122,-2.380371,-0.366211,1.0294225221098476
-0.407471,0.942139,-0.073486,0.839233,-2.5177,-0.556946,1.0291057785077296
-0.408203,0.944092,-0.073975,0.87738,-2.716064,-0.541687,1.0312185482709277
-0.408447,0.943359,-0.072754,1.052856,-2.784729,-0.419617,1.0305572760434036
-0.406494,0.938965,-0.070068,1.289368,-2.815246,-0.343323,1.0255740674787952
-0.408691,0.937988,-0.074707,1.319885,-2.815246,-0.282288,1.025880576614062
-0.408203,0.938721,-0.074463,1.266479,-2.746582,-0.282288,1.0263389028089114
-0.411865,0.941162,-0.074951,1.182556,-2.548218,-0.37384,1.0300661827620592
-0.412598,0.942627,-0.074219,1.327515,-2.14386,-0.480652,1.0316449150235754
-0.411377,0.940186,-0.07373,1.358032,-1.808166,-0.450134,1.0288910844326526
-0.410156,0.939209,-0.074219,1.304626,-1.480102,-0.465393,1.0275455950847145
-0.411377,0.939697,-0.074707,1.182556,-1.327515,-0.495911,1.0285147659547722
-0.4104,0.940674,-0.073242,1.121521,-1.022339,-0.564575,1.0289121074416414
-0.408691,0.939941,-0.074707,1.098633,-0.793457,-0.511169,1.0276665572115307
-0.408447,0.939209,-0.074707,0.968933,-0.724792,-0.595093,1.0269000113638134
-0.405273,0.937988,-0.074951,0.984192,-0.579834,-0.572205,1.024541529209041
-0.405273,0.936523,-0.07373,1.13678,-0.495911,-0.511169,1.0231117470530773
-0.405273,0.937012,-0.074463,1.052856,-0.549316,-0.50354,1.0236124418167258
-0.40332,0.939941,-0.073486,0.999451,-0.869751,-0.389099,1.0254541911158197
-0.400879,0.941895,-0.07251,0.88501,-0.984192,-0.434875,1.0262201828876687
-0.401611,0.939697,-0.073486,0.915527,-1.182556,-0.488281,1.0245594366975495
-0.404785,0.940674,-0.074707,0.862122,-1.228333,-0.335693,1.0267909263087593
-0.404297,0.941162,-0.072266,0.88501,-1.342773,-0.297546,1.0268711453775494
-0.405029,0.937988,-0.074951,0.923157,-1.617432,-0.282288,1.0244450358052404
-0.409424,0.939697,-0.075439,0.679016,-1.625061,-0.198364,1.0277886486559384
-0.412109,0.94043,-0.074219,0.724792,-1.464844,-0.114441,1.0294420200972951
-0.410156,0.940674,-0.074463,0.717163,-1.25885,-0.198364,1.028902452607146
-0.412109,0.938232,-0.074951,0.595093,-0.88501,-0.320435,1.027487599003511
-0.413574,0.937988,-0.076416,0.50354,-0.442505,-0.358582,1.0279612573808412
-0.414063,0.939453,-0.075928,0.358582,0.015259,-0.320435,1.029458677345526
-0.411133,0.940674,-0.077148,0.267029,0.442505,-0.465393,1.029490034856579
-0.409912,0.941895,-0.075928,0.198364,0.915527,-0.541687,1.0300286888980326
-0.409912,0.940186,-0.073975,0.076294,1.243591,-0.495911,1.0283238123105969
-0.406494,0.937988,-0.074463,-0.061035,1.518249,-0.419617,1.0249895602146395
-0.405273,0.938232,-0.076904,-0.053406,1.724243,-0.335693,1.024909613365491
-0.402588,0.937744,-0.073975,-0.030518,1.754761,-0.328064,1.023187767667792
-0.400146,0.939941,-0.071289,-0.160217,1.579285,-0.389099,1.024054698889664
-0.400635,0.941406,-0.073975,-0.099182,1.213074,-0.274658,1.0257806591498984
-0.401367,0.939697,-0.074463,0.0,0.869751,-0.236511,1.024534361974746
-0.401123,0.942139,-0.072998,-0.106812,0.679016,-0.267029,1.0265740423632383
-0.402832,0.943848,-0.074707,-0.244141,0.450134,-0.267029,1.0289333327174313
-0.403809,0.943115,-0.073486,-0.221252,0.343323,-0.289917,1.0285561744027403
-0.403564,0.944092,-0.07373,-0.282288,0.312805,-0.389099,1.0293734596636928
-0.403564,0.94458,-0.075439,-0.114441,0.236511,-0.411987,1.0299448146463965
-0.402344,0.940918,-0.077148,-0.022888,0.160217,-0.37384,1.0262354461642806
-0.400391,0.941406,-0.075684,0.030518,0.091553,-0.396728,1.0258100592083312
-0.403809,0.943848,-0.076904,0.1297,0.015259,-0.411987,1.0294780137530866
-0.40332,0.943604,-0.075928,0.236511,0.12207,-0.396728,1.0289900837228705
-0.401367,0.942383,-0.075928,0.37384,0.160217,-0.267029,1.0271057630847955
-0.401123,0.940674,-0.078125,0.587463,0.068665,-0.259399,1.0256075033998142
-0.401123,0.942871,-0.076416,0.556946,-0.015259,-0.320435,1.0274944227712381
-0.400146,0.945557,-0.072754,0.617981,-0.213623,-0.366211,1.0293143378390295
-0.401611,0.943604,-0.07373,0.793457,-0.358582,-0.312805,1.0281614742038334
-0.401855,0.943604,-0.071289,0.915527,-0.389099,-0.358582,1.0280846615731605
-0.4021,0.943848,-0.073242,0.862122,-0.442505,-0.419617,1.028541612025493
-0.402344,0.942383,-0.072998,0.915527,-0.411987,-0.350952,1.0272755818323533
-0.39917,0.942871,-0.071533,0.976562,-0.518799,-0.419617,1.0263816939277512
-0.395508,0.943115,-0.070557,1.190186,-0.869751,-0.488281,1.0251198815445928
-0.397217,0.940918,-0.071045,1.281738,-1.441955,-0.511169,1.0237946179962074
-0.395996,0.939697,-0.073242,1.38092,-2.235413,-0.495911,1.0223539868308824
-0.397217,0.937256,-0.074951,1.350403,-2.944946,-0.717163,1.0207094625925637
-0.392822,0.934082,-0.073242,1.434326,-3.479004,-0.900268,1.0159639250347425
-0.393066,0.935547,-0.066895,1.365662,-4.096985,-0.984192,1.01696804796906
-0.393066,0.944336,-0.066895,1.13678,-4.707336,-1.083374,1.025059170134583
-0.395508,0.951416,-0.068604,0.961304,-5.203247,-0.740051,1.0326303752727788
-0.400391,0.957031,-0.075439,1.068115,-5.401611,-0.305176,1.0401501480858424
-0.406006,0.955566,-0.077881,1.319885,-5.348205,0.244141,1.0411593070001344
-0.412354,0.94873,-0.080322,1.579285,-4.837036,0.846863,1.03758183190532
-0.416748,0.942139,-0.080078,1.518249,-3.829956,1.296997,1.033304058304718
-0.424072,0.936768,-0.084473,1.403808,-2.357483,1.586914,1.031749501932034
-0.422119,0.930664,-0.084229,1.13678,-0.747681,1.487732,1.0253850279275585
-0.416504,0.931396,-0.076416,0.839233,0.534058,1.075745,1.0231390403498442
-0.412354,0.93457,-0.075928,0.808716,1.296997,0.564575,1.024315365207415
-0.40625,0.933594,-0.075195,0.648498,1.502991,0.160217,1.0209265925427744
-0.401611,0.933838,-0.073242,0.434875,1.38855,-0.007629,1.0191708375581592
-0.401611,0.937256,-0.072754,0.465393,0.907898,-0.167847,1.0222687265944312
-0.400146,0.942871,-0.070801,0.473022,0.289917,-0.144958,1.0267109259952385
-0.395264,0.944336,-0.071777,0.518799,0.045776,-0.068665,1.0262339150120696
-0.397705,0.944092,-0.068359,0.770569,-0.152588,0.083923,1.0267190094519532
-0.396484,0.939941,-0.070068,1.022339,-0.740051,0.137329,1.0225449478438589
-0.39624,0.938232,-0.070068,1.167297,-1.564026,-0.015259,1.0208794973198354
-0.397705,0.941406,-0.072021,1.220703,-2.418518,-0.175476,1.024500633626939
-0.398926,0.942871,-0.07373,1.342773,-3.242492,-0.419617,1.0264422969738727
-0.398682,0.94873,-0.075684,1.541138,-3.944397,-0.526428,1.0318740319825865
-0.39917,0.94751,-0.078857,1.968384,-4.302979,-0.572205,1.0311790899009734
-0.400879,0.947021,-0.085449,2.151489,-4.570007,-0.511169,1.0319177674034883
-0.399414,0.94458,-0.084229,2.182007,-4.737854,-0.579834,1.029007990365964
-0.398438,0.942871,-0.086426,2.357483,-4.653931,-0.75531,1.0272429196451052
-0.395996,0.945313,-0.085205,2.502441,-4.608154,-0.762939,1.0284402714839593
-0.398193,0.942871,-0.083008,2.525329,-4.814148,-0.709534,1.026865967862408
-0.399658,0.945068,-0.080811,2.494812,-5.004883,-0.63324,1.029276668009627
-0.401611,0.942627,-0.079346,2.540588,-5.012512,-0.480652,1.0276832411623729
-0.404053,0.94043,-0.07666,2.563476,-4.699707,-0.38147,1.02642299628808
-0.404541,0.938965,-0.075439,2.540588,-4.302979,-0.183105,1.0251827810819885
-0.40625,0.935791,-0.07373,2.418518,-3.723144,-0.061035,1.0228293949046439
-0.407959,0.937012,-0.07251,2.120972,-3.555298,-0.076294,1.024538790834686
-0.407227,0.939941,-0.073486,1.823425,-3.341675,-0.045776,1.0269971300865453
-0.408691,0.939453,-0.075684,1.731872,-3.105163,-0.091553,1.0272917504516428
-0.408447,0.939941,-0.075928,1.770019,-2.754211,-0.160217,1.0276590370711485
-0.409424,0.939453,-0.076172,1.655578,-2.487183,-0.114441,1.0276196400268924
-0.410645,0.9375,-0.078613,1.625061,-2.204895,-0.144958,1.0265064879454002
-0.408936,0.939697,-0.077393,1.693725,-2.044678,-0.274658,1.0277396461915829
-0.405273,0.942139,-0.079102,1.724243,-1.930237,-0.434875,1.028654084838047
-0.405273,0.943848,-0.078125,1.89209,-1.869202,-0.427246,1.0301450224400446
-0.404297,0.942871,-0.077393,1.991272,-1.922607,-0.541687,1.0288107033361384
-0.402588,0.942871,-0.076904,2.006531,-2.029419,-0.717163,1.0281036161793227
-0.400635,0.944336,-0.080566,1.998901,-2.212524,-0.770569,1.0289653854610463
-0.398682,0.942627,-0.079346,2.044678,-2.449036,-0.862122,1.0265421501180552
-0.396973,0.939941,-0.079346,2.113342,-2.754211,-0.740051,1.0234121525201858
-0.395508,0.939453,-0.079102,1.945495,-3.14331,-0.694275,1.022377446776385
-0.39624,0.941895,-0.083008,1.914978,-3.517151,-0.640869,1.025213468839051
-0.398926,0.943604,-0.084717,2.120972,-3.822326,-0.480652,1.0279627582655901
-0.399414,0.94043,-0.084473,2.128601,-3.990173,-0.37384,1.0252198866706594
-0.399658,0.938721,-0.081787,2.120972,-4.03595,-0.419617,1.0235295531512512
-0.4021,0.939209,-0.084229,2.090454,-3.967285,-0.526428,1.0251304698046975
-0.403564,0.939697,-0.085205,2.113342,-4.325867,-0.694275,1.0262330368537158
-0.4021,0.938477,-0.081055,2.166748,-4.608154,-0.762939,1.0242037895624092
-0.401855,0.940674,-0.080078,2.113342,-4.981995,-0.846863,1.0260445903492694
-0.404541,0.935547,-0.07959,2.067566,-5.249023,-0.88501,1.0223679269177022
-0.406738,0.935303,-0.081543,1.930237,-5.432128,-0.87738,1.0231699581701956
-0.408203,0.936279,-0.080322,1.655578,-5.325317,-0.854492,1.0245485243432835
-0.408447,0.936279,-0.080322,1.480102,-4.821777,-0.88501,1.0246457638296271
-0.40918,0.936523,-0.079102,1.289368,-4.28009,-0.770569,1.0250662068047116
-0.409668,0.936768,-0.078613,0.984192,-3.707886,-0.556946,1.025447297435124
-0.412109,0.938477,-0.081055,0.686645,-3.242492,-0.564575,1.028174508745962
-0.410645,0.937988,-0.079834,0.419617,-2.494812,-0.595093,1.027046382460403
-0.407715,0.936279,-0.080078,0.160217,-1.914978,-0.541687,1.0243350883133897
-0.405273,0.935547,-0.081787,-0.091553,-1.594543,-0.419617,1.022831123454405
-0.403564,0.938965,-0.081299,-0.190735,-1.419067,-0.366211,1.0252456782264434
-0.404053,0.940918,-0.076904,-0.190735,-1.419067,-0.411987,1.026888375018921
-0.402832,0.942627,-0.076172,-0.213623,-1.358032,-0.396728,1.0279209380769514
-0.40332,0.943115,-0.075684,-0.25177,-1.457214,-0.350952,1.028523696120318
-0.402588,0.945801,-0.077393,0.007629,-1.602173,-0.38147,1.030827970999041
-0.402344,0.94458,-0.079834,-0.030518,-1.579285,-0.358582,1.0297987853420687
-0.400635,0.943115,-0.078613,-0.030518,-1.678467,-0.335693,1.0276936850146545
-0.399658,0.943115,-0.077881,0.12207,-1.960754,-0.099182,1.0272574508612728
-0.398193,0.943848,-0.077637,0.015259,-2.388,-0.1297,1.0273432805649727
-0.400391,0.943604,-0.078613,0.076294,-2.975464,-0.099182,1.0280474042893157
-0.401855,0.939453,-0.080811,0.190735,-3.387451,-0.022888,1.0249828281268911
-0.400146,0.935547,-0.083252,0.221252,-3.372192,-0.114441,1.0209289426933688
-0.399902,0.93335,-0.081299,0.137329,-3.349304,-0.183105,1.018662534652669
-0.399414,0.935303,-0.077148,0.030518,-3.608703,-0.205994,1.0199387526263526
-0.400879,0.94165,-0.077148,-0.137329,-4.089355,-0.114441,1.026333527195229
-0.403076,0.947998,-0.078125,-0.076294,-4.402161,-0.106812,1.0330895340700146
-0.405518,0.948242,-0.077881,0.183105,-4.470825,0.12207,1.0342500611791134
-0.405518,0.942139,-0.078613,0.25177,-4.310608,0.358582,1.028713151181611
-0.407715,0.940918,-0.073486,0.236511,-3.890991,0.38147,1.0280848195285253
-0.406006,0.938965,-0.074219,0.022888,-3.40271,0.213623,1.025672756400403
-0.40625,0.938965,-0.073486,-0.106812,-3.105163,0.167847,1.025716591423284
-0.405273,0.942139,-0.075195,-0.076294,-2.960205,0.12207,1.0283610202039943
-0.404785,0.941406,-0.078613,-0.015259,-3.044128,0.152588,1.0277529648850448
-0.406006,0.943359,-0.080322,0.244141,-3.295898,0.221252,1.0301546964417527
-0.40625,0.945313,-0.079834,0.328064,-3.501892,0.091553,1.0320025184198922
-0.404297,0.941895,-0.080322,0.465393,-3.684997,-0.083923,1.0281409820243526
-0.40332,0.942139,-0.078125,0.694275,-4.081726,-0.099182,1.0278114775317504
-0.405518,0.942871,-0.077637,0.747681,-4.272461,-0.236511,1.029309513574027
-0.40625,0.94458,-0.081055,1.022339,-4.173279,-0.442505,1.031426367670034
-0.407959,0.945557,-0.080811,1.13678,-3.974914,-0.541687,1.0329758001284444
-0.408691,0.947266,-0.080566,1.304626,-3.578186,-0.610352,1.0348101703177255
-0.406982,0.948486,-0.079102,1.586914,-3.364563,-0.75531,1.0351411338189591
-0.404297,0.942627,-0.07666,1.823425,-3.471374,-0.823975,1.0285321973268509
-0.401123,0.938477,-0.07251,1.76239,-3.753662,-0.915527,1.0231795740523753
-0.401367,0.942139,-0.074463,1.594543,-4.150391,-0.88501,1.0267746112847747
-0.401123,0.939697,-0.076172,1.350403,-3.829956,-0.801086,1.0245644374669656
-0.396484,0.937012,-0.077393,1.182556,-3.479004,-0.762939,1.0203826374693956
-0.396729,0.935791,-0.07373,1.029968,-3.341675,-0.717163,1.0190852800536372
-0.396973,0.9375,-0.070801,0.823975,-3.448486,-0.694275,1.020542304037417
-0.39502,0.939697,-0.070801,0.526428,-3.77655,-0.457764,1.0218043030884143
-0.398193,0.938477,-0.07373,0.38147,-4.272461,-0.091553,1.0221217430805394
-0.4021,0.940918,-0.077881,0.297546,-4.623413,0.221252,1.0261951777732148
-0.408936,0.943848,-0.079102,0.259399,-4.470825,0.62561,1.0316660436420304
-0.412109,0.944092,-0.078369,0.160217,-3.814697,0.602722,1.0330949774856133
-0.414063,0.940186,-0.073486,0.061035,-2.922058,0.419617,1.029950520540186
-0.408203,0.939209,-0.074951,0.038147,-2.281189,0.198364,1.02682076687755
-0.404297,0.933838,-0.073975,0.053406,-1.976013,0.12207,1.020285144005341
-0.408936,0.937744,-0.07373,-0.1297,-2.464294,0.198364,1.0256844419859357
-0.410156,0.941895,-0.076904,-0.267029,-2.799988,0.312805,1.030198214217536
-0.409424,0.943359,-0.078369,-0.030518,-2.677917,0.389099,1.031356347155531
-0.406494,0.942627,-0.078369,0.152588,-2.693176,0.602722,1.029526460721627
-0.406494,0.94043,-0.074951,0.297546,-2.876281,0.465393,1.027260244211271
-0.411621,0.941406,-0.071289,0.1297,-2.937317,0.38147,1.029931660838718
-0.412354,0.940186,-0.072998,0.25177,-2.700805,0.236511,1.0292299276235606
-0.409668,0.939941,-0.075928,0.274658,-2.456665,0.244141,1.028144938658456
-0.409424,0.940918,-0.074463,0.450134,-2.471924,0.289917,1.0288340161896865
-0.4104,0.938477,-0.07251,0.366211,-2.197266,0.328064,1.0268519560428369
-0.40918,0.938721,-0.076172,0.289917,-1.831055,0.335693,1.0268532328551145
-0.406006,0.94043,-0.07666,0.190735,-1.487732,0.221252,1.0271933666725073
-0.40332,0.94043,-0.072754,0.152588,-1.426697,0.099182,1.0258502579889524
-0.40332,0.9375,-0.07373,0.137329,-1.670837,0.083923,1.023234765486396
-0.401611,0.937744,-0.07373,0.061035,-1.953125,0.228882,1.0227860566887876
-0.407715,0.941895,-0.072021,0.083923,-2.037048,0.450134,1.028875471906586
-0.408691,0.944336,-0.075928,-0.076294,-1.495361,0.541687,1.0317770474094683
-0.405762,0.940674,-0.074951,-0.076294,-0.801086,0.488281,1.0271942500428048
-0.403809,0.939697,-0.07251,-0.144958,-0.541687,0.282288,1.0253535294667884
-0.399902,0.936035,-0.073242,-0.320435,-0.335693,0.12207,1.0205133616925355
-0.403564,0.939209,-0.072998,-0.511169,-0.389099,0.091553,1.0248444544324764
-0.405029,0.943115,-0.072754,-0.427246,-0.389099,0.244141,1.0289837406791227
-0.397217,0.941162,-0.07373,-0.305176,-0.137329,0.358582,1.0242086546368372
-0.397461,0.938965,-0.072266,-0.434875,-0.617981,0.63324,1.0221804598513906
-0.400146,0.943115,-0.068115,-0.473022,-1.426697,0.495911,1.0267533188483007
-0.403809,0.943359,-0.06665,-0.480652,-1.625061,0.396728,1.0283142194203092
-0.404053,0.944336,-0.070068,-0.701904,-1.51062,0.526428,1.0295333080231062
-0.407471,0.944336,-0.070313,-0.808716,-1.083374,0.343323,1.0308962191733948
-0.409424,0.943604,-0.070801,-0.75531,-0.473022,0.221252,1.0310331237128125
-0.40625,0.942627,-0.071777,-0.694275,0.030518,0.045776,1.0289492997023713
-0.4021,0.939453,-0.069824,-0.617981,0.419617,-0.114441,1.024271321567191
-0.398682,0.938721,-0.067383,-0.648498,0.37384,-0.198364,1.0220982935383465
-0.399414,0.938965,-0.070068,-0.686645,0.091553,-0.144958,1.0227885114944342
-0.399902,0.942627,-0.06665,-0.549316,-0.022888,-0.038147,1.0261137818161299
-0.395996,0.941895,-0.069092,-0.465393,-0.114441,0.25177,1.0240862890914026
-0.393799,0.94165,-0.071045,-0.495911,-0.144958,0.305176,1.0231469918472125
-0.394531,0.943359,-0.068115,-0.358582,-0.25177,0.213623,1.0248026961649739
-0.394775,0.945801,-0.06543,-0.297546,-0.434875,0.022888,1.0269702610718578
-0.394775,0.944092,-0.06665,-0.228882,-0.770569,-0.167847,1.0254751228523293
-0.393066,0.944092,-0.067383,-0.236511,-1.220703,-0.350952,1.024866358853192
-0.394043,0.942139,-0.070068,-0.12207,-1.861572,-0.350952,1.0236236152971463
-0.397217,0.942627,-0.06958,-0.236511,-2.235413,-0.259399,1.0252650304277426
-0.396729,0.944092,-0.069824,-0.305176,-2.159119,-0.213623,1.026439961654358
-0.395752,0.94458,-0.068604,-0.259399,-2.090454,-0.183105,1.0264295059671658
-0.395752,0.948486,-0.068115,-0.25177,-2.113342,0.015259,1.0299927140154925
-0.398682,0.949463,-0.065918,-0.198364,-2.288818,0.12207,1.0318781460119213
-0.403076,0.950195,-0.068115,0.061035,-2.281189,0.160217,1.0343985948492003
-0.406006,0.950195,-0.06958,0.198364,-1.815796,0.305176,1.0356412440903462
-0.398438,0.949219,-0.071533,0.297546,-0.961304,0.434875,1.0319333892718074
-0.397217,0.94458,-0.070557,0.297546,-0.411987,0.549316,1.027127553781905
-0.398193,0.940918,-0.071045,0.236511,0.083923,0.495911,1.0241736864409279
-0.394043,0.939453,-0.069824,0.053406,0.183105,0.335693,1.0211352584422888
-0.389893,0.945801,-0.071289,-0.198364,-0.099182,0.328064,1.0254941270290143
-0.394531,0.947266,-0.072754,-0.221252,-0.648498,0.511169,1.028718002774813
-0.396729,0.947266,-0.07373,-0.099182,-0.930786,0.434875,1.029632403868973
-0.395752,0.944092,-0.072998,0.25177,-0.999451,0.37384,1.0262836147829704
-0.39502,0.946777,-0.068115,0.282288,-1.075745,0.114441,1.028137705443196
-0.395264,0.947021,-0.064209,0.274658,-0.953674,0.0,1.0282048433157664
-0.394775,0.946533,-0.065918,0.396728,-0.709534,-0.015259,1.0276756314314357
-0.396484,0.947266,-0.06543,0.320435,-0.648498,0.022888,1.0289769297277758
-0.395264,0.948975,-0.065186,0.267029,-0.572205,-0.053406,1.030066208996781
-0.395264,0.945313,-0.06665,0.343323,-0.541687,-0.076294,1.0267874756564768
-0.392334,0.94458,-0.065186,0.38147,-0.724792,0.007629,1.024893437656813
-0.394287,0.94751,-0.064453,0.419617,-0.999451,-0.144958,1.0282954962840205
-0.39502,0.94873,-0.068604,0.442505,-1.022339,-0.205994,1.0299688937613602
-0.395264,0.945068,-0.070557,0.511169,-0.938415,-0.312805,1.0268229859956388
-0.396729,0.946289,-0.070068,0.38147,-0.526428,-0.259399,1.028477659254687
-0.391846,0.945313,-0.067871,0.328064,-0.091553,-0.282288,1.0255566431582412
-0.387207,0.94458,-0.068359,0.190735,-0.12207,-0.358582,1.0231488602007042
-0.384521,0.946289,-0.068604,0.259399,-0.640869,-0.289917,1.0237313025291355
-0.389893,0.949219,-0.06543,0.297546,-0.976562,0.030518,1.028257918184927
-0.393799,0.952637,-0.065918,0.289917,-0.953674,0.106812,1.0329279204736408
-0.388916,0.949219,-0.067627,0.457764,-0.656128,0.190735,1.0280300463245224
-0.390381,0.947754,-0.063965,0.267029,-0.419617,0.37384,1.0269987784325743
-0.39624,0.949463,-0.063477,-0.061035,-0.114441,0.053406,1.0307839033948871
-0.386475,0.947266,-0.061523,-0.091553,0.465393,-0.25177,1.024919938292743
-0.380371,0.943604,-0.059326,-0.106812,0.289917,-0.076294,1.0191124475409963
-0.383057,0.943604,-0.062988,-0.37384,-0.526428,0.0,1.0203375236699863
-0.386719,0.947266,-0.064941,-0.50354,-1.060486,0.175476,1.0252228017353107
-0.384033,0.947266,-0.067627,-0.38147,-1.144409,0.335693,1.0243864656339423
-0.385498,0.949219,-0.068604,-0.404358,-1.281738,0.411987,1.0268066647529126
-0.384277,0.953613,-0.071777,-0.434875,-1.434326,0.274658,1.0306301490966583
-0.382813,0.954102,-0.07373,-0.213623,-1.358032,0.0,1.0306757648615785
-0.382324,0.955566,-0.070068,-0.076294,-1.800537,-0.114441,1.0315946616554392
-0.384033,0.959229,-0.068359,0.305176,-2.243042,-0.366211,1.03550691567512
-0.375488,0.958008,-0.068604,0.534058,-2.693176,-0.778198,1.031250248496455
-0.361084,0.954346,-0.069336,0.862122,-4.104614,-0.938415,1.0227245101531497
-0.361572,0.95166,-0.064941,1.197815,-6.538391,-0.892639,1.020102151877448
-0.371094,0.950928,-0.063721,1.289368,-8.743286,-0.953674,1.0227586146598815
-0.374023,0.952148,-0.06958,1.441955,-9.719849,-1.091003,1.0253391608794622
-0.37085,0.95459,-0.071289,1.289368,-10.009766,-1.419067,1.0265738707569954
-0.367188,0.960205,-0.081787,1.419067,-10.643004,-1.945495,1.0312661066562792
-0.364258,0.964355,-0.081543,1.808166,-12.443542,-2.89154,1.0340762628732951
-0.353271,0.959229,-0.074951,2.258301,-13.496398,-4.432678,1.0249577192660193
-0.345947,0.962158,-0.07373,2.700805,-15.823363,-5.180358,1.0251163137288373
-0.359863,0.960938,-0.072021,3.387451,-18.341064,-5.752563,1.0286351360195702
-0.360596,0.958496,-0.076416,3.913879,-19.378662,-6.538391,1.0269291418048276
-0.346191,0.960205,-0.077637,4.493713,-19.40918,-6.91986,1.0236548999907147
-0.349854,0.961426,-0.07959,5.210876,-20.103453,-6.233215,1.0261931313802484
-0.357422,0.962646,-0.077881,5.737304,-21.049498,-5.760192,1.029807388573708
-0.355957,0.966553,-0.07666,5.973815,-21.629332,-5.744934,1.0328634194597075
-0.351074,0.967529,-0.081299,5.92041,-22.926329,-5.630493,1.0324605787718968
-0.356201,0.970459,-0.090576,6.67572,-25.665281,-5.729675,1.0377253176337176
-0.359863,0.969971,-0.096436,7.835388,-29.20532,-6.736755,1.0390596814938013
-0.363281,0.967529,-0.097168,9.140015,-32.356262,-7.789611,1.0380400141738275
-0.368896,0.964355,-0.094238,10.475158,-34.751892,-8.674622,1.03679584561523
-0.367676,0.960938,-0.091553,11.756896,-35.919189,-9.094238,1.0329421245302177
-0.355713,0.955322,-0.099365,12.664794,-35.675049,-7.759094,1.0242291078064518
-0.335693,0.954834,-0.111572,13.984679,-38.246155,-6.866455,1.0182563866674246
-0.324463,0.955078,-0.121338,16.51001,-44.929501,-6.195068,1.0159592190127515
-0.328613,0.95166,-0.127686,19.363403,-52.558895,-4.341125,1.0148630321205911
-0.328857,0.946777,-0.13916,21.842955,-59.17358,-3.059387,1.0118790045148678
-0.337402,0.938232,-0.139404,25.009153,-65.231323,-2.258301,1.0067536295658437
-0.350098,0.929199,-0.13208,27.763365,-69.442749,-1.342773,1.0017107953920632
-0.361572,0.923096,-0.133545,29.884336,-70.800781,-0.305176,1.000337344811739
-0.374756,0.911133,-0.151367,31.34918,-69.244385,0.50354,0.9967534158025243
-0.381592,0.901367,-0.155273,33.081055,-65.895081,0.312805,0.9910522830214358
-0.387451,0.897217,-0.152588,34.141541,-64.941406,-1.434326,0.9891409000915896
-0.405273,0.882324,-0.157227,35.110474,-65.307617,-3.715515,0.9835965509465758
-0.414551,0.8479,-0.15918,37.162781,-63.07983,-4.615784,0.9571443015559357
-0.408203,0.812744,-0.155029,38.085938,-58.197018,-5.928039,0.9226139439581433
-0.393066,0.790039,-0.158691,37.757874,-53.848263,-8.476257,0.8965742218901903
-0.385254,0.759521,-0.163818,37.948608,-50.392147,-10.856627,0.8672537870087395
-0.381836,0.728516,-0.166016,37.986755,-46.768185,-13.130187,0.8391040492143987
-0.375977,0.704102,-0.165527,37.384033,-41.740414,-15.007018,0.8151794395481279
-0.375977,0.685303,-0.172607,36.422729,-35.835266,-16.044617,0.8004948986639453
-0.373535,0.667236,-0.181641,36.026001,-29.71649,-16.494751,0.7859552969488787
-0.369385,0.643799,-0.188721,36.354065,-23.582457,-17.173767,0.7658577194668734
-0.362549,0.618408,-0.178711,36.956787,-17.784119,-17.654419,0.738788097756048
-0.355957,0.595215,-0.164551,37.17804,-12.725829,-17.318726,0.712785601478453
-0.343994,0.579102,-0.148193,37.216187,-8.766174,-16.75415,0.6896754045846496
-0.332764,0.567139,-0.133545,36.804199,-5.798339,-16.059875,0.6709789803279981
-0.319336,0.562988,-0.126953,36.018372,-3.341675,-15.098571,0.6595817108205776
-0.305664,0.559814,-0.120605,35.346985,-1.243591,-13.603209,0.649128463031009
-0.282227,0.551514,-0.105713,34.736633,0.640869,-11.840819,0.6284862847302237
-0.275635,0.551758,-0.105225,33.920288,2.624511,-9.529114,0.6256866982875695
-0.281738,0.564941,-0.122314,33.096313,3.913879,-6.973266,0.6430360399860959
-0.28418,0.563965,-0.136963,33.454895,4.165649,-5.973815,0.6461993941454913
-0.287109,0.547363,-0.143311,34.446716,3.517151,-5.638122,0.6344886715860261
-0.288574,0.527832,-0.156982,35.301208,2.571106,-4.768372,0.6217112851026592
-0.288086,0.504639,-0.185059,36.529541,2.571106,-4.508972,0.609836779145043
-0.281982,0.481445,-0.20874,38.467407,3.173828,-4.920959,0.5957142972507878
-0.269775,0.454834,-0.207031,41.206356,3.952026,-5.889892,0.5679034716763052
-0.255615,0.431152,-0.181152,43.579098,5.126953,-6.988525,0.5329607137801059
-0.234863,0.414307,-0.141113,44.586178,7.011413,-8.026123,0.4967129933744435
-0.214355,0.408936,-0.11499,44.258114,8.750916,-9.017944,0.47581447878453637
-0.215088,0.428467,-0.125732,43.586727,10.383605,-9.483337,0.49563631188301766
-0.239502,0.461914,-0.145264,44.166561,14.495849,-9.033203,0.5402104970250022
-0.2771,0.489014,-0.156982,45.280453,22.583006,-7.293701,0.5835772875292526
-0.29126,0.515625,-0.17749,45.69244,32.798767,-5.119323,0.6182266803729842
-0.287354,0.552002,-0.195068,47.050472,41.687008,-3.181457,0.6521733312118796
-0.285645,0.583252,-0.192871,49.797054,47.218319,0.183105,0.6774770728002535
-0.289063,0.602539,-0.170166,51.719662,50.392147,5.485534,0.6896137556966219
-0.275391,0.630859,-0.143799,52.650448,51.383968,10.711669,0.7032079586886087
-0.234863,0.652832,-0.144531,53.413387,50.704952,15.182494,0.7086885486262635
-0.215576,0.665771,-0.17041,53.215023,47.58453,19.477844,0.7202524587372124
-0.228516,0.675781,-0.194092,53.810116,40.588375,22.834776,0.739304556107292
-0.26709,0.678223,-0.213867,55.488583,32.554626,24.238585,0.7596463647764004
-0.338379,0.670898,-0.23291,56.564327,27.000425,24.749754,0.7866711779040847
-0.418945,0.66748,-0.232178,56.77795,25.93231,25.29907,0.8215540682809622
-0.482178,0.680664,-0.221436,54.527279,28.663633,26.016233,0.8630370830248258
-0.515625,0.728271,-0.220215,49.865719,32.13501,27.099607,0.9190987086766035
-0.520264,0.78833,-0.225098,45.494076,34.172058,28.228758,0.9709829700875293
-0.498047,0.858643,-0.245361,41.358944,34.40094,29.541014,1.0225070346843586
-0.464844,0.921143,-0.300293,38.993835,32.867432,30.700682,1.0745977185133049
-0.444092,0.955078,-0.356934,39.047241,27.412413,30.799864,1.1121122114714863
-0.476318,0.986572,-0.391357,40.855404,18.585205,30.72357,1.1633415017771007
-0.563721,1.028809,-0.418457,43.701168,9.925842,29.891966,1.2455262282148056
-0.642334,1.068359,-0.413574,46.188351,6.477355,28.511045,1.3134029746856066
-0.711914,1.115479,-0.38623,46.127316,10.231017,27.809141,1.378509541402235
-0.782227,1.188477,-0.393066,43.17474,17.471313,27.801512,1.476095369349149
-0.793701,1.263184,-0.445557,39.482117,23.628233,26.885984,1.5569573325900745
