ax,ay,az,gx,gy,gz,acc_mag
0.027832,-0.870117,-0.466797,-0.762939,5.081176,3.173828,0.9878145843841343
0.030762,-0.851563,-0.466309,1.63269,4.013062,1.625061,0.9713649814019445
0.032471,-0.83252,-0.464355,1.647949,2.731323,1.159668,0.953818369641726
0.029541,-0.82251,-0.469238,0.442505,2.082825,0.968933,0.9474068141115515
0.023438,-0.824951,-0.479492,-0.62561,2.235413,0.976562,0.954466379873592
0.0271,-0.828369,-0.484863,-1.113892,2.983093,1.76239,0.9602196305689652
0.026855,-0.833008,-0.487549,-0.839233,3.852844,2.27356,0.965571098619879
0.015137,-0.836182,-0.475342,-0.808716,4.577637,2.151489,0.9619664665969391
0.003662,-0.837158,-0.468994,-0.328064,4.463196,2.090454,0.9595844409138781
0.013672,-0.829346,-0.466064,0.274658,3.639221,2.365112,0.9514291163276432
0.021484,-0.824707,-0.463623,-0.099182,2.693176,2.39563,0.946334763302078
0.02124,-0.830811,-0.461182,-1.38855,1.89209,2.159119,0.9504666708754179
0.02417,-0.84668,-0.457031,-2.609253,1.037598,1.838684,0.9624596335748321
0.037842,-0.855225,-0.45752,-2.365112,0.305176,1.63269,0.970652547510694
0.041016,-0.852051,-0.468506,-1.38092,0.488281,1.419067,0.9732271527721573
0.0271,-0.847656,-0.480225,-0.717163,1.457214,1.663208,0.9746133361292569
0.01709,-0.839355,-0.482178,0.411987,1.907349,1.441955,0.9681448795552244
0.020996,-0.829834,-0.476807,0.839233,1.815796,1.159668,0.9572931707794639
0.032715,-0.832764,-0.474121,-0.1297,1.770019,1.823425,0.9588309932214331
0.035645,-0.83667,-0.473877,-0.75531,1.945495,2.487183,0.9622092631304273
0.030029,-0.838623,-0.476074,-0.686645,2.555847,2.754211,0.9647988030910901
0.026367,-0.836914,-0.479004,-0.175476,3.417969,3.059387,0.9646580192487906
0.021484,-0.838867,-0.481934,0.091553,4.28772,3.479004,0.9676878558197369
0.015625,-0.841309,-0.485352,0.305176,5.310058,3.845215,0.9713966944611249
0.013428,-0.83667,-0.479004,0.968933,5.744934,4.249573,0.9641793568107544
0.00708,-0.831299,-0.471924,1.38092,5.378723,4.402161,0.9559395459844728
0.004395,-0.823242,-0.464111,1.144409,3.982544,3.814697,0.9450638745132521
0.016846,-0.823975,-0.456299,0.137329,2.075195,2.89154,0.942033633020605
0.025879,-0.827148,-0.456299,-0.938415,0.495911,1.747131,0.9450144517127768
0.028564,-0.832764,-0.455322,-1.296997,-0.053406,0.976562,0.9495419450851026
0.023926,-0.82959,-0.455566,-0.984192,0.228882,0.671387,0.9467483308313778
0.020264,-0.818359,-0.45874,-0.923157,0.198364,0.595093,0.938383967348654
0.020752,-0.812012,-0.463379,-1.525879,-0.244141,0.427246,0.9351546563478149
0.020508,-0.814209,-0.4646,-2.418518,-0.442505,-0.167847,0.9376620039998421
0.022705,-0.823486,-0.466553,-2.777099,0.419617,-1.518249,0.9467398856232899
0.039307,-0.820068,-0.473389,-1.426697,3.128052,-2.502441,0.947709718317798
0.065674,-0.806152,-0.473633,1.327515,7.781982,-2.937317,0.9372952256727866
0.092041,-0.789307,-0.464355,3.883362,13.862609,-4.081726,0.9203817968403113
0.114502,-0.771973,-0.435547,6.54602,21.14105,-5.134582,0.8937305018527677
0.138916,-0.773438,-0.397217,7.629394,28.358458,-8.201599,0.8805028903921894
0.130615,-0.824951,-0.390869,6.149292,32.867432,-18.699646,0.9221621363876311
0.088135,-0.891602,-0.421875,6.66809,32.722473,-35.079956,0.9903031961242981
0.080566,-0.945068,-0.445801,12.397765,27.793882,-50.117489,1.0480376599058834
0.15625,-0.985352,-0.493896,23.048399,21.720884,-58.769222,1.11322319649745
0.303467,-1.00708,-0.508301,36.964417,20.599363,-64.300537,1.168191873405221
0.404053,-1.031738,-0.492188,52.001949,28.152464,-70.457458,1.212431917592489
0.414307,-1.046875,-0.493896,71.357727,42.961117,-77.377319,1.229443294621594
0.393799,-1.027588,-0.494873,91.63665,58.54797,-84.411613,1.2066126289219752
0.432373,-0.993164,-0.471924,105.972282,67.512512,-91.804497,1.1815385748256382
0.515137,-0.993896,-0.405029,109.115593,65.063477,-103.324883,1.1904805241691272
0.528564,-1.037842,-0.297852,101.486198,50.094601,-116.752617,1.2021695940939447
0.507568,-1.071777,-0.297119,87.280266,31.364439,-129.753113,1.2225428060047632
0.467773,-1.068115,-0.365234,75.302124,15.205382,-142.601013,1.2219153438393349
0.41626,-1.001709,-0.408936,72.471619,-3.067016,-159.194946,1.1592764814214942
0.388428,-0.935791,-0.410156,72.341919,-26.138304,-177.040085,1.0930732140167922
0.377686,-0.891113,-0.405518,69.618225,-55.656429,-193.954453,1.0493683536723413
0.381592,-0.845947,-0.392578,63.896175,-89.759819,-208.282455,1.0076488809883133
0.449951,-0.798828,-0.365967,52.474972,-121.25396,-218.444809,0.987174716589723
0.576904,-0.765137,-0.33374,35.049438,-141.693115,-225.509628,1.0147094370237224
0.673096,-0.748291,-0.344482,14.236449,-150.184631,-230.857834,1.0637976754162421
0.712646,-0.739014,-0.381348,-2.876281,-148.025513,-231.376633,1.0951859707903493
0.755371,-0.730713,-0.40332,-11.825561,-136.924744,-226.066574,1.1256970544555935
0.820068,-0.737793,-0.422363,-14.343261,-121.208183,-217.887863,1.181203005093536
0.920654,-0.769775,-0.416992,-12.100219,-106.559746,-210.014328,1.2704486083289634
0.984863,-0.785889,-0.385742,-9.513855,-87.265007,-200.645432,1.317715272604063
0.962402,-0.773682,-0.37915,-10.551452,-61.843868,-192.329391,1.2917260426375246
0.874023,-0.744629,-0.470947,-11.749267,-35.346985,-188.156113,1.2410397370668678
0.849609,-0.720459,-0.536865,-7.339477,-11.314391,-189.247116,1.2365761811497908
0.881104,-0.70752,-0.546387,2.525329,4.547119,-195.823654,1.2551763075301414
0.924805,-0.697998,-0.517822,13.366698,13.412475,-202.156052,1.2690961822151228
0.966309,-0.686523,-0.431885,18.608093,17.25769,-205.368027,1.2615829605043816
0.991211,-0.652344,-0.422852,15.312194,15.655517,-208.778366,1.2597046299672794
0.989014,-0.638916,-0.518555,5.516052,3.463745,-217.384323,1.2865697164464116
0.926025,-0.660156,-0.604004,-1.243591,-22.613523,-230.377182,1.287691374894233
0.877686,-0.650879,-0.603271,-1.525879,-51.475521,-243.682846,1.2481634855570802
0.924316,-0.57373,-0.53125,-3.051758,-72.692871,-249.992355,1.210682759130566
1.059326,-0.50415,-0.469971,-15.167235,-81.352226,-249.992355,1.2638083468694927
1.18042,-0.487793,-0.494629,-32.318115,-76.622009,-249.885544,1.369668293744876
1.25415,-0.499512,-0.546631,-45.738216,-54.603573,-249.992355,1.4564374036686232
1.328857,-0.511475,-0.592529,-52.589413,-20.179747,-249.992355,1.5422575070055584
1.300537,-0.5271,-0.65332,-56.663509,12.344359,-249.992355,1.5479205150035968
1.14502,-0.549072,-0.660156,-56.579586,34.820557,-249.992355,1.4312081630287048
0.98584,-0.514893,-0.583984,-52.421566,48.423763,-249.992355,1.256197683211126
0.918701,-0.422852,-0.486816,-50.73547,56.114193,-249.992355,1.1224104236690782
0.911621,-0.340088,-0.468262,-55.7785,61.157223,-249.511703,1.0798064623019257
0.981201,-0.313965,-0.48877,-63.591,68.000793,-248.252853,1.1402743251191794
1.055908,-0.314209,-0.489502,-69.511414,74.394226,-246.78038,1.2055211355048903
1.010498,-0.317139,-0.515625,-72.341919,78.514099,-245.27739,1.1779441811690399
0.929688,-0.325439,-0.51416,-71.487427,86.502068,-243.537888,1.111121427056917
0.861084,-0.305664,-0.444092,-66.184998,98.449699,-242.668137,1.0159300371659459
0.77124,-0.236328,-0.352295,-58.776852,108.451836,-243.247971,0.8802123767642671
0.68042,-0.150635,-0.255371,-54.626461,113.899223,-242.134079,0.7422106353765082
0.678711,-0.07666,-0.197998,-53.550716,115.165703,-237.541183,0.7111459661173647
0.775879,-0.020264,-0.223389,-53.848263,113.075249,-229.507431,0.8076518418588544
0.828857,-0.033936,-0.24292,-56.297298,108.825676,-220.748886,0.8643874738478109
0.738037,-0.100586,-0.225098,-55.152889,107.978813,-214.012131,0.7781293378153789
0.62085,-0.118896,-0.200195,-44.174191,117.149345,-209.648117,0.6630754250769666
0.565674,-0.061768,-0.183838,-26.878355,132.896423,-204.44487,0.5979956273619398
0.486816,0.023193,-0.163818,-11.642455,146.186829,-198.539719,0.514163466447199
0.42041,0.09082,-0.12085,-0.343323,152.22168,-195.404037,0.44676343068787533
0.430176,0.145264,-0.103027,8.346558,147.422791,-194.129929,0.46558305746773043
0.416504,0.177734,-0.106689,13.47351,131.851196,-191.795334,0.4652391852509846
0.39502,0.203125,-0.096924,17.433167,115.539543,-187.042221,0.4546370286294331
0.397461,0.236816,-0.118896,21.179197,104.576103,-178.764328,0.4776958479964003
0.46167,0.286133,-0.145508,25.146482,100.723259,-167.587265,0.5623022858329851
0.445313,0.31543,-0.14209,28.213499,98.426811,-157.676697,0.5639054184604011
0.356689,0.34082,-0.106201,32.63092,97.114555,-151.817322,0.5046424155003224
0.250488,0.400879,-0.092773,38.009644,93.467705,-147.064209,0.4817209153794342
0.176758,0.475098,-0.106201,42.373653,83.847038,-142.044067,0.5179190598626392
0.212891,0.535645,-0.144531,45.005795,68.67981,-135.429382,0.5942451967555145
0.234131,0.572998,-0.185303,44.700619,47.607418,-124.855034,0.646127878189759
0.241211,0.602295,-0.179688,42.861935,29.937742,-115.135185,0.6732234331111775
0.308105,0.618164,-0.167725,41.244503,19.218445,-107.63549,0.7107651493608843
0.290039,0.624512,-0.183594,40.504452,8.552551,-99.647514,0.7126321747584794
0.237793,0.651611,-0.178223,42.762753,0.144958,-92.231743,0.71617445074437
0.171631,0.717773,-0.169434,45.829769,-9.857178,-83.976738,0.7572074749010339
0.115723,0.807617,-0.163086,46.936031,-21.720884,-79.833984,0.8320060545536914
0.139404,0.861816,-0.157715,41.557308,-30.296324,-78.094482,0.8871495444946135
0.216553,0.884033,-0.114502,32.653809,-33.119202,-72.677612,0.9173441311209224
0.32373,0.885986,-0.081299,22.3999,-28.984068,-64.598083,0.9467744359122716
0.404053,0.861816,-0.084229,12.649535,-20.080564,-54.916378,0.9555522848625292
0.421143,0.841553,-0.102539,6.79779,-10.231017,-46.463009,0.9466187853507874
0.373047,0.852051,-0.105713,6.04248,-4.53186,-41.694637,0.9361251033804189
0.301758,0.883057,-0.103027,7.072448,-5.897521,-40.626522,0.9388621403283871
0.244629,0.945068,-0.10498,7.995605,-12.931823,-41.259762,0.9818440164634095
0.240479,1.006348,-0.061035,5.630493,-22.346495,-42.823788,1.036480447365024
0.322266,1.019775,-0.013916,-1.068115,-31.890867,-43.457027,1.0695747194268386
0.412354,0.991211,-0.018799,-7.324218,-36.262512,-39.916992,1.0737264410630856
0.445313,0.969238,-0.029785,-10.269164,-29.991148,-34.515381,1.067058159070067
0.486572,0.971924,-0.001465,-12.725829,-13.664245,-31.631468,1.0869179910117415
0.480957,0.943604,0.006836,-16.708374,2.967834,-30.09796,1.0591293006809885
0.422852,0.919678,-0.029053,-16.952515,13.107299,-29.58679,1.012647774103612
0.363281,0.930664,-0.081787,-12.351989,17.211914,-32.951355,1.002395969278608
0.337402,0.968018,-0.112061,-5.859375,17.372131,-38.749695,1.0312403336026963
0.357422,0.986328,-0.126465,-2.464294,14.244079,-43.029781,1.05668671132602
0.366699,0.971924,-0.124268,-0.732422,8.659363,-43.533321,1.0462059807709951
0.332764,0.941162,-0.114746,2.098083,1.487732,-42.92297,1.0048305501207655
0.295898,0.920898,-0.122314,6.820678,-6.614685,-44.105526,0.9749715213297258
0.240234,0.925293,-0.155762,14.465331,-19.554138,-46.592709,0.9685769516403949
0.17749,0.950439,-0.202881,24.711607,-37.124634,-50.300594,0.9879259552122316
0.155762,0.981201,-0.251709,35.675049,-53.932186,-53.184505,1.0248778579547906
0.148438,0.993408,-0.279785,45.57037,-66.513062,-52.169796,1.0426758559269511
0.165527,0.97876,-0.286377,52.650448,-69.831848,-48.103329,1.0331418641493528
0.191895,0.949951,-0.295166,56.716915,-66.253662,-43.334957,1.0130910921442355
0.162109,0.910889,-0.322754,59.379574,-60.852047,-39.108276,0.979881749354482
0.099609,0.900879,-0.367188,64.147949,-52.665707,-37.017822,0.9779222632019378
0.071289,0.932373,-0.393799,70.808411,-42.175289,-35.568237,1.014632536956607
0.061523,0.962402,-0.398926,74.157715,-34.217834,-31.265257,1.043620928598598
0.047607,0.968994,-0.402344,70.800781,-26.741026,-22.079466,1.0502840057912908
0.024414,0.931396,-0.405762,63.285824,-19.371033,-9.765625,1.0162368586387722
0.004639,0.88623,-0.428467,56.335445,-14.48059,2.380371,0.9843826000646293
-0.009521,0.876465,-0.468994,51.849361,-13.206481,13.786315,0.994101060105058
-0.011963,0.887451,-0.506592,46.386715,-19.104004,22.346495,1.0219333859082989
0.023438,0.904785,-0.543701,37.902832,-32.943726,31.776426,1.0558390092575667
0.058105,0.904297,-0.582031,23.971556,-53.695675,45.097347,1.0769815876768738
0.110107,0.87915,-0.618896,4.173279,-72.059631,61.973568,1.0807684917525122
0.157959,0.825928,-0.6604,-19.226074,-82.252495,80.13916,1.0692222719645341
0.153076,0.784912,-0.717773,-41.893002,-88.203423,95.4132,1.0745776793927
0.104492,0.781738,-0.778076,-64.529419,-97.656242,105.445854,1.1078967192315357
0.098389,0.794678,-0.883545,-88.333122,-113.113396,111.320488,1.1924115422244117
0.141846,0.776855,-0.952881,-117.866508,-134.971619,117.965691,1.237580776718029
0.207764,0.717773,-0.967529,-156.021118,-157.051086,131.568909,1.2224877607019222
0.325195,0.67334,-0.936279,-202.064499,-169.433578,149.353027,1.1982307413290647
0.359619,0.654297,-0.893311,-247.192368,-176.795944,166.809067,1.164231477022933
0.303955,0.62793,-0.889893,-249.992355,-182.76976,179.344162,1.1307494321793843
0.308838,0.585205,-0.922607,-249.404892,-192.886337,182.861313,1.135363148388215
0.39917,0.519775,-0.903564,-249.855026,-212.63121,183.364853,1.1162126327994142
0.471436,0.471436,-0.924561,-249.992355,-241.554245,186.981186,1.1398758032842875
0.455322,0.449707,-0.904541,-249.992355,-249.992355,196.174606,1.108038325246018
0.360596,0.406982,-0.864014,-249.992355,-249.992355,205.047592,1.0208741429461323
0.213379,0.358887,-0.841797,-249.992355,-249.763474,210.12114,0.9396556101141524
0.029053,0.282471,-0.675537,-249.992355,-249.992355,215.835556,0.7327920448660726
2.213379,-3.300781,2.487793,-249.992355,-227.012619,234.329208,4.688636882767848
6.69873,-1.175537,4.506348,24.475096,71.670532,179.702744,8.158556437775804
2.878418,4.577637,0.21582,180.389389,-184.898361,-207.427963,5.411712202149427
-1.681885,1.70459,-2.533447,4.943848,86.151115,-249.992355,3.4860748590834936
-2.744385,0.762939,-1.382568,57.067867,86.85302,-167.602524,3.1662626581776183
-0.323242,0.450684,-0.066895,100.921623,-75.080872,-125.839226,0.5586379860383646
1.542236,0.64917,0.440186,193.817123,-189.636215,-52.810665,1.730224633737481
2.4646,1.205078,-0.15918,229.637131,-129.760742,-20.63751,2.748054660752584
2.204346,1.600342,0.353516,155.281067,41.763302,-38.925171,2.746854449536051
1.131592,1.420898,0.080566,61.653133,146.194458,-52.642818,1.8182250854126945
0.428955,0.924561,-0.257813,1.663208,173.233017,-30.929564,1.05132439223819
0.314453,0.724121,-0.155273,0.228882,145.057678,5.744934,0.8045754261590394
0.328125,0.746094,-0.039307,15.853881,100.418083,20.378111,0.816006931778156
0.282471,0.835938,0.063721,29.579161,65.483093,18.966675,0.8846708831684243
0.276855,0.899902,0.119141,37.29248,31.616209,16.166687,0.9490347088015275
0.323975,0.931152,0.137451,39.291382,-4.592896,13.572692,0.9954379062151492
0.426514,0.952393,0.134521,39.909363,-36.598206,8.712769,1.052170384531897
0.577637,0.94751,0.143066,36.224365,-61.44714,3.036499,1.11888676112688
0.712158,0.905029,0.144043,31.242369,-79.353333,-1.304626,1.1606010915271447
0.760254,0.862793,0.155273,28.160093,-86.807243,-4.127502,1.1603911452152675
0.754883,0.854248,0.14917,25.703428,-83.70208,-7.453918,1.149712867673055
0.748535,0.859863,0.103271,22.224424,-73.234558,-13.587951,1.1446981804978114
0.75,0.860596,0.049316,18.333435,-55.946346,-21.575926,1.1426099697937175
0.718262,0.882813,0.065918,15.914916,-32.562256,-26.649473,1.1400018755848604
0.647949,0.881104,0.144775,9.643555,-29.678343,-31.181334,1.103241571933364
0.827881,0.878418,0.230469,-2.983093,-42.510983,-28.564451,1.2288698437369192
0.955566,0.824707,0.342041,-3.387451,-48.347469,-24.124144,1.3077614697971491
1.063477,0.766846,0.302734,21.469114,-53.550716,-43.273922,1.3456165843214776
1.247314,0.772705,0.27002,48.912045,-36.79657,-67.695618,1.491903492864401
1.287354,0.73291,0.313721,60.050961,-13.771056,-87.066643,1.5142186946597247
1.210938,0.631104,0.333984,78.521729,7.896423,-104.270927,1.4057767998213657
1.14502,0.591064,0.396484,114.204399,32.546997,-114.280693,1.3481939826122946
1.109131,0.599854,0.382568,141.998291,57.968136,-120.483391,1.3177081130132728
1.05957,0.561523,0.26709,152.72522,82.992546,-125.465385,1.2285494424438115
0.999512,0.497559,0.17041,157.836914,107.650749,-130.4245,1.1294373664462318
0.927734,0.447998,0.083496,163.581833,129.150391,-132.865906,1.0336170300338514
0.856445,0.435059,-0.018311,171.600327,144.088745,-134.925842,0.9607859617141582
0.767578,0.449707,-0.118164,181.457504,153.617859,-138.328552,0.8974269345350628
0.695068,0.475098,-0.161621,190.788254,161.941513,-141.38031,0.8572974873805476
0.625488,0.498047,-0.191895,194.786057,169.868454,-140.304565,0.8222589272108878
0.558594,0.506592,-0.236816,193.160995,178.535446,-136.444092,0.7904078245791852
0.519775,0.510254,-0.308594,190.612778,188.06456,-133.209229,0.7910470605324312
0.5,0.540039,-0.422119,191.513046,197.853073,-132.072449,0.8484259376527807
0.501953,0.580078,-0.514893,193.511948,207.839951,-132.484436,0.9238842469389767
0.491211,0.600586,-0.55542,191.001877,214.920029,-131.271362,0.954192415772102
0.4729,0.572754,-0.608887,180.236801,218.68895,-125.923149,0.9604295566490026
0.475342,0.522217,-0.685791,167.930588,222.312912,-119.392387,0.984362691153012
0.503662,0.484131,-0.733887,160.53772,226.211533,-112.190239,1.013236578580738
0.499756,0.501221,-0.791016,160.133362,229.003891,-105.36956,1.061454126485455
0.439697,0.568848,-0.86499,163.74205,231.552109,-100.21209,1.1247796224207656
0.366943,0.645996,-0.919922,165.420517,232.658371,-95.42083,1.1824611973967687
0.280029,0.697266,-0.967773,160.514832,228.355392,-89.75219,1.2252267933431753
0.199951,0.706055,-1.003906,148.979187,218.406662,-83.358757,1.2435116896362495
0.169189,0.684082,-1.008301,134.32312,206.527695,-75.843811,1.230147961444476
0.188965,0.671875,-0.989502,122.871391,194.885239,-68.115234,1.2108831466553658
0.219482,0.694824,-0.971924,114.234917,185.974106,-62.133785,1.2147382438517362
0.218262,0.737549,-0.955566,106.498711,177.330002,-58.616634,1.2266715976173086
0.195557,0.783447,-0.936523,96.42791,169.685349,-55.732723,1.236570690088925
0.182373,0.820313,-0.921631,83.801262,161.277756,-52.307125,1.2472277375279144
0.157959,0.834717,-0.905762,69.015503,149.124146,-48.126217,1.2418165389517084
0.146973,0.82666,-0.88208,53.642269,138.122559,-42.442318,1.2177984006924134
0.143311,0.824463,-0.870361,41.91589,128.013611,-36.712646,1.2073961865978375
0.13916,0.838623,-0.883545,33.13446,115.44799,-33.38623,1.2260937194007644
0.137207,0.843994,-0.887939,24.101255,99.433891,-32.043457,1.232715417525878
0.136963,0.834961,-0.882568,15.586852,82.008354,-29.670713,1.2226385440979686
0.134766,0.820801,-0.874268,9.078979,64.537048,-25.016783,1.2067396952868503
0.137207,0.812988,-0.858887,3.883362,47.615047,-19.27948,1.1905721850278546
0.134033,0.812988,-0.858887,-1.953125,31.311033,-13.21411,1.1902105746471925
0.126465,0.807129,-0.880127,-10.086059,15.876769,-7.202148,1.2008639202653228
0.127197,0.799316,-0.897217,-19.53125,-0.152588,-1.502991,1.2083391451715864
0.129639,0.780029,-0.904053,-30.448912,-18.562317,4.821777,1.2010675825993307
0.145508,0.755127,-0.916748,-40.939327,-40.115356,12.367248,1.1965852496571232
0.170654,0.737793,-0.929688,-50.056454,-64.590454,20.225523,1.199075091855802
0.182373,0.720703,-0.924805,-58.654781,-91.781609,27.740477,1.1865652166497214
0.182861,0.708252,-0.918701,-67.245483,-117.935173,35.507202,1.1743383533828742
0.186279,0.704102,-0.929443,-77.079773,-142.204285,43.220516,1.1808148807048462
0.19458,0.686768,-0.958496,-89.50042,-164.482101,50.910946,1.1950841996445272
0.203125,0.664063,-0.979492,-102.989189,-182.884201,60.111996,1.200684809455837
0.219482,0.642578,-0.982178,-117.805473,-198.135361,71.479797,1.1940487670493194
0.229004,0.612793,-0.96167,-133.918762,-212.783798,83.564751,1.1630852426907499
0.23291,0.593994,-0.942627,-149.581909,-225.891098,94.276421,1.138253750824042
0.226807,0.578125,-0.964111,-164.344772,-237.525925,104.24041,1.1468129538835006
0.227051,0.575439,-1.012939,-177.627548,-246.52861,113.517754,1.1868983179038548
0.279053,0.559326,-1.015381,-193.702682,-249.992355,124.107353,1.192356794858821
0.33252,0.50415,-0.991211,-213.745102,-249.992355,136.08551,1.1607049665703166
0.348145,0.442871,-0.967529,-231.613144,-249.93132,149.162292,1.1195767189018357
0.333008,0.412354,-0.958252,-243.911728,-249.992355,162.773117,1.095069424686855
0.312988,0.414307,-0.977051,-249.992355,-249.992355,174.209579,1.1064539913588816
0.337402,0.417969,-1.009521,-249.992355,-249.992355,181.938156,1.143534365030627
0.365723,0.37793,-1.016357,-249.877914,-249.992355,188.888535,1.1443626824910011
0.44458,0.281006,-1.030518,-249.992355,-249.992355,201.103195,1.1569715194247436
0.578125,0.15332,-1.011719,-249.992355,-249.992355,218.467697,1.1752918246061275
0.669678,0.049316,-0.964844,-249.992355,-249.992355,236.289963,1.1755103725088945
0.745361,-0.022705,-0.924561,-249.992355,-249.992355,246.582016,1.1878095723082045
0.726074,-0.076416,-0.898926,-249.992355,-249.992355,249.992355,1.1580547534585746
0.698975,-0.115479,-0.895752,-249.992355,-249.992355,246.673569,1.1420477641368596
1.342285,-0.898193,0.258545,-249.992355,-249.992355,243.522629,1.6356421379687551
6.734375,-4.917725,7.512451,-187.499985,20.332335,240.814194,11.223758098054814
4.177246,2.372314,2.661621,149.909973,-131.164551,-142.211914,5.491947214490777
-2.168457,1.517334,-4.271973,-99.739067,-249.526962,-249.992355,5.025361831861861
-1.614014,0.435791,-2.439697,61.599728,25.489805,-222.000107,2.9575456783769205
0.10083,1.128174,-0.24292,249.992355,-11.985778,-70.968628,1.1584271188020419
1.339355,1.414063,0.070557,243.362411,-112.823479,-37.162781,1.9489546619259772
2.582031,1.772949,0.052979,200.294479,-22.811888,-66.413879,3.1325770566744247
2.218506,1.892334,0.071045,87.234489,142.532349,-62.637325,2.916803769816715
1.003418,1.336182,-0.244141,-33.470154,249.992355,-74.417114,1.6887376491714157
0.469727,0.780762,-0.386475,-84.716789,249.992355,-67.657471,0.9897452605584934
0.202148,0.554932,-0.409912,-80.459587,247.985825,-51.162716,0.7189166754721996
-0.034668,0.508545,-0.327148,-49.21722,238.006577,-39.306641,0.6056778856397186
-0.139404,0.626953,-0.199951,-13.900756,172.737106,-29.792784,0.6726692663010552
-0.193359,0.745361,-0.123047,6.324768,86.486809,-7.492065,0.7798020822048375
-0.075684,0.821777,-0.071533,22.216795,17.524719,5.752563,0.8283492474035333
0.107422,0.871582,-0.028076,30.586241,-35.453796,10.81848,0.8786255918103
0.314697,0.859863,0.019287,34.835815,-78.308105,11.268615,0.9158441837709077
0.502686,0.808838,0.069336,36.468506,-106.475822,11.634826,0.9548400943278408
0.685547,0.801758,0.093018,43.243404,-110.267632,14.343261,1.0589820244447024
0.741943,0.865967,0.086426,46.386715,-102.180473,14.053344,1.14361169713063
0.72583,0.935547,0.112061,37.078857,-91.293327,8.69751,1.1893843137648992
0.695557,0.930664,0.173584,13.832091,-86.769096,2.975464,1.1747622849755606
0.70166,0.796631,0.146729,-22.994993,-92.086784,1.13678,1.0716702408866263
0.827881,0.619629,0.076172,-23.071287,-84.07592,-4.28009,1.036884381879677
0.988525,0.601807,0.143311,5.699157,-62.843319,-11.131286,1.1661438091397647
0.990967,0.648193,0.161377,22.125242,-48.751827,-14.183043,1.195078364153163
0.990967,0.753418,0.224609,47.065731,-29.922483,-23.963926,1.2649519677418586
1.062744,0.871826,0.320557,70.091248,-10.56671,-41.519161,1.4114751765656384
1.075684,0.887451,0.323242,71.899414,12.222289,-54.824825,1.4314854996893962
1.02417,0.794189,0.27417,69.061279,37.93335,-65.643311,1.32469979448968
1.020752,0.691162,0.256348,81.100456,60.173031,-72.883606,1.2591083562791567
1.032471,0.619385,0.215088,99.777214,77.377319,-74.668884,1.2230686782883453
0.976563,0.583496,0.145508,115.501396,91.590874,-78.613281,1.1468720299357726
0.903564,0.567383,0.123779,129.829407,103.744499,-87.684624,1.0740915285142136
0.864014,0.551514,0.116943,143.15033,114.288322,-94.902031,1.0316799647376118
0.841309,0.532959,0.040283,154.876709,124.938957,-97.732536,0.9967290751508154
0.822998,0.530029,-0.024414,164.642319,136.627197,-100.425713,0.979210136916995
0.821289,0.531006,-0.105957,171.356186,149.017334,-104.568474,0.9837224605578547
0.810547,0.517334,-0.206787,174.606308,160.881027,-110.450737,0.9835556771906713
0.815186,0.487549,-0.251953,175.140366,171.218857,-114.379875,0.9827067498526709
0.806641,0.450684,-0.286377,176.231369,178.253159,-114.356987,0.9673662992196906
0.779053,0.439697,-0.366943,181.587204,184.463486,-114.143364,0.966904438849569
0.73999,0.480225,-0.446045,191.619858,191.711411,-115.257256,0.98851271754591
0.68042,0.552246,-0.480469,200.363144,199.272141,-115.127556,0.9993985595732064
0.631836,0.593262,-0.498047,199.40947,206.626877,-111.740105,0.9996135982213327
0.610352,0.57373,-0.559082,190.048203,210.464462,-108.413689,1.0071089114529768
0.593018,0.518555,-0.609131,180.992111,209.930405,-106.819145,0.9957962700823899
0.568359,0.476807,-0.65332,178.794846,204.597458,-106.109612,0.9885362363262158
0.549561,0.475098,-0.708008,181.274399,197.586044,-104.896538,1.0144016612708202
0.506104,0.496582,-0.775146,183.403,188.842758,-103.828423,1.0505171406769145
0.443848,0.529541,-0.842285,182.991013,179.992661,-102.539055,1.0894304654313647
0.41748,0.562256,-0.873291,177.131638,172.042831,-100.227348,1.1194009695444256
0.412598,0.568848,-0.880615,166.320786,164.291367,-96.794121,1.126635670894988
0.393555,0.570801,-0.930908,154.640198,158.180237,-92.65136,1.160727799309554
0.372803,0.586914,-0.982666,145.111084,156.112671,-89.233391,1.2037784629079389
0.353516,0.617188,-1.014893,137.191772,154.800415,-86.212151,1.2393152912189054
0.320557,0.654053,-1.045898,128.730774,151.298523,-81.55822,1.2745370702580603
0.275146,0.688477,-1.052734,117.317192,145.072937,-74.935913,1.2876159270531722
0.24585,0.707275,-1.035156,102.691643,136.932373,-66.711426,1.2775868238444696
0.214111,0.709229,-1.031982,85.235588,127.899162,-57.975765,1.270368506806588
0.181396,0.707764,-1.030029,67.9245,118.965141,-50.903316,1.2628515864316756
0.179199,0.710205,-1.022461,52.268978,109.184258,-45.249935,1.2577479557315925
0.18457,0.709473,-1.027588,36.6745,95.726006,-40.306087,1.262281711969638
0.19751,0.713379,-1.025879,22.186277,80.581657,-34.889221,1.2650484261015464
0.200684,0.715332,-1.012451,10.223388,64.857483,-28.305052,1.2557989351329297
0.178955,0.725586,-1.002686,-0.038147,47.721859,-21.14868,1.2505515383289885
0.161133,0.74292,-0.986816,-10.559081,30.891417,-13.755797,1.2456724240124288
0.134277,0.746582,-0.987061,-21.438597,13.107299,-7.133483,1.2448712436127682
0.116211,0.736572,-0.993408,-31.387327,-5.653381,-1.342773,1.2421363701981356
0.116455,0.7229,-0.981689,-39.749146,-24.429319,5.554199,1.22468749881184
0.116455,0.705566,-0.962158,-46.607967,-44.273373,13.34381,1.1988048900238104
0.09375,0.689209,-0.95166,-52.986141,-64.39209,21.369932,1.1787514003304513
0.061523,0.679199,-0.979492,-58.830257,-82.954399,29.281614,1.193524586757223
0.027832,0.674805,-1.082275,-65.513611,-101.570122,37.857056,1.2757176740462604
-0.009277,0.648926,-1.225098,-76.637268,-120.23925,49.21722,1.3863823880189043
0.004395,0.59082,-1.349121,-94.28405,-132.087708,65.933228,1.4728255365337741
0.097656,0.522217,-1.364258,-116.477959,-130.53894,87.448112,1.4640516315994458
0.170654,0.46875,-1.31665,-142.242432,-119.979851,107.864372,1.407983157823985
0.168945,0.417969,-1.238525,-173.32457,-104.11834,123.626701,1.3180230171021294
0.136475,0.369141,-1.165283,-207.130417,-86.807243,135.192871,1.2299491752080653
0.070801,0.333008,-1.106201,-238.670334,-82.168571,142.654419,1.1574056169148308
0.008789,0.293213,-1.087646,-249.992355,-98.510735,148.323059,1.1265100670681998
-0.015625,0.249512,-1.082764,-249.992355,-132.18689,158.454895,1.111250763088602
0.044678,0.190674,-1.071289,-249.717697,-173.957809,176.033005,1.0890421568887954
0.176514,0.112793,-1.070068,-249.992355,-218.246445,196.75444,1.0903783644538259
0.243896,-0.015625,-1.083496,-249.992355,-249.992355,216.133102,1.1107173274316917
0.264648,-0.108643,-1.129639,-249.992355,-249.992355,234.962448,1.1653008777453144
0.475342,-0.178955,-1.19458,-249.992355,-249.389633,249.992355,1.2980740677592322
0.690918,-0.308838,-1.276611,-249.992355,-249.992355,249.992355,1.4840768977007224
0.708252,-0.489502,-1.394043,-249.992355,-249.992355,249.763474,1.638471540600263
0.721436,-0.689453,-1.393555,-249.992355,-249.992355,249.977097,1.7140043405225087
0.813721,-0.813721,-1.217285,-249.992355,-249.992355,249.992355,1.6751317867281368
0.859131,-0.767822,-1.055908,-249.992355,-249.992355,249.992355,1.5628814424993982
4.385986,-4.67627,3.771729,-249.992355,-192.153915,249.992355,7.438434912973092
7.60791,-2.345703,5.265625,40.214535,-21.90399,113.876335,9.545125655167354
0.731689,3.328369,-3.385986,176.689133,-216.651901,-199.005112,4.803988986777342
-2.220947,1.106445,-3.084961,43.67065,164.520248,-249.992355,3.959016353383123
-0.140137,1.062012,-0.153809,226.074203,216.865524,-95.382683,1.0822038049249318
0.880859,1.626465,0.804932,249.992355,75.637817,85.243217,2.017229907256483
1.202881,1.303223,0.066406,167.198166,48.294064,2.464294,1.7747457972132235
1.628418,1.123047,-0.053711,90.034477,122.993462,-74.821472,1.9788543701985752
1.109375,1.201172,-0.000732,55.351254,177.749619,-23.094175,1.6350925356177857
0.760742,0.920898,-0.222168,8.171082,160.270691,19.180298,1.2149650765318318
0.765381,0.576416,-0.400879,-17.196655,118.995659,27.19116,1.0386373057318903
0.656738,0.528564,-0.489014,-11.741637,81.420891,31.219481,0.9745867816341447
0.55957,0.476318,-0.447021,-4.882813,20.782469,39.176941,0.8601309182124545
0.472412,0.474121,-0.394287,6.530761,-35.720825,42.053219,0.776805032652338
0.468018,0.5271,-0.380859,19.790649,-68.847656,33.149719,0.8012046156912728
0.520508,0.544678,-0.38208,29.098509,-90.309135,23.483274,0.8447412788232855
0.64917,0.532227,-0.415283,37.857056,-105.323784,16.220093,0.93656139068296
0.833008,0.526123,-0.366211,46.379086,-101.272575,12.329101,1.0511033420715585
0.968506,0.51123,-0.278564,50.239559,-78.636169,9.849548,1.1300256134406865
1.012207,0.547119,-0.240479,52.680965,-50.033566,3.90625,1.1754711227635497
1.02002,0.602295,-0.218994,48.324581,-24.734495,-4.646301,1.2046403776484498
1.048096,0.649658,-0.186279,35.606384,-4.943848,-7.072448,1.2471008812525952
1.035156,0.653076,-0.172119,19.78302,11.184691,-5.889892,1.2359939952414818
0.929199,0.612793,-0.177979,4.53186,26.832579,-3.39508,1.127210081081162
0.790283,0.560303,-0.195801,-8.003235,37.033081,1.518249,0.9883444255415215
0.688721,0.50708,-0.20874,-17.677307,37.391663,7.148742,0.8803630670586994
0.625,0.457031,-0.216309,-23.277281,32.836914,12.71057,0.8039228311486122
0.566406,0.422852,-0.217773,-23.925779,27.06909,18.234253,0.7396246685103195
0.517578,0.39917,-0.191162,-20.759581,19.599915,23.368834,0.6810041007424258
0.522217,0.368896,-0.172852,-13.069152,12.184142,27.313231,0.6623236880929143
0.572754,0.346924,-0.141846,0.854492,9.056091,30.242918,0.6844879064001058
0.564941,0.362793,-0.125244,18.959045,8.972168,31.34918,0.6829810787027705
0.473633,0.39209,-0.0979,33.149719,7.614135,31.181334,0.6226131999797306
0.361084,0.460693,-0.000732,38.894653,-3.852844,34.851074,0.5853377069085846
0.26123,0.486084,0.107178,-0.793457,-46.806332,39.260864,0.5621440132563897
0.453613,0.21582,0.057129,-35.980225,-91.400139,34.324646,0.5055756608164598
0.628418,0.052002,-0.02832,14.999389,-117.500298,33.119202,0.63120156299553
0.781494,0.067627,0.025635,83.206169,-122.093193,31.234739,0.7848333812918511
0.895996,0.177979,0.185303,120.452873,-108.680717,32.974243,0.932106516588099
0.932129,0.280518,0.333008,137.771606,-91.667168,30.273436,1.0288095786048068
0.91626,0.331543,0.369385,145.195007,-63.58337,21.797178,1.0420645021657728
0.933594,0.29126,0.378174,144.714355,-19.721985,14.793395,1.0485445716382304
1.035156,0.187256,0.443359,149.124146,35.621643,11.474608,1.1415690766453863
1.003906,0.119385,0.457764,165.245041,82.168571,10.871886,1.1097873286161632
0.840088,0.063232,0.448975,182.907089,109.603874,16.769409,0.9546332720961489
0.694824,-0.019287,0.458008,197.723373,125.083916,32.966614,0.8324203910338814
0.618408,-0.100098,0.425049,211.708054,133.422852,56.076046,0.7570434046136324
0.58374,-0.183594,0.333008,219.634995,135.505676,77.674866,0.6966731461022451
0.513184,-0.264893,0.253174,223.014816,139.160156,96.885674,0.6305737019421283
0.45752,-0.387695,0.219238,223.396286,143.234253,118.835442,0.6385117571893254
0.401123,-0.525391,0.240479,221.992477,141.700745,148.529053,0.7033957018997202
0.421875,-0.668701,0.265625,224.800095,147.583008,179.74852,0.8340840387221182
0.458252,-0.78833,0.185303,231.018051,157.546997,208.168015,0.9304817495324667
0.539063,-0.891846,0.106201,233.772263,162.338242,232.627853,1.047500290255807
0.626953,-1.01001,0.088379,228.111252,166.046127,249.992355,1.1920575120144161
0.658447,-1.129395,0.064209,217.468246,175.773605,249.992355,1.3088958375344464
0.635498,-1.211914,0.010498,200.752243,179.634079,249.67955,1.3684675587692972
0.581055,-1.310547,-0.052246,177.825912,175.140366,249.992355,1.4345340695675373
0.564209,-1.375488,-0.080322,157.249451,166.000351,249.992355,1.4888756353399704
0.619873,-1.481934,-0.093262,134.689331,157.203674,249.992355,1.6090583324196175
0.670166,-1.686523,-0.154541,111.564629,154.243469,249.992355,1.821363560019251
0.777588,-1.79126,-0.241699,97.640984,155.235291,249.992355,1.9676569548437552
0.781006,-1.858643,-0.283447,83.854668,156.906128,249.992355,2.035894490216524
0.80127,-1.885254,-0.252686,69.458008,157.485962,249.992355,2.063992846889737
0.858154,-1.878906,-0.181641,53.25317,154.724121,249.992355,2.0735740877607918
0.913086,-1.921143,-0.155273,36.605835,151.832581,249.992355,2.132750846764338
0.933594,-1.89624,-0.219727,23.056028,150.680542,249.992355,2.1249950232800545
0.904541,-1.872559,-0.433594,12.176513,151.779175,249.992355,2.1243058598040916
0.78125,-1.825684,-0.631836,15.11383,153.503418,249.992355,2.0839122729260944
0.592773,-1.798584,-0.700684,31.265257,146.430969,249.992355,2.019218240419049
0.408691,-1.705322,-0.729004,52.307125,125.114433,249.992355,1.8991046019587758
0.222168,-1.595459,-0.717773,70.510864,93.414299,246.02507,1.7635322850557626
0.112793,-1.548584,-0.653076,83.007805,53.230282,217.857346,1.6844414289849914
0.078369,-1.484375,-0.536621,94.001762,7.034301,180.091843,1.5803395010019208
0.117188,-1.40625,-0.397217,97.320549,-38.864136,145.111084,1.465965018318309
0.212891,-1.355469,-0.294434,92.468254,-78.590393,117.202751,1.4033211208408432
0.343506,-1.329102,-0.237549,83.549492,-107.315056,95.809929,1.3931755186770258
0.489258,-1.310547,-0.202881,72.433472,-123.497002,81.008904,1.4135301659087434
0.60376,-1.273193,-0.182129,57.670589,-125.953667,76.48468,1.4208157957631242
0.664063,-1.220459,-0.159424,39.627075,-114.379875,81.092827,1.3985406145071368
0.679443,-1.169189,-0.119629,20.080564,-92.308037,88.470451,1.357555452131146
0.665771,-1.118652,-0.063965,0.770569,-65.734863,98.175041,1.3033513888318837
0.64209,-1.07373,-0.011963,-18.15033,-42.312618,110.961906,1.251127009687266
0.643311,-1.045898,0.039307,-36.697388,-26.43585,125.129692,1.2285343745186783
0.667725,-1.027832,0.048584,-52.642818,-17.494202,141.265869,1.2266440807768977
0.705566,-0.999268,0.009766,-63.346859,-11.337279,156.1203,1.223296894026957
0.737549,-0.960449,-0.019531,-68.984985,-3.334045,168.052658,1.2111243821189466
0.767578,-0.922119,-0.015381,-71.556091,5.966186,176.704391,1.1998816655845692
0.755615,-0.88623,0.012451,-71.937561,13.687133,180.183395,1.1646942382127594
0.69043,-0.865967,-0.005371,-71.075439,18.829346,177.017197,1.1075293574573994
0.650635,-0.868652,-0.072754,-67.420959,21.911619,169.822678,1.0877386381134946
0.656494,-0.876953,-0.151611,-58.204647,21.40045,157.920837,1.1059009139909417
0.693848,-0.868408,-0.203613,-44.120785,15.014647,139.030457,1.1300512180149183
0.736816,-0.840332,-0.209473,-28.221128,3.364563,115.280144,1.1370728322359127
0.753418,-0.801025,-0.170166,-15.319823,-12.695312,90.972893,1.1127606215646741
0.726807,-0.771973,-0.127197,-7.354736,-33.660889,66.558838,1.0678809881194626
0.681152,-0.749023,-0.094971,-2.227783,-56.78558,41.557308,1.0168692110955075
0.666992,-0.710693,-0.044434,-1.205444,-78.819275,18.066406,0.9756727159601216
0.688477,-0.675049,0.017334,-9.048462,-94.955437,-0.518799,0.9643610317127087
0.733398,-0.655029,0.087646,-27.038572,-100.433342,-15.632628,0.9872271463857748
0.765869,-0.673584,0.173584,-48.881527,-95.252983,-33.813477,1.0346024044399857
0.770264,-0.761719,0.290527,-74.249268,-82.18383,-49.362179,1.1215740735172153
0.774902,-0.895508,0.354004,-99.235527,-64.537048,-58.883663,1.2360123460888244
0.753662,-1.007324,0.27832,-111.259453,-48.133846,-69.465637,1.2884758723468595
0.710205,-1.039063,0.186035,-111.511223,-31.555174,-82.06176,1.2722625834390477
0.64917,-1.035156,0.170166,-111.404411,-15.548705,-93.52874,1.2336636903110991
0.582031,-1.025391,0.193115,-115.547173,-6.301879,-106.475822,1.1947720247256377
0.559082,-1.024658,0.18042,-121.704094,-5.66864,-119.911186,1.1811215331573632
0.55957,-1.055664,0.132813,-133.270264,-9.254456,-123.878471,1.2021582087084044
0.541992,-1.108398,0.083496,-148.986816,-13.000487,-121.398918,1.2366377951866099
0.522461,-1.195068,0.015137,-156.852722,-12.008666,-123.634331,1.3043704036484423
0.512939,-1.294189,-0.064697,-154.708862,-4.150391,-128.921509,1.3936345601523379
0.524658,-1.377197,-0.113525,-146.881104,13.236999,-132.873535,1.4781155297871678
0.530273,-1.41626,-0.164307,-132.637024,36.979675,-139.083862,1.5211767262149392
0.481689,-1.387939,-0.203125,-113.906853,65.505981,-147.705078,1.4831246495379276
0.384033,-1.320801,-0.20874,-98.587029,95.001213,-151.443481,1.3912472872534198
0.318848,-1.27417,-0.187988,-92.498772,121.139519,-149.642944,1.326843142254577
0.283936,-1.266113,-0.189209,-91.941826,139.36615,-148.597717,1.31128251210256
0.293701,-1.29126,-0.219238,-89.797966,153.045654,-148.780823,1.342265981705936
0.338867,-1.306641,-0.229736,-82.046501,166.206345,-149.024963,1.3692772459461962
0.343262,-1.285645,-0.223633,-70.823669,183.868393,-145.370483,1.349341908249351
0.191162,-1.219971,-0.20874,-59.539791,212.211594,-132.041931,1.2523755581633649
-0.007568,-1.133545,-0.193604,-52.200314,234.153732,-118.675224,1.1499843696611707
-0.191406,-1.183838,-0.206299,-56.770321,222.938522,-108.970634,1.2168269985832003
-0.26416,-1.330322,-0.222168,-56.442257,177.642807,-98.205559,1.3743710377871037
-0.18457,-1.418945,-0.213135,-46.371456,146.957397,-90.141289,1.4466850127619348
-0.195801,-1.371582,-0.180176,-23.376463,127.540581,-92.674248,1.3971537514894343
-0.275635,-1.194336,-0.128174,5.264282,109.687798,-93.551628,1.2324129617936515
-0.294434,-1.016357,-0.104248,23.780821,94.749443,-90.240471,1.0632688170491034
-0.251221,-0.870605,-0.149902,32.775879,74.890137,-88.500969,0.9184419777372983
-0.197266,-0.776855,-0.216797,25.93231,50.422665,-78.918457,0.8303122936522136
-0.177734,-0.79541,-0.287354,4.249573,26.107786,-58.830257,0.8641983361312379
-0.187988,-0.918457,-0.33374,-13.809203,5.256652,-38.444519,0.9951307133201145
-0.196777,-1.034912,-0.355225,-14.785766,-10.856627,-25.436399,1.111732358123123
-0.1604,-1.054199,-0.34668,-0.061035,-23.002623,-23.147581,1.1212719179579056
-0.083496,-0.968262,-0.317627,16.876221,-30.204771,-27.214048,1.0224430516116778
0.00708,-0.867188,-0.293701,24.452208,-30.662535,-30.738829,0.9156011310308654
0.088379,-0.79541,-0.27832,23.429869,-23.757933,-29.853819,0.8473192657676326
0.147461,-0.744141,-0.269043,16.952515,-9.529114,-23.368834,0.8049066469168956
0.178467,-0.713623,-0.25,6.858825,9.887695,-13.069152,0.7769222974133256
0.179199,-0.700928,-0.228516,-4.684448,31.09741,-1.312256,0.7587040958377647
0.161133,-0.709229,-0.209961,-16.181946,50.270077,10.902404,0.757002800292707
0.148438,-0.726074,-0.201904,-26.039122,65.452576,22.636412,0.7681031952387648
0.14209,-0.749268,-0.20166,-33.14209,76.347351,32.592773,0.7888338605333824
0.145752,-0.76709,-0.201416,-36.567688,83.999626,40.687557,0.8063740562914956
0.147705,-0.762695,-0.202637,-37.574768,89.332573,48.347469,0.8028587570793508
0.145264,-0.75,-0.199219,-37.780762,91.789238,56.297298,0.7894870737744856
0.152344,-0.735352,-0.190674,-38.772583,92.155449,65.536499,0.7747953487960547
0.177002,-0.728271,-0.178711,-41.587826,91.293327,76.431274,0.7704842496547221
0.215332,-0.743164,-0.17041,-46.157833,91.735832,88.821404,0.7922753115047825
0.254395,-0.776123,-0.164551,-50.704952,95.077507,101.783745,0.83316310453296
0.280762,-0.811035,-0.146973,-53.871151,101.448051,114.227287,0.8707503285086948
0.313965,-0.844482,-0.130127,-54.77142,109.588615,124.923698,0.9103059407023553
0.345947,-0.871094,-0.111328,-54.031368,118.865959,133.712769,0.943863341394823
0.369629,-0.890381,-0.087646,-52.894588,129.394531,140.861511,0.9680318920975693
0.390381,-0.901123,-0.064941,-52.505489,140.953064,146.774292,0.9841937409732903
0.406494,-0.915771,-0.037842,-54.550167,152.34375,152.671814,1.0026494469359668
0.418945,-0.942383,-0.005371,-58.79211,162.658676,157.966614,1.031324138840452
0.428711,-0.992676,0.012451,-63.08746,171.600327,161.34642,1.0813666306567815
0.431885,-1.043701,0.01001,-63.980099,179.49675,162.948593,1.1295736499786102
0.417236,-1.073486,0.026367,-62.286373,185.523972,159.538269,1.1520213932826942
0.351807,-1.124756,0.047852,-61.485287,185.340866,150.588989,1.179463453731823
0.248535,-1.17334,0.064941,-58.135983,173.706039,136.878967,1.2011301908227934
0.09082,-1.187256,0.112305,-51.36871,142.00592,118.537895,1.1960089861539502
-0.073486,-1.184082,0.177002,-44.212337,88.790886,90.667717,1.1994915935195212
-0.069336,-1.216553,0.121094,-36.048889,29.281614,51.910397,1.224529476795475
0.098877,-1.245361,0.044434,-14.022826,-10.208129,20.202635,1.250070022761125
0.236084,-1.182617,0.106934,14.053344,-21.057127,1.296997,1.2106830733519818
0.262695,-1.066895,0.152832,30.525206,-14.793395,-8.750916,1.1093381920199088
0.248535,-0.962646,0.1521,32.463074,-1.266479,-13.076781,1.0057789904054468
0.21582,-0.911133,0.126953,26.344297,11.932372,-14.923095,0.9449119960599506
0.194092,-0.902588,0.079102,18.852234,20.744322,-18.608093,0.9266034365422998
0.192627,-0.918701,0.036621,15.220641,24.92523,-26.153563,0.9393922429800025
0.206055,-0.939453,0.02124,16.471863,25.05493,-34.90448,0.9620196150983618
0.229492,-0.953613,0.010742,20.927427,23.681639,-43.457027,0.980897406662389
0.261719,-0.962646,0.008545,26.496885,22.453306,-51.139828,0.9976257681625911
0.289551,-0.961914,0.014893,31.929014,23.300169,-56.503292,1.004659209108243
0.30957,-0.954834,0.023438,35.919189,27.8244,-57.922359,1.0040372962694164
0.311768,-0.945068,0.023193,39.115906,34.454346,-55.221554,0.9954349429756824
0.286621,-0.918945,0.017578,42.015072,40.931698,-49.72839,0.9627671041066993
0.260254,-0.905273,0.012939,43.861385,44.723507,-44.395443,0.9420290689601887
0.243896,-0.888428,0.012451,45.654293,44.296261,-39.657593,0.9213818955248687
0.231934,-0.881348,0.006836,46.19598,41.244503,-34.088135,0.9113804959269208
0.228027,-0.88208,0.004395,46.371456,37.17804,-28.060911,0.9110876769850418
0.233398,-0.889893,0.005615,46.661373,32.691956,-22.506712,0.9200085358723581
0.239746,-0.889648,0.005371,46.661373,28.869627,-17.150879,0.9214014087578768
0.243896,-0.891357,-0.000732,45.997616,25.886534,-12.46643,0.9241228793234154
0.249756,-0.895752,-0.001953,44.357296,23.605345,-8.743286,0.9299212435733468
0.259277,-0.905029,0.000244,42.457577,22.422789,-5.310058,0.9414361970447067
0.268066,-0.912354,0.002686,40.771481,22.705076,-2.120972,0.9509239802781293
0.273438,-0.91333,0.003662,38.787842,24.032591,0.617981,0.9533904965899335
0.267334,-0.920654,0.003418,35.430908,25.3067,2.792358,0.9586881338558436
0.252441,-0.9375,0.002197,31.35681,25.329588,4.623413,0.9708952236415627
0.236328,-0.956787,-0.005371,28.030394,23.399351,6.103515,0.9855562564328837
0.220459,-0.968506,-0.019043,26.519773,19.66095,6.217956,0.9934629729214874
0.213135,-0.96582,-0.029541,26.458738,14.976501,4.676819,0.9894985959090594
0.20752,-0.951904,-0.0354,26.618956,10.215758,1.960754,0.9749045776977354
0.202148,-0.932129,-0.039307,26.100157,5.714416,-1.426697,0.9546063726971448
0.201416,-0.911377,-0.039307,24.536131,1.243591,-4.91333,0.934195633384143
0.203369,-0.895508,-0.033447,22.171019,-2.593994,-7.713317,0.9189190552132435
0.206543,-0.887451,-0.027832,19.165039,-5.546569,-10.360717,0.911594157766492
0.209473,-0.878906,-0.021729,15.777587,-7.507324,-13.168334,0.9037847332224638
0.20874,-0.873291,-0.012695,12.252807,-8.499146,-16.029358,0.8979814704691852
0.214355,-0.871094,-0.005859,8.522034,-8.750916,-18.981934,0.8970992981504333
0.222412,-0.872803,0.000732,4.486084,-8.079529,-21.354673,0.9006956813358217
0.232666,-0.881104,0.006348,0.259399,-6.54602,-22.705076,0.9113276158857472
0.237305,-0.89209,0.009521,-4.051208,-3.723144,-23.254393,0.92316243455093
0.242188,-0.905273,0.008301,-7.949829,0.053406,-23.254393,0.9371462737876088
0.246582,-0.910645,0.007568,-10.734557,4.264832,-22.964476,0.9434692752670857
0.246582,-0.908936,0.005859,-12.916564,9.19342,-22.369383,0.9418076569560262
0.246338,-0.908203,0.006104,-15.342711,14.35089,-21.034239,0.9410379154258345
0.244873,-0.912109,0.007813,-18.02063,19.706726,-18.989563,0.9444398641411744
0.247803,-0.909912,0.009521,-20.26367,25.321959,-16.586304,0.9430995832858798
0.24707,-0.908936,0.01709,-22.224424,31.021116,-13.824462,0.9420723459989684
0.244629,-0.90918,0.029053,-24.642942,36.659241,-10.986327,0.9419637449764189
0.241211,-0.915527,0.037598,-27.091978,41.549679,-7.713317,0.9475157222199534
0.239014,-0.925781,0.044922,-29.243467,45.661922,-4.386902,0.9571917980431089
0.23584,-0.929199,0.04834,-30.609129,48.698421,-1.487732,0.9598791813561747
0.228516,-0.926758,0.054199,-31.204222,50.903316,0.862122,0.9560530761526788
0.227051,-0.920898,0.059326,-31.723021,52.932735,2.853393,0.9503288153481404
0.22168,-0.915527,0.065674,-32.226563,54.527279,4.722595,0.944269444811702
0.214844,-0.911377,0.072266,-32.89032,55.610653,6.622314,0.939142350882442
0.202148,-0.910156,0.089844,-33.805847,55.381771,8.346558,0.936653459170466
0.181641,-0.920654,0.104736,-35.461426,52.200314,9.712219,0.944228187618332
0.167236,-0.939941,0.103516,-35.888672,44.792171,10.482787,0.9602981440328832
0.164795,-0.94458,0.116211,-34.52301,36.689758,10.147094,0.9658642580331875
0.166504,-0.937988,0.134766,-32.341003,28.968809,8.422852,0.9621366560504802
0.166504,-0.926025,0.149902,-31.34918,22.369383,6.332397,0.9527415663468243
0.167725,-0.916748,0.168701,-32.142639,16.357422,4.508972,0.9471106580173194
0.162842,-0.91333,0.186279,-33.950806,10.0708,3.578186,0.9462500048639365
0.158203,-0.918213,0.195068,-36.178589,4.745483,3.257751,0.9519426596187398
0.161133,-0.931885,0.196289,-38.009644,0.907898,2.204895,0.9658689706347336
0.166748,-0.960205,0.187988,-38.925171,-1.823425,1.152039,0.9925411959576288
0.168701,-0.996094,0.169434,-37.338257,-4.127502,1.663208,1.024388190381459
0.166992,-1.026123,0.143311,-32.165527,-6.820678,2.937317,1.0494535634862554
0.168457,-1.040283,0.113037,-23.902891,-10.391234,3.90625,1.0598791649556094
0.176758,-1.032715,0.0896,-14.152526,-14.686584,4.66156,1.0515568561846762
0.191162,-1.013428,0.074219,-5.226135,-18.913269,5.241394,1.0339669633934152
0.210449,-0.98999,0.061768,1.968384,-22.254942,5.874633,1.0139942147394136
0.232666,-0.96875,0.05835,7.67517,-23.826597,6.271362,0.998005387037565
0.250488,-0.954346,0.056152,11.825561,-22.720335,7.064819,0.9882679661731427
0.266357,-0.948242,0.05835,14.808654,-18.547058,8.201599,0.9866679606194781
0.279785,-0.944092,0.053223,17.417908,-11.352538,9.368896,0.9861146172823928
0.284424,-0.942627,0.047363,19.91272,-1.991272,10.536193,0.9857413081909473
0.286377,-0.936523,0.047119,22.247313,9.735107,11.680602,0.9804628069534306
0.266113,-0.928223,0.050293,23.124693,20.507811,13.580321,0.9669247397533067
0.245361,-0.920898,0.046875,22.758482,27.465818,14.701842,0.954176300455005
0.237793,-0.91333,0.048828,22.109983,33.126831,14.526366,0.9450404083069676
0.233643,-0.904541,0.050049,21.507261,36.857605,13.999938,0.9355684766659254
0.223145,-0.902344,0.056641,20.111082,39.18457,14.122008,0.931250013821208
0.210449,-0.905762,0.05542,18.074036,39.009094,15.190124,0.9315390269038651
0.201904,-0.907471,0.052246,16.525269,36.888123,15.73944,0.9311275345370258
0.193359,-0.911865,0.053955,15.182494,32.783508,15.876769,0.9337004996951646
0.188477,-0.914307,0.05542,14.160155,27.648924,15.296935,0.9351749815825913
0.186035,-0.917236,0.053223,12.985229,21.77429,14.205932,0.9374239108589028
0.182617,-0.918701,0.051025,11.863708,15.670775,13.061522,0.9380639886036559
0.180664,-0.92041,0.043945,10.391234,9.353638,12.138366,0.9390022428200051
0.18042,-0.923584,0.039551,8.842468,3.326416,10.940551,0.9418721054670851
0.18335,-0.923584,0.034668,7.545471,-2.113342,9.384155,0.9422454551654785
0.188477,-0.928711,0.030762,6.568908,-6.896972,7.835388,0.9481423952624415
0.196045,-0.92749,0.031494,5.966186,-10.711669,6.271362,0.9485057797193437
0.201904,-0.925049,0.030762,5.203247,-13.374328,4.814148,0.9473263314513115
0.211426,-0.921631,0.029297,4.341125,-14.991759,3.425598,0.946024824117211
0.220215,-0.918457,0.028564,3.387451,-15.525817,2.403259,0.9449200014657325
0.229248,-0.917969,0.031494,2.548218,-15.007018,1.838684,0.9466855879863177
0.235352,-0.914063,0.033691,1.564026,-13.374328,1.502991,0.9444770062600782
0.238037,-0.908936,0.034668,0.656128,-11.222838,1.083374,0.9402277041701121
0.241455,-0.907959,0.034668,-0.457764,-8.674622,0.923157,0.9401552706494816
0.242432,-0.904785,0.035645,-1.586914,-5.561828,0.930786,0.93737918521482
0.240234,-0.904785,0.0354,-2.754211,-2.250671,1.091003,0.9368038380477526
0.239502,-0.905273,0.036133,-3.875732,0.991821,1.342773,0.937115791256342
0.236084,-0.906982,0.037109,-5.233764,4.241943,1.419067,0.9379387406760635
0.233643,-0.910645,0.04248,-6.462097,7.019042,1.586914,0.9410993135020341
0.230469,-0.91333,0.045898,-7.225036,9.246826,1.724243,0.9430770250965718
0.229736,-0.911865,0.050781,-7.995605,10.932921,1.777649,0.9417298539825527
0.227783,-0.913818,0.052002,-8.94928,12.443542,1.846313,0.9432139949221491
0.223633,-0.91748,0.054199,-9.82666,13.572692,1.869202,0.9458957662924599
0.218506,-0.920166,0.055176,-10.635375,14.038085,2.037048,0.947361984970898
0.218262,-0.923584,0.052246,-11.32965,14.175414,2.227783,0.950460598981357
0.216309,-0.929199,0.052246,-11.482238,13.870238,2.006531,0.9554737095273736
0.214111,-0.92749,0.058594,-11.344909,13.145446,1.449585,0.9536846843988847
0.212646,-0.926514,0.0625,-11.421203,12.283324,1.045227,0.9526556374220434
0.210693,-0.931152,0.068848,-11.512755,10.925292,0.480652,0.9571706401979743
0.210449,-0.934326,0.076172,-11.596679,9.216309,0.114441,0.9607580493865249
0.20752,-0.940674,0.077393,-11.856078,7.225036,-0.541687,0.9663962961047605
0.210449,-0.949219,0.074951,-11.726378,5.15747,-1.548767,0.9751528823538389
0.211426,-0.956787,0.078613,-11.45172,3.65448,-2.388,0.9830169482842094
0.210693,-0.959473,0.087402,-10.681151,2.372742,-3.486633,0.9862145241183583
0.212402,-0.95752,0.090088,-9.597778,1.235962,-4.78363,0.9849238588581354
0.210693,-0.950928,0.096924,-8.81958,0.724792,-6.149292,0.978800216187655
0.212891,-0.943115,0.101074,-8.674622,1.052856,-7.621765,0.9721133856613642
0.213623,-0.944336,0.105225,-9.010315,2.487183,-8.430481,0.973898130016687
0.214844,-0.947021,0.107666,-8.827209,4.974365,-8.804321,0.9770356627743942
0.214355,-0.948486,0.10498,-8.399963,8.224487,-9.094238,0.9780565211791188
0.211914,-0.95166,0.105469,-7.759094,11.619567,-9.170532,0.9806569272467308
0.204346,-0.954834,0.104736,-7.148742,14.991759,-8.926392,0.9820564571184286
0.19751,-0.95874,0.099854,-6.317138,18.035889,-8.354187,0.9839529506109528
0.195068,-0.9646,0.099609,-4.890442,20.523069,-7.667541,0.9891545063866413
0.189209,-0.9646,0.096436,-2.929687,22.438047,-6.851196,0.987700920206618
0.183594,-0.963379,0.091064,-0.579834,23.506163,-5.569458,0.9849357880455964
0.179199,-0.95874,0.086426,1.525879,23.834227,-4.203796,0.979165012996788
0.175049,-0.953369,0.084473,3.211975,23.239134,-2.807617,0.9729801078598679
0.173584,-0.949951,0.081787,4.837036,21.476744,-1.38092,0.9691374622962421
0.17627,-0.946289,0.081055,6.408691,19.256592,-0.083923,0.9659730314278966
0.178467,-0.941895,0.076904,7.415771,17.814636,0.610352,0.9617332719262655
0.173828,-0.937988,0.07251,7.667541,16.029358,1.38855,0.9567106991290524
0.172363,-0.934082,0.066162,7.537841,13.656615,2.13623,0.952153137230036
0.172607,-0.93335,0.062988,7.453918,11.611938,2.311707,0.951263836741942
0.173096,-0.933838,0.058594,7.5531,8.491516,1.953125,0.9515507828255936
0.179688,-0.92627,0.055176,7.522583,6.179809,1.472473,0.9451498723588763
0.187256,-0.927734,0.054932,7.392883,4.302979,0.961304,0.9480362381871275
0.191406,-0.92627,0.05249,6.439209,3.082275,0.816345,0.9472948695290184
0.192627,-0.927979,0.049316,5.485534,1.594543,0.88501,0.9490428090586852
0.197754,-0.930664,0.044922,4.905701,0.946045,0.602722,0.9525020270298642
0.200439,-0.931152,0.039795,4.394531,0.396728,0.274658,0.9533118492130475
0.200684,-0.932617,0.041748,4.119873,0.152588,-0.305176,0.9548777052842945
0.205811,-0.928223,0.041016,3.822326,-0.183105,-0.579834,0.9516503652634196
0.211914,-0.924805,0.04126,3.257751,0.709534,-1.350403,0.9496705844770595
0.213623,-0.922852,0.041016,2.365112,1.724243,-1.670837,0.9481418207678638
0.212646,-0.92041,0.041016,1.693725,3.044128,-1.51062,0.9455449231379754
0.212402,-0.921143,0.038086,0.88501,4.425049,-1.464844,0.9460811695880011
0.206543,-0.923584,0.039551,0.076294,5.775451,-1.556396,0.9472231508498934
0.202881,-0.926758,0.038818,-0.228882,6.256103,-1.487732,0.9494987771708818
0.199219,-0.923828,0.038818,-0.495911,6.393432,-1.678467,0.9458611000929259
0.19873,-0.919434,0.040039,-0.907898,6.202697,-2.250671,0.9415177187801618
0.196289,-0.915283,0.044922,-1.686096,5.973815,-2.502441,0.937171450532932
0.195313,-0.917969,0.049316,-2.716064,5.470275,-2.296448,0.9398118539292852
0.194336,-0.925049,0.050537,-3.494262,4.714966,-2.13623,0.946591845340958
0.196045,-0.931885,0.046875,-4.081726,3.982544,-2.120972,0.9534361860528474
0.197754,-0.935059,0.052002,-4.547119,3.440857,-2.082825,0.957155256999093
0.200195,-0.939697,0.055176,-4.814148,2.861023,-1.838684,0.9623683706408892
0.201172,-0.937744,0.059082,-5.020141,2.471924,-1.579285,0.9608978436046154
0.199463,-0.935547,0.066406,-5.302429,2.052307,-1.579285,0.9588761309022141
0.202637,-0.936279,0.073486,-5.706787,1.693725,-1.571655,0.9607706863794294
0.203613,-0.936035,0.077637,-6.17218,1.480102,-1.396179,0.9610656995039413
0.197754,-0.931885,0.074463,-6.347656,1.434326,-1.342773,0.9555422733244197
0.194336,-0.926758,0.070068,-6.225585,1.487732,-1.518249,0.9495032364789495
0.19458,-0.92749,0.070313,-6.401062,1.174927,-1.64032,0.9502857435892638
0.194824,-0.933838,0.074951,-6.515502,0.770569,-1.480102,0.9568842425398173
0.198486,-0.938965,0.078857,-6.111145,0.465393,-1.228333,0.9629487991944328
0.199219,-0.942139,0.08252,-5.546569,0.518799,-1.205444,0.9665007272020026
0.198975,-0.941895,0.083984,-4.859924,0.923157,-1.274109,0.9663387366270692
0.201172,-0.937012,0.080811,-4.127502,1.075745,-1.113892,0.9617650853763615
0.202148,-0.933838,0.081543,-3.608703,1.106262,-0.762939,0.958940292717435
0.203125,-0.932373,0.075439,-3.326416,1.144409,-0.419617,0.9572200475726571
0.204346,-0.931152,0.070068,-2.998352,1.441955,-0.434875,0.9558822414105201
0.208008,-0.931396,0.069824,-2.540588,2.349854,-0.442505,0.9568914399533522
0.213135,-0.934326,0.070557,-2.243042,3.883362,-0.061035,0.9609213769866919
0.2146,-0.932373,0.071289,-2.02179,5.592346,0.450134,0.9594033003122305
0.212891,-0.934082,0.07251,-1.976013,7.133483,0.740051,0.9607754475968877
0.213623,-0.936768,0.070068,-1.914978,8.216858,0.823975,0.9633683597549797
0.211182,-0.940918,0.07251,-1.838684,9.025574,1.113892,0.9670481993923571
0.210205,-0.944336,0.06958,-1.571655,9.346008,1.251221,0.9699474209053808
0.208984,-0.940918,0.068604,-1.174927,9.07135,1.159668,0.9662854152868086
0.206055,-0.938965,0.065674,-0.923157,8.262634,0.938415,0.9635491728635338
0.203369,-0.939209,0.061279,-0.87738,7.194519,0.686645,0.9629265868605975
0.20752,-0.94165,0.056396,-0.846863,6.118774,0.595093,0.9658932558600872
0.205811,-0.942383,0.061523,-0.541687,5.15747,0.473022,0.9665552058413425
0.209717,-0.939697,0.059814,-0.053406,4.386902,0.007629,0.964670610360863
0.213135,-0.933105,0.061523,0.312805,4.03595,-0.480652,0.9591123754696318
0.213623,-0.92627,0.059326,0.099182,4.104614,-1.022339,0.9524339731997175
0.216064,-0.92627,0.055908,-0.526428,4.920959,-1.38092,0.9527777649903466
0.216797,-0.927002,0.055664,-0.930786,6.034851,-1.426697,0.9536415092208391
0.215576,-0.928467,0.05249,-1.281738,7.141113,-1.571655,0.9546094394908319
0.21167,-0.929199,0.049072,-1.663208,7.919311,-1.808166,0.9542657028757767
0.209473,-0.932129,0.050293,-1.64032,8.514404,-1.945495,0.9566989057268749
0.208008,-0.933838,0.052734,-1.571655,9.040833,-2.098083,0.9581761910337784
0.208008,-0.931641,0.053467,-1.609802,9.620667,-2.197266,0.9560758343531125
0.20459,-0.929688,0.057373,-1.792908,10.269164,-2.189636,0.9536605824783784
0.201416,-0.927246,0.05957,-2.296448,10.44464,-2.067566,0.9507376791060719
0.199951,-0.92627,0.057861,-2.845764,10.307311,-1.937866,0.9493705338917993
0.19873,-0.926758,0.05835,-3.181457,10.108947,-1.861572,0.9496203062087499
0.196289,-0.930908,0.057861,-3.341675,9.735107,-1.571655,0.953135337350368
0.196045,-0.929443,0.055176,-3.349304,9.254456,-1.335144,0.95149478361681
0.193604,-0.929688,0.054688,-3.303528,8.804321,-1.220703,0.9512061098962726
0.192383,-0.932861,0.057617,-3.295898,8.18634,-1.052856,0.9542329813515147
0.191895,-0.934814,0.056641,-3.356933,7.362365,-0.976562,0.9559859353055359
0.193115,-0.938477,0.059814,-3.189087,6.645202,-0.976562,0.9600053111051
0.19458,-0.939697,0.060791,-2.792358,5.813598,-1.045227,0.9615546650555027
0.196777,-0.937012,0.059326,-2.433777,5.012512,-1.029968,0.9592873657820163
0.195801,-0.935303,0.05835,-2.220154,4.272461,-0.984192,0.9573580604507386
0.195557,-0.933105,0.061768,-2.075195,3.746032,-0.976562,0.9553757203833474
0.196533,-0.93042,0.063477,-2.098083,3.39508,-0.923157,0.9530665905475861
0.198975,-0.931641,0.061523,-2.174377,3.135681,-0.823975,0.9546366235563143
0.196533,-0.936279,0.060303,-2.189636,3.02124,-0.793457,0.9585823061891973
0.196777,-0.9375,0.057129,-2.113342,2.89917,-0.907898,0.9596307416761929
0.193115,-0.936523,0.053223,-1.922607,2.334595,-1.113892,0.9577063331120872
0.191406,-0.937256,0.05127,-1.701355,1.472473,-1.144409,0.9579737362120112
0.195068,-0.942139,0.056152,-1.518249,0.686645,-1.029968,0.9637585107530827
0.197754,-0.943115,0.060303,-1.083374,0.091553,-0.991821,0.9655097097129578
0.19751,-0.936523,0.061279,-0.961304,-0.022888,-0.923157,0.9590832317739686
0.201172,-0.930908,0.064209,-1.365662,0.305176,-0.831604,0.9545588896076553
0.203125,-0.932129,0.067627,-1.930237,0.579834,-0.442505,0.9563982692346322
0.202393,-0.935303,0.064209,-2.128601,0.976562,-0.068665,0.959102405345227
0.200928,-0.936523,0.05957,-1.976013,1.434326,0.305176,0.9596853524009836
0.198486,-0.936768,0.058838,-1.785278,1.525879,0.465393,0.9593710899667552
0.197754,-0.937256,0.057373,-1.594543,1.533508,0.694275,0.9596077923719669
0.198975,-0.937012,0.057617,-1.327515,1.152039,0.808716,0.9596365236161033
0.200684,-0.936035,0.060547,-1.075745,0.808716,0.732422,0.9592192284822068
0.204102,-0.937988,0.061279,-0.900268,0.946045,0.770569,0.9618909659566411
0.205078,-0.939697,0.059814,-1.144409,1.220703,0.976562,0.9636727413852693
0.204834,-0.941162,0.060059,-1.167297,1.457214,1.068115,0.9650647446057701
0.206543,-0.939209,0.062744,-0.892639,1.754761,1.029968,0.9636962000890114
0.205811,-0.938721,0.061279,-0.785828,1.976013,1.243591,0.9629695734565034
0.203369,-0.937988,0.063232,-0.732422,2.037048,1.213074,0.9618621128462229
0.202881,-0.934814,0.058838,-0.709534,1.991272,1.13678,0.9583839653296585
0.204834,-0.937256,0.057129,-0.610352,2.13623,1.228333,0.961077260022835
0.203125,-0.939453,0.056396,-0.648498,2.082825,1.441955,0.9628147348529726
0.203125,-0.942871,0.059326,-0.404358,1.724243,1.472473,0.966325546874344
0.204834,-0.941895,0.05835,0.022888,1.472473,1.327515,0.9656748319600134
0.205811,-0.937256,0.061279,0.221252,1.38092,1.274109,0.9615415191753292
0.205811,-0.935303,0.06665,0.183105,1.502991,1.167297,0.9599958812567896
0.204834,-0.936768,0.066162,0.183105,1.686096,1.190186,0.9611808693601844
0.203369,-0.934326,0.063232,0.152588,1.869202,1.220703,0.9582913493614559
0.201416,-0.933594,0.060791,-0.022888,1.998901,1.159668,0.9570066392523094
0.199463,-0.93457,0.05957,0.022888,1.853943,0.999451,0.9574733198209755
0.197266,-0.932861,0.057373,0.244141,1.541138,0.770569,0.955214730417198
0.199707,-0.932373,0.057129,0.450134,1.205444,0.579834,0.9552308724172393
0.197998,-0.933594,0.056641,0.617981,1.052856,0.579834,0.9560382668706311
0.19873,-0.93335,0.060791,0.595093,1.045227,0.648498,0.9562067669081828
0.198486,-0.931396,0.059326,0.419617,1.213074,0.617981,0.9541565779723996
0.19751,-0.930908,0.059814,0.114441,1.495361,0.640869,0.9535080593052163
0.197021,-0.930664,0.058594,-0.190735,1.625061,0.740051,0.9530928664999021
0.199219,-0.931885,0.056396,-0.289917,1.815796,0.953674,0.9546090152528416
0.197998,-0.933105,0.056641,-0.297546,1.998901,1.113892,0.9555607526002728
0.194824,-0.933105,0.052734,-0.518799,2.090454,1.197815,0.954684349278336
0.193848,-0.931641,0.053955,-0.602722,1.853943,1.38855,0.9531228367896764
0.192627,-0.931152,0.052979,-0.534058,1.602173,1.449585,0.9523423663126617
0.193604,-0.932129,0.052246,-0.457764,1.457214,1.38092,0.9534550990859506
0.195557,-0.934326,0.051758,-0.465393,1.342773,1.396179,0.9559741131897871
0.198242,-0.931152,0.056152,-0.587463,1.411438,1.51062,0.9536755133545162
0.196533,-0.930664,0.054932,-0.793457,1.579285,1.663208,0.9527739635448694
0.195557,-0.931396,0.056641,-1.213074,1.754761,1.838684,0.9533883007180233
0.194336,-0.934814,0.056396,-1.808166,2.044678,2.090454,0.9564644291911749
0.192383,-0.941406,0.053223,-2.243042,2.288818,2.258301,0.9623352655150906
0.188965,-0.942871,0.051758,-2.227783,2.319336,2.326965,0.9630121413720597
0.186035,-0.941162,0.050293,-1.907349,1.739502,2.151489,0.9606895009929067
0.186035,-0.936768,0.049561,-1.655578,0.816345,2.090454,0.9563470080310807
0.188477,-0.935059,0.053955,-1.63269,-0.1297,2.189636,0.9553900015360218
0.192627,-0.931885,0.058105,-1.678467,-0.75531,2.197266,0.9533577530911468
0.194824,-0.93042,0.061035,-1.89209,-0.892639,2.288818,0.9525560553589485
0.193848,-0.931152,0.061523,-2.174377,-0.762939,2.296448,0.9531034433559664
0.194824,-0.935547,0.060547,-2.27356,-0.511169,2.433777,0.957533560453105
0.192139,-0.939453,0.059326,-2.059937,-0.556946,2.296448,0.9607335264296756
0.190918,-0.939209,0.056152,-1.663208,-0.831604,2.174377,0.9600605582508844
0.192139,-0.936035,0.057861,-1.235962,-1.312256,1.914978,0.9573018394774973
0.190918,-0.933838,0.060059,-0.923157,-1.701355,1.594543,0.9550445939583134
0.192627,-0.93335,0.060547,-0.648498,-1.914978,1.449585,0.9549415284916664
0.197021,-0.933105,0.065674,-0.556946,-1.953125,1.472473,0.9559368649351274
0.198242,-0.933838,0.06665,-0.671387,-1.838684,1.594543,0.9569720598366495
0.194336,-0.933838,0.063232,-0.793457,-1.350403,1.693725,0.9559383750870135
0.19165,-0.93457,0.061035,-0.747681,-1.144409,1.586914,0.9559686598550184
0.195068,-0.936035,0.061523,-0.648498,-1.022339,1.243591,0.958122187081585
0.196289,-0.936523,0.060791,-0.511169,-1.083374,0.907898,0.958801463667531
0.19165,-0.940674,0.057373,-0.350952,-1.396179,0.679016,0.9617114733146319
0.1875,-0.943604,0.05249,0.152588,-1.846313,0.831604,0.9634832426752423
0.185547,-0.943604,0.048828,0.717163,-2.624511,0.709534,0.9629124423378275
0.182861,-0.939941,0.049805,1.251221,-3.532409,0.473022,0.9588575320802356
0.182373,-0.936523,0.052246,1.548767,-4.493713,0.076294,0.955544287395409
0.188721,-0.931885,0.055664,1.441955,-5.203247,-0.244141,0.9524304436345995
0.192627,-0.931152,0.055908,0.938415,-5.432128,-0.274658,0.9525097966409584
0.194336,-0.930908,0.059082,0.267029,-5.0354,0.045776,0.952809985298223
0.196045,-0.932617,0.056396,-0.389099,-4.15802,0.404358,0.9546667583664994
0.193359,-0.93457,0.054443,-0.984192,-3.27301,0.724792,0.9559146552020217
0.192139,-0.9375,0.053223,-1.251221,-2.410889,0.88501,0.9584656139111095
0.191895,-0.94165,0.05127,-1.220703,-1.899719,0.953674,0.9623705244992701
0.192383,-0.943848,0.052246,-1.106262,-1.411438,1.12915,0.9646708818602332
0.193359,-0.947998,0.050293,-0.854492,-1.060486,1.350403,0.9688226343010365
0.189941,-0.945068,0.053711,-0.404358,-0.839233,1.113892,0.965461537103369
0.19043,-0.941406,0.057129,0.114441,-0.823975,0.907898,0.9621707563509713
0.190674,-0.936035,0.061035,0.534058,-0.900268,0.801086,0.9572060210456262
0.190186,-0.932129,0.062988,0.640869,-0.671387,0.640869,0.9534163179749967
0.191895,-0.932373,0.064453,0.549316,-0.144958,0.518799,0.9540950117063814
0.190674,-0.934326,0.062744,0.434875,0.656128,0.389099,0.9556455713746598
0.187256,-0.936523,0.056885,0.411987,1.182556,0.305176,0.9567528637480005
0.185059,-0.938965,0.052246,0.717163,1.304626,0.007629,0.958452789250467
0.182129,-0.940186,0.054688,1.152039,1.106262,-0.305176,0.9592244078321819
0.182129,-0.936768,0.054199,1.38855,0.87738,-0.495911,0.9558466352224085
0.182129,-0.937988,0.048584,1.304626,0.465393,-0.488281,0.9567407516359905
0.181641,-0.939209,0.049072,1.403808,0.274658,-0.411987,0.9578700641245659
0.178955,-0.937256,0.05127,1.625061,0.091553,-0.518799,0.9555638725176878
0.178223,-0.935059,0.05249,1.64032,-0.022888,-0.671387,0.9533383299280481
0.176025,-0.931885,0.053223,1.281738,-0.076294,-0.62561,0.9498563794484932
0.176514,-0.937256,0.052246,0.694275,-0.617981,-0.595093,0.9551626281675807
0.174316,-0.939697,0.044678,0.640869,-1.579285,-0.610352,0.9567719913067062
0.169922,-0.936035,0.041504,0.999451,-2.609253,-0.541687,0.952238199887507
0.16748,-0.937012,0.039307,0.946045,-3.997802,-0.450134,0.9526731227409536
0.169678,-0.940186,0.041748,1.00708,-5.844116,-0.549316,0.9562861673076736
0.171387,-0.944336,0.042969,0.816345,-7.591247,-0.724792,0.9607238519085491
0.177246,-0.944092,0.042236,1.045227,-8.583069,-0.999451,0.9615142893769182
0.180176,-0.9375,0.044678,1.480102,-8.995056,-1.167297,0.9557017132243721
0.18042,-0.930908,0.047119,1.319885,-9.07135,-1.075745,0.9494004850562274
0.181152,-0.929932,0.044922,0.518799,-9.078979,-0.846863,0.9484764403041331
0.184814,-0.931152,0.043701,-0.25177,-8.964539,-0.564575,0.9503210189725364
0.186035,-0.937256,0.046387,-0.709534,-8.918762,-0.198364,0.9566658688016417
0.185059,-0.94043,0.044434,-0.869751,-8.766174,-0.015259,0.9594945537818336
0.187256,-0.938965,0.046631,-0.808716,-8.506775,0.160217,0.9585898658560918
0.188232,-0.939453,0.049561,-0.732422,-8.239746,0.289917,0.9594058149469389
0.191162,-0.939697,0.050781,-0.87738,-7.919311,0.389099,0.9602874944588209
0.191895,-0.938965,0.054199,-0.968933,-7.598876,0.663757,0.95990441912255
0.193604,-0.939453,0.054199,-0.976562,-7.057189,0.762939,0.9607247158400787
0.194092,-0.938965,0.059814,-0.801086,-6.301879,0.785828,0.9606792858623527
0.194336,-0.940186,0.057861,-0.808716,-5.599975,0.831604,0.9618025217335416
0.193115,-0.939697,0.057861,-0.740051,-4.890442,0.778198,0.9610784309071763
0.190918,-0.935547,0.052246,-0.526428,-4.554749,0.511169,0.9562570347186995
0.193604,-0.938232,0.056641,-0.579834,-4.28009,0.335693,0.959671817613188
0.195313,-0.942139,0.057129,-0.564575,-3.761291,0.312805,0.9638655434919332
0.195801,-0.944092,0.057129,-0.396728,-2.960205,0.198364,0.9658734175377227
0.193848,-0.940918,0.059814,-0.12207,-1.930237,-0.045776,0.9625390612458281
0.192627,-0.939209,0.061768,-0.083923,-0.686645,0.068665,0.960746580859906
0.19043,-0.938477,0.060059,-0.221252,0.572205,0.289917,0.9594841050846022
0.189453,-0.940918,0.057373,-0.350952,1.754761,0.404358,0.9615148376712656
0.185303,-0.942383,0.056152,-0.175476,2.708435,0.480652,0.9620685877846755
0.182129,-0.942871,0.059814,-0.12207,3.227234,0.50354,0.9621613221690009
0.178711,-0.945068,0.057617,0.053406,3.532409,0.541687,0.9635407956251775
0.175537,-0.943604,0.058105,0.419617,3.540039,0.411987,0.9615497585720668
0.174316,-0.942139,0.057129,0.686645,3.204345,0.259399,0.9598310715006051
0.172607,-0.942627,0.056641,0.656128,2.63977,0.167847,0.9599724165094536
0.172363,-0.948975,0.054688,0.62561,1.846313,0.144958,0.9660503774327713
0.173096,-0.947754,0.056152,0.953674,1.106262,0.259399,0.9650662758774653
0.174072,-0.945313,0.053955,1.205444,0.419617,0.411987,0.962719518436185
0.173828,-0.941895,0.05127,1.541138,-0.175476,0.366211,0.9591720270676163
0.169678,-0.938965,0.052002,1.823425,-0.976562,0.389099,0.9555888775582311
0.171143,-0.935791,0.05127,1.953125,-1.754761,0.541687,0.952692676066107
0.170898,-0.933594,0.047119,1.670837,-2.487183,0.465393,0.9502757933363346
0.171143,-0.934326,0.045898,1.426697,-2.967834,0.434875,0.9509792990012979
0.171631,-0.936768,0.043701,1.304626,-3.372192,0.411987,0.9533631330117606
0.172119,-0.94043,0.039551,1.281738,-3.768921,0.396728,0.9568687562367161
0.174316,-0.938965,0.041504,1.235962,-3.959656,0.396728,0.9559099963369982
0.175537,-0.938477,0.046143,1.106262,-4.02832,0.465393,0.9558668810807287
0.174072,-0.939209,0.048828,0.88501,-4.203796,0.518799,0.9564511385580551
0.178711,-0.938721,0.051514,0.419617,-4.112244,0.671387,0.956968353477794
0.179199,-0.940186,0.050781,0.076294,-4.119873,0.900268,0.958457461840639
0.17749,-0.941895,0.047852,-0.205994,-4.241943,1.037598,0.959665934077583
0.175781,-0.937744,0.046143,-0.328064,-4.547119,1.00708,0.9551920989759076
0.177734,-0.938477,0.045166,-0.259399,-5.233764,1.022339,0.9562261353053471
0.178711,-0.938965,0.049805,-0.389099,-5.943298,1.113892,0.9571172502734449
0.181885,-0.943604,0.052734,-0.427246,-6.469726,1.159668,0.9624196261491138
0.187256,-0.943359,0.049805,-0.022888,-6.538391,1.014709,0.9630532438250753
0.190186,-0.9375,0.052002,0.267029,-6.149292,0.793457,0.9580089626929384
0.188477,-0.933594,0.053467,0.198364,-5.348205,0.709534,0.9539287481012405
0.189209,-0.933594,0.053955,-0.221252,-4.516602,0.816345,0.9541011186147934
0.190918,-0.935547,0.053955,-0.083923,-3.715515,0.694275,0.9563519299703431
0.193359,-0.936523,0.05249,-0.038147,-2.983093,0.579834,0.9577151103068177
0.190918,-0.939209,0.054932,0.1297,-2.182007,0.564575,0.9599899754835984
0.188721,-0.938721,0.054443,0.350952,-1.457214,0.534058,0.9590499319279472
0.1875,-0.935791,0.05542,0.312805,-0.831604,0.358582,0.9559981287016205
0.188965,-0.938232,0.055664,0.091553,-0.480652,0.282288,0.9586894898479903
0.186768,-0.942627,0.056152,-0.175476,-0.061035,0.335693,0.9625907718532315
0.187012,-0.943359,0.054688,0.0,0.389099,0.305176,0.9632707139579195
0.185303,-0.944824,0.05249,0.12207,0.846863,0.25177,0.9642534899522013
0.184082,-0.945801,0.053711,-0.068665,0.976562,0.167847,0.9650443439790733
0.182129,-0.946289,0.051758,0.12207,1.190186,0.061035,0.9650454573365962
0.184814,-0.946045,0.049316,0.518799,1.487732,-0.183105,0.9651888025029093
0.185303,-0.939453,0.045166,0.823975,1.770019,-0.37384,0.9586183331096897
0.182373,-0.938477,0.045166,0.740051,2.220154,-0.534058,0.9570992415700683
0.181641,-0.939209,0.046631,0.518799,2.593994,-0.610352,0.9577481134009088
0.182129,-0.938721,0.048828,0.221252,3.181457,-0.740051,0.9574718074523134
0.18335,-0.939209,0.048096,0.106812,3.715515,-0.846863,0.95814612319677
0.179688,-0.937256,0.048096,0.061035,4.203796,-0.770569,0.9555364001941526
0.172852,-0.937012,0.047607,-0.144958,4.333496,-0.63324,0.9540103398270902
0.170166,-0.938477,0.041992,-0.473022,4.119873,-0.511169,0.9547035535437165
0.167725,-0.938232,0.042969,-0.511169,3.456115,-0.679016,0.9540740518481781
0.166504,-0.940186,0.044189,-0.297546,2.624511,-0.892639,0.9558378337003615
0.165771,-0.939209,0.041504,-0.335693,1.899719,-0.930786,0.9546288033251458
0.168701,-0.94043,0.04248,-0.213623,1.289368,-0.823975,0.956385467633736
0.169434,-0.941406,0.04248,-0.015259,0.816345,-0.709534,0.9574746407043897
0.170166,-0.940674,0.039307,0.045776,0.495911,-0.617981,0.9567492263289269
0.172607,-0.939941,0.041992,0.0,0.366211,-0.411987,0.9565801524148408
0.168701,-0.942139,0.04248,-0.236511,0.091553,-0.160217,0.9580660066623802
0.168945,-0.945068,0.039551,-0.175476,-0.305176,0.045776,0.9608643084483885
0.17041,-0.943359,0.037842,0.328064,-0.846863,0.007629,0.9593736435534383
0.168945,-0.937256,0.04126,0.62561,-1.350403,-0.236511,0.9532542211608611
0.168213,-0.932617,0.044189,0.305176,-1.785278,-0.312805,0.9486952881610619
0.171875,-0.93457,0.046631,0.183105,-2.281189,-0.198364,0.9513866462621808
0.169189,-0.935059,0.04248,-0.038147,-2.929687,-0.274658,0.9511912539557962
0.171387,-0.937256,0.042969,-0.457764,-3.463745,-0.450134,0.9537655101050782
0.172119,-0.942139,0.04541,-0.930786,-3.936767,-0.595093,0.9588080692098914
0.175781,-0.943604,0.047607,-0.900268,-4.226685,-0.75531,0.9610171149495725
0.178711,-0.948975,0.05127,-0.709534,-4.325867,-0.747681,0.9670159176797454
0.181152,-0.950928,0.050537,-0.656128,-4.089355,-0.595093,0.9693472528753564
0.180908,-0.949707,0.04834,-0.37384,-3.723144,-0.411987,0.9679916559108348
0.179443,-0.94873,0.047119,0.183105,-3.410339,-0.389099,0.9666998517171708
0.176514,-0.942627,0.042236,0.801086,-3.456115,-0.541687,0.9599410049690554
0.173828,-0.937256,0.040039,0.968933,-3.738403,-0.724792,0.9540797160829906
0.177246,-0.938721,0.043457,0.991821,-4.081726,-0.854492,0.9562958596616425
0.18335,-0.937012,0.045654,0.991821,-4.142761,-0.915527,0.9558728986429106
0.188477,-0.937256,0.049072,0.968933,-3.707886,-1.022339,0.957277624437655
0.188965,-0.938232,0.049805,0.793457,-2.799988,-1.014709,0.9583671504564417
0.187012,-0.939453,0.049561,0.335693,-1.747131,-0.770569,0.9591672013126804
0.187012,-0.938721,0.045898,-0.022888,-0.778198,-0.587463,0.9582678281091357
0.185547,-0.937012,0.045654,-0.045776,0.099182,-0.526428,0.9562967452987592
0.178955,-0.939941,0.047607,-0.038147,0.63324,-0.38147,0.9580085604810639
0.177002,-0.939453,0.046631,-0.137329,0.541687,-0.297546,0.9571186433112668
0.175537,-0.94458,0.051025,-0.061035,0.007629,-0.495911,0.962106109217689
0.176758,-0.945313,0.051025,0.297546,-0.686645,-0.732422,0.9630491208437916
0.181152,-0.94458,0.056152,0.724792,-1.014709,-1.014709,0.9634316117960838
0.183838,-0.943115,0.05542,1.00708,-0.991821,-1.411438,0.9624623056873449
0.185303,-0.941895,0.055176,1.014709,-0.396728,-1.518249,0.9615340783404404
0.184082,-0.943604,0.053467,1.037598,0.419617,-1.571655,0.9628776722040032
0.181641,-0.942871,0.048584,1.098633,1.304626,-1.571655,0.9614362072327004
0.178467,-0.941895,0.043945,1.289368,1.815796,-1.670837,0.9596602649578652
0.176025,-0.942383,0.041748,1.51062,1.914978,-1.76239,0.9595902327650068
0.175049,-0.939697,0.040527,1.770019,1.754761,-1.754761,0.9567209843726644
0.173584,-0.938232,0.037109,1.518249,1.556396,-1.785278,0.9548757870848962
0.174805,-0.939697,0.041016,1.411438,1.403808,-1.533508,0.9566972102447043
0.174561,-0.939453,0.043701,1.159668,1.38092,-1.296997,0.9565318914343629
0.175049,-0.935547,0.043457,0.854492,1.472473,-1.12915,0.9527742925053132
0.175049,-0.936279,0.044922,0.358582,1.663208,-0.907898,0.9535609599422576
0.17334,-0.934082,0.044678,-0.160217,1.571655,-0.747681,0.9510794194009247
0.171631,-0.93335,0.039795,-0.541687,1.121521,-0.801086,0.9498331772927286
0.171631,-0.938477,0.037109,-0.801086,0.617981,-0.732422,0.9547635087135452
0.171875,-0.946289,0.035889,-0.88501,-0.030518,-0.617981,0.9624405994486102
0.172363,-0.95166,0.039307,-0.686645,-0.648498,-0.63324,0.9679415269622437
0.176514,-0.95459,0.041992,-0.244141,-1.304626,-0.846863,0.9716802912275211
0.181641,-0.952637,0.043945,0.495911,-1.525879,-1.037598,0.9707944528451942
0.181885,-0.949219,0.047119,1.068115,-1.335144,-1.274109,0.9676358113190107
0.180664,-0.943359,0.047119,1.274109,-0.915527,-1.182556,0.9616578830010182
0.179932,-0.938965,0.05127,0.88501,-0.518799,-1.205444,0.9574233174249518
0.178467,-0.940674,0.049072,0.205994,-0.167847,-1.296997,0.958710647457824
0.18042,-0.945313,0.04834,0.167847,-0.083923,-1.243591,0.9635895391550283
0.180908,-0.94751,0.046875,0.404358,0.175476,-1.274109,0.9657640344250763
0.179932,-0.945557,0.044922,0.953674,0.50354,-1.350403,0.9635722863163925
0.174561,-0.94043,0.045654,1.51062,0.717163,-1.335144,0.9575825893033978
0.171387,-0.9375,0.046143,1.678467,0.579834,-1.289368,0.9541535150163206
0.172363,-0.939453,0.042725,1.625061,0.221252,-1.190186,0.9560891007657184
0.176025,-0.942871,0.041748,1.647949,-0.114441,-1.029968,0.9600694864279355
0.175781,-0.941162,0.046875,1.953125,-0.320435,-1.12915,0.9585834005604312
0.177002,-0.938721,0.052246,2.082825,-0.228882,-1.182556,0.9566903722526949
0.177246,-0.93335,0.053223,1.63269,0.091553,-1.083374,0.9515203911346304
0.178467,-0.935547,0.04834,1.014709,0.396728,-0.762939,0.9536432325025959
0.176025,-0.938965,0.045898,0.50354,0.450134,-0.526428,0.9564239113771675
0.173584,-0.937744,0.04248,0.465393,0.152588,-0.511169,0.954620220292866
0.173096,-0.936279,0.041504,0.701904,-0.457764,-0.556946,0.9530494074668951
0.176514,-0.938965,0.04541,0.579834,-1.304626,-0.465393,0.9564907378124474
0.177246,-0.943848,0.047119,0.602722,-1.968384,-0.343323,0.9615016337900836
0.181885,-0.942627,0.051514,0.968933,-2.26593,-0.442505,0.9613956035628621
0.182617,-0.938232,0.055176,1.289368,-2.098083,-0.556946,0.9574302300893783
0.18335,-0.93335,0.050781,1.068115,-1.731872,-0.648498,0.9525429937598617
0.182373,-0.932129,0.051758,0.50354,-1.51062,-0.740051,0.9512114771879069
0.183838,-0.934814,0.053711,0.183105,-1.770019,-0.717163,0.9542318881493115
0.185547,-0.943359,0.053467,-0.312805,-2.120972,-1.014709,0.9629187983308872
0.186523,-0.949463,0.05127,-0.427246,-2.304077,-1.365662,0.9689682300251128
0.189453,-0.950195,0.052734,0.282288,-2.479553,-1.541138,0.9703318257122148
0.190918,-0.945313,0.056641,1.052856,-2.418518,-1.609802,0.9660613611846817
0.189697,-0.940186,0.055176,1.312256,-2.182007,-1.594543,0.9607179905575829
0.190674,-0.937988,0.058838,1.152039,-1.838684,-1.518249,0.9589786090753016
0.1875,-0.9375,0.05835,0.991821,-1.502991,-1.411438,0.9578450931648603
0.187744,-0.939209,0.059814,0.999451,-1.144409,-1.556396,0.9596557037880825
0.189209,-0.94043,0.062256,0.938415,-0.717163,-1.831055,0.9612931083270077
0.191406,-0.939941,0.058105,0.808716,-0.061035,-1.953125,0.9609898705720056
0.188965,-0.941406,0.055908,0.892639,0.785828,-1.914978,0.9618101333033459
0.187988,-0.942871,0.054443,1.235962,1.838684,-1.716614,0.9629689771918927
0.186279,-0.942871,0.056641,1.548767,2.616882,-1.434326,0.9627636217488693
0.184326,-0.939941,0.056641,1.838684,3.288269,-1.13678,0.9595172539553419
0.179443,-0.936768,0.058594,1.800537,3.784179,-0.999451,0.9555978928969026
0.18042,-0.934814,0.05835,1.518249,4.089355,-0.999451,0.9538518299484465
0.17749,-0.93457,0.054443,1.152039,4.119873,-0.938415,0.9528314778852555
0.17627,-0.93457,0.055908,0.816345,4.150391,-0.785828,0.9526898247929385
0.176025,-0.9375,0.050537,0.38147,4.020691,-0.610352,0.9552198903885952
0.176758,-0.942627,0.047852,0.061035,3.684997,-0.38147,0.9602493767751167
0.177246,-0.945068,0.049561,-0.076294,3.27301,-0.198364,0.9628218744196665
0.177979,-0.945801,0.048096,0.076294,2.853393,-0.114441,0.9636022422441741
0.179199,-0.942871,0.05127,0.511169,2.441406,0.053406,0.9611173794818196
0.177002,-0.9375,0.051514,0.671387,2.151489,-0.030518,0.9554525891952986
0.174561,-0.930908,0.048584,0.312805,1.686096,-0.083923,0.948378433032405
0.17334,-0.927979,0.049805,-0.106812,1.029968,-0.114441,0.945342434288232
0.175781,-0.929443,0.051514,-0.534058,0.213623,-0.411987,0.9473209289390793
0.176758,-0.932373,0.05127,-1.12915,-0.709534,-0.602722,0.9503638327467013
0.18042,-0.937744,0.051758,-1.434326,-1.426697,-0.579834,0.9563441203353529
0.180664,-0.94043,0.04834,-1.335144,-2.082825,-0.488281,0.9588455670210922
0.18335,-0.942383,0.050537,-1.029968,-2.494812,-0.442505,0.9613828215430105
0.184814,-0.94043,0.050537,-0.587463,-2.662658,-0.274658,0.959749335954446
0.182861,-0.939209,0.049072,-0.38147,-2.838135,-0.099182,0.9581021616644021
0.183838,-0.940186,0.049561,-0.419617,-2.990722,-0.022888,0.9592718163070361
0.183838,-0.938721,0.050781,-0.549316,-3.105163,-0.144958,0.9578999092003297
0.184326,-0.936768,0.052246,-0.541687,-3.27301,-0.267029,0.9561589850103381
0.185791,-0.93335,0.054932,-0.747681,-3.334045,-0.564575,0.9532460557510847
0.187988,-0.935547,0.052002,-1.00708,-3.112793,-0.640869,0.9556630605799306
0.189453,-0.939697,0.054443,-1.38855,-2.693176,-0.595093,0.9601494317381019
0.188965,-0.940186,0.054443,-1.609802,-2.098083,-0.549316,0.9605318974766012
0.189941,-0.941406,0.049561,-1.342773,-1.419067,-0.495911,0.9616543729625525
0.187988,-0.936035,0.048096,-1.152039,-0.549316,-0.511169,0.9559363130381646
0.187744,-0.935059,0.047363,-1.327515,0.198364,-0.328064,0.9548960135983394
0.189209,-0.935303,0.051025,-1.411438,0.999451,-0.045776,0.955612525093199
0.188477,-0.9375,0.053711,-1.693725,2.052307,-0.038147,0.9577654728846723
0.188477,-0.937988,0.053467,-1.785278,3.326416,0.022888,0.9582295068312184
0.189941,-0.935547,0.055176,-1.815796,4.653931,0.366211,0.9562270460858132
0.187012,-0.934082,0.049805,-1.831055,5.859375,0.663757,0.9539199174422348
0.182373,-0.936035,0.046631,-1.998901,6.370544,1.213074,0.9547753047261958
0.180176,-0.941162,0.046631,-2.067566,6.202697,1.571655,0.9593871749095879
0.174072,-0.945068,0.044922,-1.617432,5.294799,1.594543,0.9620148501410983
0.174561,-0.946289,0.046875,-0.999451,3.768921,1.152039,0.963395910239918
0.175537,-0.943115,0.048828,-0.366211,2.456665,0.595093,0.9605536503381786
0.177002,-0.941406,0.044678,0.0,1.274109,0.198364,0.9589426930343649
0.178223,-0.938721,0.045654,0.091553,0.328064,-0.022888,0.9565797621139599
0.177246,-0.9375,0.040771,0.068665,-0.434875,0.007629,0.9549788840372335
0.176025,-0.938965,0.038818,-0.053406,-1.13678,-0.083923,0.9561103016775837
0.176758,-0.943359,0.038086,-0.228882,-1.754761,-0.320435,0.9605311743202299
0.176514,-0.946289,0.036621,-0.144958,-2.464294,-0.656128,0.9633074075070741
0.175781,-0.94458,0.034668,0.175476,-3.059387,-0.907898,0.9614219711370237
0.173096,-0.941162,0.036621,-0.022888,-3.40271,-1.091003,0.9576477604531847
0.170898,-0.938965,0.037598,-0.213623,-3.974914,-0.999451,0.9551308848702361
0.17041,-0.936523,0.040039,-0.160217,-4.852295,-0.961304,0.952742367668196
0.167725,-0.932373,0.035889,-0.274658,-5.622863,-0.946045,0.9480185162089398
0.166748,-0.93042,0.034668,-0.785828,-6.324768,-0.610352,0.9458795600540272
0.169922,-0.933105,0.037109,-1.13678,-7.17163,-0.25177,0.9491762244125166
0.171875,-0.940186,0.039307,-1.419067,-7.843017,0.106812,0.9565750208269083
0.175781,-0.942627,0.040283,-1.365662,-8.262634,0.328064,0.959722533432971
0.177734,-0.944336,0.038818,-1.083374,-8.430481,0.495911,0.961699897460741
0.179688,-0.943115,0.039551,-0.907898,-8.308411,0.549316,0.9608943553637934
0.181641,-0.938232,0.041748,-0.862122,-8.003235,0.564575,0.9565644955824986
0.183594,-0.938965,0.043213,-0.930786,-7.575988,0.747681,0.9577209360925552
0.184326,-0.9375,0.045898,-1.068115,-7.019042,0.946045,0.956550547895928
0.181641,-0.937012,0.04248,-1.037598,-6.385803,1.045227,0.9554001734482782
0.182861,-0.937256,0.038574,-1.037598,-5.874633,1.022339,0.9557064969607562
0.182617,-0.934326,0.039063,-1.060486,-5.599975,0.968933,0.9528063606704146
0.181152,-0.93457,0.036621,-1.037598,-5.41687,1.029968,0.9526690031931342
0.183594,-0.936035,0.037598,-1.304626,-4.920959,1.266479,0.9546108566662124
0.187988,-0.943359,0.037842,-1.678467,-4.325867,1.396179,0.9626513948408322
0.188965,-0.94873,0.037842,-1.739502,-3.738403,1.434326,0.9681055733178071
0.188721,-0.950928,0.038818,-1.51062,-3.082275,1.571655,0.970250748079588
0.187012,-0.949707,0.038818,-1.365662,-2.479553,1.716614,0.968722721482778
0.185547,-0.946533,0.03833,-1.190186,-2.075195,1.861572,0.9653090687432704
0.185791,-0.942383,0.035889,-1.022339,-1.701355,1.838684,0.9611930267594537
0.182373,-0.935059,0.0354,-0.709534,-1.266479,1.831055,0.9533354103409775
0.179688,-0.932617,0.036621,-0.564575,-1.029968,1.686096,0.9504753251263286
0.182861,-0.93457,0.034668,-0.778198,-0.892639,1.716614,0.9529224000121941
0.182617,-0.935059,0.031006,-0.717163,-0.762939,1.678467,0.9532290775076051
0.181152,-0.9375,0.028809,-0.305176,-0.62561,1.495361,0.9552760101588441
0.180664,-0.933105,0.03125,0.167847,-0.526428,1.205444,0.9509474141197293
0.182861,-0.933594,0.029785,0.259399,-0.320435,1.327515,0.9517998993391416
0.179443,-0.939453,0.031982,-0.221252,-0.350952,1.625061,0.9569715658168743
0.180908,-0.941406,0.029541,-0.366211,-0.579834,1.64032,0.9590858313941458
0.183105,-0.942383,0.027344,-0.1297,-0.701904,1.76239,0.9603961963950086
0.18042,-0.941406,0.027832,-0.114441,-0.831604,1.998901,0.9589427790332434
0.176025,-0.945068,0.027832,-0.335693,-1.289368,2.174377,0.9617239445251428
0.175781,-0.949463,0.021484,-0.267029,-2.159119,2.311707,0.9658366893973328
0.172852,-0.946533,0.022217,0.244141,-3.585815,2.098083,0.9624427926282164
0.168457,-0.946045,0.02417,0.602722,-5.401611,1.571655,0.9612299890109547
0.17041,-0.945557,0.023682,0.732422,-7.308959,1.075745,0.9610819140286638
0.172363,-0.94165,0.026855,0.976562,-9.429932,0.648498,0.9576716124507398
0.174805,-0.943848,0.029297,1.052856,-11.505126,0.236511,0.9603458488159357
0.178711,-0.948486,0.029297,0.953674,-13.198852,-0.038147,0.9656198154170201
0.181396,-0.94751,0.03125,1.045227,-14.73236,-0.274658,0.9652234308262517
0.184814,-0.943115,0.033447,1.144409,-15.678405,-0.617981,0.9616344521854446
0.189209,-0.94165,0.037354,1.167297,-15.998839,-1.045227,0.9611972167547095
0.19043,-0.936768,0.047852,1.014709,-15.853881,-1.449585,0.9571246964883938
0.189697,-0.931396,0.045898,1.029968,-15.350341,-1.823425,0.9516249718397474
0.187988,-0.927002,0.042725,1.052856,-14.328002,-2.090454,0.9468355832841306
0.186523,-0.924805,0.039307,0.991821,-13.46588,-2.052307,0.9442458142893725
0.185059,-0.928223,0.045166,0.869751,-13.252257,-1.609802,0.9475678016722603
0.188721,-0.942627,0.048828,0.305176,-13.259887,-1.197815,0.962572309259933
0.195313,-0.957275,0.049561,0.358582,-13.008117,-0.808716,0.9782529766451007
0.19458,-0.968018,0.052734,1.144409,-12.641906,-0.457764,0.9887876918125549
0.19165,-0.969971,0.055176,2.334595,-12.596129,-0.289917,0.9902615080457283
0.188232,-0.965576,0.053711,3.39508,-12.771605,-0.213623,0.9852173207577098
0.185303,-0.967041,0.05542,3.684997,-13.397216,-0.160217,0.9861931220050159
0.181152,-0.972168,0.052002,4.219055,-14.86206,-0.328064,0.9902680825574457
0.179932,-0.971436,0.048096,5.500793,-16.464233,-0.793457,0.9891292392483401
0.179688,-0.960449,0.05127,7.453918,-18.371582,-1.289368,0.9784572917838571
0.188721,-0.944092,0.052979,9.002686,-20.217894,-2.029419,0.9642261636908636
0.197266,-0.927979,0.052246,9.780884,-20.530699,-3.181457,0.9501518529756178
0.199463,-0.910645,0.053467,9.368896,-18.722534,-3.65448,0.9337657760289783
0.199951,-0.902344,0.053711,7.881164,-16.273499,-3.852844,0.9257915360695409
0.196289,-0.903564,0.058838,5.973815,-13.916015,-4.043579,0.9265091385739269
0.193604,-0.913574,0.051758,4.447937,-12.832641,-4.508972,0.9352961311028716
0.193115,-0.918213,0.041504,4.234314,-11.825561,-4.997253,0.9392183444811967
0.196045,-0.912354,0.036621,4.989624,-10.543822,-4.440308,0.9338975109625253
0.199219,-0.90625,0.031006,5.653381,-8.56781,-3.410339,0.9284065082155553
0.201416,-0.904785,0.023193,5.462646,-5.531311,-2.151489,0.9272228516004122
0.203125,-0.908447,0.017334,4.798889,-2.227783,-0.320435,0.9310403777441664
0.201416,-0.916748,0.015137,4.264832,0.679016,1.808166,0.9387355481332322
0.191895,-0.922852,0.018311,4.043579,2.670288,3.707886,0.9427697479501557
0.186279,-0.927246,0.019775,3.707886,3.097534,4.417419,0.9459788903469253
0.183105,-0.923096,0.018311,3.379822,2.441406,4.829407,0.9412592411031087
0.178467,-0.922363,0.019287,2.319336,1.533508,5.142211,0.9396680063868302
0.17749,-0.935059,0.023926,0.518799,-0.137329,5.973815,0.9520559264334212
0.172119,-0.957764,0.025391,-1.869202,-3.257751,6.584167,0.97343799635005
0.162842,-0.985352,0.031006,-2.624511,-8.087158,6.179809,0.9991984051748681
0.156494,-0.994141,0.038818,-1.754761,-14.083861,3.616333,1.0071313405117526
0.160889,-0.990723,0.044189,0.305176,-18.669128,-0.930786,1.004674076888122
0.183838,-0.974365,0.055908,3.372192,-19.65332,-5.279541,0.9931310426791623
0.20166,-0.95166,0.065918,5.599975,-16.136169,-8.06427,0.9750224068830418
0.203369,-0.937744,0.074219,6.355285,-8.110046,-8.018494,0.962409070851891
0.196533,-0.930176,0.083008,6.149292,3.799438,-6.286621,0.9543285278817772
0.171387,-0.942383,0.095703,5.027771,17.13562,-3.692627,0.9626101426158983
0.145264,-0.968994,0.105225,3.700256,31.379698,0.167847,0.9854558855458726
0.099854,-0.999512,0.111572,4.425049,43.609615,5.271911,1.0106648161700296
0.045166,-1.027344,0.104004,7.17163,50.674435,10.437011,1.0335823595185825
-0.004639,-1.036133,0.091797,12.619018,51.528927,14.923095,1.040201808890467
-0.043945,-1.021729,0.10083,18.608093,44.05212,17.662048,1.0276322305990604
-0.055664,-0.985596,0.117432,23.597715,32.417297,16.845703,0.9941268685313761
-0.050781,-0.953857,0.132324,24.147032,19.65332,12.96997,0.9643295740492458
-0.043213,-0.951904,0.132324,21.095274,5.401611,8.69751,0.9620281854296161
-0.027588,-0.969971,0.121338,17.799377,-7.942199,6.576538,0.9779201137255538
-0.008057,-0.985352,0.109863,15.335082,-21.064756,5.805969,0.9914904729355699
-0.001465,-0.998535,0.09668,15.045165,-35.263062,5.424499,1.0032055197465772
0.007813,-0.993164,0.095215,16.448975,-50.094601,3.890991,0.9977482999684841
0.004395,-0.974121,0.104736,18.211365,-65.811157,1.89209,0.9797452058377218
-0.012695,-0.949219,0.110596,18.890381,-83.160393,-0.663757,0.9557245148064373
-0.000977,-0.933838,0.098389,18.02063,-100.700371,-4.356384,0.9390073269650241
0.050537,-0.914307,0.082031,16.876221,-115.852348,-7.774353,0.9193695467976954
0.112793,-0.895508,0.072998,15.419005,-125.061028,-9.468079,0.9055305333985154
0.165527,-0.87085,0.071289,13.816833,-126.594536,-9.422302,0.8893036780256787
0.19043,-0.85083,0.074707,11.58142,-121.643059,-8.277893,0.8750750880061664
0.188477,-0.842041,0.094482,8.049011,-113.449089,-6.660461,0.8680342582721031
0.171875,-0.847656,0.114014,3.128052,-105.842583,-5.981445,0.8723880456293518
0.16333,-0.86792,0.120117,-2.288818,-100.151054,-6.965637,0.8912855372937452
0.172363,-0.890625,0.116943,-6.576538,-95.626823,-8.239746,0.9146570721549142
0.188477,-0.904541,0.113525,-8.049011,-90.522758,-8.750916,0.9309167126198777
0.197021,-0.906738,0.121826,-7.247924,-82.580559,-8.155823,0.9358593106664057
0.193115,-0.901855,0.140137,-6.690979,-71.594238,-6.584167,0.9328848926952349
0.186035,-0.911133,0.166016,-8.43811,-59.532162,-4.508972,0.9446341499067245
0.179199,-0.944336,0.172363,-13.153075,-48.782345,-2.456665,0.9765202334135222
0.182373,-0.989014,0.136475,-16.418457,-38.604736,-1.060486,1.0149059212311256
0.20166,-1.022949,0.093506,-15.464782,-27.45056,0.915527,1.0468212761675224
0.210693,-1.023926,0.072754,-11.909484,-15.731811,3.036499,1.0479070274795375
0.211182,-1.009033,0.066162,-8.06427,-4.920959,4.295349,1.0330163805366301
0.207031,-0.999023,0.052979,-5.279541,3.890991,8.872986,1.0216239836314533
0.187988,-0.973633,0.051514,-5.531311,11.512755,16.50238,0.9929523649344917
0.174805,-0.954346,0.059082,-8.560181,19.607544,20.576475,0.9720204516701282
0.151855,-0.92041,0.056396,-9.773254,27.931211,20.477293,0.934556053932026
0.107666,-0.884521,0.058105,-10.604857,34.332275,17.486572,0.8929420798808846
0.041504,-0.860596,0.07666,-12.222289,35.720825,16.235352,0.8649998918103979
0.021484,-0.847656,0.075684,-16.403198,32.737732,14.86206,0.8512991979603881
0.037354,-0.852783,0.060547,-22.033689,27.412413,12.039184,0.8557453509157966
0.03125,-0.878174,0.03125,-26.832579,23.048399,10.604857,0.8792853343915159
0.007568,-0.929199,0.021729,-27.839659,16.921997,10.765075,0.9294838383027432
-0.003906,-0.972656,0.017334,-24.894712,10.169982,10.82611,0.9728182865921055
-0.001953,-1.000488,0.036621,-20.500181,6.500244,11.886596,1.0011599023103153
-0.004883,-1.010986,0.071777,-17.76123,4.234314,14.373778,1.0135425366574409
-0.035889,-1.026367,0.073242,-18.089294,2.845764,17.127991,1.0296026561611036
-0.093262,-1.040527,0.052002,-20.530699,-3.555298,17.875671,1.045991609133171
-0.110107,-1.046387,-0.000732,-21.827696,-20.729063,14.770507,1.0521643602793243
-0.062988,-1.050781,-0.051025,-22.02606,-44.021603,10.459899,1.0539031021540832
0.016113,-1.051514,-0.084229,-21.987913,-67.718506,6.690979,1.0550051399903226
0.083252,-1.047852,-0.097412,-21.77429,-87.089531,1.472473,1.0556579972472144
0.128174,-1.036133,-0.098877,-22.468565,-101.066582,-6.866455,1.048702450218364
0.159668,-1.024658,-0.127441,-21.728514,-113.449089,-16.273499,1.04482491148948
0.177246,-0.984863,-0.163574,-16.708374,-125.007622,-21.301268,1.0139663341359022
0.203125,-0.94165,-0.175781,-13.458251,-133.262634,-26.794432,0.9792157311267012
0.227295,-0.906738,-0.168213,-14.968871,-138.381958,-33.27179,0.9498065229498058
0.263428,-0.901367,-0.176758,-20.126341,-138.977051,-39.802551,0.9555627506537706
0.308838,-0.906738,-0.18457,-22.560118,-130.958557,-46.890255,0.9755105308442343
0.340332,-0.911133,-0.191895,-22.422789,-117.286674,-51.11694,0.9913692071766199
0.36499,-0.9104,-0.188477,-21.232603,-98.251335,-52.253719,0.9987839804627424
0.367188,-0.898438,-0.193604,-19.515991,-78.063965,-51.696774,0.9896971132644573
0.363525,-0.877441,-0.203125,-16.113281,-60.104366,-50.72784,0.9712429663740171
0.353271,-0.847656,-0.195068,-11.749267,-44.509884,-47.538754,0.9388144749635041
0.346191,-0.819092,-0.181885,-9.147644,-30.120848,-42.724606,0.907657460813274
0.3479,-0.801025,-0.173828,-7.209777,-17.356873,-37.322998,0.8904446272559569
0.342041,-0.782715,-0.163574,-4.875183,-5.386352,-31.127928,0.8697075775121199
0.334229,-0.766846,-0.151123,-2.39563,6.332397,-23.338316,0.8500588057811059
0.322998,-0.760986,-0.13916,-0.320435,17.456055,-15.373229,0.8383274454531476
0.314941,-0.766846,-0.130615,0.968933,27.633665,-8.224487,0.8392263695940446
0.30127,-0.784912,-0.125,1.541138,36.132813,-1.968384,0.8499855649621352
0.283447,-0.814453,-0.118652,3.15094,41.65649,3.837585,0.870490774288849
0.284668,-0.84668,-0.11499,7.110595,44.189449,9.994507,0.9006251121992991
0.295898,-0.862061,-0.106445,12.474059,45.036312,16.418457,0.9176248319166171
0.303467,-0.873779,-0.100586,18.318176,46.32568,23.048399,0.9304297417462535
0.306885,-0.880615,-0.088623,24.002073,48.629757,29.365538,0.9367578222673137
0.308105,-0.87915,-0.086182,28.70941,50.796505,34.965515,0.935553713395976
0.305176,-0.887695,-0.085693,31.990049,52.436825,40.344234,0.9425911596498241
0.297607,-0.905029,-0.091309,34.65271,53.527828,45.043941,0.9570709225397038
0.29248,-0.921143,-0.098145,37.765503,53.749081,48.805233,0.9714326625525828
0.287109,-0.929443,-0.109619,42.121883,53.054806,51.017757,0.978934212953557
0.272217,-0.922363,-0.116943,47.195431,51.078793,50.811764,0.9687782326760858
0.252197,-0.907471,-0.121826,52.192684,46.623226,48.950191,0.9497097013961688
0.240967,-0.88916,-0.123535,55.969234,39.016724,47.019955,0.9294791535661249
0.236572,-0.891602,-0.129883,57.121273,28.686522,45.722958,0.9315524844457235
0.234375,-0.915527,-0.138184,55.793758,16.769409,44.509884,0.9551000713066667
0.240479,-0.970215,-0.156006,53.482052,4.730225,42.907711,1.0116744376043116
0.243164,-1.043701,-0.177002,52.169796,-7.225036,40.245052,1.0861722774500369
0.242432,-1.117676,-0.198486,53.12347,-19.02771,36.247253,1.16076251136742
0.24707,-1.182129,-0.218506,56.564327,-30.868528,30.876158,1.2272805015875548
0.244385,-1.205566,-0.227051,61.790462,-43.098446,23.376463,1.2508659261415669
0.240234,-1.190186,-0.226074,67.192078,-56.465145,13.59558,1.2350564937799404
0.229736,-1.133545,-0.222412,71.098328,-72.143555,3.013611,1.1777818110605207
0.226807,-1.060059,-0.212891,72.303772,-89.805595,-6.523132,1.1047574741141153
0.22583,-0.986816,-0.197998,70.045471,-108.879082,-14.770507,1.031507738584641
0.231201,-0.925293,-0.186035,64.89563,-127.243034,-22.674559,0.9717150093906135
0.242432,-0.881592,-0.172119,58.143612,-142.974854,-30.197142,0.9303777078418206
0.250732,-0.840088,-0.149658,49.629208,-154.434204,-36.437988,0.8893884980884338
0.263672,-0.802979,-0.125244,38.497925,-161.025986,-41.702267,0.8543911619164842
0.269043,-0.781738,-0.111572,24.528502,-164.367661,-45.753475,0.8342342283058158
0.269287,-0.804688,-0.063232,0.419617,-165.435776,-41.854855,0.850903373795756
0.278076,-0.8479,-0.005615,-28.244017,-162.933334,-35.385132,0.8923520605685852
0.300293,-0.862061,0.024658,-49.72839,-165.748581,-35.400391,0.9131993596876861
0.273193,-0.854248,0.074951,-74.111938,-164.49736,-31.219481,0.8999953961848917
0.197998,-0.860596,0.081055,-96.076958,-165.412888,-34.255981,0.8867911796161485
0.123779,-0.903076,0.080078,-113.304131,-173.965439,-40.351864,0.9150300479771142
0.082764,-0.952148,0.061035,-132.720947,-185.981735,-39.1922,0.9576852117606286
0.080078,-0.959229,-0.103516,-145.172119,-203.742966,-44.235226,0.9681158622711437
0.128174,-0.935059,-0.303223,-151.351929,-213.760361,-48.545834,0.9913163448092641
0.22998,-0.944824,-0.437012,-155.395508,-208.435043,-47.981258,1.0660969372059934
0.273438,-0.927002,-0.555176,-147.109985,-191.20787,-46.249386,1.1145947419685776
0.32373,-0.862305,-0.584961,-133.384705,-163.627609,-47.927853,1.091123456555673
0.601074,-0.817383,-0.521973,-126.579277,-125.480644,-55.046078,1.1409911195508928
0.842529,-0.903564,-0.519043,-128.395081,-67.321777,-49.621578,1.3400330793625954
0.853027,-0.994873,-0.49292,-117.271416,13.641356,-29.701231,1.4001419482531048
0.959961,-1.183838,-0.252441,-88.98925,106.933586,0.137329,1.5449025827688943
0.982178,-1.310059,-0.023193,-43.30444,218.43718,42.785641,1.6375182815510794
0.617188,-1.085205,0.049072,3.39508,249.992355,83.755486,1.249399447956097
-0.013428,-0.946777,0.180664,8.255005,249.839767,116.912834,0.9639535672474063
-0.631104,-1.030029,0.345459,-7.125854,249.107346,135.673523,1.2564210760481536
-0.982666,-1.146729,0.421875,-16.220093,248.321518,120.124809,1.5679918311719612
-0.841553,-1.229004,0.346436,-21.041868,186.775192,75.538635,1.5292743985044017
-0.387939,-1.215332,0.197266,-16.494751,88.027946,36.964417,1.2909075926265987
-0.002686,-1.118408,0.108154,-9.45282,40.222164,21.865843,1.123628478090512
0.144287,-1.015869,0.046875,-7.125854,26.336668,22.14813,1.0271347667930435
0.131104,-0.950684,-0.063232,-6.355285,19.416809,20.851133,0.9617622432264639
0.130859,-0.915283,-0.145996,-4.928589,13.916015,14.617919,0.9360458749366934
0.176758,-0.873535,-0.192139,-3.715515,10.787963,8.506775,0.9117149675803288
0.186279,-0.833252,-0.224854,-4.707336,9.33075,5.653381,0.8829315277307749
0.175537,-0.808838,-0.250732,-7.286071,10.383605,4.119873,0.8648113577173926
0.174072,-0.787354,-0.271729,-9.468079,12.08496,1.708984,0.8509195214243237
0.166992,-0.772705,-0.285889,-12.229918,13.122558,0.770569,0.8406496686551419
0.164551,-0.776367,-0.290527,-15.762328,14.144897,0.823975,0.8451205168607611
0.170654,-0.800537,-0.287598,-19.66095,14.892577,1.205444,0.8675799016165601
0.173584,-0.834717,-0.299072,-22.956846,16.50238,3.227234,0.9035086808265874
0.182861,-0.87207,-0.314697,-24.604795,19.798279,5.821228,0.9449753605412154
0.178223,-0.897949,-0.314209,-24.765013,24.070738,8.44574,0.9678859127040749
0.158936,-0.923584,-0.319336,-24.67346,29.502867,11.535644,0.990072491309601
0.130615,-0.947266,-0.313965,-22.6593,33.279419,14.22119,1.0064527679955975
0.10376,-0.963867,-0.28833,-18.234253,32.348633,15.335082,1.0114049239493548
0.095947,-0.967529,-0.255859,-12.397765,26.931761,13.816833,1.0053765565851434
0.089844,-0.955078,-0.231689,-5.233764,17.425537,8.94928,0.9868767517481603
0.091309,-0.937256,-0.199219,1.220703,4.821777,2.983093,0.9625353775202239
0.115479,-0.915527,-0.172363,6.462097,-9.750366,-1.914978,0.9387406941956868
0.151367,-0.887451,-0.156006,10.269164,-22.743223,-5.706787,0.9136843646062901
0.183105,-0.859375,-0.157715,12.130736,-32.226563,-8.06427,0.8927075965146706
0.226074,-0.844482,-0.175049,11.482238,-35.675049,-7.446289,0.8915724615537427
0.259766,-0.84082,-0.188477,9.963989,-32.432556,-4.28772,0.899989014757958
0.260498,-0.842773,-0.214844,9.010315,-25.283812,0.358582,0.9079005903010527
0.246338,-0.851318,-0.232178,8.308411,-17.158508,4.753113,0.9161502993788738
0.217529,-0.850342,-0.255127,8.56781,-9.986877,7.469177,0.9140515132824845
0.190674,-0.840576,-0.288574,8.56781,-5.142211,9.109497,0.9089551911552076
0.168213,-0.836914,-0.310059,6.370544,-3.051758,10.116576,0.9082165161711165
0.161133,-0.850342,-0.312256,2.861023,-2.586365,10.520934,0.9200810671832129
0.170166,-0.866455,-0.308838,0.289917,-3.318786,9.735107,0.9354579866701658
0.186279,-0.868164,-0.306641,-1.426697,-4.081726,7.995605,0.9393813387639761
0.201172,-0.859619,-0.297363,-3.265381,-4.241943,5.676269,0.9315791713611893
0.206055,-0.854248,-0.281982,-6.04248,-4.150391,3.578186,0.9228825260308053
0.211426,-0.862061,-0.26001,-9.124756,-5.340576,1.411438,0.924908277234559
0.228027,-0.883545,-0.23291,-11.665343,-7.858276,-1.495361,0.9417511071689803
0.247314,-0.912109,-0.199707,-12.519835,-10.726928,-4.936218,0.9659140377518074
0.268066,-0.938721,-0.17334,-11.390685,-11.940001,-8.049011,0.991515633662425
0.292725,-0.955322,-0.152832,-7.6828,-10.726928,-10.604857,1.010784680104027
0.306641,-0.961914,-0.137207,-3.486633,-7.026672,-10.787963,1.018888122968366
0.296875,-0.954346,-0.135498,0.518799,-1.174927,-9.376526,1.0085984143081923
0.265381,-0.922363,-0.148682,4.364014,5.149841,-8.712769,0.9712295897747351
0.231934,-0.884521,-0.160156,4.882813,9.979248,-8.163452,0.9283429991834915
0.204102,-0.876709,-0.167969,2.090454,12.191772,-6.401062,0.9156909315080061
0.175537,-0.894775,-0.177246,-0.518799,12.496947,-3.448486,0.9288981017905031
0.14917,-0.922119,-0.191895,-1.785278,12.023925,0.389099,0.9536135643362043
0.133301,-0.949951,-0.193848,-1.373291,11.322021,3.608703,0.9786486121719071
0.107178,-0.9646,-0.192139,2.76947,9.490967,5.599975,0.9893723662024324
0.086426,-0.950439,-0.207275,6.889343,5.279541,6.713867,0.9766097848281063
0.072754,-0.921387,-0.224854,7.873535,-0.87738,4.501343,0.9512131567640346
0.074219,-0.897949,-0.23999,7.080078,-7.614135,1.457214,0.9324248316416718
0.100098,-0.885742,-0.247559,5.310058,-14.068603,-0.434875,0.9251183484554827
0.113037,-0.884766,-0.245361,3.509521,-19.78302,-2.120972,0.9250893245768217
0.118408,-0.885986,-0.246338,1.853943,-24.406431,-3.456115,0.927186096155459
0.138672,-0.887451,-0.256348,0.526428,-28.938292,-5.546569,0.9340843099469127
0.148193,-0.882813,-0.265869,-0.343323,-33.447266,-8.262634,0.9338127667680497
0.157471,-0.884766,-0.27124,-1.289368,-37.437439,-9.918213,0.9387114190191787
0.172607,-0.893555,-0.26416,-2.670288,-40.771481,-10.69641,0.9476361221872033
0.191895,-0.901855,-0.256104,-3.250122,-42.846676,-11.756896,0.9569510911567006
0.225098,-0.918213,-0.244141,-4.112244,-42.686459,-11.772155,0.9764164331134538
0.250732,-0.928955,-0.242432,-3.555298,-40.512081,-10.986327,0.9922687148514762
0.258057,-0.922852,-0.23999,-1.304626,-36.445618,-10.154723,0.9878483837376058
0.265137,-0.906738,-0.236084,1.075745,-31.944273,-9.429932,0.973759253855387
0.281006,-0.884521,-0.235352,2.357483,-26.916502,-8.56781,0.9574614015097423
0.297119,-0.870117,-0.234619,2.258301,-21.614073,-7.8125,0.9489095684052301
0.309082,-0.868652,-0.239258,1.861572,-15.014647,-5.836486,0.9525399573729177
0.308838,-0.870361,-0.240723,1.342773,-6.698608,-3.059387,0.9543881512749413
0.292969,-0.867676,-0.244141,1.304626,0.068665,-1.411438,0.9477854735213027
0.270508,-0.859863,-0.25415,1.686096,4.188538,-0.717163,0.9365528171614242
0.26709,-0.85376,-0.254395,1.251221,6.530761,-1.426697,0.9300322691847848
0.268799,-0.853027,-0.252197,-0.221252,8.346558,-1.838684,0.9292530828245876
0.269531,-0.859863,-0.258057,-2.380371,10.002136,-1.091003,0.9373391883299237
0.280029,-0.873535,-0.251465,-3.112793,12.741088,-0.801086,0.951164698299406
0.270996,-0.890381,-0.246094,-0.442505,17.463684,-0.968933,0.9626938319180195
0.241699,-0.879395,-0.243652,1.823425,22.102354,-0.190735,0.9439916682524269
0.213135,-0.880859,-0.244385,1.274109,23.658751,-0.686645,0.9386496334261256
0.186035,-0.882813,-0.249756,0.297546,22.758482,-2.403259,0.9361334700404638
0.185059,-0.894775,-0.255127,-1.014709,20.294188,-4.455566,0.9486616468662575
0.194092,-0.932129,-0.269043,-0.88501,16.868591,-4.394531,0.9894040190710769
0.215332,-0.949707,-0.269775,1.159668,15.151977,-3.334045,1.0104898845104784
0.190918,-0.951172,-0.263672,3.486633,15.663146,-4.592896,1.0053361526832705
0.164307,-0.939209,-0.263916,5.470275,15.380858,-6.629943,0.9893240070805924
0.16333,-0.923096,-0.26001,5.859375,12.779235,-8.262634,0.9728248116778273
0.186035,-0.91748,-0.266113,4.074097,10.894774,-6.561279,0.9732392821880957
0.196289,-0.915771,-0.270508,1.976013,11.932372,-3.456115,0.974854078324546
0.187012,-0.913086,-0.272949,-0.366211,14.533996,-2.601623,0.9711851976533621
0.185791,-0.920654,-0.267334,-1.487732,18.371582,-2.601623,0.9765190991235143
0.184814,-0.912842,-0.256348,-0.541687,22.201536,-1.091003,0.9659974268412934
0.174561,-0.890869,-0.236084,-0.640869,24.826048,1.266479,0.9380057424866864
0.160645,-0.883789,-0.22583,-2.464294,26.222227,3.517151,0.9262229760948495
0.139404,-0.896973,-0.217041,-4.585266,25.413511,5.432128,0.9333278275214985
0.11377,-0.909668,-0.213135,-5.249023,21.438597,6.614685,0.9412045534043065
0.101318,-0.91626,-0.206787,-4.554749,14.457702,6.050109,0.9447531889827099
0.109375,-0.918945,-0.198975,-3.158569,5.889892,3.746032,0.9465800833923139
0.138916,-0.917236,-0.195313,-1.708984,-2.067566,0.640869,0.9480330704785568
0.166504,-0.909424,-0.194824,0.0,-7.827758,-1.914978,0.9448449527663256
0.18457,-0.898682,-0.196777,1.220703,-11.184691,-3.303528,0.9383051794341754
0.201416,-0.886719,-0.206055,1.823425,-13.008117,-3.540039,0.9323613318032876
0.219482,-0.874756,-0.21582,1.930237,-13.664245,-3.280639,0.9273341793873446
0.229248,-0.869385,-0.225342,1.464844,-12.916564,-2.830505,0.9269109669720172
0.229736,-0.874756,-0.221924,0.62561,-11.367797,-1.693725,0.931250208594876
0.231445,-0.888428,-0.221924,-0.1297,-9.628296,-0.274658,0.944521763108188
0.232422,-0.895508,-0.225098,0.183105,-8.636475,-0.106812,0.952167881075601
0.237305,-0.903076,-0.231934,0.724792,-8.201599,-0.175476,0.9621087803138478
0.240723,-0.907227,-0.237549,1.319885,-7.637023,0.320435,0.9682137778708791
0.241943,-0.901123,-0.243408,1.876831,-6.507873,0.137329,0.9642647617962611
0.240967,-0.899658,-0.246826,2.01416,-4.714966,-0.312805,0.9635209838550481
0.240234,-0.9021,-0.252686,1.907349,-2.731323,-0.686645,0.9671333927395952
0.243164,-0.904785,-0.256836,0.984192,-1.014709,-0.396728,0.9714573372088966
0.25,-0.915771,-0.25708,-0.694275,0.564575,0.62561,0.983476817642897
0.254639,-0.926025,-0.264404,-1.12915,2.838135,1.831055,0.9961289053942768
0.256836,-0.933594,-0.275879,-0.37384,6.828308,4.272461,1.00681264909267
0.251465,-0.927979,-0.274414,0.724792,12.199401,7.255554,0.9998413444452074
0.234375,-0.911133,-0.263916,0.87738,17.738342,8.872986,0.97711137511033
0.213623,-0.901611,-0.253906,0.518799,21.934507,8.682251,0.9607317202455636
0.202393,-0.89209,-0.237793,0.244141,23.742674,8.094788,0.9451629517696937
0.190918,-0.879639,-0.211182,0.007629,23.452757,7.751464,0.9245605930218959
0.176025,-0.87793,-0.184082,-1.052856,20.935057,7.339477,0.9141291310580797
0.164795,-0.887451,-0.168701,-1.930237,16.464233,6.408691,0.9182519789398769
0.157227,-0.904541,-0.1604,-2.555847,11.375426,5.096435,0.9320101449072323
0.156738,-0.916748,-0.166016,-2.449036,6.027221,4.142761,0.9447512944706664
0.16626,-0.922607,-0.177734,-1.495361,0.602722,3.265381,0.9541674060692914
0.17749,-0.916992,-0.187744,0.030518,-3.89862,1.747131,0.9526934647093996
0.188477,-0.904053,-0.195801,1.365662,-7.125854,0.541687,0.9440198292085819
0.201172,-0.89624,-0.198486,1.930237,-9.017944,-0.419617,0.9397409235422282
0.213623,-0.894531,-0.201904,1.586914,-9.864807,-0.679016,0.9415868102867626
0.22583,-0.897949,-0.207031,1.091003,-9.58252,-0.526428,0.9487746995267107
0.236328,-0.899902,-0.21582,1.159668,-7.92694,-0.488281,0.9551192624944803
0.235107,-0.895752,-0.225586,1.754761,-5.66864,-0.312805,0.9531715429811152
0.231201,-0.894531,-0.240234,1.487732,-3.662109,0.62561,0.9546475722055757
0.237061,-0.907471,-0.26001,-0.076294,-1.655578,2.937317,0.973296837384156
0.238037,-0.916748,-0.269531,-0.640869,1.144409,4.432678,0.9847514756698768
0.230713,-0.918701,-0.262939,0.320435,4.318237,4.875183,0.983044726088798
0.226318,-0.910156,-0.250977,1.625061,7.240295,4.15802,0.9708724097372424
0.216797,-0.893066,-0.235596,2.182007,9.674072,2.853393,0.9487219270054846
0.208008,-0.882813,-0.217285,1.831055,11.58142,2.243042,0.9326515384954875
0.199951,-0.882324,-0.20166,0.50354,12.626647,2.304077,0.9268995625077185
0.183838,-0.887695,-0.191406,-0.640869,12.435912,2.029419,0.9265177171025928
0.164551,-0.893311,-0.187256,-1.190186,10.848998,1.274109,0.9274407710781319
0.157959,-0.894775,-0.187012,-1.419067,7.827758,0.068665,0.9276566360728521
0.163086,-0.904053,-0.190186,-1.831055,4.28009,-0.976562,0.9381255698471287
0.173584,-0.917725,-0.193604,-1.770019,0.823975,-1.327515,0.9538517125303073
0.182129,-0.931885,-0.194824,-1.464844,-1.724243,-0.663757,0.9692971767430255
0.186279,-0.93457,-0.204834,0.0,-3.02124,-0.061035,0.9747194049043038
0.184082,-0.918457,-0.211426,1.701355,-3.456115,-0.152588,0.9602866223419964
0.182861,-0.909668,-0.212158,2.01416,-3.601074,-0.12207,0.9518114479816893
0.189209,-0.90625,-0.214844,1.747131,-3.875732,-0.221252,0.9503931042032029
0.191406,-0.900635,-0.217773,1.670837,-4.150391,-0.442505,0.9461525984691898
0.199707,-0.897461,-0.22168,1.541138,-4.226685,-0.961304,0.9457595649899608
0.20459,-0.89624,-0.229004,1.113892,-4.081726,-1.220703,0.9473890635404232
0.197754,-0.90918,-0.223877,-0.213623,-3.875732,-0.732422,0.9569931180760914
0.179932,-0.92334,-0.2229,-0.343323,-4.562378,-0.411987,0.9667557552060396
0.177002,-0.924805,-0.225586,1.022339,-5.874633,-1.159668,0.9682370781089722
0.184326,-0.913818,-0.226563,2.380371,-7.102966,-2.311707,0.9593592676203218
0.189209,-0.895508,-0.227051,2.571106,-7.957458,-2.662658,0.9430200317840549
0.196289,-0.894531,-0.219727,1.754761,-8.476257,-2.6474,0.9418041388797354
0.200684,-0.90332,-0.212646,0.88501,-8.773804,-2.426147,0.9494626962508849
0.203613,-0.905273,-0.210205,0.816345,-8.903503,-2.311707,0.9514008620571037
0.208496,-0.899658,-0.218506,1.220703,-8.773804,-2.349854,0.9489994578586438
0.211914,-0.893555,-0.227295,1.220703,-8.209229,-2.075195,0.9460502621140168
0.212158,-0.895996,-0.223389,0.411987,-6.988525,-1.243591,0.9474821867987809
0.212646,-0.905518,-0.223389,-0.267029,-5.691528,-0.183105,0.9566001332641555
0.218506,-0.9104,-0.225586,-0.114441,-4.562378,0.244141,0.9630483245569766
0.221924,-0.907227,-0.228027,0.434875,-3.257751,0.335693,0.9614090721612731
0.216553,-0.902344,-0.22583,0.762939,-2.01416,0.396728,0.9550492579155276
0.213135,-0.897949,-0.221436,1.121521,-1.106262,0.038147,0.949090531467889
0.217773,-0.894531,-0.215088,0.953674,-0.350952,-0.518799,0.9454489077861373
0.218018,-0.893311,-0.216797,0.320435,0.526428,-0.320435,0.9447419384435095
0.219482,-0.898926,-0.220947,-0.541687,1.88446,0.518799,0.9513452993571787
0.218506,-0.906006,-0.222412,-0.831604,3.608703,1.312256,0.9581538716803267
0.212402,-0.908691,-0.223877,-0.526428,5.447387,2.029419,0.9596639277444995
0.208252,-0.907227,-0.218994,-0.343323,7.04956,2.227783,0.956236423207671
0.200439,-0.906982,-0.214844,-0.282288,7.965087,2.204895,0.9533887378089799
0.191406,-0.906006,-0.213379,-0.312805,7.568359,2.197266,0.9502703439090373
0.192139,-0.902344,-0.213379,-0.320435,6.523132,1.663208,0.9469280264613569
0.197754,-0.903076,-0.212158,-0.473022,5.897521,1.098633,0.9485061535150945
0.195068,-0.907471,-0.211914,-1.014709,6.004333,1.602173,0.9520833387162072
0.184814,-0.909912,-0.2146,-1.075745,6.370544,1.853943,0.9529686365982881
0.182617,-0.908691,-0.218018,-0.595093,6.004333,1.686096,0.9521555285214701
0.182129,-0.907471,-0.217773,-0.152588,4.943848,1.815796,0.9508415577849971
0.179688,-0.906982,-0.213379,-0.038147,3.585815,1.976013,0.9489123896909556
0.183838,-0.908691,-0.213135,-0.183105,2.304077,1.968384,0.9512845378486923
0.190186,-0.90918,-0.213623,0.190735,1.502991,1.708984,0.9531074300019908
0.187744,-0.907471,-0.217285,0.419617,0.747681,1.617432,0.9518215150972372
0.182373,-0.908447,-0.223877,0.12207,-0.694275,1.663208,0.9532348997319601
0.19043,-0.91626,-0.229248,-0.152588,-2.090454,1.243591,0.9635095318698201
0.198975,-0.917725,-0.223389,0.106812,-2.723694,1.029968,0.9652527500976105
0.203369,-0.915283,-0.217285,0.907898,-2.708435,1.152039,0.9624524359546294
0.205322,-0.90918,-0.215576,1.564026,-2.250671,0.793457,0.9566809331537867
0.208496,-0.901611,-0.213623,1.502991,-1.693725,0.572205,0.9497408928049798
0.204834,-0.903564,-0.210205,0.854492,-1.411438,0.938415,0.9500373738316825
0.199951,-0.903076,-0.212646,0.183105,-1.251221,1.251221,0.9490758586609397
0.199219,-0.906982,-0.213135,-0.267029,-1.457214,1.068115,0.9527492254050904
0.200928,-0.910645,-0.2146,-0.358582,-2.151489,0.740051,0.9569219075812821
0.206055,-0.915283,-0.212891,-0.259399,-2.6474,0.228882,0.9620416888030372
0.208008,-0.914795,-0.21875,0.12207,-2.609253,-0.099182,0.9633113632616404
0.216553,-0.911621,-0.224121,0.740051,-1.403808,-0.175476,0.9634200911808929
0.221191,-0.907715,-0.224121,1.213074,0.663757,-0.076294,0.9607820784897063
0.212646,-0.902832,-0.219482,1.64032,2.632141,0.457764,0.9531507172866209
0.201904,-0.895752,-0.217773,1.678467,4.013062,1.113892,0.943695899243501
0.197266,-0.894531,-0.215088,1.228333,4.714966,1.13678,0.9409369970731303
0.193604,-0.893799,-0.219238,0.984192,4.966736,0.770569,0.9404384412926771
0.196777,-0.89209,-0.217285,0.610352,4.959106,0.869751,0.9390199822442545
0.199463,-0.892578,-0.221191,-0.205994,5.104064,1.304626,0.9409603779830477
0.20166,-0.898438,-0.220947,-1.121521,5.760192,1.716614,0.9469293385744261
0.197021,-0.907959,-0.217529,-1.770019,6.42395,2.403259,0.9542146959479297
0.188721,-0.918457,-0.215576,-1.625061,6.713867,3.318786,0.9621080440709349
0.181641,-0.917236,-0.218018,-0.747681,6.729125,3.27301,0.9601287314214694
0.177246,-0.912842,-0.218506,-0.053406,6.309509,2.792358,0.9552180554805274
0.175293,-0.908691,-0.211182,0.442505,5.508422,2.418518,0.9492337996795099
0.17627,-0.90332,-0.214844,0.358582,4.211426,1.823425,0.9451010949290027
0.185791,-0.901611,-0.220703,-0.236511,2.929687,1.075745,0.9466416984324111
0.190918,-0.904541,-0.218018,-0.801086,2.067566,0.549316,0.9498294329662563
0.195313,-0.907227,-0.219971,-0.900268,1.907349,0.679016,0.9537270250648243
0.19873,-0.909668,-0.224609,-0.88501,2.555847,0.976562,0.9578301968538057
0.200195,-0.913574,-0.224609,-1.083374,3.837585,1.594543,0.9618444231693606
0.199219,-0.91333,-0.2229,-1.00708,5.332946,2.006531,0.9610121273225432
0.19165,-0.912109,-0.219727,-0.724792,6.629943,2.243042,0.9575763702754991
0.185303,-0.915527,-0.217285,-0.671387,7.003784,2.792358,0.9590305838517351
0.182617,-0.917236,-0.214844,-0.167847,6.568908,2.929687,0.9595982454761993
0.179443,-0.90918,-0.210449,0.259399,5.897521,2.578735,0.9503140766346672
0.177979,-0.904785,-0.21167,-0.076294,5.073547,2.540588,0.9461060244845712
0.181152,-0.908203,-0.214355,-0.839233,3.982544,2.418518,0.9505770891085057
0.189453,-0.909912,-0.218018,-0.854492,3.532409,2.182007,0.9546539348250758
0.194092,-0.908203,-0.218506,-0.694275,3.929138,2.189636,0.954069843202792
0.193359,-0.907959,-0.217529,-0.595093,4.714966,2.723694,0.9534653189303741
0.195801,-0.910645,-0.216553,-0.640869,5.401611,3.15094,0.9562988808081917
0.196777,-0.91333,-0.217773,-0.75531,6.065368,3.074646,0.9593320364493203
0.192383,-0.912842,-0.219971,-0.671387,6.645202,3.295898,0.9584774261786243
0.191162,-0.91333,-0.22876,-0.50354,7.202148,3.433227,0.9607526928112146
0.192627,-0.912842,-0.228271,-0.328064,7.621765,3.112793,0.9604651620615919
0.192383,-0.905762,-0.224121,-0.160217,8.255005,2.777099,0.9527046982008642
0.188721,-0.903564,-0.215576,-0.213623,8.834839,2.6474,0.9479011181093733
0.184082,-0.901611,-0.214111,-0.595093,9.162903,2.624511,0.9447920926669529
0.182617,-0.902344,-0.212646,-1.13678,9.544373,2.441406,0.9448767032481011
0.181641,-0.902588,-0.214355,-1.686096,10.185241,2.166748,0.94530768358773
0.170654,-0.905273,-0.215332,-2.029419,10.681151,2.426147,0.946049608883699
0.163818,-0.910156,-0.2146,-2.204895,10.597228,2.700805,0.9493542233855601
0.162842,-0.916016,-0.214111,-2.082825,9.590149,2.716064,0.9546969935749249
0.161133,-0.92041,-0.208496,-1.815796,8.110046,2.548218,0.957386543567957
0.157959,-0.925537,-0.206055,-1.434326,6.385803,2.14386,0.9612639840725337
0.158447,-0.923584,-0.20874,-0.900268,4.577637,1.358032,0.9600443971322368
0.165527,-0.915527,-0.209961,-0.366211,3.27301,0.50354,0.9537675277440514
0.170898,-0.908691,-0.210205,-0.228882,2.593994,0.0,0.9482149555401455
0.170898,-0.904785,-0.211182,-0.587463,2.334595,-0.038147,0.9446903512543143
0.175049,-0.906494,-0.209229,-1.121521,2.39563,0.160217,0.9466521530520068
0.179932,-0.912842,-0.211182,-1.89209,2.670288,0.541687,0.9540722607391958
0.181641,-0.924072,-0.213379,-2.388,2.89154,1.281738,0.9656257617244892
0.181885,-0.928467,-0.21582,-1.869202,3.265381,1.266479,0.9704181550826427
0.179688,-0.92627,-0.217529,-0.907898,3.166198,0.984192,0.9682885706673399
0.177246,-0.920898,-0.209229,0.053406,3.089905,0.617981,0.9608569328266305
0.172119,-0.912598,-0.21167,0.617981,2.853393,0.320435,0.9525041987650239
0.172363,-0.906738,-0.208252,0.427246,2.388,0.198364,0.9461774146094378
0.17749,-0.906982,-0.20752,-0.053406,2.174377,0.450134,0.9471977612009014
0.178711,-0.909424,-0.20459,-0.556946,2.304077,0.923157,0.9491294439627295
0.179932,-0.915283,-0.206787,-0.823975,2.525329,1.464844,0.9554472031891662
0.18335,-0.919189,-0.213379,-0.671387,2.754211,1.770019,0.9612784392994571
0.1875,-0.918457,-0.215576,-0.267029,2.838135,1.411438,0.9618692856230517
0.189697,-0.913086,-0.213379,0.213623,2.975464,0.869751,0.9566825977543439
0.188965,-0.915039,-0.214355,0.076294,3.189087,0.88501,0.9586199501215277
0.187012,-0.920654,-0.216553,-0.473022,3.387451,1.602173,0.9640915297154103
0.190674,-0.922363,-0.220947,-0.259399,4.005432,1.76239,0.9674335402775739
0.193359,-0.91748,-0.220215,0.198364,5.271911,1.525879,0.9631468732784216
0.186279,-0.910889,-0.213379,0.572205,6.568908,1.434326,0.9539125923285634
0.172363,-0.908203,-0.209717,0.434875,7.026672,1.480102,0.9479044852024913
0.17334,-0.914307,-0.208252,-0.267029,6.721496,1.144409,0.9536104767424696
0.181641,-0.91748,-0.208008,-0.63324,6.378173,0.450134,0.9581389937503848
0.18042,-0.920654,-0.212891,-0.556946,6.355285,0.068665,0.962017537260626
0.175049,-0.926758,-0.208984,-0.465393,6.179809,0.450134,0.9660211463632667
0.167969,-0.929688,-0.203125,0.015259,5.378723,0.862122,0.9663297200904047
0.169678,-0.923828,-0.204834,1.190186,4.631042,0.679016,0.9613562112058152
0.172363,-0.913818,-0.203613,1.869202,4.104614,0.404358,0.9519614459955824
0.166992,-0.913574,-0.202637,1.525879,3.52478,0.63324,0.9505606426257086
0.160889,-0.915039,-0.202637,0.976562,2.563476,0.610352,0.9509171339349187
0.164795,-0.916016,-0.205566,1.060486,1.251221,-0.045776,0.9531527079314207
0.169189,-0.91626,-0.208984,1.274109,0.1297,-0.541687,0.9548987472905177
0.180908,-0.916016,-0.205811,1.13678,-0.38147,-0.732422,0.9561229965025421
0.185303,-0.917236,-0.208008,0.87738,-0.473022,-0.640869,0.95860649359839
0.186523,-0.922119,-0.208984,0.747681,-0.335693,-0.259399,0.9637264092811819
0.1875,-0.92334,-0.210205,0.663757,-0.160217,0.12207,0.9653492360928246
0.190186,-0.921875,-0.206787,1.159668,0.480652,0.099182,0.9637349706169223
0.186523,-0.918701,-0.207275,1.708984,1.472473,0.221252,0.960086080804737
0.185059,-0.913574,-0.20874,1.960754,2.426147,0.221252,0.95521551210028
0.182617,-0.907959,-0.208496,2.059937,3.280639,0.076294,0.9493203339157968
0.181641,-0.906738,-0.20752,1.777649,3.791809,-0.038147,0.9477509187149332
0.181152,-0.90918,-0.206299,1.098633,3.974914,0.183105,0.9497281700070815
0.17334,-0.909668,-0.203369,1.060486,3.700256,-0.144958,0.9481042010164284
0.161133,-0.907471,-0.202881,1.220703,2.6474,-0.526428,0.9437309784525462
0.159912,-0.906738,-0.199707,1.045227,0.587463,-0.930786,0.9421404004908186
0.166016,-0.907227,-0.19873,0.75531,-1.63269,-1.838684,0.9434594610713276
0.172363,-0.909912,-0.197266,0.350952,-2.990722,-2.326965,0.9468699627029047
0.176025,-0.914551,-0.20166,0.205994,-3.372192,-2.418518,0.9529192451755815
