ax,ay,az,gx,gy,gz,acc_mag
0.055664,-1.006836,0.030029,2.716064,4.257202,-1.556396,1.0088205750444426
0.054443,-1.006104,0.028564,1.991272,4.150391,-1.411438,1.0079807543604196
0.049561,-1.000732,0.025146,1.533508,3.90625,-1.091003,1.0022739894165666
0.046631,-0.996338,0.022949,1.38855,4.02832,-1.205444,0.9976925964474228
0.04541,-0.990234,0.020996,1.579285,4.585266,-1.487732,0.9914969868194254
0.046387,-0.986084,0.016357,1.960754,5.203247,-1.853943,0.9873099615996994
0.048828,-0.985352,0.009766,2.334595,5.714416,-2.471924,0.986609402065478
0.053223,-0.986816,0.010254,3.219604,6.202697,-3.166198,0.988303420059346
0.056885,-1.001953,0.013428,4.447937,6.973266,-3.242492,1.0036563299347043
0.05957,-1.011475,0.018555,4.203796,7.148742,-3.074646,1.0133975274047198
0.069092,-1.013672,0.017578,3.013611,6.118774,-2.685547,1.0161759759667612
0.07373,-1.013184,0.013916,1.449585,3.845215,-2.075195,1.0159584567353137
0.067139,-1.008301,0.001221,0.328064,1.045227,-1.525879,1.0105345331867683
0.031982,-1.007568,-0.037842,-0.62561,-0.892639,-2.204895,1.008785477647255
-0.011719,-1.025879,-0.061523,-1.182556,-2.388,-4.112244,1.0277889555404844
-0.022461,-1.064209,-0.046631,-2.304077,-2.89917,-3.707886,1.0654669128429093
-0.04834,-1.106201,-0.012939,-7.003784,-0.801086,-0.167847,1.107332301399178
-0.076172,-1.121338,-0.006836,-18.257141,3.784179,2.044678,1.123942976633601
-0.082275,-1.109619,-0.021973,-34.301758,9.918213,-0.289917,1.1128819854391567
-0.056641,-1.094727,-0.046143,-50.72784,17.410278,-4.79126,1.0971620590683038
-0.009033,-1.080811,-0.075195,-65.200806,28.396605,-8.827209,1.0834612594989264
0.018066,-1.057373,-0.128418,-77.857971,48.240658,-14.22119,1.0652958388208413
0.060303,-1.039307,-0.208984,-84.091179,76.217651,-26.19171,1.0618238103913473
0.164795,-1.064941,-0.320801,-84.999077,99.250786,-39.970398,1.124353150530117
0.270996,-1.108154,-0.390381,-82.214348,112.648003,-45.3186,1.2057534760028685
0.298096,-1.144043,-0.370361,-75.691223,117.492668,-44.692989,1.2388958315314489
0.270264,-1.141357,-0.30835,-74.08905,110.755913,-42.312618,1.2127729192412733
0.255127,-1.110596,-0.22876,-73.326111,104.072563,-44.837948,1.162258318509702
0.251221,-1.098877,-0.160156,-74.302673,106.735222,-50.743099,1.1385484602361027
0.248291,-1.10498,-0.137207,-81.039421,118.064873,-58.04443,1.1408132984542212
0.258057,-1.108154,-0.180664,-92.102043,136.444092,-66.864014,1.1520582380509243
0.274658,-1.085449,-0.241943,-101.364128,158.454895,-79.696655,1.1455011845537308
0.296875,-1.045166,-0.30542,-105.461113,180.404648,-95.977776,1.128622217387643
0.331543,-1.010498,-0.356201,-106.468193,192.359909,-109.207146,1.1215641404993295
0.407227,-0.985352,-0.337646,-103.85894,187.843307,-118.888847,1.1183725742117427
0.479736,-0.960693,-0.286621,-101.196281,174.011215,-128.517151,1.1114086861213566
0.528564,-0.936279,-0.264893,-103.767387,158.821106,-135.635376,1.1073240579821249
0.55542,-0.921631,-0.268066,-108.543388,147.644043,-138.633728,1.1089429457447304
0.573486,-0.911133,-0.296875,-112.541191,143.363953,-140.861511,1.1167740601885414
0.633789,-0.92749,-0.379395,-115.20385,142.76886,-143.959045,1.1856925244961276
0.730469,-0.986816,-0.478516,-115.020744,137.72583,-147.392273,1.3177132996494345
0.85083,-1.056152,-0.481201,-111.907951,118.118279,-150.657654,1.4390702340070134
0.90625,-1.08252,-0.383545,-109.725945,85.662834,-155.24292,1.462957750560487
0.864502,-1.05249,-0.286865,-116.867058,53.459164,-162.849411,1.3919017337186559
0.810547,-0.974609,-0.256348,-131.42395,37.872314,-173.561081,1.2932762424145896
0.803711,-0.914307,-0.298096,-145.835876,47.531124,-187.43895,1.2533035893134592
0.812256,-0.878906,-0.385742,-156.471252,72.753906,-200.042709,1.257391131245962
0.88623,-0.874023,-0.466309,-160.224915,96.343987,-210.578903,1.3291967126464013
0.988281,-0.881836,-0.473877,-155.929565,107.055656,-220.161423,1.4067314871666163
1.021484,-0.879395,-0.444092,-149.658203,100.20446,-226.844772,1.419148629546955
1.01001,-0.84082,-0.421387,-147.270203,82.733147,-229.354843,1.3800961837020636
1.002686,-0.796631,-0.443359,-145.423889,66.223145,-231.193527,1.3552001208817832
0.960693,-0.79248,-0.469727,-144.477844,56.594845,-236.366257,1.3310142918759362
0.906006,-0.790527,-0.449463,-145.874023,51.956173,-244.689926,1.283665376230893
0.94165,-0.756348,-0.434082,-149.154663,49.400326,-249.992355,1.283430637910752
1.062012,-0.710449,-0.419922,-153.839111,48.347469,-249.992355,1.3449690538555152
1.085449,-0.669922,-0.380371,-155.921936,46.852108,-249.877914,1.3310436188667898
1.003662,-0.627686,-0.366211,-156.486511,39.764404,-249.992355,1.2391277663586593
0.96875,-0.563232,-0.416016,-157.920837,29.014585,-249.992355,1.1953142518099582
1.014893,-0.516357,-0.468506,-155.326843,20.698545,-249.992355,1.2313123994072341
1.04248,-0.520264,-0.463135,-148.704529,16.654968,-249.992355,1.2537676053882554
1.027832,-0.527344,-0.413086,-144.180298,14.389037,-249.992355,1.2268538453931668
0.948486,-0.496582,-0.371826,-143.699646,12.550353,-249.923691,1.1333463500607395
0.846924,-0.418701,-0.347656,-143.463135,10.017395,-247.901901,1.0067052614906709
0.784912,-0.325439,-0.330811,-141.227722,6.858825,-245.666489,0.9118296486658021
0.778076,-0.249023,-0.314209,-137.35199,5.195617,-245.216354,0.8752953855619255
0.740479,-0.201904,-0.302246,-132.05719,5.989074,-242.195114,0.8248800028931481
0.713623,-0.161377,-0.320801,-125.968925,4.386902,-234.352097,0.7988827222183491
0.751709,-0.128662,-0.30835,-118.35479,-1.831055,-224.960312,0.8226178051957057
0.772217,-0.121094,-0.267822,-109.664909,-11.299132,-218.009933,0.8262635630408738
0.725586,-0.117432,-0.232666,-104.194633,-19.676208,-213.233932,0.7709726231040892
0.629395,-0.087646,-0.181641,-103.530876,-22.613523,-207.283005,0.6609185579343343
0.561523,-0.027832,-0.164795,-107.185356,-19.424438,-200.309738,0.5858669574041533
0.554688,0.043213,-0.163818,-111.061089,-10.612487,-195.75499,0.5799848944903652
0.591064,0.096436,-0.177002,-110.549919,-0.473022,-192.161545,0.6244888006970182
0.621338,0.133545,-0.191895,-105.339043,4.02832,-185.501083,0.6638666042918562
0.61377,0.171631,-0.197998,-97.244255,-0.556946,-175.804123,0.6673634849652774
0.57373,0.206055,-0.183105,-90.522758,-10.963439,-166.51152,0.6365156847635414
0.520264,0.239746,-0.137451,-87.547295,-19.577026,-159.545898,0.5891057219319804
0.478027,0.282715,-0.103027,-86.753838,-22.40753,-152.580261,0.5648470117500844
0.497803,0.316162,-0.097168,-86.830132,-21.667479,-145.111084,0.5976686852069464
0.49707,0.332764,-0.093994,-86.624138,-18.218994,-138.130188,0.6055124578668881
0.518799,0.355957,-0.072266,-84.548943,-16.51001,-130.897522,0.6333089001474715
0.55957,0.395508,-0.052002,-81.108086,-14.968871,-122.63488,0.6872040242664474
0.581543,0.445801,-0.025391,-76.911926,-14.091491,-113.662712,0.7331954005113508
0.520752,0.493896,0.022461,-73.432922,-15.1062,-105.758659,0.7180671283668401
0.387207,0.542969,0.038086,-73.455811,-18.638611,-98.846428,0.6679783972599713
0.287109,0.591064,0.028564,-74.867249,-20.805357,-95.069878,0.6577264872825178
0.247803,0.633057,0.001709,-74.829102,-16.319275,-95.046989,0.6798311648777217
0.313965,0.659668,-0.079834,-69.778442,-7.17163,-95.710747,0.7349213284461134
0.398682,0.654297,-0.128662,-60.844418,4.890442,-94.78759,0.7769207241263423
0.45874,0.664795,-0.122314,-53.565975,12.092589,-89.233391,0.8169182910309941
0.49707,0.699951,-0.088135,-47.973629,11.840819,-81.199638,0.8630050785053353
0.469482,0.738525,-0.053955,-45.074459,6.759643,-73.348999,0.8767802837507239
0.38916,0.766357,-0.042236,-44.761654,-0.938415,-68.061829,0.8605419436291296
0.29541,0.784912,-0.044189,-45.455929,-7.8125,-64.689636,0.8398253291994712
0.245117,0.822266,-0.106689,-44.914242,-12.947082,-61.485287,0.8646307079707498
0.274658,0.838623,-0.155518,-40.512081,-16.517639,-58.845516,0.8960532358163771
0.35791,0.828369,-0.187012,-34.263611,-16.136169,-56.976315,0.9215575166016498
0.433594,0.821533,-0.17749,-28.297422,-11.062621,-54.084774,0.945739354698217
0.489258,0.830078,-0.140869,-23.727415,-4.180908,-48.828121,0.9737797244803365
0.499512,0.837158,-0.096436,-21.659849,1.815796,-43.090816,0.979615055623381
0.487793,0.844727,-0.067871,-21.560667,6.950378,-39.924622,0.9778098935984438
0.449707,0.852295,-0.062744,-23.468016,12.542724,-39.123535,0.9657017978703364
0.404785,0.87793,-0.089355,-25.375364,17.295837,-38.848877,0.970873986236113
0.431396,0.890625,-0.14917,-23.41461,18.356323,-39.421082,1.0007832374400563
0.450928,0.868408,-0.166504,-21.118162,17.311096,-40.695187,0.9925684347509747
0.451904,0.865723,-0.145996,-20.286558,12.298583,-41.862484,0.9874251211919819
0.453125,0.871094,-0.110107,-21.369932,5.844116,-43.502804,0.9880539326929477
0.40918,0.892578,-0.075439,-24.742125,2.502441,-45.1889,0.984791755248286
0.377197,0.905273,-0.046143,-27.44293,-0.106812,-46.524044,0.981797309930619
0.372314,0.901855,-0.019287,-29.510496,-0.50354,-47.019955,0.9758750657691793
0.398682,0.901855,0.006104,-31.021116,1.083374,-46.928402,0.9860664465262977
0.401367,0.905518,0.041992,-32.745361,5.638122,-46.508785,0.9913736152818473
0.381592,0.910156,0.068848,-33.836365,11.436461,-45.0592,0.9893110966243126
0.343018,0.917969,0.083984,-34.461975,18.89801,-44.578548,0.9835556646885829
0.284912,0.921631,0.0979,-35.873413,25.955198,-45.150753,0.9696200069640684
0.255127,0.920898,0.126221,-36.613464,31.35681,-45.249935,0.9638851868215426
0.279053,0.932617,0.150635,-36.972046,35.095215,-45.257565,0.9850563175387487
0.299316,0.922607,0.178955,-34.240723,37.193298,-43.685909,0.986315687967093
0.286865,0.91748,0.200684,-30.387877,39.466858,-40.542599,0.9820056753812576
0.314453,0.916016,0.225098,-24.375914,41.542049,-37.246704,0.9943013180464965
0.340088,0.903564,0.265137,-18.066406,44.296261,-33.256531,1.0011919788976538
0.342041,0.900635,0.311768,-11.779784,46.409603,-28.968809,1.0125881367713132
0.340332,0.904785,0.359131,-5.836486,51.246639,-25.718687,1.0312307412068358
0.32959,0.911133,0.414063,-1.655578,62.728878,-23.880003,1.0536797804636853
0.317139,0.925049,0.467285,1.953125,78.956604,-22.209166,1.08381182358701
0.335449,0.934082,0.501465,7.583618,95.16906,-21.209715,1.1119812770680988
0.371094,0.92627,0.50415,18.234253,106.735222,-21.14868,1.1179687349098812
0.401123,0.908936,0.525635,33.729553,109.52758,-18.997192,1.1239913106648112
0.428711,0.893066,0.564453,52.047726,106.811516,-16.63208,1.140161037347795
0.447021,0.869629,0.58374,72.097778,105.239861,-14.587401,1.138786529461075
0.464844,0.84668,0.641846,92.994682,107.925407,-12.268065,1.159703951209963
0.445557,0.850342,0.711182,112.350456,119.094841,-12.603759,1.1947310970829377
0.405762,0.840088,0.791504,132.667542,137.260437,-15.11383,1.223466072436829
0.414063,0.801025,0.820068,155.273438,157.943726,-19.668579,1.2188522236998216
0.417725,0.721191,0.823975,182.418808,179.512009,-24.002073,1.1719835471247027
0.469727,0.640869,0.838135,210.311874,196.601852,-23.803709,1.1549141993737024
0.555664,0.593506,0.797852,239.067062,204.765305,-18.409729,1.1391135443124185
0.542969,0.525146,0.724365,249.992355,204.223618,-9.44519,1.0465650049098718
0.492432,0.482178,0.64502,249.992355,200.996384,-3.616333,0.9439468728207112
0.436279,0.467285,0.545898,249.717697,205.230698,-1.869202,0.8406540688475849
0.317139,0.441162,0.426025,249.992355,213.912949,2.555847,0.6904334552945708
0.216797,0.366455,0.283203,249.992355,217.68187,9.346008,0.5113649826132016
0.13501,0.263428,0.208496,249.992355,215.850815,17.669678,0.36206711159673144
0.098877,0.195313,0.18457,249.992355,207.435593,30.868528,0.28633880980055776
0.190918,0.148438,0.28418,249.992355,198.051437,45.242306,0.3731511690561883
0.345215,0.002686,0.814941,249.992355,194.564804,56.549068,0.8850477073593265
3.101074,-4.752197,-4.588135,68.862915,189.292892,-39.512634,7.297329584067723
3.022217,2.277588,-5.684082,-200.530991,37.658691,-64.285278,6.828615589968218
1.092529,0.815918,-1.220459,132.659912,-191.017136,227.661118,1.8299896090541061
0.70459,1.377686,-0.822021,-3.494262,-228.851303,233.245834,1.7521941408237272
-0.60083,1.899902,-1.464844,-207.115158,-62.20245,-22.010801,2.473134093178128
-1.286377,1.479248,-1.072998,-28.434752,58.998104,-67.329407,2.2347852558214627
0.044922,1.126709,-0.56958,27.770994,123.077385,9.887695,1.2632943177126221
0.671875,0.852539,-0.256592,36.582947,150.894165,90.270988,1.1153825427224509
0.27417,0.678955,-0.191162,59.55505,151.313782,84.419243,0.7567641582217012
0.595215,0.622803,-0.311279,60.081478,95.497124,24.658201,0.916001686065588
1.077393,0.541504,-0.321045,57.243343,24.726866,-0.75531,1.2478269713746373
0.740234,0.533936,-0.367676,59.349056,24.80316,6.828308,0.9839815383573006
0.575195,0.602539,-0.495117,48.027035,44.723507,11.390685,0.9690425058969292
0.849609,0.718994,-0.480469,27.19116,37.002563,14.694213,1.2122863873186072
0.852051,0.852539,-0.446289,15.586852,30.532835,12.268065,1.285296667949855
0.677979,0.88501,-0.467529,14.373778,24.429319,6.408691,1.2089175283624602
0.663574,0.828613,-0.433838,12.344359,7.827758,14.060973,1.1467978756036306
0.593262,0.781982,-0.416748,6.851196,4.78363,22.735594,1.0663651084276904
0.476318,0.747559,-0.481445,5.233764,18.608093,16.220093,1.0087182875461316
0.500488,0.681396,-0.539063,5.043029,29.174803,6.935119,1.0026852272418298
0.523193,0.645508,-0.626221,2.342224,34.011841,5.256652,1.0404634708407594
0.498291,0.629639,-0.728516,3.768921,34.0271,2.120972,1.0841931346665132
0.520264,0.564697,-0.733154,3.860473,22.5296,-3.616333,1.061636528771029
0.518799,0.51709,-0.742188,-4.364014,4.364014,-9.666443,1.0427739437888732
0.494141,0.443848,-0.785645,-7.827758,-16.578674,-17.570496,1.0287927104183816
0.60791,0.310547,-0.827148,-10.147094,-28.785704,-26.237486,1.0724587736659157
0.717773,0.23877,-0.842773,-28.96118,-21.202085,-23.834227,1.1324643579194889
0.615723,0.20166,-1.020508,-64.247131,-4.867554,-9.857178,1.2088085648244722
0.583984,0.263184,-1.246094,-107.040398,-5.66864,-3.341675,1.401090070961892
0.739258,0.391113,-1.324463,-135.993958,-28.045652,-8.277893,1.5664207633014828
0.739014,0.347412,-1.284912,-150.619507,-59.18121,-1.808166,1.5224439686517202
0.611328,0.279297,-1.188721,-170.158371,-87.135307,13.72528,1.3655718046422896
0.53833,0.332764,-1.076416,-190.086349,-98.297112,18.783569,1.248680292809973
0.518311,0.384033,-0.97168,-202.278122,-96.275322,19.966125,1.1663145631475242
0.53833,0.398193,-0.874756,-211.936935,-91.110222,25.367735,1.1016146847627803
0.588867,0.398926,-0.772461,-222.030624,-87.020866,29.823301,1.0500487101492006
0.646729,0.383057,-0.727295,-230.514511,-83.419792,31.249998,1.0459202081014594
0.672852,0.344971,-0.701416,-238.433823,-84.030144,33.058167,1.0313676404662888
0.71875,0.320068,-0.646973,-245.452866,-94.505302,35.697937,1.0186359260565083
0.74585,0.30249,-0.504639,-249.992355,-109.825127,37.483215,0.9499752327934661
0.770752,0.316895,-0.340576,-249.992355,-125.350945,38.467407,0.9002627940246114
0.827881,0.336914,-0.194092,-249.93132,-137.275696,39.672852,0.9146418413898415
0.854004,0.355469,-0.099121,-249.992355,-144.569397,42.388912,0.9303257572581768
0.836182,0.38208,-0.061279,-249.992355,-151.45874,45.028683,0.9213797150822238
0.791992,0.423584,-0.01709,-249.992355,-158.317566,44.708248,0.8983133090520257
0.804932,0.467041,0.029785,-249.519333,-163.87175,42.068478,0.9310907402235293
0.825439,0.493408,0.091797,-243.576035,-163.566574,38.482666,0.9660371040462162
0.833008,0.51001,0.180664,-235.366806,-159.851074,35.903931,0.9933035835332519
0.842041,0.52832,0.299561,-228.439316,-156.204224,34.606934,1.0382157101498706
0.831543,0.551025,0.409668,-221.672043,-153.09906,33.660889,1.0783877696348378
0.806152,0.58252,0.478027,-215.347275,-152.137756,33.226013,1.1035036974260666
0.784912,0.630371,0.501465,-208.183273,-154.23584,32.897949,1.1246873305990426
0.760254,0.669922,0.544189,-199.096664,-157.745361,31.211851,1.1501840280237767
0.713135,0.709229,0.607422,-189.758286,-159.729004,27.999876,1.174959058329268
0.662109,0.751221,0.629395,-180.465683,-156.059265,23.109434,1.18273386048891
0.625977,0.785156,0.635254,-167.388901,-144.53125,17.501831,1.1882191689166608
0.616211,0.810059,0.662354,-149.765015,-130.065918,13.618468,1.2143411387736147
0.630127,0.829346,0.6875,-132.18689,-117.858879,11.665343,1.2480108468458917
0.643066,0.842285,0.719238,-114.738457,-108.261101,9.95636,1.2807346338039742
0.634033,0.873779,0.768799,-98.121635,-98.472588,7.865905,1.3253450450094117
0.619629,0.925537,0.80127,-83.526604,-86.242668,6.179809,1.3720759632432893
0.613281,0.95752,0.796875,-68.42804,-70.594788,3.067016,1.3885128378902372
0.611572,0.950928,0.779297,-52.680965,-52.810665,-0.663757,1.37316720998464
0.602295,0.929443,0.746582,-37.910461,-35.545349,-4.440308,1.335667713167463
0.600586,0.904785,0.695801,-23.689268,-19.798279,-9.048462,1.2897590748748387
0.596191,0.883789,0.64917,-9.429932,-5.950927,-12.535094,1.248178029730535
0.586426,0.869873,0.617676,3.570556,5.302429,-14.915465,1.2174145270124717
0.585938,0.866211,0.60376,15.1062,13.34381,-16.845703,1.2075475038129968
0.620117,0.861328,0.613525,26.382444,18.432617,-19.058228,1.2259053564194913
0.664795,0.849609,0.605713,36.697388,22.499083,-21.232603,1.2372049479673932
0.66626,0.835938,0.574219,46.928402,25.314329,-22.048948,1.213434047406368
0.638916,0.818115,0.540039,58.662411,30.242918,-23.28491,1.1701144943132702
0.617432,0.79834,0.505859,69.862366,40.64941,-25.413511,1.1289208821281498
0.605713,0.786133,0.489502,80.55114,54.222103,-27.122496,1.1065737842828194
0.594238,0.779053,0.513916,90.766899,67.802429,-28.732298,1.106414042078733
0.609375,0.781006,0.558838,99.342339,80.68084,-31.219481,1.1373689695542955
0.656494,0.781006,0.607422,108.02459,93.063347,-32.516479,1.1873989347123401
0.730713,0.778809,0.629639,120.796196,100.196831,-31.059263,1.2397298968610058
0.810303,0.751953,0.601563,138.092041,96.221916,-29.228209,1.2585318069031866
0.818115,0.693115,0.559326,154.838562,86.013786,-30.776976,1.2093660036258669
0.749268,0.666992,0.554443,168.052658,78.514099,-36.956787,1.1461622503541984
0.71875,0.67749,0.584473,180.610641,81.901543,-48.21777,1.14769462416141
0.775146,0.669434,0.615479,196.2509,99.189751,-59.883114,1.1949090346603795
0.84668,0.631836,0.633057,212.768539,125.358574,-68.008423,1.2316025814137448
0.885986,0.594727,0.624512,229.217514,152.130127,-73.310852,1.2364006773166214
0.902832,0.560547,0.598633,246.551498,173.240646,-75.721741,1.2197048938665451
0.914307,0.506348,0.547607,249.992355,189.636215,-75.622559,1.1799233084408494
0.883057,0.431641,0.483154,249.893173,203.781113,-74.272156,1.0952357763723755
0.840576,0.378174,0.446045,249.893173,214.729294,-74.958801,1.023982288946933
0.837402,0.349854,0.397949,249.992355,224.800095,-79.307556,0.9909608153307576
0.787598,0.299561,0.35791,249.992355,235.717758,-82.572929,0.9155036703503706
0.733154,0.260986,0.278809,249.992355,242.965683,-80.337517,0.8266576911835999
0.689453,0.196289,0.15332,249.992355,248.832687,-70.014954,0.7330633213645326
0.603516,0.124023,-0.006836,249.992355,249.992355,-54.908749,0.6161655602847339
0.529785,0.033936,-0.173828,249.992355,249.954208,-39.039612,0.5586053811994653
0.41748,-0.036133,-0.193115,249.992355,249.961838,-18.997192,0.4613984691283663
0.436768,-0.951172,-0.019287,249.992355,241.325363,-0.350952,1.046836399719173
5.088623,-4.60498,-6.016113,-66.726685,116.683952,-74.905396,9.126529486354492
0.858887,3.34375,-3.888184,-172.69133,-234.123215,124.992363,5.199646695605866
-0.921387,1.002686,-0.590088,213.432297,-249.992355,198.944077,1.484094695802461
0.139648,1.300049,-1.282715,-69.908142,-214.584335,66.642761,1.8316622880678632
-1.195801,1.502686,-1.790039,-123.367302,0.015259,-66.993713,2.62530852810065
-0.868896,1.099365,-1.183594,35.644531,155.708313,-27.153013,1.8342514600994597
0.610352,0.848145,-0.57251,34.156799,179.36705,25.917051,1.1914894901042978
0.839844,0.720459,-0.315186,54.939266,139.457703,42.938229,1.1505395819410127
0.321777,0.647217,-0.289795,66.337585,93.955986,3.913879,0.7787242290072912
0.752441,0.641602,-0.329346,51.841732,6.980896,-36.064148,1.0422520676885223
0.952148,0.640625,-0.325439,56.320187,-37.696838,-33.599854,1.1928523576914287
0.457275,0.596924,-0.408936,61.073299,-1.770019,-24.765013,0.8559482107563517
0.51416,0.529053,-0.480469,49.308773,30.303953,-17.829895,0.8804022048870618
0.82373,0.546387,-0.431152,31.539915,34.034729,-5.91278,1.078407118751077
0.747559,0.634033,-0.420654,17.120361,41.313168,-7.217407,1.0666733761025442
0.666016,0.674316,-0.450439,5.081176,40.878292,-12.428283,1.0493687020456632
0.703613,0.704834,-0.451416,-5.714416,23.475645,-2.403259,1.0934526173460832
0.592285,0.721436,-0.474121,-8.735657,14.175414,9.353638,1.046929866782871
0.495117,0.662842,-0.526367,-6.660461,12.367248,12.229918,0.9805929733288935
0.505859,0.57666,-0.566162,-7.156372,7.896423,17.570496,0.9533989163644985
0.465576,0.528809,-0.606934,-9.796143,14.488219,21.095274,0.9299294869037114
0.397949,0.519775,-0.653564,-15.159606,30.059813,16.685486,0.9250272208546082
0.379883,0.53418,-0.651611,-23.429869,39.039612,10.879516,0.9242598451788329
0.389893,0.571533,-0.67334,-28.663633,42.007442,2.929687,0.9654290637524852
0.456299,0.550781,-0.721924,-27.076719,45.211788,-9.208679,1.0162395136669307
0.553223,0.446045,-0.731201,-29.541014,45.791622,-14.541625,1.0196404916219246
0.629639,0.309326,-0.86084,-39.176941,46.363827,-4.371643,1.1104833858266407
0.624268,0.255859,-1.068359,-62.393185,32.676697,19.65332,1.263552656831523
0.650146,0.311279,-1.15625,-94.444267,-13.916015,33.103943,1.362533852664586
0.677246,0.319092,-1.145752,-116.355888,-58.631893,23.239134,1.3686597438677008
0.615479,0.262939,-1.12915,-128.860474,-82.260124,19.866943,1.3126046776017524
0.544434,0.252197,-1.054688,-141.365051,-89.904778,34.881592,1.2134160393323472
0.561279,0.296387,-0.987793,-156.997681,-89.782707,48.316952,1.174144105490889
0.570068,0.330811,-0.935791,-171.714767,-88.638298,52.192684,1.1446039655819824
0.577148,0.318848,-0.876465,-184.585556,-92.430107,52.093502,1.0967929418231137
0.598633,0.289307,-0.821777,-196.594223,-102.035515,56.114193,1.0570607582665246
0.603027,0.256836,-0.772705,-207.733139,-112.464897,63.980099,1.013251849566533
0.602295,0.233887,-0.699951,-219.795212,-123.184196,72.608948,0.9525722010404251
0.626709,0.228027,-0.605713,-230.934128,-134.254456,79.872131,0.9009154909196533
0.64209,0.235107,-0.513672,-239.578232,-141.716003,84.777824,0.8552273341825553
0.660889,0.26123,-0.461182,-245.658859,-143.218994,87.7304,0.8471742561864117
0.70166,0.280518,-0.376953,-247.688278,-141.242981,91.361992,0.8444588019157595
0.760742,0.304932,-0.256348,-248.641953,-141.235352,95.893852,0.8587352399267192
0.801025,0.352539,-0.163818,-249.992355,-145.16449,100.250237,0.8903713462763725
0.834229,0.416504,-0.081299,-249.992355,-152.023315,102.85186,0.9359610749694668
0.890869,0.458008,-0.019287,-249.969467,-158.416748,102.577202,1.0018936528364675
0.944824,0.455811,0.021729,-249.992355,-159.202576,101.47094,1.0492512607273818
0.955078,0.452393,0.027344,-249.992355,-151.237488,100.975029,1.0571570871299119
0.94043,0.469971,0.049561,-248.146042,-136.09314,98.609917,1.0524911488758468
0.936279,0.487061,0.110352,-236.869797,-117.073051,91.194145,1.0611429439363955
0.947754,0.489014,0.205566,-222.030624,-98.999016,80.55114,1.0861075992128957
0.987793,0.504395,0.296631,-210.891708,-85.250847,68.855286,1.148102468003183
1.022217,0.544678,0.37915,-204.689011,-76.339722,58.280941,1.2187520015462538
1.016357,0.596436,0.425049,-199.752792,-73.791504,48.805233,1.2527506160229978
0.993652,0.620361,0.471436,-193.992599,-76.156616,40.321346,1.262712940268294
0.953125,0.654297,0.506104,-188.781723,-77.850342,34.111023,1.2620194486021203
0.92627,0.697998,0.533203,-180.259689,-78.62854,29.121397,1.276511950634619
0.868652,0.72583,0.54248,-167.861923,-77.842712,23.445127,1.255256960308924
0.797363,0.746338,0.533691,-151.863098,-71.960449,14.961242,1.215579798900097
0.817627,0.768311,0.561279,-131.156921,-60.546871,8.262634,1.2545317133062042
0.866455,0.788574,0.629639,-109.092705,-47.21069,6.782531,1.3300520631997832
0.877686,0.815186,0.690918,-89.401237,-41.389462,7.011413,1.3828335445439555
0.861328,0.839111,0.712646,-69.976807,-44.319149,4.592896,1.3978045339821303
0.815186,0.838135,0.73877,-50.491329,-49.568172,0.335693,1.3830327565611018
0.774902,0.83667,0.751465,-32.272339,-51.124569,-2.822876,1.3657193872567674
0.749756,0.828613,0.74292,-14.831542,-45.021053,-5.577087,1.3418881062536474
0.723633,0.803955,0.741699,0.923157,-34.461975,-8.796692,1.3115280276513346
0.701172,0.778076,0.750244,14.213561,-21.324156,-14.007567,1.2883751374875254
0.715332,0.773682,0.769775,26.077269,-5.783081,-19.989014,1.3049280662063332
0.753418,0.77832,0.782715,40.39764,11.634826,-23.826597,1.3364368583472248
0.768311,0.751709,0.800049,58.052059,30.235289,-26.092527,1.3399427658683785
0.765137,0.721436,0.849609,76.049805,46.684261,-27.381895,1.3519393417405974
0.768799,0.706543,0.888184,92.636101,60.9436,-28.381346,1.3708120699446733
0.761963,0.670166,0.900391,111.54174,77.36969,-30.670164,1.3566186029264082
0.748047,0.627197,0.896973,132.225037,96.122734,-31.753538,1.325711489633774
0.740234,0.583984,0.860107,154.388428,117.370598,-31.791685,1.2762318513738011
0.729004,0.54248,0.814453,176.643356,139.907837,-32.112122,1.2202725398963135
0.705078,0.515137,0.776855,197.601303,161.399826,-32.989502,1.1687620826661
0.710693,0.490479,0.777344,218.284592,177.757248,-32.203674,1.1618596662359875
0.769043,0.45166,0.783936,238.067612,186.248764,-28.70178,1.187425594951111
0.818848,0.384033,0.780762,249.992355,190.734848,-24.192808,1.194814919908937
0.87793,0.313721,0.79248,249.992355,193.458542,-19.760132,1.2236038987928242
0.957275,0.258789,0.772217,249.755844,195.945724,-15.197753,1.2568477502207656
0.999023,0.193848,0.741943,249.992355,196.800217,-12.687682,1.259405977785559
0.968262,0.118652,0.747803,249.992355,196.395859,-15.541076,1.2291537432546833
0.9021,0.06665,0.810791,249.992355,200.210556,-23.132322,1.2147463431437033
0.928955,0.031494,0.864502,249.992355,210.090622,-30.197142,1.2693750320787784
0.983887,-0.037842,0.79834,249.992355,228.225693,-34.843445,1.2676010418633301
1.029053,-0.142334,0.52124,249.992355,245.628342,-29.518126,1.162282315947808
1.020508,-0.205566,0.230957,249.992355,249.992355,-12.077331,1.0663184769425127
1.125977,-0.212891,0.025635,249.992355,231.559738,4.798889,1.1462128666329827
1.223145,-0.308838,-0.101807,249.992355,206.451401,12.680053,1.2656339385928301
1.082031,-0.424805,0.046387,249.992355,188.964828,17.01355,1.1633581248931903
1.352783,-2.27832,0.688721,239.814743,154.464722,11.497497,2.7377181161197
4.019043,-2.374023,-6.740723,-165.916428,-20.729063,-107.543938,8.199148638920201
-1.260498,4.131836,-4.682373,-189.659103,-240.325912,201.499924,6.370678209580908
-0.743164,1.153809,-1.294189,106.437675,-72.181702,154.457092,1.8863968583248862
1.104004,1.503906,-2.709717,-35.65979,85.197441,-33.01239,3.28985171534235
0.800781,0.834473,-1.584717,55.931087,153.121948,-0.740051,1.9618673165581304
0.748535,0.883301,-0.765625,75.134277,103.950493,107.13195,1.3880586959675012
1.124023,0.776367,-0.311768,63.148495,9.941101,107.093803,1.4012040212053347
0.942871,0.782471,0.043213,61.256405,-35.064697,62.896725,1.2260236342954405
0.753906,0.945801,0.218994,57.388302,-18.287659,39.466858,1.2291753985794704
1.190674,0.946045,0.095459,59.486385,-8.216858,51.284786,1.5237513369910458
1.166748,0.656738,-0.040771,83.435051,17.410278,63.896175,1.3395028818890238
0.854004,0.422852,-0.205078,84.175102,55.763241,46.546932,0.9747736311595632
1.010986,0.391357,-0.345215,62.118526,58.319088,29.258726,1.137728609937361
1.087646,0.393799,-0.341553,47.492977,37.54425,28.57971,1.2061135624500703
0.839844,0.395508,-0.332764,32.562256,21.713255,20.38574,0.9861523219543724
0.782959,0.400635,-0.346924,14.160155,2.304077,11.878966,0.9454572759686183
0.826904,0.42627,-0.2854,1.701355,-12.825011,18.463135,0.9731030254376974
0.798828,0.441406,-0.244385,-9.986877,-15.342711,21.789549,0.944822448211832
0.787842,0.413086,-0.211426,-21.90399,-18.135071,19.317627,0.9143500499458619
0.770264,0.376709,-0.174561,-31.288145,-22.369383,15.647887,0.8750359096048572
0.69751,0.365479,-0.171143,-39.505005,-21.743773,11.695861,0.8058442938868525
0.640869,0.378418,-0.188477,-44.540401,-15.846251,7.362365,0.767747899648055
0.680664,0.404053,-0.225098,-44.776913,-3.318786,-0.259399,0.8229407131191164
0.741455,0.397949,-0.262207,-39.886475,15.86151,-5.752563,0.8814031055510299
0.761719,0.379639,-0.276611,-35.263062,27.374266,-3.120422,0.8949051629100148
0.752686,0.37085,-0.294678,-31.616209,26.908873,1.754761,0.8893261835682114
0.7229,0.360352,-0.344482,-26.275633,26.100157,4.684448,0.8781263133672741
0.70874,0.344727,-0.41748,-19.584656,28.816221,10.06317,0.8918736696018109
0.720459,0.347412,-0.549561,-13.359069,32.211304,16.815186,0.9704501847833303
0.785645,0.339355,-0.643311,-6.652832,31.433104,24.162291,1.0706301531205817
0.846436,0.314697,-0.61377,0.12207,24.92523,32.028198,1.0918799003576356
0.830811,0.303223,-0.522217,3.036499,13.839721,40.763851,1.0270840766650995
0.709229,0.328369,-0.47998,1.411438,7.774353,45.028683,0.9171765233595984
0.53418,0.350586,-0.508789,-0.106812,15.380858,42.076107,0.81677724155182
0.461182,0.344482,-0.526123,-2.380371,24.887083,42.060848,0.7798474828945722
0.507568,0.318604,-0.460205,-6.088256,30.761717,42.060848,0.7555940877647205
0.685059,0.250732,-0.389648,-8.514404,34.263611,38.497925,0.8270416756179824
0.749512,0.145508,-0.367188,-23.422239,36.66687,44.876095,0.8472118056023534
0.658447,0.071045,-0.492676,-67.382813,28.411863,57.624813,0.8254268500660734
0.65625,0.034668,-0.66748,-112.159721,8.560181,67.169189,0.9366939111171803
0.644531,-0.020996,-0.803711,-133.010864,-2.464294,77.186584,1.0304428239829708
0.562012,-0.042236,-0.842285,-152.565002,3.181457,84.793083,1.0134522135083626
0.575928,-0.04248,-0.892334,-173.881516,13.122558,86.227409,1.062900549976337
0.690186,-0.030518,-0.908447,-191.047653,15.686034,84.487907,1.1412992660687205
0.742432,-0.035645,-0.861816,-198.379501,4.03595,91.194145,1.1380697072257921
0.698242,-0.073242,-0.770264,-196.075424,-22.811888,108.940117,1.0422153860042558
0.62207,-0.119629,-0.670898,-193.397507,-53.237911,126.54113,0.9227059710140604
0.533447,-0.151855,-0.562256,-195.640549,-73.486328,140.449524,0.7897831679454811
0.447754,-0.181396,-0.466309,-197.723373,-79.88739,154.251099,0.6714404194066663
0.365967,-0.231934,-0.42749,-197.616562,-78.224182,168.479904,0.6086648712920765
0.350586,-0.293457,-0.39624,-195.442184,-76.24054,181.793198,0.6050071833003308
0.390869,-0.363281,-0.32373,-189.781174,-74.836731,195.739731,0.6241416289769495
0.406738,-0.414307,-0.249023,-182.945236,-74.989319,214.813217,0.6317424676416806
0.382568,-0.46167,-0.199219,-173.934921,-76.393127,237.32756,0.6318114224078257
0.363281,-0.527832,-0.158936,-161.674484,-76.835632,249.992355,0.6601820637377238
0.375,-0.622314,-0.119385,-147.117615,-77.377319,249.992355,0.7363100520982993
0.428467,-0.708252,-0.085449,-130.897522,-80.215454,249.732956,0.8321696925471391
0.487305,-0.789551,-0.067871,-111.450188,-86.639397,249.992355,0.9303028631940246
0.530029,-0.89502,-0.053467,-89.645378,-94.940178,249.992355,1.04156145345822
0.522949,-1.012207,-0.034668,-66.017151,-101.325981,249.992355,1.1398423301816791
0.504639,-1.129883,-0.022949,-40.092468,-102.97393,249.992355,1.2376682797143181
0.518066,-1.273926,-0.020264,-14.396667,-97.648613,249.992355,1.3753873867125581
0.5354,-1.424316,0.015869,9.32312,-85.929863,249.992355,1.5217033393592194
0.615723,-1.5896,0.063721,35.209656,-73.272705,249.992355,1.7058731894751145
0.705811,-1.722656,0.111084,53.428646,-60.089108,249.992355,1.8649537573658495
0.821777,-1.844727,0.075439,63.751217,-50.292965,249.992355,2.0208973712138376
0.976563,-1.980469,-0.022705,71.395874,-47.172543,249.992355,2.208268160789128
1.108398,-2.074219,-0.098145,77.110291,-53.398129,249.992355,2.3538400598575087
1.266846,-2.043457,-0.22168,82.107536,-73.234558,249.992355,2.414489039313494
1.493408,-1.895996,-0.216797,87.280266,-100.547783,249.992355,2.4232352807123374
1.651855,-1.681152,0.04541,90.850822,-117.507927,249.992355,2.3573203126068805
1.376709,-1.47583,0.289795,72.250366,-95.550529,249.992355,2.0389661599953053
0.907471,-1.264404,0.490234,30.586241,-44.067379,248.878464,1.631732351157199
0.765137,-1.046387,0.478271,-15.830993,16.517639,218.345627,1.3817031272958022
0.774902,-0.866455,0.278076,-51.650997,82.359306,162.60527,1.1952169838171645
0.715088,-0.826172,0.078369,-53.428646,132.064819,123.176567,1.0954691787033535
0.684326,-0.92627,-0.099365,-25.077818,145.759583,103.599541,1.155920235310811
0.695801,-1.041016,-0.364258,-3.120422,131.706238,90.530388,1.3040464847623339
0.764893,-1.055176,-0.470947,15.525817,95.634453,82.916252,1.3857304100127124
0.844727,-1.023438,-0.349365,50.941463,46.371456,79.055786,1.372240848975864
0.885986,-1.036621,-0.207275,80.497734,0.091553,78.140259,1.3793176629993542
0.900391,-1.084473,-0.140625,89.431755,-31.707762,84.83886,1.4165313378937296
0.87793,-1.093018,-0.095459,92.01049,-47.279354,97.05352,1.4051910382239847
0.814697,-1.05957,-0.039307,94.390862,-49.903866,106.109612,1.337148019838492
0.743164,-1.0271,-0.046143,93.0252,-40.939327,107.559196,1.2686040821883713
0.671387,-1.01416,-0.105957,84.915154,-22.773741,107.246391,1.2208635858350432
0.612549,-1.011963,-0.157471,72.669983,0.1297,107.589714,1.1933492810619193
0.595947,-1.00293,-0.177734,58.479305,22.422789,105.651848,1.18008931291873
0.607178,-0.980469,-0.177246,44.944759,40.390011,98.960869,1.1667907816575345
0.566406,-0.967529,-0.17041,35.140991,56.304928,89.859001,1.1340051546518648
0.519531,-0.949219,-0.154297,26.794432,72.357178,81.375114,1.0930401338153142
0.558594,-0.903809,-0.141113,17.631531,89.439384,71.914673,1.0718259392671927
0.622314,-0.857178,-0.119873,9.58252,106.575005,60.569759,1.0660198752410763
0.647949,-0.84375,-0.103271,8.331299,118.965141,50.354,1.0688390283583398
0.655762,-0.862549,-0.096924,13.305663,123.291008,42.358395,1.0878459632783495
0.673096,-0.872314,-0.091064,15.396117,119.544975,34.77478,1.105568899665688
0.69043,-0.866943,-0.131836,16.342163,110.023491,27.580259,1.116093401577574
0.691162,-0.851318,-0.183105,22.178648,96.778862,22.506712,1.1117439850941404
0.688477,-0.830566,-0.221436,32.051086,79.612732,17.173767,1.1013057531771093
0.695557,-0.819824,-0.236328,44.258114,56.983944,8.026123,1.1008005517844728
0.71167,-0.834473,-0.274414,61.408993,27.770994,-2.311707,1.1305407644242644
0.71167,-0.873047,-0.339355,80.444328,-7.820129,-9.468079,1.1763702942245695
0.677979,-0.91333,-0.343262,95.832817,-46.920773,-13.336181,1.1881313117601942
0.630859,-0.951904,-0.296875,107.467644,-86.372368,-15.029906,1.1799318068100375
0.588135,-0.975586,-0.249268,112.236015,-123.458855,-16.76178,1.1661069236759551
0.532715,-0.976807,-0.210205,110.191338,-151.557922,-21.034239,1.1323088485475155
0.446777,-0.974365,-0.144043,104.911797,-169.654831,-25.871275,1.081547607275334
0.320068,-0.979492,-0.106201,95.237724,-174.514755,-28.884886,1.0359183148728475
0.236328,-0.985107,-0.112793,84.129326,-166.000351,-30.921934,1.0193179022670014
0.237061,-0.991455,-0.116211,75.286865,-149.116516,-34.439087,1.0260048397873178
0.290039,-0.99292,-0.098389,68.80188,-130.966187,-37.857056,1.039082837526441
0.351807,-1.0,-0.075439,62.103268,-119.377129,-39.070129,1.0627601836585712
0.344971,-1.014893,-0.069824,54.496761,-114.044182,-35.972595,1.0741918745112533
0.264404,-1.026611,-0.084229,47.866817,-113.220207,-25.825499,1.063453875341098
0.243652,-1.024658,-0.11499,41.046139,-116.271965,-16.265869,1.059487146768662
0.277344,-1.026123,-0.124756,38.078308,-118.591301,-17.547607,1.0702393026800128
0.303223,-1.056885,-0.087158,41.41235,-119.674675,-26.18408,1.1029717167352933
0.323975,-1.099609,-0.027344,44.837948,-122.344963,-32.608032,1.146667976286946
0.333008,-1.125244,0.038818,41.679379,-126.937859,-36.941528,1.1741274312117913
0.29248,-1.122314,0.090088,33.035278,-131.408691,-42.854305,1.1632923590998094
0.218506,-1.092041,0.12207,23.612974,-136.680603,-48.126217,1.1203568639576411
0.153809,-1.059082,0.142334,16.105652,-143.547058,-52.078243,1.079616070073524
0.123535,-1.036621,0.134521,12.725829,-149.703979,-57.647701,1.0525872378605965
0.095215,-1.020508,0.116455,13.786315,-152.633667,-64.987183,1.031534895829511
0.087158,-1.00293,0.123291,19.218445,-155.776978,-71.868896,1.0142316168139307
0.094971,-0.988281,0.157227,25.787352,-161.277756,-76.019287,1.005206026310527
0.053223,-0.983154,0.186035,28.488157,-163.330063,-76.087952,1.0020147187891004
-0.028564,-0.986572,0.191162,29.891966,-158.096313,-69.076538,1.0053273713194124
-0.085693,-0.979736,0.157227,28.419493,-139.984131,-60.325619,0.9959649840601829
-0.064209,-0.94165,0.151123,22.27783,-111.465446,-56.373592,0.955858608430138
0.040527,-0.885742,0.147461,21.835325,-81.001274,-55.763241,0.8988470808841735
0.181885,-0.887451,0.146973,34.851074,-58.464046,-55.732723,0.9177431521700393
0.243164,-0.978027,0.165771,53.314205,-50.4837,-51.284786,1.021344979948499
0.177734,-1.078125,0.199219,60.226437,-53.283688,-40.702816,1.1106894707081725
0.084473,-1.107422,0.226807,51.574703,-58.990475,-32.165527,1.1335610213226281
0.055176,-1.060547,0.22168,37.780762,-60.569759,-30.502317,1.084871583453544
0.097656,-1.000732,0.203857,31.463621,-59.387203,-31.715391,1.0259429353570304
0.114258,-0.961182,0.199219,34.477234,-53.451534,-27.076719,0.9882377940804531
0.10083,-0.934082,0.199707,37.193298,-49.804684,-19.012451,0.9604992230465363
0.104248,-0.917236,0.196533,38.551331,-51.849361,-15.922545,0.9438298285649803
0.117432,-0.919189,0.182129,41.275021,-56.854244,-14.465331,0.9443885137939788
0.119141,-0.943115,0.155762,42.526241,-63.262936,-10.246276,0.9632872270252524
0.090088,-0.952637,0.123779,40.229794,-68.611145,-3.211975,0.9648597526863684
0.07959,-0.943359,0.081787,37.475586,-70.632935,3.509521,0.9502367517361133
0.074219,-0.923828,0.049561,36.2854,-66.360474,8.651733,0.9281287228967758
0.083496,-0.908203,0.022705,36.231995,-58.662411,13.191222,0.9123156187690749
0.090088,-0.910889,0.00293,37.483215,-49.041744,18.966675,0.9153377534904806
0.093262,-0.928223,-0.011963,38.383484,-38.215637,25.650023,0.9329731248765958
0.092773,-0.945557,-0.023438,36.79657,-26.19171,31.646727,0.9503863475566134
0.086426,-0.955322,-0.029297,32.88269,-10.459899,35.263062,0.9596707202832647
0.088867,-0.970703,-0.029541,28.381346,7.240295,35.926819,0.9752098895002039
0.119385,-0.992432,-0.027832,23.361204,22.483824,33.279419,0.9999743362071848
0.163574,-1.009033,-0.03125,16.525269,31.745909,32.501221,1.0226830452613362
0.191406,-1.015381,-0.019531,8.529663,34.812927,36.323547,1.0334487369763437
0.213135,-1.015381,-0.003662,0.0,32.600403,42.678829,1.0375155486208387
0.233398,-1.005371,0.012451,-8.964539,24.261473,49.530025,1.0321823973726736
0.255615,-0.996094,0.026123,-18.600464,9.727478,55.938717,1.0287004890588902
0.263428,-0.990723,0.027588,-25.848387,-8.155823,61.149593,1.0255181478925666
0.261963,-0.996338,0.035156,-30.166624,-26.80969,64.575195,1.0308006441349364
0.259277,-1.003906,0.03418,-33.851624,-46.287533,68.405151,1.0374102814050956
0.249268,-1.010742,0.023438,-35.217285,-62.469479,69.549561,1.0412892327456382
0.240234,-1.02124,0.020508,-35.53772,-72.547913,68.664551,1.0493160107517658
0.239746,-1.025391,0.004639,-35.835266,-79.223633,67.901611,1.0530557286858087
0.249512,-1.024414,-0.019043,-34.759521,-83.724968,66.558838,1.054534455287735
0.247803,-1.019775,-0.036621,-32.485962,-86.776726,64.476013,1.0500897462002952
0.247559,-1.015381,-0.053223,-29.624937,-90.118401,62.370296,1.0464782469650291
0.238525,-1.005859,-0.059326,-26.046751,-93.482964,60.104366,1.035454527143515
0.221191,-0.999756,-0.060791,-21.339415,-95.603935,56.213375,1.0257353770334725
0.196777,-0.994629,-0.05249,-16.654968,-94.894402,50.781246,1.015265106004338
0.171631,-0.986816,-0.039307,-13.084411,-91.072075,44.715878,1.0024011463810285
0.14624,-0.979492,-0.0271,-10.475158,-83.908073,37.536621,0.9907194989824314
0.127197,-0.973633,-0.015869,-8.743286,-74.073792,29.876707,0.982034684040742
0.108154,-0.974854,-0.007324,-7.492065,-62.248226,22.071836,0.9808625031104002
0.094238,-0.984375,-0.000977,-6.050109,-48.439022,13.816833,0.9888760770683048
0.085938,-0.992676,0.007568,-5.203247,-32.600403,5.493164,0.9964177113259278
0.086914,-1.000977,0.01123,-5.981445,-15.73944,-2.403259,1.0048060065629585
0.095215,-1.007324,0.008789,-7.583618,0.831604,-9.910583,1.0118521550710855
0.108643,-1.008545,0.012207,-9.124756,15.594481,-16.708374,1.0144532169218057
0.123535,-1.003174,0.01123,-10.498046,27.626036,-22.178648,1.01081406964931
0.136719,-0.999023,0.012939,-11.657714,36.979675,-26.428221,1.0084177989360363
0.150391,-0.992432,0.015869,-12.321471,43.785091,-29.106138,1.003887719152894
0.164307,-0.987549,0.015137,-12.886046,48.271175,-30.456541,1.0012387060132064
0.171631,-0.979004,0.007324,-13.046264,50.10223,-31.440733,0.9939616054722636
0.182373,-0.976563,0.004883,-12.573241,49.407955,-31.997679,0.9934581258347026
0.189941,-0.963379,-0.007324,-11.589049,45.669552,-31.738279,0.9819523013354569
0.189697,-0.95459,-0.02417,-9.460449,39.169312,-31.211851,0.9735559607998916
0.185791,-0.952881,-0.036865,-6.462097,31.379698,-30.372618,0.9715243301467029
0.18042,-0.962402,-0.053955,-2.471924,23.216246,-28.96118,0.9806529090503938
0.173096,-0.974365,-0.071777,1.342773,15.838622,-27.076719,0.9922203969733742
0.169189,-0.984375,-0.084717,4.760742,8.506775,-24.757383,1.002395145855665
0.163818,-0.997314,-0.095459,7.797241,1.983642,-22.766111,1.0151768182937393
0.155029,-1.002197,-0.11084,9.887695,-3.250122,-20.317076,1.0201560288749953
0.151611,-1.007813,-0.118652,12.20703,-8.705139,-17.150879,1.0260366637669438
0.14624,-1.019043,-0.118652,14.198302,-13.252257,-13.793944,1.0362977711801757
0.134521,-1.022705,-0.115479,14.518737,-16.555786,-10.559081,1.0379580029591755
0.132813,-1.019043,-0.110107,13.336181,-19.058228,-7.118225,1.0335431680713678
0.13208,-1.015869,-0.101563,11.444091,-20.874022,-3.929138,1.029441593549629
0.127441,-1.013184,-0.091064,9.017944,-21.781919,-1.289368,1.025219819567004
0.126465,-1.01001,-0.081787,5.897521,-21.926878,1.243591,1.0211771196486925
0.123291,-1.006836,-0.071533,2.510071,-20.622252,3.265381,1.0168757896941003
0.119873,-0.99707,-0.061523,-1.190186,-18.104553,4.493713,1.006132794693623
0.119385,-0.983154,-0.051514,-4.936218,-15.380858,5.462646,0.9917148068557815
0.116211,-0.974121,-0.04541,-8.239746,-11.909484,6.233215,0.9820788090891688
0.116943,-0.966553,-0.042969,-11.146544,-8.682251,7.034301,0.9745494866957757
0.118408,-0.96167,-0.03833,-13.267516,-5.226135,7.156372,0.9696900702100647
0.121826,-0.961914,-0.031494,-14.686584,-1.289368,6.439209,0.9701092668911065
0.126221,-0.960449,-0.0271,-16.326904,3.387451,5.432128,0.9690863905978662
0.133057,-0.954102,-0.021729,-17.875671,7.92694,4.371643,0.9635802722627731
0.14209,-0.947754,-0.016113,-18.058777,12.062072,3.379822,0.958481528974346
0.150879,-0.945801,-0.014404,-17.63916,14.739989,2.792358,0.9578681952429572
0.159668,-0.94751,-0.010742,-16.448975,16.983032,2.464294,0.9609289572533445
0.169189,-0.953369,-0.009277,-15.121459,18.005371,1.983642,0.9683095737474664
0.175781,-0.95459,-0.008545,-13.687133,18.280029,1.617432,0.9706771065014359
0.18042,-0.955566,-0.006592,-11.70349,17.990112,0.907898,0.9724717020150252
0.186279,-0.956543,-0.005127,-9.140015,17.211914,0.396728,0.9745258656490345
0.188232,-0.962402,-0.004883,-7.057189,15.48767,0.450134,0.9806491417000271
0.192383,-0.963867,-0.007324,-4.455566,13.168334,0.091553,0.9829061264200158
0.196289,-0.968262,-0.007813,-1.838684,10.803222,0.350952,0.9879887221694384
0.201904,-0.973145,-0.012695,0.717163,7.400512,0.38147,0.9939504913555806
0.199219,-0.973389,-0.015381,3.135681,4.508972,0.457764,0.9936855289491741
0.19873,-0.979248,-0.016846,5.378723,1.968384,0.495911,0.999351812986798
0.195801,-0.984375,-0.019531,7.164001,-0.144958,0.595093,1.0038494071258894
0.19165,-0.981445,-0.021973,7.995605,-1.358032,0.488281,1.0002233866761965
0.181641,-0.976563,-0.028076,8.674622,-1.51062,0.144958,0.9937087136711642
0.175049,-0.973389,-0.03418,9.20105,-0.587463,-0.694275,0.989594144142941
0.169434,-0.970215,-0.041016,9.307861,1.12915,-1.625061,0.9857521690754731
0.161133,-0.967041,-0.048096,9.483337,3.52478,-2.838135,0.9815525276754169
0.155762,-0.967041,-0.055176,9.170532,6.500244,-4.310608,0.9810578409558736
0.151123,-0.966309,-0.05957,8.728027,9.674072,-5.767822,0.9798672509631088
0.151123,-0.972656,-0.0625,8.636475,12.977599,-7.095336,0.9863083217052363
0.151611,-0.980225,-0.070313,8.44574,16.036987,-8.079529,0.9943695811492828
0.151123,-0.990723,-0.077637,7.965087,18.52417,-9.063721,1.0051854195256715
0.153076,-0.998291,-0.084473,6.950378,20.553587,-9.872437,1.0134855056615266
0.154541,-0.99707,-0.091064,5.714416,22.163389,-10.368346,1.0130765803615243
0.154053,-0.993896,-0.093506,4.40979,23.223875,-10.620116,1.0101014590926003
0.15625,-0.989746,-0.096191,3.799438,24.215696,-10.643004,1.0066101109650152
0.1604,-0.99292,-0.092529,3.425598,24.887083,-10.208129,1.0100395547903063
0.165283,-1.0,-0.088379,3.013611,25.024412,-9.216309,1.0174130516805846
0.166748,-1.007324,-0.077393,1.953125,25.291441,-8.049011,1.023961040728113
0.169922,-1.010498,-0.07373,0.274658,25.627134,-6.950378,1.0273343209432848
0.177002,-1.010498,-0.075439,-1.770019,25.878904,-5.630493,1.0286529826569308
0.185547,-1.009033,-0.071533,-3.684997,25.634764,-4.302979,1.0284416630937314
0.195068,-1.004639,-0.071533,-5.432128,24.879454,-2.998352,1.0258986377971266
0.204102,-0.996094,-0.071777,-6.637573,23.025511,-1.785278,1.019319783467877
0.209229,-0.987061,-0.070557,-7.652282,20.225523,-0.694275,1.0114566142010244
0.2146,-0.97876,-0.067139,-8.399963,16.471863,0.205994,1.0042569108156538
0.215088,-0.968506,-0.064209,-8.674622,12.397765,1.029968,0.9941778087751708
0.218994,-0.963379,-0.058838,-8.666992,8.262634,2.037048,0.9897067140931196
0.220459,-0.96167,-0.052734,-8.323669,3.913879,3.082275,0.9880244097880376
0.221924,-0.962158,-0.047363,-7.8125,0.022888,3.829956,0.9885552753938446
0.217285,-0.96582,-0.040527,-7.286071,-2.685547,4.119873,0.990789322385945
0.2146,-0.965332,-0.036621,-7.186889,-4.631042,4.53186,0.9895757312429403
0.213867,-0.962402,-0.029785,-6.736755,-6.233215,4.592896,0.9863284693843122
0.216309,-0.96582,-0.025146,-6.286621,-7.514953,4.226685,0.9900657438761327
0.216064,-0.967529,-0.023193,-5.943298,-8.903503,3.982544,0.9916319545002571
0.215088,-0.966309,-0.023926,-5.630493,-10.162353,3.738403,0.9902466282199601
0.212402,-0.966797,-0.026855,-4.699707,-11.192321,3.219604,0.9902182788850143
0.209473,-0.970459,-0.026855,-3.608703,-12.008666,2.609253,0.9931720895368537
0.206787,-0.974365,-0.02417,-2.555847,-12.46643,2.166748,0.9963594760396471
0.203613,-0.97876,-0.026123,-1.548767,-12.763976,1.441955,1.0000558996866125
0.20166,-0.983887,-0.028809,-0.831604,-13.114928,0.709534,1.004753871776566
0.197754,-0.984375,-0.029541,-0.152588,-13.420104,-0.091553,1.004476707456176
0.189697,-0.985352,-0.029541,0.465393,-13.427733,-0.747681,1.0038805638092612
0.18457,-0.984863,-0.031738,0.999451,-13.252257,-1.335144,1.0025111043340118
0.177734,-0.988037,-0.037598,1.235962,-12.565612,-2.037048,1.0045994712963968
0.171631,-0.984619,-0.046387,1.38855,-11.489867,-2.861023,1.000541617870541
0.16626,-0.983887,-0.050537,1.426697,-10.185241,-3.738403,0.9991146104116384
0.162109,-0.980225,-0.056641,1.533508,-8.712769,-4.325867,0.9951525417678437
0.160889,-0.979492,-0.060059,1.663208,-7.270813,-4.821777,0.9944329700216099
0.155029,-0.979004,-0.063232,1.335144,-5.92041,-5.187988,0.9932175535505804
0.153809,-0.976807,-0.067627,1.083374,-4.722595,-5.195617,0.9911521249833448
0.150879,-0.981689,-0.066895,0.740051,-3.715515,-5.073547,0.9954660749553448
0.147461,-0.987061,-0.066162,0.244141,-2.555847,-4.760742,1.0002057660731616
0.143066,-0.987549,-0.06958,-0.495911,-1.121521,-4.173279,1.000281102569173
0.141602,-0.989502,-0.069336,-1.63269,0.793457,-3.356933,1.001984438653615
0.140381,-0.987305,-0.067871,-2.838135,3.311157,-2.723694,0.9995421255890119
0.143066,-0.986084,-0.070557,-3.738403,5.874633,-2.151489,0.9989033114676314
0.149414,-0.983643,-0.071045,-4.272461,8.239746,-1.579285,0.9974595164065558
0.155029,-0.981689,-0.069336,-4.684448,9.788513,-1.052856,0.9962704273730101
0.160156,-0.97998,-0.068359,-4.959106,10.383605,-0.488281,0.9953309487888939
0.165039,-0.981445,-0.063721,-5.043029,10.31494,0.205994,0.9972625157835824
0.172119,-0.981934,-0.057617,-5.218505,10.131835,0.968933,0.9985685000068848
0.174072,-0.982666,-0.050293,-5.508422,9.941101,1.548767,0.9992311617383638
0.177246,-0.97876,-0.049072,-5.683898,9.727478,1.853943,0.9958892224037772
0.180664,-0.975342,-0.049561,-5.783081,9.468079,1.770019,0.9931705747659866
0.184326,-0.968506,-0.049316,-5.569458,8.926392,1.63269,0.9871230998046799
0.188232,-0.967773,-0.047852,-4.974365,8.18634,1.319885,0.9870692373167143
0.190186,-0.970947,-0.041016,-4.089355,7.507324,1.152039,0.9902480010891211
0.190918,-0.974854,-0.035156,-3.440857,6.935119,1.365662,0.993994943838247
0.194092,-0.976074,-0.032715,-3.112793,6.553649,1.38092,0.9957220642152106
0.195801,-0.972412,-0.036133,-3.067016,6.340026,1.190186,0.992586884375368
0.198975,-0.968262,-0.040039,-2.777099,6.103515,0.808716,0.9893055507728641
0.197754,-0.965576,-0.042969,-1.899719,5.66864,0.564575,0.9865546063209071
0.19751,-0.964111,-0.047363,-0.907898,4.821777,0.457764,0.9852732992373233
0.197021,-0.964111,-0.046631,0.015259,4.058838,0.152588,0.9851404696402438
0.196045,-0.961914,-0.046143,0.778198,3.715515,-0.053406,0.9827722838328318
0.190918,-0.962891,-0.05127,1.289368,3.562927,-0.526428,0.9829737399874933
0.190674,-0.964355,-0.053955,1.594543,3.440857,-0.923157,0.9845040793851491
0.195801,-0.967773,-0.056885,1.808166,2.937317,-1.304626,0.9890189656194668
0.193848,-0.971436,-0.05957,1.678467,1.930237,-1.502991,0.9923777174543975
0.190918,-0.971924,-0.061035,1.617432,0.671387,-1.480102,0.9923765493626903
0.187256,-0.974121,-0.061768,1.571655,-0.457764,-1.480102,0.9938771644428702
0.184326,-0.977783,-0.064209,1.403808,-1.022339,-1.441955,0.9970749545776386
0.182861,-0.981689,-0.063965,1.152039,-0.915527,-1.419067,1.0006212866349586
0.183105,-0.985107,-0.065674,0.839233,-0.572205,-1.487732,1.0041296314470558
0.181396,-0.982422,-0.069824,0.160217,-0.175476,-1.708984,1.0014653692844302
0.177734,-0.97876,-0.071533,-0.289917,0.091553,-1.739502,0.9973351906179787
0.176758,-0.979004,-0.073242,-0.305176,0.579834,-1.617432,0.9975252443642717
0.17627,-0.983154,-0.072754,-0.160217,1.274109,-1.487732,1.0014769319020782
0.176514,-0.988525,-0.073242,-0.396728,1.861572,-1.091003,1.0068283162411553
0.178223,-0.987061,-0.07373,-1.182556,2.189636,-0.900268,1.0057280787320197
0.176025,-0.983398,-0.072266,-1.876831,2.479553,-1.037598,1.0016380592734084
0.174561,-0.983154,-0.073242,-2.319336,2.807617,-1.190186,1.0012131246647737
0.175293,-0.981689,-0.071777,-2.754211,3.440857,-1.350403,0.9997964124255497
0.17627,-0.980713,-0.069336,-2.975464,3.929138,-1.419067,0.9988376155136529
0.177246,-0.978516,-0.065674,-3.356933,4.104614,-1.586914,0.99660562964896
0.181885,-0.975586,-0.0625,-4.196167,3.753662,-1.571655,0.9943623316583347
0.182617,-0.973389,-0.057617,-4.684448,3.471374,-1.365662,0.9920457815539563
0.183594,-0.97168,-0.057373,-5.058288,3.479004,-0.976562,0.9905354311507489
0.182617,-0.968262,-0.054443,-4.936218,3.77655,-0.671387,0.9868355027977053
0.181152,-0.971924,-0.05127,-4.501343,4.295349,-0.75531,0.9899903644884631
0.179688,-0.971924,-0.051514,-4.203796,4.997253,-0.923157,0.9897361927887653
0.18042,-0.968262,-0.052979,-3.807068,5.775451,-1.319885,0.9863515861420814
0.182373,-0.968262,-0.052979,-3.234863,6.629943,-1.678467,0.9867106902299173
0.185791,-0.963135,-0.054199,-2.609253,7.446289,-1.922607,0.9823873245858783
0.183105,-0.960693,-0.05127,-1.998901,8.201599,-2.113342,0.9793299210041527
0.184814,-0.963135,-0.04834,-1.327515,8.804321,-2.380371,0.981897142485403
0.186523,-0.965088,-0.047363,-0.701904,9.094238,-2.464294,0.9840878675413085
0.189941,-0.968994,-0.04834,-0.549316,9.078979,-2.502441,0.988617070010932
0.192139,-0.971924,-0.050537,-0.62561,8.56781,-2.342224,0.9920219984788644
0.189209,-0.972412,-0.047852,-0.640869,7.987976,-2.029419,0.9918038905595199
0.188721,-0.973389,-0.050293,-0.511169,7.5531,-1.64032,0.992789578415789
0.189453,-0.979248,-0.05127,-0.267029,7.438659,-1.213074,0.9987230334847594
0.190186,-0.979248,-0.053955,-0.030518,7.270813,-0.88501,0.9990037548102609
0.191406,-0.977051,-0.061523,0.022888,7.148742,-0.587463,0.9975219260577685
0.192871,-0.973389,-0.065674,0.015259,6.912231,-0.572205,0.9944840080353228
0.189453,-0.967529,-0.064209,-0.022888,6.431579,-0.572205,0.9879917007399405
0.186523,-0.963379,-0.062744,0.595093,5.783081,-0.724792,0.9832734801193409
0.186279,-0.968506,-0.060547,1.647949,5.561828,-0.63324,0.9881142024513159
0.186279,-0.978271,-0.061035,2.220154,5.66101,-0.564575,0.9977170372941419
0.187256,-0.987061,-0.063721,1.876831,5.798339,-0.572205,1.0066849522556696
0.1875,-0.990723,-0.063232,1.083374,5.996704,-0.534058,1.0102903535880168
0.187744,-0.987305,-0.065674,0.358582,5.981445,-0.488281,1.0071405298353353
0.183594,-0.981934,-0.068115,-0.434875,5.943298,-0.343323,1.0012695892800298
0.182617,-0.976563,-0.066406,-0.63324,5.950927,-0.244141,0.9957077977469092
0.185059,-0.974854,-0.06665,-0.198364,6.004333,-0.366211,0.9944995612351973
0.184326,-0.977783,-0.064697,-0.099182,6.225585,-0.1297,0.99710649941418
0.184326,-0.981445,-0.061279,-0.137329,6.492614,0.106812,1.000482622608709
0.183594,-0.979248,-0.060791,-0.556946,6.767272,0.389099,0.9981627863334718
0.184082,-0.976563,-0.061523,-0.930786,7.156372,0.785828,0.9956638766280516
0.186523,-0.976318,-0.063965,-0.869751,7.56073,0.862122,0.9960317203171795
0.188721,-0.97583,-0.065186,-0.610352,7.781982,0.862122,0.9960466953597106
0.19165,-0.976807,-0.063721,-0.274658,7.743835,1.014709,0.9974677957658583
0.196777,-0.978027,-0.0625,0.022888,7.598876,1.213074,0.9995820378828343
0.19873,-0.982178,-0.062988,0.244141,7.308959,1.464844,1.0040591241196903
0.197266,-0.984619,-0.063965,0.091553,6.973266,1.823425,1.0062206374061307
0.196533,-0.984131,-0.061523,-0.007629,6.858825,1.88446,1.0054472262525767
0.194092,-0.984131,-0.065918,-0.099182,6.935119,1.846313,1.0052515666981077
0.190186,-0.981934,-0.066162,-0.106812,7.125854,1.579285,1.002368447825449
0.189941,-0.980713,-0.068115,-0.083923,7.286071,1.220703,1.0012568227358052
0.190918,-0.975586,-0.068604,-0.427246,7.43103,0.831604,0.9964558369220383
0.19458,-0.973633,-0.070068,-0.617981,7.293701,0.495911,0.9953552731125705
0.196045,-0.968994,-0.068604,-0.617981,6.881713,0.534058,0.9910043001304283
0.19751,-0.969482,-0.068359,-0.526428,6.507873,0.686645,0.9917552628068076
0.200684,-0.97168,-0.067383,-0.38147,6.118774,1.13678,0.9944730056391676
0.202393,-0.972412,-0.06543,-0.389099,5.584716,1.594543,0.9954039929058955
0.201904,-0.974854,-0.064453,-0.389099,4.776001,2.075195,0.997627052430416
0.202637,-0.974365,-0.063477,-0.541687,4.074097,2.39563,0.997235296468692
0.204834,-0.9729,-0.066895,-0.679016,3.227234,2.418518,0.9964769533616921
0.205322,-0.970215,-0.066895,-0.350952,1.991272,2.464294,0.993956342569431
0.207031,-0.971436,-0.063965,0.259399,0.793457,2.6474,0.995309629352595
0.204834,-0.973877,-0.064697,0.75531,-0.175476,2.815246,0.9972858569607813
0.207275,-0.976074,-0.06543,0.75531,-1.205444,2.914428,0.9999822318426463
0.206787,-0.974365,-0.063721,0.770569,-2.410889,2.922058,0.9981023907570806
0.201904,-0.974609,-0.06543,0.892639,-3.417969,2.838135,0.9974512584567728
0.199707,-0.974854,-0.06543,1.113892,-4.264832,2.838135,0.9972483602719033
0.192871,-0.977295,-0.06543,1.106262,-4.676819,2.685547,0.9982914527160893
0.192871,-0.979004,-0.065674,0.961304,-4.79126,2.319336,0.9999805642776263
0.191895,-0.980469,-0.065186,0.572205,-4.699707,2.02179,1.0011954682188688
0.190918,-0.980957,-0.067383,-0.061035,-4.524231,1.747131,1.001632061818111
0.187988,-0.977539,-0.063477,-0.62561,-4.379272,1.617432,0.9974724628750411
0.185547,-0.97583,-0.063965,-0.732422,-4.188538,1.602173,0.9953709857806786
0.184082,-0.976074,-0.063721,-0.640869,-3.784179,1.64032,0.9953225618064728
0.182617,-0.978027,-0.065674,-0.587463,-3.27301,1.564026,0.9970952089414531
0.182617,-0.971436,-0.066895,-0.717163,-2.960205,1.365662,0.990712779674311
0.182861,-0.967285,-0.067627,-0.915527,-2.716064,1.197815,0.9867379731595415
0.179443,-0.959961,-0.068359,-0.88501,-2.426147,1.029968,0.9789779694410901
0.178711,-0.957275,-0.064697,-0.442505,-1.968384,0.923157,0.9759604238671771
0.179443,-0.959717,-0.060059,0.259399,-1.480102,0.915527,0.9781940471189753
0.177979,-0.968994,-0.057861,0.869751,-0.831604,1.098633,0.986901105378852
0.178711,-0.977051,-0.056152,0.961304,-0.228882,0.968933,0.9948463827275044
0.18042,-0.979492,-0.057617,0.701904,0.213623,0.869751,0.9976350400587382
0.182617,-0.97998,-0.059082,0.556946,0.152588,0.762939,0.9985992448490034
0.185059,-0.976807,-0.062988,0.526428,-0.328064,0.915527,0.9961758062079203
0.185547,-0.972656,-0.060791,0.732422,-0.88501,1.121521,0.9920599423552994
0.18457,-0.967773,-0.060791,1.350403,-1.464844,1.220703,0.9870897680099819
0.185059,-0.966797,-0.063477,1.922607,-1.686096,1.350403,0.9863937358980946
0.185059,-0.967773,-0.061279,2.39563,-1.51062,1.296997,0.9872114914500337
0.18457,-0.970459,-0.063965,2.555847,-1.289368,1.312256,0.9899233691584415
0.186035,-0.974609,-0.06543,2.433777,-1.174927,1.281738,0.9943605025371834
0.187744,-0.975586,-0.06665,2.334595,-1.159668,1.091003,0.995719877993806
0.190674,-0.977051,-0.065674,1.983642,-1.266479,0.938415,0.9976463828195841
0.187256,-0.978027,-0.066406,1.655578,-1.419067,0.564575,0.9980036969375413
0.185791,-0.975342,-0.066406,1.396179,-1.556396,0.175476,0.9950980200367199
0.189941,-0.97583,-0.066162,1.159668,-1.930237,-0.312805,0.9963429041374259
0.188232,-0.97583,-0.066895,0.869751,-2.380371,-0.747681,0.9960674755000285
0.186279,-0.970459,-0.069824,0.495911,-2.868652,-1.045227,0.9906391510020185
0.184326,-0.970215,-0.066895,0.274658,-3.211975,-1.319885,0.9898323906227762
0.183105,-0.969971,-0.064697,0.442505,-3.318786,-1.51062,0.9892203413168373
0.181885,-0.970215,-0.063477,0.62561,-3.288269,-1.480102,0.9891555130407959
0.181152,-0.971436,-0.062012,0.602722,-3.158569,-1.472473,0.9901259704421452
0.182129,-0.973389,-0.059814,0.640869,-3.318786,-1.396179,0.9920861013833426
0.181152,-0.972656,-0.05957,0.534058,-3.547668,-1.335144,0.9911732070329584
0.182129,-0.970703,-0.060303,0.518799,-3.807068,-1.235962,0.9894805398081359
0.179443,-0.967529,-0.058838,0.762939,-4.020691,-1.159668,0.9857860144747439
0.179688,-0.966309,-0.058105,1.304626,-3.967285,-0.968933,0.9845897886175744
0.181396,-0.969482,-0.055176,1.800537,-4.013062,-0.816345,0.9878482920550098
0.181641,-0.972656,-0.055176,2.243042,-4.066467,-0.610352,0.9910083441591195
0.18335,-0.973877,-0.053955,2.403259,-4.264832,-0.457764,0.99245391613616
0.183594,-0.975098,-0.054199,2.426147,-4.478455,-0.450134,0.9937104196097574
0.181641,-0.974854,-0.056152,2.418518,-4.905701,-0.419617,0.9932204293614786
0.181152,-0.974609,-0.056152,2.624511,-5.050659,-0.488281,0.9928906269519316
0.179932,-0.977295,-0.059326,2.807617,-5.081176,-0.480652,0.9954901385372936
0.177246,-0.978516,-0.057373,3.067016,-5.004883,-0.602722,0.9960930518284926
0.175049,-0.97998,-0.057861,3.036499,-4.776001,-0.778198,0.9971714236388847
0.174072,-0.979492,-0.058105,2.784729,-4.325867,-0.869751,0.9965349117180993
0.175293,-0.979736,-0.057373,2.716064,-3.639221,-1.045227,0.9969463007975906
0.175293,-0.981934,-0.060303,2.6474,-3.005981,-1.152039,0.9992789740678024
0.175049,-0.979736,-0.058838,2.380371,-2.738952,-1.144409,0.9969888125455572
0.173828,-0.97998,-0.057617,2.006531,-2.593994,-1.045227,0.9969436757776239
0.174805,-0.977539,-0.059326,1.754761,-2.388,-0.953674,0.9948159924438288
0.175537,-0.976807,-0.060303,1.594543,-2.27356,-0.770569,0.9942844690665745
0.175781,-0.977783,-0.057861,1.548767,-2.128601,-0.610352,0.9951414222968512
0.178467,-0.97876,-0.059082,1.655578,-1.960754,-0.419617,0.9966505357511227
0.177002,-0.978516,-0.058838,1.663208,-2.029419,-0.305176,0.9961351216095135
0.17627,-0.976074,-0.05957,1.663208,-2.113342,-0.183105,0.9936499138408859
0.176758,-0.972412,-0.057861,1.602173,-2.159119,-0.137329,0.9900385768388018
0.172607,-0.966797,-0.052002,1.777649,-2.220154,-0.259399,0.9834601281506028
0.174316,-0.971436,-0.049072,2.128601,-2.052307,-0.335693,0.9881710535813119
0.176514,-0.976807,-0.046387,2.540588,-2.01416,-0.282288,0.9937106526620312
0.177734,-0.982178,-0.04834,2.6474,-1.960754,-0.282288,0.9992996317621657
0.178955,-0.983398,-0.050049,2.334595,-2.304077,-0.25177,1.0008003901028417
0.179443,-0.980225,-0.051514,2.182007,-2.731323,-0.198364,0.9978449444026862
0.17749,-0.975342,-0.050293,2.456665,-2.960205,0.038147,0.9926349293234649
0.175537,-0.971924,-0.045166,2.89154,-3.044128,0.198364,0.9886806702373623
0.174805,-0.972412,-0.045654,3.173828,-2.761841,0.434875,0.9890531702011779
0.177979,-0.974609,-0.047363,3.295898,-2.349854,0.488281,0.9918580952389309
0.177734,-0.978271,-0.052734,3.433227,-1.953125,0.389099,0.9956828807170484
0.177734,-0.977051,-0.05542,3.448486,-1.792908,0.297546,0.994630286969485
0.177002,-0.97876,-0.058838,3.318786,-1.502991,0.25177,0.9963748069115357
0.177002,-0.980713,-0.05835,3.234863,-1.13678,0.198364,0.9982647038100666
0.175537,-0.979248,-0.056152,2.960205,-0.778198,0.198364,0.9964401291482594
0.174072,-0.977051,-0.05249,2.471924,-0.167847,0.007629,0.9938233836477184
0.17749,-0.977295,-0.054199,2.349854,0.1297,-0.305176,0.9947591410617949
0.179688,-0.979492,-0.05835,2.304077,0.099182,-0.579834,0.9975455267344945
0.181885,-0.980469,-0.059326,1.747131,-0.007629,-0.686645,0.9989600529861042
0.18042,-0.974121,-0.057129,1.38855,-0.457764,-0.869751,0.9923340272720673
0.180908,-0.971924,-0.05957,1.419067,-0.88501,-0.862122,0.9904102943427032
0.179443,-0.974609,-0.056396,1.594543,-0.831604,-0.762939,0.9925940771261935
0.178955,-0.976563,-0.053467,1.594543,-0.892639,-0.778198,0.9942629959336714
0.180176,-0.979736,-0.049561,1.411438,-1.014709,-0.610352,0.9973977708983514
0.179932,-0.97876,-0.049805,1.205444,-0.930786,-0.518799,0.9964071458239347
0.177979,-0.978516,-0.050781,0.930786,-0.801086,-0.442505,0.9958658527422256
0.178223,-0.976074,-0.048584,1.068115,-0.602722,-0.50354,0.9934003705762345
0.179443,-0.975586,-0.048096,1.38855,-0.679016,-0.572205,0.9931168404880666
0.182373,-0.976807,-0.049316,1.777649,-0.961304,-0.747681,0.9949089879149751
0.184814,-0.978271,-0.047363,1.976013,-1.281738,-0.663757,0.9967013684178426
0.18335,-0.979004,-0.047119,2.052307,-1.358032,-0.457764,0.9971390347774978
0.182129,-0.976807,-0.047607,1.998901,-1.441955,-0.350952,0.9947810383893533
0.183105,-0.973389,-0.048584,1.876831,-1.594543,-0.335693,0.9916521524214021
0.181641,-0.970459,-0.050537,1.922607,-1.831055,-0.556946,0.9886041229587301
0.178955,-0.96875,-0.05249,2.166748,-1.945495,-0.709534,0.9865377106958456
0.180664,-0.971191,-0.052246,2.258301,-1.800537,-1.022339,0.9892325732066246
0.180176,-0.975098,-0.051758,2.357483,-1.548767,-1.358032,0.9929543751572879
0.18042,-0.977783,-0.052246,1.998901,-1.38092,-1.472473,0.995660894082418
0.181396,-0.977295,-0.052246,1.602173,-1.495361,-1.556396,0.9953590660445104
0.178467,-0.976318,-0.051514,1.289368,-1.579285,-1.647949,0.9938314743501536
0.177246,-0.977051,-0.05127,1.121521,-1.579285,-1.770019,0.9943205790976067
0.178955,-0.974854,-0.053467,1.289368,-1.617432,-1.89209,0.992584471684904
0.179443,-0.977295,-0.053955,1.457214,-2.166748,-1.876831,0.9950962010273178
0.18042,-0.977539,-0.051758,1.678467,-2.983093,-1.663208,0.9953957823323344
0.180908,-0.979492,-0.047119,1.930237,-3.601074,-1.167297,0.9971722432403541
0.181641,-0.984375,-0.043457,1.89209,-3.952026,-0.770569,1.001936177785292
0.179932,-0.984375,-0.041992,1.579285,-4.142761,-0.473022,1.0015652716188796
0.179199,-0.981934,-0.043945,1.037598,-4.211426,-0.396728,0.9991185239910227
0.177979,-0.977295,-0.045654,0.724792,-4.188538,-0.534058,0.9944175829006645
0.17627,-0.969727,-0.041504,0.778198,-4.135132,-0.75531,0.9864908258291103
0.175781,-0.968994,-0.037842,1.243591,-4.089355,-0.923157,0.9855355645338224
0.176514,-0.973145,-0.036133,1.785278,-4.013062,-1.045227,0.9896837762184445
0.176758,-0.98291,-0.03833,1.991272,-3.677368,-1.12915,0.9994121509987759
0.179443,-0.986572,-0.039551,1.907349,-3.349304,-1.121521,1.0035379330319307
0.18042,-0.988281,-0.037598,1.464844,-3.219604,-1.190186,1.005318019815123
0.176514,-0.983398,-0.037842,1.274109,-3.349304,-1.083374,0.9998304034004967
0.173584,-0.978271,-0.038574,1.502991,-3.40271,-0.831604,0.9943005119042231
0.175781,-0.978271,-0.039795,1.686096,-3.303528,-0.640869,0.9947345130370214
0.178467,-0.978516,-0.040283,1.808166,-3.334045,-0.595093,0.9954731299407333
0.176514,-0.977051,-0.039551,1.953125,-3.540039,-0.37384,0.993654935275823
0.172852,-0.978271,-0.040527,1.777649,-3.570556,-0.12207,0.9942506731574287
0.174072,-0.980957,-0.041992,1.617432,-3.227234,0.099182,0.9971664981822244
0.174316,-0.98291,-0.04248,1.403808,-2.380371,0.259399,0.9991509827628655
0.175049,-0.981445,-0.041504,1.13678,-1.335144,0.213623,0.9977970848033181
0.174561,-0.977295,-0.041504,0.999451,-0.427246,-0.030518,0.9936295294333799
0.17334,-0.97583,-0.039795,1.113892,0.305176,-0.450134,0.991904524903985
0.176025,-0.975342,-0.040283,1.304626,0.778198,-0.740051,0.9919171022207451
0.181152,-0.975098,-0.040283,1.525879,1.289368,-0.961304,0.9926000588338689
0.183594,-0.973877,-0.036133,1.304626,1.495361,-0.976562,0.9916898515433139
0.186279,-0.971924,-0.0354,1.167297,1.63269,-0.740051,0.9902470841244624
0.1875,-0.970703,-0.036377,1.25885,1.846313,-0.511169,0.9893148388344329
0.190918,-0.971436,-0.037354,1.373291,1.991272,-0.37384,0.9907234256521846
0.190186,-0.970947,-0.040283,1.670837,1.747131,-0.389099,0.9902179111155281
0.191406,-0.968506,-0.041748,2.090454,1.083374,-0.556946,0.9881209563489685
0.194824,-0.971924,-0.04126,2.761841,0.305176,-0.701904,0.9921164449559335
0.196777,-0.973389,-0.037354,3.02124,-0.579834,-0.808716,0.9937819953923496
0.198242,-0.9729,-0.036377,3.036499,-1.449585,-0.679016,0.9935580439476095
0.196045,-0.9729,-0.0354,3.089905,-2.250671,-0.595093,0.9930867092177802
0.195313,-0.977783,-0.034912,2.960205,-2.960205,-0.770569,0.9977101837718205
0.195801,-0.978027,-0.036865,2.76947,-3.913879,-0.88501,0.9981151599665241
0.195068,-0.976074,-0.037109,2.716064,-4.91333,-0.862122,0.9960667929315785
0.194092,-0.976563,-0.040039,2.731323,-5.676269,-0.946045,0.9964688248781293
0.192627,-0.977783,-0.040771,2.700805,-6.355285,-1.075745,0.9974101616982854
0.188477,-0.980225,-0.039551,2.784729,-6.935119,-1.045227,0.9989639191457317
0.185059,-0.980957,-0.039795,2.677917,-7.003784,-0.953674,0.999053107374678
0.18042,-0.981201,-0.039551,2.5177,-6.744384,-0.984192,0.9984343044998003
0.178711,-0.980957,-0.039795,2.250671,-6.004333,-1.106262,0.9978967378416466
0.177979,-0.97876,-0.036621,1.983642,-5.134582,-1.213074,0.9954841835418582
0.177246,-0.977783,-0.037354,1.693725,-4.196167,-1.243591,0.9944199620487312
0.178223,-0.977295,-0.037354,1.449585,-3.547668,-1.12915,0.9941148203653338
0.179443,-0.978516,-0.03833,1.167297,-3.158569,-1.121521,0.9955714647402265
0.180664,-0.979492,-0.039551,0.968933,-3.036499,-1.060486,0.996799047231186
0.179688,-0.979492,-0.0354,0.808716,-3.067016,-1.00708,0.9964665149456855
0.180664,-0.983887,-0.032715,0.762939,-3.166198,-0.976562,1.000871310853698
0.180664,-0.987549,-0.031494,0.663757,-3.112793,-0.717163,1.0044323672268831
0.182129,-0.989014,-0.028076,0.320435,-2.960205,-0.518799,1.006035748178463
0.180664,-0.986084,-0.029785,-0.091553,-2.876281,-0.473022,1.0029398198182182
0.181152,-0.979004,-0.033203,-0.282288,-3.097534,-0.495911,0.9961763490110573
0.181641,-0.969482,-0.032959,-0.083923,-3.456115,-0.602722,0.9869017665836859
0.179443,-0.9646,-0.032715,0.740051,-3.921509,-0.679016,0.98169405696174
0.177246,-0.970947,-0.030762,1.846313,-3.952026,-0.679016,0.9874717828723006
0.17749,-0.979492,-0.030762,2.563476,-3.601074,-0.534058,0.9959184599192847
0.177734,-0.984131,-0.027832,2.441406,-2.76947,-0.427246,1.0004388137917282
0.175537,-0.982178,-0.027588,1.808166,-1.815796,-0.404358,0.9981222168637466
0.176758,-0.979004,-0.031494,1.594543,-0.854492,-0.62561,0.995331148219526
0.174805,-0.979248,-0.034912,1.63269,0.0,-0.63324,0.9953402841606482
0.176514,-0.978271,-0.036133,1.525879,0.793457,-0.640869,0.9947245524897835
0.181396,-0.975098,-0.034912,1.548767,1.472473,-0.62561,0.9924411650893972
0.183838,-0.972656,-0.033691,1.289368,1.815796,-0.648498,0.990449992710889
0.185547,-0.971924,-0.0354,1.174927,1.625061,-0.541687,0.9901096459407918
0.185547,-0.973877,-0.03418,1.228333,1.068115,-0.389099,0.9919840587116306
0.190186,-0.976563,-0.036133,1.296997,0.518799,-0.099182,0.9955659703173868
0.190186,-0.981934,-0.034424,1.281738,-0.175476,0.022888,1.0007747532427065
0.191162,-0.981689,-0.035156,1.098633,-0.976562,-0.083923,1.0007457955450025
0.188477,-0.980469,-0.0354,1.075745,-1.785278,-0.396728,0.9990476462561734
0.192627,-0.979004,-0.034912,1.304626,-2.731323,-0.358582,0.9983851165201733
0.192383,-0.980225,-0.036621,1.655578,-3.662109,-0.389099,0.9995966021125723
0.189453,-0.983643,-0.0354,1.663208,-4.508972,-0.50354,1.002346821543322
0.1875,-0.984619,-0.036377,1.373291,-5.363464,-0.556946,1.0029726373585672
0.185303,-0.981934,-0.036865,1.190186,-5.851745,-0.450134,0.9999453036991574
0.181641,-0.981689,-0.036133,0.88501,-5.805969,-0.320435,0.9990056753047002
0.177734,-0.984619,-0.034424,0.724792,-5.66864,-0.236511,1.001123849327844
0.174805,-0.98291,-0.037109,0.38147,-5.363464,-0.328064,0.9990224892393564
0.175537,-0.981445,-0.037109,-0.106812,-4.760742,-0.389099,0.9977096793531673
0.174316,-0.98291,-0.036133,-0.335693,-4.066467,-0.320435,0.9989012612090346
0.174316,-0.979004,-0.034424,-0.564575,-3.181457,-0.289917,0.9949974430359105
0.172363,-0.975586,-0.035156,-0.648498,-2.227783,-0.305176,0.9913188142575525
0.173096,-0.974609,-0.032471,-0.63324,-1.213074,-0.358582,0.9903935045919879
0.174805,-0.977295,-0.030273,-0.305176,-0.457764,-0.442505,0.993266711200471
0.177979,-0.97876,-0.033203,-0.183105,-0.183105,-0.37384,0.9953643057946171
0.178955,-0.976563,-0.030273,-0.442505,-0.282288,-0.37384,0.993285779382248
0.179688,-0.974365,-0.02832,-0.38147,-0.724792,-0.305176,0.991199754322508
0.180908,-0.969971,-0.029541,-0.152588,-1.319885,-0.190735,0.9871393599619054
0.181152,-0.972656,-0.030762,0.267029,-1.754761,-0.160217,0.9898596072595345
0.181885,-0.976074,-0.029785,0.717163,-1.88446,-0.167847,0.9933225825108377
0.181152,-0.978271,-0.030518,0.778198,-2.212524,-0.152588,0.9953700542356094
0.176758,-0.977295,-0.029297,0.602722,-2.326965,-0.366211,0.9935830220962917
0.17627,-0.974854,-0.028076,0.434875,-2.388,-0.541687,0.9910598851694079
0.17749,-0.973877,-0.031006,0.495911,-2.26593,-0.801086,0.9904042019625119
0.176758,-0.972412,-0.028809,0.534058,-2.075195,-0.984192,0.9887661234027996
0.178467,-0.974365,-0.029297,0.717163,-1.991272,-1.121521,0.9910075365621596
0.176758,-0.974854,-0.030518,0.907898,-2.105713,-1.182556,0.991218976918824
0.178223,-0.97876,-0.031494,1.13678,-2.227783,-1.213074,0.9953524236997667
0.178955,-0.984863,-0.028564,1.472473,-2.357483,-0.892639,1.0013969856605323
0.179443,-0.992432,-0.029785,1.403808,-2.258301,-0.526428,1.0089639295326667
0.177002,-0.994629,-0.030029,0.862122,-2.342224,-0.267029,1.010701883092141
0.175049,-0.987305,-0.032715,0.404358,-2.471924,-0.1297,1.0032365556791678
0.172119,-0.977783,-0.035645,-0.007629,-2.685547,-0.1297,0.9934561446158556
0.169434,-0.969727,-0.032471,0.152588,-2.593994,-0.289917,0.9849531464623077
0.16748,-0.968506,-0.029053,0.808716,-2.059937,-0.534058,0.9833094626032031
0.168457,-0.975098,-0.030273,1.426697,-1.152039,-0.396728,0.9900052146236403
0.171143,-0.981934,-0.030273,1.335144,-0.190735,-0.305176,0.9971964507227249
0.173584,-0.982666,-0.031494,0.770569,0.495911,-0.213623,0.9983765545364134
0.175781,-0.979248,-0.0354,0.404358,1.091003,-0.045776,0.9955293895536184
0.175049,-0.977539,-0.038818,0.411987,1.441955,-0.106812,0.9938468121627196
0.175293,-0.976807,-0.037109,0.694275,1.800537,-0.106812,0.9931045408107849
0.179932,-0.976074,-0.039307,1.014709,1.907349,-0.015259,0.9932980511150719
0.18335,-0.975098,-0.037354,1.060486,1.693725,0.061035,0.9928890438613974
0.186279,-0.974854,-0.033936,0.862122,1.235962,0.244141,0.9930719204836073
0.188232,-0.977295,-0.036133,0.587463,0.770569,0.389099,0.9959128458544955
0.193359,-0.981201,-0.038086,0.328064,0.389099,0.541687,1.000796507127198
0.191895,-0.985352,-0.038574,-0.083923,-0.137329,0.473022,1.004604503476368
0.192383,-0.986328,-0.036865,-0.37384,-0.671387,0.091553,1.005590955855312
0.192871,-0.986816,-0.03833,-0.740051,-1.38855,-0.160217,1.0062177842778373
0.190674,-0.985352,-0.034668,-1.091003,-2.433777,-0.473022,1.0042295596147328
0.189209,-0.982178,-0.03418,-1.495361,-3.242492,-0.846863,1.0008206341622858
0.186523,-0.977783,-0.035156,-1.663208,-3.753662,-1.296997,0.9960353251536815
0.184814,-0.973633,-0.031982,-1.785278,-3.974914,-1.579285,0.9915343068240251
0.181885,-0.974121,-0.029297,-1.663208,-3.807068,-1.571655,0.9913890205539901
0.179199,-0.975342,-0.027344,-1.533508,-3.440857,-1.800537,0.9920443502691803
0.178711,-0.978027,-0.025391,-1.525879,-2.990722,-1.953125,0.9945446883529165
0.17627,-0.976563,-0.029297,-1.38855,-2.784729,-1.815796,0.99277626889345
0.175293,-0.973145,-0.029297,-1.174927,-2.670288,-1.731872,0.9892406891565874
0.172363,-0.970215,-0.02832,-0.717163,-2.471924,-1.670837,0.9858134571986731
0.169922,-0.970215,-0.030273,-0.289917,-2.151489,-1.38855,0.9854476580914889
0.169678,-0.972168,-0.028809,0.144958,-1.693725,-1.190186,0.9872847625629598
0.169678,-0.972412,-0.030518,0.556946,-0.808716,-1.091003,0.9875763614789492
0.17041,-0.978027,-0.028809,0.88501,0.091553,-1.037598,0.9931799128607062
0.173828,-0.982178,-0.028809,0.930786,0.862122,-0.808716,0.9978575828989826
0.180908,-0.984375,-0.032471,0.549316,1.045227,-0.488281,1.0013871433816195
0.180908,-0.983643,-0.032227,0.099182,0.846863,-0.297546,1.0006597001188766
0.179199,-0.982666,-0.033203,-0.297546,0.564575,-0.244141,0.9994234279653444
0.179199,-0.980225,-0.033203,-0.404358,0.061035,-0.335693,0.997023455809842
0.180176,-0.979492,-0.03418,-0.221252,-0.312805,-0.518799,0.9965120377797752
0.182129,-0.980469,-0.035645,-0.12207,-0.427246,-0.63324,0.997878248398571
0.182861,-0.980957,-0.035889,-0.152588,-0.617981,-0.747681,0.9985002761597014
0.182861,-0.980225,-0.033691,-0.572205,-0.701904,-0.770569,0.9977045050650017
0.18335,-0.974609,-0.033447,-0.862122,-0.785828,-0.900268,0.9922694327600744
0.182861,-0.9729,-0.034668,-0.785828,-1.075745,-0.999451,0.9905424905298106
0.184814,-0.970703,-0.033691,-0.534058,-1.335144,-1.045227,0.9887141206061537
0.184326,-0.97168,-0.03418,-0.190735,-1.739502,-1.144409,0.9895990951269105
0.180908,-0.976074,-0.03418,0.106812,-2.14386,-1.022339,0.9932856740837451
0.182373,-0.980225,-0.031006,0.083923,-2.189636,-0.88501,0.9975281117793122
0.181885,-0.980713,-0.030029,0.030518,-1.899719,-0.740051,0.9978887124499404
0.184326,-0.981201,-0.031494,0.015259,-1.480102,-0.694275,0.9988610257253008
0.185059,-0.978271,-0.036621,-0.083923,-1.25885,-0.915527,0.9962941737072439
0.186768,-0.972412,-0.038574,-0.106812,-1.396179,-0.953674,0.990936595874832
0.187256,-0.971191,-0.040283,0.099182,-1.792908,-1.190186,0.9898987261866741
0.186035,-0.971924,-0.037842,0.63324,-2.182007,-1.350403,0.990291522716922
0.18457,-0.976563,-0.034424,1.022339,-2.220154,-1.335144,0.9944477812560094
0.185303,-0.984619,-0.032227,1.121521,-1.930237,-1.365662,1.0024222446150124
0.18335,-0.989746,-0.036621,0.396728,-1.472473,-1.319885,1.007251440632874
0.183105,-0.987061,-0.041992,-0.679016,-1.121521,-1.403808,1.0047786755350652
0.181885,-0.977539,-0.044189,-1.045227,-1.014709,-1.571655,0.9952976024621983
0.181152,-0.970947,-0.044922,-0.816345,-0.732422,-1.480102,0.9887224635847007
0.180664,-0.971924,-0.043213,-0.190735,-0.511169,-1.533508,0.9895166022058447
0.184326,-0.97583,-0.042236,0.221252,-0.640869,-1.495361,0.9939839751585535
0.184082,-0.979736,-0.042236,0.343323,-0.785828,-1.281738,0.9977738682266639
0.183838,-0.982422,-0.040527,0.015259,-0.823975,-0.854492,1.0002958732580076
0.184082,-0.985352,-0.042969,-0.396728,-0.869751,-0.488281,1.003320029496571
0.183594,-0.981689,-0.04126,-0.87738,-0.816345,-0.350952,0.9995611222716698
0.185303,-0.97876,-0.044678,-1.144409,-0.663757,-0.328064,0.9971481650652525
0.185059,-0.974121,-0.042725,-1.098633,-0.419617,-0.358582,0.9924635921518733
0.186035,-0.971436,-0.040283,-1.060486,-0.198364,-0.411987,0.9899089066222204
0.189941,-0.971191,-0.039795,-0.831604,-0.152588,-0.511169,0.990390419979414
0.193848,-0.971924,-0.039063,-0.724792,-0.144958,-0.587463,0.9918362903468496
0.195801,-0.972656,-0.039307,-0.564575,-0.450134,-0.648498,0.9929465072127501
0.195068,-0.972168,-0.038574,-0.389099,-0.831604,-0.595093,0.9922953684886371
0.198242,-0.971924,-0.037598,-0.068665,-1.396179,-0.587463,0.9926478539462018
0.198486,-0.969727,-0.036133,-0.099182,-2.120972,-0.808716,0.9904911611993314
0.195801,-0.969727,-0.034424,-0.061035,-2.868652,-0.869751,0.9898957005189992
0.192627,-0.968994,-0.036865,0.320435,-3.501892,-1.12915,0.9886422818138014
0.19458,-0.970215,-0.035156,0.724792,-3.974914,-1.190186,0.9901588089599568
0.195557,-0.973877,-0.035645,0.976562,-4.310608,-1.228333,0.9939564967356469
0.192383,-0.974365,-0.036133,1.052856,-4.516602,-1.12915,0.9938329666513384
0.19165,-0.974121,-0.038086,1.373291,-4.814148,-1.060486,0.9935250316610045
0.191406,-0.976563,-0.040039,1.655578,-5.0354,-0.999451,0.9959491308927378
0.189941,-0.979248,-0.039063,1.785278,-5.271911,-0.984192,0.9982635658752652
0.186523,-0.980957,-0.038086,1.785278,-5.41687,-0.869751,0.9992587296461313
0.182861,-0.979736,-0.04248,1.594543,-5.325317,-0.839233,0.9975596851401926
0.179199,-0.977051,-0.042236,1.197815,-4.852295,-0.740051,0.9942458538500425
0.178467,-0.975098,-0.044434,0.816345,-3.90625,-0.724792,0.9922907638635966
0.175537,-0.978271,-0.043701,0.831604,-2.761841,-0.793457,0.9948553488879677
0.174805,-0.981934,-0.043457,0.846863,-1.556396,-0.923157,0.9983184257690528
0.175293,-0.983398,-0.043701,0.63324,-0.465393,-1.052856,0.9998545092432198
0.178467,-0.983887,-0.041992,0.274658,0.25177,-1.098633,1.000823374488226
0.182861,-0.98291,-0.042236,-0.083923,0.518799,-1.060486,1.0006668242312222
0.181885,-0.981934,-0.042969,-0.411987,0.495911,-0.808716,0.9995613380588506
0.182129,-0.978027,-0.041992,-0.518799,0.198364,-0.595093,0.9957264249953397
0.184082,-0.974121,-0.039551,-0.389099,-0.137329,-0.442505,0.9921502844660177
0.184326,-0.973145,-0.037842,-0.244141,-0.450134,-0.175476,0.991170662532442
0.184082,-0.973389,-0.036377,-0.007629,-0.694275,0.190735,0.9913100494668659
0.182617,-0.976563,-0.033936,0.434875,-0.572205,0.556946,0.9940703766605259
0.184814,-0.97876,-0.035156,0.617981,-0.099182,0.762939,0.9966761241908025
0.187988,-0.977295,-0.035889,0.656128,0.0,0.709534,0.9958579343912464
0.187988,-0.974365,-0.040771,0.648498,-0.152588,0.640869,0.99317114124908
0.187256,-0.969971,-0.041992,0.915527,-0.549316,0.434875,0.9887729155073981
0.1875,-0.965576,-0.037354,1.38092,-1.083374,0.411987,0.9843213820150408
0.186523,-0.968506,-0.033691,2.037048,-1.449585,0.404358,0.9868788097056295
0.186523,-0.97583,-0.031006,2.578735,-1.693725,0.541687,0.9939800754869285
0.185791,-0.981445,-0.032471,2.563476,-1.869202,0.740051,0.9994032967461134
0.186768,-0.982178,-0.037354,1.907349,-1.937866,0.87738,1.0004755023607526
0.1875,-0.980957,-0.038574,1.571655,-2.334595,0.976562,0.999460274010428
0.187256,-0.974854,-0.039063,1.945495,-3.028869,1.00708,0.993444034065835
0.184814,-0.975342,-0.039795,2.563476,-3.501892,1.205444,0.9934947778347908
0.185303,-0.976563,-0.039551,3.097534,-4.066467,1.449585,0.9947747365001787
0.188721,-0.974121,-0.038086,2.960205,-4.753113,1.617432,0.9929641896251848
0.191406,-0.973145,-0.0354,2.700805,-5.844116,1.770019,0.9924215877644944
0.19165,-0.975098,-0.036133,2.731323,-7.17926,2.006531,0.9944100893459398
0.187256,-0.976563,-0.039063,2.807617,-8.132935,2.120972,0.9951211084456002
0.184326,-0.97583,-0.036865,2.807617,-8.728027,2.044678,0.9937702407503457
0.182617,-0.973633,-0.037598,2.906799,-8.583069,1.739502,0.9913242642959972
0.177246,-0.976563,-0.033447,3.112793,-8.110046,1.579285,0.9930811342956827
0.178711,-0.975586,-0.035645,3.311157,-7.736206,1.25885,0.9924596873132933
0.177979,-0.977783,-0.038818,3.517151,-7.598876,0.88501,0.9946069357560302
0.17749,-0.97998,-0.039063,3.799438,-7.766723,0.511169,0.996689228630971
0.17334,-0.980713,-0.034912,3.944397,-7.987976,0.350952,0.9965257606870983
0.171631,-0.980957,-0.033936,3.829956,-8.079529,0.465393,0.9964363944106015
0.168945,-0.979248,-0.033691,3.601074,-7.965087,0.526428,0.9942857446478854
0.166992,-0.972656,-0.033936,3.349304,-7.835388,0.572205,0.9874703410715685
0.165527,-0.97168,-0.033447,3.211975,-7.591247,0.823975,0.9862453609209019
0.162842,-0.975098,-0.034912,3.196716,-6.988525,0.999451,0.9892181126081346
0.163818,-0.975586,-0.034668,3.349304,-6.103515,1.106262,0.9898516306719911
0.164307,-0.981934,-0.037354,3.349304,-5.065917,1.335144,0.9962863503636893
0.164063,-0.981689,-0.038574,3.486633,-4.096985,1.296997,0.9960511604159697
0.165771,-0.979736,-0.031738,3.349304,-3.555298,1.243591,0.9941679711100132
0.166748,-0.980957,-0.033936,3.204345,-3.234863,1.060486,0.9956069422462862
0.166504,-0.982178,-0.0354,3.067016,-2.731323,0.75531,0.9968201270540237
0.167725,-0.982178,-0.036377,3.089905,-2.281189,0.595093,0.9970599708332493
0.169434,-0.979004,-0.034668,2.807617,-2.296448,0.434875,0.9941622516450722
0.166748,-0.976074,-0.037842,2.494812,-2.365112,0.1297,0.9909376196027679
0.162598,-0.977051,-0.035645,2.586365,-1.625061,-0.083923,0.9911293216477858
0.162109,-0.979248,-0.0354,2.861023,-0.25177,-0.511169,0.9932064908089354
0.162109,-0.979492,-0.035645,2.975464,1.060486,-0.938415,0.9934558228577655
0.163818,-0.985352,-0.036377,2.853393,1.937866,-0.976562,0.9995389873121509
0.167236,-0.992188,-0.032959,2.670288,1.945495,-0.808716,1.0067230019826705
0.172363,-0.991943,-0.032471,2.14386,1.602173,-0.770569,1.0073302759566993
0.174561,-0.993652,-0.031494,1.670837,1.304626,-0.923157,1.0093600506563551
0.16748,-0.991699,-0.029297,0.984192,0.686645,-0.770569,1.0061683612646544
0.163086,-0.983887,-0.028809,0.602722,0.259399,-0.572205,0.9977277337259899
0.169922,-0.979248,-0.030273,0.213623,0.183105,-0.724792,0.9943422882071344
0.175537,-0.977783,-0.028076,0.495911,0.076294,-0.793457,0.9938113982210105
0.165771,-0.976074,-0.026123,0.75531,0.0,-0.976562,0.9903953195800149
0.161133,-0.970215,-0.02832,0.823975,0.045776,-0.793457,0.9839120958266546
0.162842,-0.964355,-0.033447,1.083374,0.854492,-1.014709,0.9785789619637242
0.165283,-0.963623,-0.032471,1.358032,1.602173,-1.785278,0.9782341856932828
0.167236,-0.96167,-0.028809,1.556396,1.754761,-2.235413,0.9765280472556843
0.168945,-0.966309,-0.027344,2.02179,1.64032,-2.113342,0.9813476401571464
0.169189,-0.976318,-0.024658,2.174377,1.525879,-1.76239,0.9911759540106893
0.170654,-0.97998,-0.026855,1.785278,1.426697,-1.403808,0.9950903371759772
0.172119,-0.980469,-0.028076,1.747131,1.579285,-1.426697,0.9958577568598841
0.168945,-0.981445,-0.028076,1.922607,1.609802,-1.800537,0.9962755456328335
0.170166,-0.978516,-0.031006,1.930237,0.953674,-1.64032,0.9936857661494403
0.172607,-0.976563,-0.030518,2.250671,0.030518,-1.029968,0.9921692485367605
0.175049,-0.974854,-0.027832,2.76947,-0.915527,-0.892639,0.9908365626787295
0.17334,-0.974121,-0.024658,3.242492,-1.571655,-0.839233,0.9897305164563737
0.171143,-0.976563,-0.023926,3.356933,-1.403808,-0.701904,0.991734678678728
0.17334,-0.981934,-0.025879,3.128052,-1.220703,-0.564575,0.9974521836143324
0.174805,-0.980225,-0.026367,2.63977,-1.182556,-0.411987,0.996038682651934
0.175293,-0.978516,-0.025146,2.662658,-1.495361,-0.305176,0.9944111420438732
0.170898,-0.977051,-0.026855,2.700805,-1.602173,0.045776,0.9922479397962991
0.167969,-0.978027,-0.028809,3.013611,-0.671387,-0.205994,0.9927639982246536
0.168945,-0.976807,-0.030029,2.883911,0.770569,-0.946045,0.9917641196953034
0.171631,-0.969482,-0.031494,2.571106,2.204895,-1.716614,0.9850606176885766
0.175049,-0.958008,-0.033203,2.227783,3.112793,-2.5177,0.9744351798216236
0.174316,-0.948242,-0.041016,2.754211,3.90625,-2.990722,0.9650032490494527
0.17749,-0.953369,-0.035645,4.096985,5.500793,-3.410339,0.9704049238776564
0.184814,-0.963379,-0.035645,4.394531,6.759643,-3.204345,0.9815935402507496
0.189941,-0.977051,-0.036621,4.882813,8.079529,-3.440857,0.996015731664415
0.19043,-0.985596,-0.032227,4.737854,8.796692,-3.814697,1.004341395963046
0.19458,-0.986084,-0.036865,4.043579,8.010864,-4.051208,1.0057743582339926
0.197266,-0.987793,-0.040771,3.532409,6.774902,-4.188538,1.008122591774433
0.198242,-0.987793,-0.043945,3.517151,5.432128,-3.77655,1.0084473533298604
0.201172,-0.989746,-0.044922,4.203796,5.233764,-3.730774,1.0109823461287542
0.196289,-0.99585,-0.05249,4.066467,5.355834,-3.219604,1.0163669583969168
0.196045,-0.996094,-0.052979,3.608703,5.264282,-3.242492,1.0165843168680109
0.197021,-0.985596,-0.052002,2.601623,3.936767,-3.463745,1.0064397436811605
0.200439,-0.968506,-0.056396,1.182556,1.091003,-3.211975,0.9906362468499726
0.196533,-0.957275,-0.057129,1.106262,-0.976562,-2.922058,0.9789097856059056
0.193604,-0.961182,-0.057373,1.976013,-0.831604,-2.548218,0.9821634319546824
0.196045,-0.971436,-0.053711,2.082825,0.541687,-1.914978,0.9924748942124431
0.200439,-0.976074,-0.046143,0.938415,1.548767,-1.106262,0.9975096103025775
0.208008,-0.97583,-0.041748,-0.930786,0.50354,-0.473022,0.9986262626568561
0.215332,-0.966064,-0.041504,-2.14386,-2.937317,0.404358,0.9906412591528783
0.216553,-0.959229,-0.043457,-1.579285,-7.56073,0.991821,0.9843292066676677
0.216797,-0.961426,-0.034668,0.190735,-11.901855,0.892639,0.9861758275829924
0.212646,-0.9646,-0.025635,0.991821,-14.823913,1.052856,0.988093434114912
0.206543,-0.958496,-0.016602,1.335144,-16.082764,1.289368,0.9806376595200696
0.200195,-0.950195,-0.01123,1.396179,-16.792297,1.495361,0.9711203267103413
0.190674,-0.947754,-0.009766,2.777099,-15.800475,0.694275,0.9667934596117208
0.187988,-0.950684,0.001221,3.89862,-13.488769,-0.350952,0.9690928989735711
0.196533,-0.958496,0.009033,4.478455,-11.795043,-0.579834,0.9784791245570853
0.206543,-0.974609,0.018066,5.462646,-11.314391,-0.62561,0.9964181321543681
0.205566,-0.989502,0.023193,6.278991,-12.123107,-0.114441,1.010895396966966
0.193848,-0.999512,0.031006,7.17926,-12.199401,-0.335693,1.0186081961598383
0.184814,-0.995117,0.035889,6.607055,-12.184142,-0.724792,1.0127695091213993
0.182617,-0.976563,0.0354,5.752563,-12.33673,-1.464844,0.9941214320484192
0.187012,-0.954346,0.037109,5.91278,-13.084411,-2.685547,0.9732044254631194
0.189941,-0.931152,0.041992,6.698608,-13.366698,-3.913879,0.9512544132086852
0.184326,-0.907227,0.045166,7.797241,-13.267516,-4.112244,0.9268639983088134
0.183594,-0.894043,0.040039,8.81958,-13.732909,-3.288269,0.9135769065634267
0.185303,-0.883789,0.03833,10.742187,-12.725829,-2.929687,0.903819333290675
0.180664,-0.88623,0.042725,12.908935,-11.070251,-2.243042,0.905465912898437
0.195557,-0.908691,0.052979,15.380858,-9.117126,-1.174927,0.9310041074941614
0.214355,-0.942139,0.054199,17.585754,-6.149292,0.068665,0.9677352390747171
0.208252,-0.966064,0.049805,17.288208,-3.27301,1.754761,0.9895095177030891
0.199219,-0.954346,0.050537,16.349792,-1.983642,2.037048,0.9762266571068422
0.21167,-0.927246,0.06543,17.974854,-2.494812,0.198364,0.953346955895911
0.233398,-0.914795,0.087158,21.339415,-5.363464,-1.167297,0.9481144632337385
0.246338,-0.916992,0.100342,24.398802,-9.437561,0.427246,0.9547906866282264
0.248047,-0.938232,0.099121,26.31378,-13.572692,4.394531,0.9755160545444652
0.237549,-0.973389,0.0979,27.748106,-16.815186,7.690429,1.0067274123227201
0.218506,-1.012939,0.104248,27.57263,-17.26532,8.705139,1.0414691235274334
0.213867,-1.043945,0.103027,26.123045,-13.656615,8.117676,1.0705955442850488
0.192627,-1.067139,0.105713,25.947569,-1.586914,6.16455,1.0895256053985147
0.159424,-1.073242,0.106934,24.902342,16.88385,2.815246,1.0902748656627832
0.169922,-1.064453,0.10376,22.293089,37.971497,-3.211975,1.082912652476182
0.220947,-1.050049,0.100098,20.500181,57.220455,-11.070251,1.0777012985117909
0.256592,-1.041016,0.0896,19.241333,71.266174,-16.273499,1.075909813469512
0.271729,-1.033691,0.083008,18.486023,77.957153,-17.021179,1.0720280131535742
0.283691,-1.026367,0.068115,17.158508,79.376221,-16.670227,1.0670283292373264
0.286377,-1.021484,0.050537,15.007018,79.109192,-16.319275,1.0620712484358101
0.283203,-1.015625,0.043701,13.053893,77.133179,-15.029906,1.0552761995018176
0.283203,-1.012695,0.033691,10.658263,73.84491,-14.35089,1.0520884875879024
0.293213,-1.01123,0.025146,7.583618,68.389893,-14.335631,1.0531819869258114
0.317627,-1.013916,0.025879,6.034851,58.04443,-13.175963,1.0628180883039204
0.327881,-1.016846,0.041992,5.546569,44.471737,-10.06317,1.069226386665144
0.311768,-1.019775,0.061523,4.005432,31.578062,-6.278991,1.0681411030280599
0.299072,-1.012695,0.083984,0.404358,21.865843,-2.532959,1.0592679247787122
0.295166,-0.993408,0.10498,-4.920959,16.51001,0.457764,1.041634879609933
0.298828,-0.963867,0.118408,-9.82666,13.984679,2.761841,1.016050304727576
0.313477,-0.944092,0.119629,-12.130736,11.352538,4.676819,1.001942429301205
0.325684,-0.935059,0.125732,-12.039184,7.637023,6.629943,0.9981051733965713
0.32959,-0.933105,0.135986,-10.963439,2.471924,8.399963,0.9989027486802706
0.319824,-0.925049,0.146729,-10.169982,-3.608703,9.735107,0.9897133134488997
0.313721,-0.914551,0.168945,-9.315491,-10.261535,10.536193,0.9815125116202035
0.317139,-0.904541,0.182373,-8.514404,-16.769409,10.627746,0.9757210037356991
0.313965,-0.898682,0.1875,-7.415771,-23.025511,10.475158,0.9702368825956886
0.30542,-0.90332,0.186768,-5.531311,-28.366087,10.406493,0.9716741658724904
0.30249,-0.904297,0.19458,-3.448486,-33.287048,10.650634,0.9731981507940713
0.305664,-0.904541,0.206787,-2.006531,-37.872314,10.688781,0.9769266937421661
0.310303,-0.902832,0.220703,-0.862122,-40.90118,10.787963,0.9798486547635813
0.30957,-0.904053,0.237061,0.389099,-43.151852,11.886596,0.9845523497661259
0.300781,-0.91748,0.246582,2.929687,-43.228146,13.488769,0.99651464770218
0.286133,-0.927002,0.257324,4.447937,-41.28265,14.663695,1.003703363882477
0.279541,-0.938477,0.256592,4.364014,-39.848328,15.815734,1.0122853869704926
0.272705,-0.955078,0.246826,4.547119,-38.917542,16.876221,1.0234574135668764
0.266602,-0.969482,0.243652,6.561279,-38.360596,17.982483,1.0345715402194282
0.262939,-0.987305,0.24585,10.536193,-38.566589,18.493652,1.0508807274120122
0.259766,-1.013672,0.253906,15.457152,-41.046139,17.837524,1.0767903951911904
0.245117,-1.050293,0.246338,18.203735,-45.333858,17.562866,1.1062911641073518
0.23584,-1.074951,0.226074,18.341064,-50.430294,17.707825,1.1234988257568408
0.241943,-1.073486,0.193359,16.235352,-55.862423,18.318176,1.1172718157753734
0.248047,-1.060303,0.147461,12.916564,-64.353943,20.195005,1.0988696522058474
0.230225,-1.047607,0.092773,10.19287,-78.765869,24.436949,1.076610796250437
0.189453,-1.038818,0.046387,10.116576,-98.854057,30.303953,1.056970685545252
0.135742,-1.043213,0.002686,13.305663,-120.132439,35.02655,1.0520106789044492
0.064453,-1.076904,-0.048828,16.746521,-139.083862,37.452698,1.0799354554828728
-0.022461,-1.115723,-0.086426,17.845154,-155.723572,38.490295,1.1192907409274857
-0.083008,-1.155762,-0.101807,12.481688,-167.808517,43.067928,1.1632028172064406
-0.1875,-1.175781,-0.122803,-0.442505,-167.304977,54.618832,1.196953544115226
-0.310303,-1.159912,-0.133789,-12.275695,-155.883789,67.939758,1.2081321517425154
-0.33667,-1.104736,-0.151855,-20.729063,-139.389038,74.020386,1.1648382976280443
-0.281494,-1.048096,-0.169189,-26.603697,-120.315544,69.099426,1.098348312227501
-0.22876,-1.014648,-0.186523,-28.846739,-106.788628,61.935421,1.0567083471956678
-0.202393,-0.996094,-0.177246,-27.000425,-99.96032,57.868954,1.0317859893412975
-0.176758,-0.98584,-0.15332,-24.841307,-94.924919,56.198116,1.013227969690928
-0.154785,-0.969482,-0.118896,-24.360655,-87.371819,53.367611,0.988933770970028
-0.122314,-0.944092,-0.111572,-26.023863,-74.84436,49.194332,0.9584981639231241
-0.093262,-0.91333,-0.121582,-26.954649,-62.393185,44.845577,0.9260948505784923
-0.067627,-0.881836,-0.123047,-25.711058,-47.317501,37.643433,0.8929438427101672
-0.043213,-0.856689,-0.114258,-24.124144,-29.693602,32.470703,0.8653544341216494
-0.016357,-0.848877,-0.105957,-20.004272,-16.731262,29.243467,0.8556205925683417
0.032227,-0.862305,-0.084961,-13.526916,-9.70459,25.474546,0.8670795027418189
0.087891,-0.890137,-0.0625,-8.789063,-10.177611,22.178648,0.8966465059598459
0.111572,-0.934326,-0.04126,-7.263183,-18.096924,21.003721,0.9418682355085556
0.100342,-0.96167,-0.027588,-9.979248,-32.966614,21.766661,0.9672842413727208
0.070557,-0.972412,-0.016113,-14.717101,-49.453732,22.40753,0.9751015417698816
0.036377,-0.970703,-0.007324,-19.744873,-64.712524,20.454405,0.9714119833078033
-0.002686,-0.959229,-0.028076,-25.100706,-79.063416,16.143799,0.9596435540412909
-0.052002,-0.946533,-0.047852,-27.168272,-87.753288,7.881164,0.9491673940865225
-0.090088,-0.940674,-0.059326,-26.023863,-91.926567,-2.838135,0.9468384214299713
-0.101318,-0.944092,-0.077637,-25.711058,-98.777763,-10.276793,0.9526817649965806
-0.115967,-0.947266,-0.080078,-25.390623,-109.840385,-13.664245,0.9576918637688221
-0.140137,-0.953125,-0.07373,-25.703428,-123.741142,-14.587401,0.9661892968223152
-0.18335,-0.957275,-0.085938,-27.114866,-134.117126,-14.015197,0.9784569423173408
-0.226807,-0.959473,-0.091553,-27.32086,-137.123108,-14.701842,0.9901574646423669
-0.260254,-0.969482,-0.116455,-28.114317,-136.482239,-12.390136,1.010539093684653
-0.279541,-0.992676,-0.135986,-24.55139,-134.82666,-10.383605,1.0402119994755876
-0.309326,-1.029785,-0.144531,-16.838074,-134.353638,-10.757445,1.0849096416116872
-0.311768,-1.065186,-0.127686,-6.088256,-127.662651,-19.889832,1.117194797256056
-0.291504,-1.097168,-0.109131,3.562927,-109.329216,-26.840208,1.1404655967634447
-0.27417,-1.131348,-0.097168,10.505675,-80.841057,-26.657103,1.1681434442002403
-0.235596,-1.152832,-0.092041,13.404845,-51.23901,-22.476194,1.1802536342333372
-0.17627,-1.158203,-0.083252,12.947082,-27.282713,-15.525817,1.1744940176999628
-0.106201,-1.141602,-0.067383,9.559631,-14.167785,-7.324218,1.148509576579142
-0.037109,-1.10376,-0.0625,4.570007,-16.571045,-0.328064,1.1061507426571662
-0.025879,-1.039551,-0.069824,-0.839233,-27.496336,5.577087,1.0422146588961412
-0.092285,-0.969727,-0.071533,-4.455566,-28.343199,10.787963,0.9767312556906327
-0.137451,-0.920166,-0.063721,-5.928039,-10.711669,11.718749,0.932554883531259
-0.130127,-0.880127,-0.040283,-8.796692,19.958496,7.789611,0.8906061376091005
-0.100586,-0.856201,-0.023193,-12.374877,49.293514,2.624511,0.8624010731939056
-0.076904,-0.85791,-0.002686,-14.015197,74.081421,-3.585815,0.8613541710074898
-0.047852,-0.874512,0.012207,-15.594481,93.933098,-9.83429,0.8759052819209392
-0.017578,-0.893066,0.029297,-18.814087,110.145561,-15.083312,0.8937192963391806
0.004639,-0.910889,0.029053,-23.03314,124.725334,-20.744322,0.9113640147882732
0.027588,-0.916016,0.024658,-25.93231,138.313293,-27.923582,0.9167630157047132
0.056152,-0.913818,0.021484,-27.793882,149.971008,-35.270691,0.9157936156602098
0.087646,-0.914795,0.020264,-27.832029,158.081055,-41.351315,0.9192074537540479
0.115234,-0.917725,0.019531,-25.833128,161.827072,-44.013973,0.9251375629288868
0.145752,-0.929932,0.023193,-21.949766,160.659775,-44.143673,0.9415705419016677
0.171631,-0.955566,0.030518,-17.112732,155.448914,-43.136593,0.9713366712118924
0.198242,-0.980957,0.029297,-12.542724,147.56012,-41.313168,1.0012166801556992
0.226318,-1.005615,0.02417,-8.796692,138.22937,-38.513184,1.0310507040145989
0.25,-1.02124,0.017822,-5.859375,126.533501,-34.812927,1.0515458911925812
0.282959,-1.031982,0.008301,-2.540588,111.686699,-29.869078,1.070103523312581
0.313232,-1.047363,-0.000488,0.816345,92.39196,-23.54431,1.0931988738271734
0.328369,-1.062012,-0.00415,4.386902,68.534851,-17.089844,1.1116262460040245
0.327148,-1.08374,-0.007813,7.789611,41.801449,-10.650634,1.132068568803586
0.291748,-1.105957,-0.025391,11.108397,14.930724,-4.798889,1.1440727617743551
0.237305,-1.095947,-0.010498,13.534545,-7.095336,0.808716,1.1213936408942224
0.205566,-1.080322,-0.003174,17.89856,-19.607544,5.40924,1.0997104520354437
0.162598,-1.095215,-0.031982,32.272339,-19.821167,14.968871,1.1076808448975726
0.087891,-1.058838,-0.048584,44.55566,-11.169433,24.215696,1.0635897438302984
0.022705,-0.969238,-0.114258,44.067379,1.815796,15.373229,0.9762134542368283
-0.102051,-0.909668,-0.233398,56.480404,24.29199,-4.692078,0.9446612637496047
-0.223389,-0.856934,-0.157227,87.493889,58.143612,-22.666929,0.8994214002379529
-0.133301,-0.816162,-0.013428,109.161369,99.83062,-43.388363,0.8270851697552073
0.064697,-0.826172,0.03418,116.401665,138.519287,-54.618832,0.8294059005052954
0.095703,-0.88501,0.080566,116.035454,160.331726,-43.319698,0.8938079461858682
0.002686,-0.936035,0.124756,109.848015,164.192184,-33.157349,0.9443160463303586
0.00415,-0.970703,0.142822,99.990837,167.304977,-46.104427,0.9811624026597228
0.097656,-1.013916,0.163818,86.196892,175.163254,-63.644405,1.0316969935577016
0.175537,-1.039307,0.162598,65.803528,175.346359,-63.880917,1.0664944389081454
0.21582,-1.019043,0.160156,46.859737,167.411789,-58.334347,1.0538865463535436
0.266846,-1.002197,0.20459,35.339355,154.159546,-58.975216,1.0571010749332346
0.310791,-1.001221,0.206299,25.703428,134.941101,-58.074947,1.068453936266323
0.326172,-1.003906,0.193848,16.288757,113.052361,-53.039547,1.0732159510201102
0.34082,-1.014893,0.188477,10.658263,91.361992,-48.248287,1.087055496917246
0.340332,-1.009766,0.197266,7.858276,71.754456,-42.480465,1.0836822042167158
0.316162,-0.998291,0.213623,8.621216,57.861324,-35.469055,1.068727335223536
0.292969,-0.999512,0.221191,10.978698,49.98016,-28.70941,1.064791308936169
0.293213,-1.001953,0.216553,12.008666,45.684811,-23.941038,1.0661983302308253
0.311523,-0.996094,0.212158,10.963439,41.519161,-21.720884,1.0650168324158076
0.352539,-0.974365,0.207764,7.629394,34.01947,-19.920349,1.0568049864766915
0.369873,-0.952393,0.178711,3.501892,21.766661,-15.571593,1.0372059024605482
0.36084,-0.924561,0.156006,0.175476,6.195068,-8.338928,1.0046673182486827
0.345215,-0.913818,0.132813,0.358582,-11.695861,-2.059937,0.9858377281875552
0.297607,-0.930176,0.108154,4.440308,-28.404234,2.670288,0.9825958503581215
0.239258,-0.95459,0.095215,7.240295,-39.894104,6.477355,0.9887124733151696
0.223389,-0.953857,0.099854,7.331848,-46.95892,10.101317,0.9847419169944985
0.214355,-0.941162,0.112061,6.576538,-51.589962,14.60266,0.9717466974422914
0.186523,-0.935791,0.118896,6.561279,-53.268429,19.65332,0.9615778096576482
0.162354,-0.930908,0.134766,6.988525,-51.673885,23.307798,0.9545210320029621
0.172119,-0.939941,0.149658,7.92694,-48.942562,24.734495,0.9672184606416485
0.18457,-0.956299,0.162354,7.766723,-47.485348,25.581358,0.9873867953426356
0.191895,-0.974121,0.171875,5.119323,-47.920223,26.489256,1.0076092641947076
0.198486,-0.97998,0.176025,0.999451,-49.957272,28.068541,1.0152547922669461
0.19751,-0.977783,0.18335,-2.838135,-53.733822,29.373167,1.0142420902767741
0.190674,-0.977051,0.193359,-4.91333,-60.653683,28.511045,1.0140872416897868
0.180176,-0.983154,0.197021,-6.683349,-67.848206,27.084349,1.018760253019816
0.168945,-0.980225,0.193848,-7.606506,-72.044373,26.901243,1.0133906012757372
0.158203,-0.977539,0.195801,-7.858276,-73.394775,25.955198,1.00942989718504
0.141113,-0.979736,0.198242,-8.674622,-72.227478,23.864744,1.0095025502835544
0.136475,-0.976074,0.200195,-10.56671,-70.243835,20.820616,1.0056957378481823
0.130127,-0.969971,0.194092,-12.145995,-66.253662,17.555237,0.997721645266855
0.129395,-0.966797,0.191162,-12.7182,-61.073299,15.151977,0.9939730456496293
0.127197,-0.965332,0.183838,-13.656615,-55.412289,13.191222,0.9908790830757302
0.12085,-0.96875,0.170166,-14.335631,-49.392696,10.475158,0.990978179656848
0.116699,-0.974121,0.147705,-14.663695,-44.006344,8.674622,0.9921427045879035
0.113037,-0.968506,0.135742,-15.220641,-39.558411,7.339477,0.9844831770878566
0.111816,-0.958496,0.133057,-15.747069,-35.827637,4.104614,0.9741260519670952
0.107178,-0.943359,0.127686,-15.953063,-33.02002,0.869751,0.957975490897862
0.103516,-0.938965,0.123047,-15.060424,-30.029295,-2.189636,0.9526339263799081
0.100098,-0.954834,0.115723,-12.481688,-23.765562,-2.937317,0.9670157133619909
0.085693,-0.97583,0.105957,-9.437561,-14.442443,-0.137329,0.985299124630688
0.072021,-0.98877,0.097168,-8.049011,-4.295349,0.442505,0.9961399287073077
0.070313,-0.989746,0.073975,-6.706237,3.967285,-2.357483,0.9949941522993991
0.094971,-0.984131,0.068359,-3.120422,10.650634,-5.882263,0.991063201255601
0.126709,-0.981689,0.074219,1.25885,16.708374,-8.232117,0.9926111642345155
0.144287,-0.986816,0.090088,3.814697,21.316526,-9.58252,1.0013692645418073
0.158447,-0.996582,0.106689,4.638672,24.154661,-9.994507,1.0147234486568248
0.167969,-1.008545,0.114258,4.669189,26.847837,-9.552002,1.0288009975452006
0.176025,-1.018555,0.115234,4.020691,29.487608,-8.880615,1.0400567116297073
0.188965,-1.025879,0.11499,2.212524,31.204222,-8.621216,1.0494561419926036
0.203125,-1.02832,0.111084,0.137329,31.196592,-8.956909,1.054059506423143
0.213623,-1.027588,0.108154,-1.63269,29.785154,-8.224487,1.0551157147862977
0.220459,-1.025635,0.106445,-3.410339,27.145384,-7.308959,1.054447657274177
0.226318,-1.016357,0.101074,-5.477905,23.620604,-7.293701,1.0461440350396307
0.227051,-1.005615,0.096191,-7.499694,19.27948,-7.568359,1.0354063904124795
0.22168,-0.991699,0.093994,-9.185791,14.907836,-7.377624,1.020511538904387
0.213623,-0.973145,0.088135,-10.635375,11.604308,-6.820678,1.0002068562947366
0.200928,-0.958984,0.083008,-11.45172,9.58252,-6.332397,0.9833171927226738
0.192383,-0.952393,0.076172,-11.245727,8.537292,-5.935668,0.9746105985069115
0.186523,-0.953369,0.069092,-9.864807,8.468628,-5.226135,0.9738978304493753
0.183105,-0.949219,0.070068,-8.995056,8.68988,-4.981995,0.9692541852424471
0.183838,-0.944824,0.07666,-8.216858,8.354187,-5.058288,0.9655907812422403
0.180908,-0.942627,0.074463,-7.041931,8.079529,-5.1651,0.9627139263363754
0.177734,-0.943604,0.078369,-5.401611,7.446289,-5.546569,0.963389632357023
0.18457,-0.943848,0.08667,-3.593445,6.561279,-5.966186,0.9656225043483607
0.195801,-0.953857,0.089844,-1.464844,5.844116,-5.989074,0.9778819726255311
0.20752,-0.971924,0.092041,0.488281,4.898071,-4.966736,0.9980843440596591
0.209717,-0.977539,0.098633,0.88501,3.52478,-3.40271,1.0046353494173894
0.21875,-0.971924,0.098145,0.404358,1.228333,-2.02179,1.001059571304825
0.222412,-0.967773,0.102295,0.404358,-1.472473,-0.488281,0.9982564521694813
0.223633,-0.970459,0.104004,1.152039,-4.03595,0.938415,1.001308754274125
0.227539,-0.969971,0.109619,1.243591,-6.42395,2.120972,1.0023143531462573
0.231201,-0.969482,0.113037,1.533508,-8.56781,2.601623,1.0030586294399744
0.230469,-0.969971,0.109375,2.151489,-10.57434,2.876281,1.0029569240136889
0.230469,-0.978516,0.104248,2.746582,-12.763976,3.295898,1.010681536252147
0.22876,-0.990234,0.103516,2.929687,-15.342711,4.127502,1.0215723540758137
0.223145,-0.994385,0.099854,2.677917,-18.478394,4.653931,1.0239951369835698
0.218018,-0.98877,0.10083,2.494812,-21.507261,4.821777,1.017528697444942
0.206787,-0.985107,0.100098,2.26593,-23.696898,4.753113,1.0115415337108011
0.189941,-0.98291,0.098877,1.808166,-24.520872,4.516602,1.0059653635737167
0.172119,-0.983154,0.098389,1.197815,-24.063108,4.058838,1.0029442323469435
0.167236,-0.981689,0.096436,0.518799,-22.644041,3.532409,1.000490417002082
0.161865,-0.980469,0.098389,-0.152588,-20.851133,3.02124,0.9985990854727437
0.1521,-0.987061,0.094482,-0.427246,-18.737793,3.234863,1.0031703125815676
0.134277,-0.987061,0.095215,-1.586914,-15.937804,3.623962,1.0006925735084677
0.131348,-0.9729,0.09668,-3.387451,-12.725829,2.990722,0.9864754074501806
0.130615,-0.961426,0.095703,-4.03595,-9.010315,1.701355,0.9749663050126399
0.133057,-0.964844,0.089355,-3.486633,-5.470275,0.328064,0.9780656550610497
0.135498,-0.970215,0.093018,-2.746582,-2.540588,-0.671387,0.9840371957161985
0.143555,-0.97168,0.100098,-2.372742,-0.442505,-1.63269,0.9873143724412199
0.14917,-0.970215,0.102539,-2.14386,1.045227,-2.105713,0.9869564740382425
0.151611,-0.971924,0.10083,-1.449585,2.113342,-2.113342,0.9888320615741584
0.151855,-0.977783,0.10791,-0.465393,3.158569,-2.120972,0.9953713398596525
0.154785,-0.977295,0.11377,-0.457764,4.928589,-2.304077,0.9959957460501525
0.1604,-0.978271,0.108154,-0.411987,7.4234,-2.807617,0.99721592303623
0.166504,-0.97583,0.107422,-0.083923,9.925842,-3.288269,0.9957445741755262
0.177246,-0.968262,0.105225,-0.099182,11.741637,-4.043579,0.9899594667384114
0.186768,-0.964111,0.102539,0.679016,12.702941,-3.952026,0.9873735628757739
0.192627,-0.966797,0.100342,1.968384,12.992858,-2.754211,0.9908935953481585
0.192871,-0.972168,0.101074,2.502441,12.275695,-2.075195,0.9962558889868607
0.191406,-0.979248,0.102295,2.822876,10.993957,-2.113342,1.003009057469074
0.192139,-0.987549,0.095947,3.082275,10.299682,-1.480102,1.010631609208321
0.198975,-0.992188,0.093018,2.723694,9.712219,-0.099182,1.0162088497415283
0.203857,-0.983154,0.091553,1.953125,8.590698,0.259399,1.0082318265032104
0.205322,-0.973145,0.083252,1.487732,7.034301,-0.473022,0.9980476993676205
0.207275,-0.96875,0.078613,1.403808,5.393981,-0.846863,0.9937904667956923
0.214111,-0.966553,0.074707,1.480102,3.90625,-0.572205,0.9927987499886369
0.215088,-0.9646,0.07666,1.358032,2.14386,-0.328064,0.991258171892671
0.214355,-0.966309,0.080566,0.839233,0.175476,-0.312805,0.9930720164529862
0.212646,-0.962646,0.088135,0.427246,-1.655578,-0.556946,0.9897845325407949
0.212646,-0.964844,0.098389,0.022888,-2.983093,-0.999451,0.9928860261747066
0.209717,-0.969482,0.098389,-0.335693,-3.959656,-1.38855,0.9967732759930915
0.205078,-0.970947,0.102295,-0.686645,-4.386902,-1.76239,0.9976268490362517
0.199707,-0.976318,0.099854,-0.816345,-4.074097,-1.922607,1.0015241106878057
0.193848,-0.981445,0.095947,-0.541687,-3.242492,-1.556396,1.0049961004591013
0.189209,-0.973145,0.101074,-0.785828,-2.655029,-1.441955,0.9965074962999526
0.187988,-0.963379,0.103271,-0.854492,-2.540588,-1.625061,0.9869668106000323
0.188965,-0.96167,0.107178,-0.038147,-2.632141,-1.686096,0.9859026746129661
0.188965,-0.970215,0.110352,0.846863,-2.365112,-1.541138,0.9945865881631424
0.189209,-0.980225,0.111328,0.946045,-1.976013,-1.319885,1.004507351834719
0.189697,-0.986572,0.108887,0.473022,-1.853943,-1.022339,1.0105274077243032
0.189697,-0.982666,0.104492,-0.282288,-1.739502,-1.205444,1.0062484769822015
0.189697,-0.975098,0.099854,-1.091003,-1.342773,-1.594543,0.9983846366651482
0.185303,-0.970215,0.095947,-0.999451,-1.174927,-2.342224,0.9924012166674324
0.193359,-0.971436,0.088623,-0.671387,-1.419067,-2.983093,0.9944494160619735
0.195557,-0.966797,0.086914,-0.473022,-1.777649,-3.204345,0.9901984764954953
0.19873,-0.964844,0.086914,0.022888,-2.494812,-3.158569,0.9889244665959075
0.197266,-0.968506,0.092041,0.762939,-3.356933,-2.929687,0.9926677654044177
0.196289,-0.966309,0.091797,1.213074,-4.188538,-2.166748,0.9903076008044167
0.193848,-0.968994,0.091553,1.76239,-4.875183,-1.564026,0.9924254989413563
0.188965,-0.973633,0.093506,2.189636,-5.249023,-0.984192,0.9961989570110982
0.18335,-0.973389,0.093262,2.037048,-5.53894,-0.534058,0.9948875154835345
0.177734,-0.970703,0.098633,1.770019,-5.348205,-0.366211,0.9917571061777173
0.175537,-0.965576,0.098389,1.609802,-5.027771,-0.50354,0.9863217758247051
0.179932,-0.964844,0.095459,1.907349,-4.562378,-0.88501,0.9861094714285022
0.180664,-0.970215,0.0979,2.212524,-3.807068,-0.701904,0.9917363748098584
0.183105,-0.973145,0.099121,2.029419,-3.27301,-0.328064,0.9951701385647582
0.186279,-0.974609,0.0979,1.441955,-2.830505,-0.175476,0.9970691945507092
0.186523,-0.975586,0.095947,0.976562,-2.311707,-0.045776,0.9978801028851111
0.188721,-0.975586,0.097412,0.579834,-1.754761,0.083923,0.9984351541191846
0.191895,-0.975098,0.100098,0.495911,-1.342773,-0.022888,0.9988290195188564
0.19458,-0.975342,0.100586,0.572205,-1.312256,0.282288,0.9996354019141179
0.199219,-0.975586,0.101074,0.846863,-1.647949,0.358582,1.0008357541739803
0.200928,-0.969727,0.103271,0.823975,-2.319336,0.091553,0.9956944386477209
0.201904,-0.96582,0.101807,0.831604,-3.479004,0.114441,0.9919365719969195
0.199707,-0.966309,0.104004,1.556396,-4.356384,0.411987,0.9921959490675216
0.197266,-0.970947,0.108643,2.426147,-5.043029,0.75531,0.9967222546998737
0.19751,-0.974609,0.107666,2.494812,-5.584716,0.831604,1.0002324082616998
0.196289,-0.976807,0.10791,2.304077,-5.722045,1.045227,1.0021605933531812
0.192871,-0.973877,0.109619,1.701355,-5.577087,1.113892,0.9988252894931126
0.192627,-0.966553,0.108643,1.205444,-5.554199,0.778198,0.9915307178232049
0.193848,-0.962646,0.103027,1.243591,-5.882263,0.87738,0.9873595754075614
0.19458,-0.963379,0.10498,1.960754,-6.286621,1.060486,0.988423631061601
0.195068,-0.965576,0.105713,2.708435,-6.538391,1.213074,0.9907390043644189
0.19043,-0.963623,0.108398,2.761841,-6.317138,1.144409,0.9882221397201137
0.188232,-0.96582,0.106934,2.838135,-5.973815,1.205444,0.9897850466540703
0.184326,-0.966309,0.102295,3.27301,-5.401611,1.365662,0.9890366144799696
0.185547,-0.967041,0.10376,3.181457,-4.875183,0.900268,0.990132376245722
0.189453,-0.968994,0.099854,3.479004,-4.66156,0.473022,0.9923772632225106
0.188477,-0.97583,0.097168,3.890991,-4.508972,0.793457,0.9986037195269202
0.188477,-0.976563,0.102539,3.845215,-4.585266,0.549316,0.9998565492204369
0.189453,-0.979248,0.105225,3.547668,-4.920959,0.106812,1.0029413668495282
0.18457,-0.98291,0.103027,3.509521,-5.439758,-0.198364,1.0053818755721629
0.179443,-0.989014,0.102051,3.387451,-5.66864,-0.099182,1.0103281095990548
0.179688,-0.989258,0.102051,2.792358,-5.355834,0.038147,1.0106104959424278
0.177246,-0.987793,0.100098,1.785278,-5.096435,-0.022888,1.008548841142064
0.173584,-0.985352,0.095947,1.091003,-4.882813,-0.099182,1.0051148172069697
0.165527,-0.983154,0.097168,0.938415,-4.066467,0.12207,1.001714827517792
0.164307,-0.977295,0.101807,0.488281,-2.731323,0.076294,0.9962263661051137
0.164063,-0.974609,0.099609,-0.068665,-1.13678,-0.518799,0.9933284067875034
0.165283,-0.975586,0.095947,0.175476,0.205994,-0.656128,0.9941289354475102
0.168457,-0.975342,0.101563,0.305176,1.396179,-0.709534,0.9949798092333332
0.177002,-0.967773,0.108398,0.015259,2.388,-1.144409,0.9897799825905755
0.181152,-0.961182,0.107178,0.198364,2.952575,-1.434326,0.9839583364716211
0.184082,-0.965576,0.109619,1.045227,3.105163,-1.060486,0.9890599171238313
0.187256,-0.969482,0.112793,1.426697,3.02124,-0.75531,0.9938221262927285
0.192139,-0.971191,0.109619,1.281738,2.922058,-0.656128,0.9960650977536559
0.19751,-0.9729,0.108154,1.449585,2.761841,-0.541687,0.9986199967034507
0.199951,-0.970947,0.107178,1.586914,2.525329,-0.335693,0.9970985923638644
0.196289,-0.968994,0.109131,1.342773,1.976013,-0.511169,0.994680008202638
0.19751,-0.964355,0.106689,1.327515,1.335144,-0.770569,0.9901380251490193
0.196777,-0.963135,0.108154,1.609802,1.113892,-0.732422,0.9889628424111797
0.196045,-0.964111,0.108154,2.182007,1.029968,-0.709534,0.989768129443457
0.196777,-0.967773,0.109131,2.471924,0.793457,-0.808716,0.9935871086215843
0.197021,-0.970459,0.109375,2.63977,0.320435,-0.839233,0.9962784930665722
0.199219,-0.974609,0.107666,2.571106,-0.328064,-0.564575,1.000571277020283
0.199463,-0.976807,0.107178,2.403259,-1.12915,-0.404358,1.002708595406462
0.198242,-0.973389,0.106201,2.372742,-2.296448,-0.473022,0.9990318755104863
0.195557,-0.978027,0.104004,2.677917,-3.517151,-0.282288,1.00279418875161
0.195068,-0.988525,0.103027,2.754211,-4.493713,0.190735,1.0128414303226345
0.189453,-0.990967,0.103271,2.174377,-5.279541,0.579834,1.0141858477315684
0.185791,-0.986572,0.098633,1.205444,-5.744934,0.473022,1.0087472803204973
0.183105,-0.984375,0.091797,0.534058,-6.156921,0.343323,1.0054592338125896
0.176758,-0.976563,0.094727,0.37384,-6.225585,0.686645,0.9969412661044782
0.174072,-0.967773,0.098389,0.160217,-5.874633,0.709534,0.9882135579084108
0.168701,-0.968018,0.102783,0.701904,-5.462646,0.823975,0.9879692408238224
0.167725,-0.974365,0.107178,1.487732,-4.814148,0.961304,0.994487784004409
0.168457,-0.977539,0.111572,1.533508,-4.119873,0.930786,0.9982026690777781
0.17041,-0.982422,0.110107,1.167297,-3.578186,0.747681,1.0031530818539112
0.168701,-0.983887,0.111572,0.701904,-2.883911,0.793457,1.0044610332680903
0.169922,-0.981934,0.114258,0.205994,-2.342224,0.709534,1.0030567067738494
0.170654,-0.977295,0.112305,-0.091553,-1.63269,0.473022,0.9984191092752582
0.171631,-0.977295,0.113037,0.061035,-0.953674,0.572205,0.9986691547028976
0.177002,-0.973633,0.116943,0.175476,-0.038147,0.579834,0.9964770905254169
0.17749,-0.969727,0.11792,0.473022,0.564575,0.228882,0.9928636769612432
0.182617,-0.973389,0.116455,0.717163,1.113892,0.076294,0.99719450511673
0.18335,-0.974609,0.119629,0.648498,1.518249,0.015259,0.9988949008889774
0.183838,-0.974854,0.118408,0.541687,2.281189,-0.144958,0.9990781681249972
0.18457,-0.972656,0.115479,0.404358,2.853393,-0.63324,0.9967252272702843
0.193604,-0.972168,0.113281,0.63324,3.349304,-1.060486,0.9977102354897438
0.195068,-0.976563,0.113037,0.968933,3.39508,-1.327515,1.0022495602204073
0.195801,-0.975586,0.111084,0.869751,2.5177,-1.304626,1.0012221182400038
0.197266,-0.97583,0.110352,0.762939,1.373291,-1.274109,1.001666425293371
0.193848,-0.976074,0.107666,0.511169,0.099182,-1.091003,1.0009442882278714
0.186768,-0.973877,0.107178,0.259399,-1.426697,-0.984192,0.9973995290940336
0.182861,-0.972168,0.10791,0.343323,-2.693176,-0.740051,0.9950845861759693
0.178467,-0.977295,0.104492,0.671387,-3.135681,-0.091553,0.9989367173039542
0.177979,-0.982178,0.105957,0.770569,-2.876281,0.488281,1.0037813676164746
0.176025,-0.986572,0.105225,0.717163,-2.311707,0.709534,1.007661358013693
0.175049,-0.990479,0.102295,0.419617,-1.663208,0.724792,1.0110168489530726
0.176758,-0.988037,0.10376,0.045776,-1.190186,0.801086,1.0090721686445425
0.181152,-0.981201,0.104248,-0.526428,-1.25885,0.686645,1.0032143813806698
0.186035,-0.97876,0.106689,-0.411987,-1.770019,0.770569,1.0019793917770963
0.18042,-0.9729,0.110352,-0.37384,-2.372742,1.045227,0.9956220921132677
0.175781,-0.970459,0.110596,-0.389099,-2.853393,1.083374,0.9924319149735159
0.178711,-0.969482,0.110352,-0.396728,-3.456115,1.289368,0.9919730509187232
0.176758,-0.968994,0.109131,-0.396728,-3.639221,1.052856,0.9910107657139755
0.171875,-0.973389,0.109131,-0.167847,-3.39508,1.480102,0.9944529833566793
0.170166,-0.975586,0.108398,0.267029,-2.403259,1.937866,0.9962302130311046
0.175781,-0.976807,0.109131,0.076294,-1.365662,1.426697,0.9984790685692916
0.177002,-0.973877,0.110107,0.076294,-0.541687,0.732422,0.9959365795983196
0.175781,-0.973877,0.110596,0.007629,0.221252,0.411987,0.9957744957097465
0.175049,-0.975586,0.114746,-0.213623,0.892639,0.221252,0.9977859691902868
0.177979,-0.974854,0.117676,-0.37384,1.396179,-0.213623,0.9979301011258254
0.180664,-0.972412,0.11792,-0.419617,1.670837,-0.648498,0.9960570792078133
0.178467,-0.970459,0.11792,-0.427246,1.953125,-0.87738,0.9937536249845833
0.180664,-0.970703,0.117432,-0.305176,2.380371,-1.144409,0.9943309658906333
0.18335,-0.975098,0.11792,-0.061035,3.005981,-0.999451,0.9991688838749934
0.186035,-0.977783,0.119873,0.144958,3.334045,-0.923157,1.0025159113166233
0.188232,-0.977539,0.117432,-0.007629,3.265381,-0.816345,1.0023991505228844
0.190918,-0.972656,0.114502,-0.144958,2.853393,-0.793457,0.9978076393093009
0.191162,-0.966797,0.109863,-0.106812,2.052307,-1.00708,0.9916194977016134
0.19165,-0.965332,0.105225,0.183105,0.968933,-1.113892,0.9897817402584268
0.189209,-0.958984,0.104004,0.343323,0.030518,-1.174927,0.9829889063224467
0.184326,-0.95874,0.106689,0.709534,-0.450134,-1.022339,0.9821104849236669
0.179932,-0.965088,0.109131,1.365662,-0.549316,-0.892639,0.9877651277145797
0.181152,-0.970215,0.114014,1.693725,-0.282288,-0.953674,0.9935453615839591
0.181885,-0.976074,0.110596,1.296997,0.244141,-0.915527,0.9990165573788053
0.18335,-0.979248,0.108154,0.587463,0.671387,-0.907898,1.0021183341901294
0.188721,-0.978027,0.106201,0.061035,0.656128,-0.946045,1.0017140714650064
0.190674,-0.972412,0.106445,0.030518,0.320435,-0.724792,0.9966304280148184
0.193359,-0.972412,0.102295,0.50354,-0.541687,-0.282288,0.9967131320746206
0.192383,-0.970703,0.105469,0.762939,-1.525879,0.1297,0.9951880439690782
0.190674,-0.968262,0.107666,0.862122,-2.441406,0.411987,0.9927133737771442
0.186523,-0.969727,0.108398,1.014709,-2.952575,0.511169,0.9934341500381392
0.183105,-0.971191,0.109131,1.205444,-3.051758,0.579834,0.9943082895495743
0.185303,-0.97583,0.108643,1.289368,-2.807617,0.511169,0.9991920196628874
0.186523,-0.976318,0.106201,1.12915,-2.288818,0.434875,0.9996330922163392
0.185059,-0.975586,0.108887,1.060486,-2.182007,0.076294,0.9989350607752238
0.185547,-0.977783,0.108154,0.991821,-2.212524,-0.343323,1.0010916901133482
0.186035,-0.973389,0.109863,1.00708,-2.433777,-0.534058,0.9970782543587038
0.186768,-0.976318,0.112305,1.037598,-2.609253,-0.679016,1.00034570822941
0.186035,-0.974121,0.109375,0.808716,-2.89154,-0.854492,0.9977392617768431
0.186035,-0.969727,0.108887,0.511169,-3.14331,-0.938415,0.9933961216569149
0.182129,-0.968018,0.10791,0.350952,-3.265381,-1.098633,0.9908957508562645
0.177002,-0.967041,0.109131,0.320435,-3.089905,-1.274109,0.9891448725267701
0.177002,-0.967285,0.111572,0.541687,-2.212524,-1.594543,0.9896556423387884
0.177734,-0.970459,0.109863,0.900268,-1.098633,-1.63269,0.9926983047260632
0.178955,-0.977783,0.108154,1.091003,-0.091553,-1.266479,0.9998908814615722
0.188477,-0.976563,0.107666,1.205444,0.305176,-1.205444,1.0003953418793992
0.195313,-0.978271,0.106689,1.472473,-0.320435,-1.068115,1.0032665947448862
0.195557,-0.981934,0.111816,1.76239,-1.586914,-0.62561,1.0074421762369292
0.192871,-0.982666,0.11084,1.434326,-2.914428,0.183105,1.0075302455991086
0.185547,-0.980469,0.108398,0.617981,-3.623962,0.335693,1.003741637860062
0.183594,-0.974854,0.105957,0.099182,-4.043579,0.183105,0.9976341834565413
0.181885,-0.970215,0.103516,-0.1297,-4.150391,-0.091553,0.9925295268685965
0.179688,-0.968018,0.101074,0.152588,-4.28772,-0.061035,0.9897285381072934
0.177979,-0.968506,0.101563,0.419617,-4.264832,-0.175476,0.9899471902308729
0.173828,-0.969727,0.099609,0.579834,-4.257202,-0.671387,0.9902063325358004
0.170654,-0.97168,0.103027,0.389099,-4.03595,-1.12915,0.991917019132649
0.172363,-0.970947,0.105957,0.053406,-3.303528,-1.281738,0.9918033910140659
0.177002,-0.967041,0.107178,-0.091553,-2.624511,-1.426697,0.9889313056876095
0.175293,-0.96875,0.108398,0.038147,-2.113342,-1.312256,0.9904313831624076
0.175537,-0.969482,0.116699,0.175476,-1.89209,-1.327515,0.9921326742396905
0.179199,-0.970459,0.119629,-0.030518,-1.701355,-1.457214,0.9940895583009611
0.181396,-0.973877,0.119141,0.221252,-1.770019,-1.480102,0.9977652518633829
0.183105,-0.977051,0.119385,0.457764,-1.838684,-1.403808,1.00120371346245
0.181396,-0.97998,0.12085,0.274658,-2.075195,-1.266479,1.0039273039996472
0.182129,-0.982422,0.119873,0.267029,-2.113342,-1.022339,1.0063267336476758
0.185303,-0.98291,0.119873,0.259399,-2.075195,-1.045227,1.0073821549134172
0.185303,-0.979004,0.114746,0.183105,-2.01416,-1.106262,1.0029719230073193
0.184082,-0.97876,0.108643,-0.015259,-2.01416,-1.304626,1.0018286389263384
0.179199,-0.973145,0.108154,-0.267029,-2.082825,-1.716614,0.9953997992475184
0.174072,-0.970703,0.109863,-0.320435,-1.76239,-2.120972,0.9922878887510418
0.171875,-0.973389,0.111084,0.038147,-1.13678,-2.27356,0.994669199282857
0.172852,-0.979248,0.112793,0.404358,-0.289917,-2.220154,1.0007630689913571
0.17334,-0.98584,0.111572,0.045776,0.602722,-2.02179,1.007162138081054
0.174561,-0.981934,0.109375,-0.595093,1.411438,-2.105713,1.003308932334403
0.175537,-0.980957,0.10498,-0.900268,2.098083,-2.052307,1.0020532294334468
0.17749,-0.977783,0.099854,-1.029968,2.540588,-1.88446,0.9987657966235127
0.179199,-0.970703,0.099365,-0.961304,2.670288,-1.930237,0.9920937450841023
