ax,ay,az,gx,gy,gz,acc_mag
-0.381592,-0.918945,-0.122314,0.923157,-0.183105,-0.617981,1.0025133824967125
-0.384277,-0.918701,-0.124512,0.740051,-0.518799,-0.640869,1.003585361727641
-0.385254,-0.914795,-0.125977,0.862122,-0.671387,-0.701904,1.0005702079664376
-0.386963,-0.916992,-0.124756,0.846863,-0.717163,-0.75531,1.0030846180502422
-0.388428,-0.914551,-0.125,0.701904,-0.854492,-0.968933,1.0014513681577353
-0.39502,-0.914063,-0.126953,0.610352,-0.801086,-1.113892,1.0038271925874493
-0.394531,-0.913086,-0.125732,0.526428,-0.518799,-1.312256,1.0025912872058085
-0.395752,-0.911621,-0.127686,0.572205,-0.183105,-1.266479,1.0019861315113099
-0.397705,-0.9104,-0.125,0.87738,0.175476,-1.266479,1.0013103549973903
-0.398926,-0.913086,-0.124023,0.816345,0.274658,-1.525879,1.0041163784148728
-0.398438,-0.915283,-0.123779,0.648498,-0.038147,-1.457214,1.0058911724306958
-0.399658,-0.910645,-0.124268,0.511169,-0.434875,-1.251221,1.0022192219335049
-0.399902,-0.912354,-0.121826,0.312805,-0.854492,-1.312256,1.0035701296850161
-0.40332,-0.91333,-0.119873,0.350952,-1.098633,-1.266479,1.0055885080036464
-0.407471,-0.91333,-0.118408,0.434875,-0.953674,-0.991821,1.0070872649403326
-0.403564,-0.91333,-0.118408,0.495911,-0.602722,-0.717163,1.00551282709869
-0.400879,-0.912598,-0.119629,0.480652,-0.526428,-0.656128,1.0039174168655507
-0.402588,-0.911865,-0.12085,0.427246,-0.892639,-0.450134,1.004081470035674
-0.405273,-0.913574,-0.116699,0.282288,-0.999451,-0.083923,1.0062218018935984
-0.405518,-0.911133,-0.116943,0.167847,-0.770569,0.221252,1.0041333861903008
-0.402344,-0.909424,-0.118896,0.297546,-0.434875,0.411987,1.0015333069489003
-0.398682,-0.910889,-0.116943,0.350952,-0.274658,0.495911,1.0011702016610362
-0.395752,-0.911377,-0.115723,0.556946,-0.419617,0.541687,1.0003096992241953
-0.395508,-0.915283,-0.116943,0.534058,-0.671387,0.549316,1.003914943310438
-0.393066,-0.915039,-0.115479,0.404358,-0.930786,0.419617,1.0025630410692388
-0.394287,-0.916016,-0.118164,0.595093,-1.022339,0.12207,1.0042461259676336
-0.395752,-0.918457,-0.118408,0.709534,-0.839233,-0.1297,1.0070766409846867
-0.394287,-0.916748,-0.118896,0.762939,-0.808716,-0.213623,1.0050001953676426
-0.390869,-0.914551,-0.118896,0.595093,-0.854492,-0.274658,1.0016578086242827
-0.392578,-0.915527,-0.116211,0.518799,-0.732422,-0.366211,1.0029018747285299
-0.393311,-0.918701,-0.116699,0.839233,-0.419617,-0.389099,1.006142995166691
-0.389648,-0.918213,-0.118652,0.961304,-0.144958,-0.389099,1.0044993650455931
-0.388916,-0.919189,-0.12207,0.923157,-0.022888,-0.167847,1.005517358217649
-0.385986,-0.917236,-0.122803,0.953674,-0.1297,-0.068665,1.0026902057470195
-0.383301,-0.915039,-0.119873,0.823975,-0.442505,-0.152588,0.9992925318699226
-0.383301,-0.914795,-0.117188,0.656128,-0.930786,-0.221252,0.9987505073690827
-0.384766,-0.912109,-0.116455,0.610352,-1.152039,-0.282288,0.9967695168202125
-0.387695,-0.913086,-0.118408,0.648498,-1.220703,-0.572205,0.9990264815734365
-0.38916,-0.917236,-0.115234,0.770569,-1.342773,-0.907898,1.0030185741311075
-0.390137,-0.915527,-0.118408,0.732422,-1.419067,-1.174927,1.00220607709293
-0.39209,-0.91626,-0.119385,0.740051,-1.586914,-1.396179,1.0037528251143306
-0.395996,-0.917236,-0.115234,0.778198,-1.899719,-1.480102,1.0056906017598057
-0.398682,-0.917236,-0.112305,0.656128,-2.128601,-1.472473,1.0064202054037867
-0.398193,-0.918701,-0.112549,0.556946,-2.26593,-1.38855,1.007589435261704
-0.400879,-0.917969,-0.114258,0.564575,-2.296448,-1.38092,1.008179521794606
-0.399658,-0.917969,-0.114746,0.564575,-2.250671,-1.205444,1.007750091263206
-0.399414,-0.918457,-0.113037,0.442505,-2.349854,-0.961304,1.0079048405549007
-0.399414,-0.918213,-0.116455,0.259399,-2.334595,-0.923157,1.0080716362392108
-0.398682,-0.91626,-0.118896,0.152588,-1.998901,-0.854492,1.0062882209089004
-0.395996,-0.915283,-0.120361,0.320435,-1.625061,-0.747681,1.0045111111510912
-0.39624,-0.916748,-0.118164,0.267029,-1.350403,-0.656128,1.005681740910115
-0.394775,-0.915039,-0.118164,0.114441,-1.38855,-0.701904,1.0035469112313584
-0.392578,-0.92041,-0.115967,-0.038147,-1.670837,-0.709534,1.0073333109120337
-0.393066,-0.922607,-0.116699,-0.282288,-2.059937,-0.732422,1.0096153789468543
-0.391602,-0.918457,-0.120605,-0.511169,-2.26593,-0.816345,1.0057141508788667
-0.392822,-0.915771,-0.12085,-0.465393,-2.532959,-0.75531,1.0037680860761615
-0.389893,-0.918213,-0.122803,-0.793457,-2.777099,-0.62561,1.0050931507213647
-0.38208,-0.91748,-0.138916,-1.312256,-3.372192,-0.595093,1.0035199708306755
-0.347412,-0.915771,-0.165283,-2.204895,-6.095886,-0.198364,0.9933026186787187
-0.316406,-0.920166,-0.167969,-4.364014,-14.282226,0.907898,0.9874369900672144
-0.3125,-0.930176,-0.166504,-8.651733,-27.511595,1.365662,0.9952925313655278
-0.331055,-0.931641,-0.153076,-13.496398,-42.091366,1.296997,1.0004921927141661
-0.357422,-0.936035,-0.137207,-17.38739,-53.970333,1.739502,1.0113049827613825
-0.378662,-0.926758,-0.125977,-20.103453,-59.913631,1.220703,1.009027009220764
-0.400146,-0.920654,-0.116455,-20.378111,-60.401913,0.801086,1.0105851651676863
-0.413818,-0.916992,-0.123535,-19.088745,-56.983944,0.694275,1.0135978302132458
-0.39209,-0.918945,-0.1604,-17.967224,-53.245541,1.152039,1.0118906270566004
-0.359619,-0.932129,-0.189941,-19.203186,-54.420467,2.838135,1.0169896170969495
-0.342285,-0.946289,-0.223389,-23.887632,-62.644955,5.91278,1.030788309046528
-0.333252,-0.953857,-0.238037,-30.784605,-76.889038,9.986877,1.0380566869501877
-0.344727,-0.973145,-0.213379,-38.169861,-94.726555,15.11383,1.0542193762187262
-0.382324,-0.989746,-0.181396,-45.951839,-111.465446,20.675657,1.0764168775655647
-0.413086,-0.990479,-0.184814,-51.841732,-123.962395,27.221678,1.0889650625401166
-0.452148,-0.990234,-0.217041,-56.259151,-131.874084,34.812927,1.1100035965441732
-0.478027,-0.996826,-0.251953,-60.714718,-137.229919,43.701168,1.1338660420058446
-0.505859,-1.01001,-0.23877,-64.819336,-142.623901,54.954525,1.1545668628888497
-0.553223,-1.030518,-0.219727,-68.305969,-148.06366,66.955566,1.190085287104248
-0.600098,-1.050293,-0.233398,-71.19751,-151.985168,78.323364,1.2319527677054019
-0.637939,-1.064453,-0.239014,-74.302673,-155.395508,90.156548,1.2637856025157117
-0.687256,-1.069336,-0.244873,-78.392029,-158.920288,102.447502,1.2945126791812431
-0.730713,-1.06958,-0.261475,-80.856316,-160.964951,115.272514,1.3214810026610295
-0.763184,-1.076172,-0.27124,-82.427971,-160.697922,128.471375,1.3469102156565596
-0.802246,-1.06665,-0.264893,-85.319511,-158.752441,140.396118,1.3607017191379602
-0.858398,-1.049805,-0.266357,-88.767998,-154.602051,150.07782,1.3819854253493413
-0.910156,-1.005371,-0.251709,-91.285698,-147.186279,158.676147,1.3793158494913338
-0.958984,-0.953857,-0.228271,-91.13311,-137.756348,166.26738,1.3717146708211587
-0.993896,-0.927734,-0.212402,-89.042656,-129.425049,172.515854,1.376093835163867
-1.013916,-0.902588,-0.204346,-88.279716,-125.968925,178.283676,1.3727519952693568
-1.038086,-0.866699,-0.202637,-89.416496,-128.166199,184.082016,1.3674251181567494
-1.097656,-0.825928,-0.216797,-91.331474,-130.882263,188.972458,1.3906856922860031
-1.137451,-0.772705,-0.221436,-92.735283,-128.166199,194.465622,1.3928035383793365
-1.132324,-0.7229,-0.194824,-91.445915,-119.255058,202.033981,1.357460291114256
-1.133057,-0.666748,-0.144043,-88.60778,-109.977715,207.946762,1.3225427957544513
-1.161621,-0.617432,-0.092285,-85.746758,-104.24041,212.417587,1.3187502202805503
-1.188721,-0.580811,-0.0625,-82.237236,-100.517265,218.05571,1.3245019001730423
-1.208008,-0.540283,-0.045898,-77.812195,-96.153252,224.22789,1.3241207175167224
-1.210693,-0.487061,-0.044189,-72.532654,-89.828484,229.278549,1.305740642582209
-1.20459,-0.43457,-0.038818,-66.246033,-82.481377,232.826218,1.281169383853673
-1.217773,-0.389893,-0.009766,-60.035702,-76.393127,236.114487,1.27870364265298
-1.236084,-0.354248,0.02124,-54.122921,-70.602417,240.241989,1.2860196103325952
-1.226563,-0.334229,0.021729,-48.156734,-61.096188,245.14006,1.2714707888311867
-1.220947,-0.294189,0.01001,-43.762203,-47.241207,246.826157,1.255929514196557
-1.20752,-0.242676,0.007568,-39.604187,-29.655455,246.177658,1.2316872435809343
-1.182129,-0.200195,0.031738,-34.294128,-10.57434,246.0327,1.199380803293933
-1.134277,-0.167236,0.070557,-28.068541,4.875183,245.971664,1.1487081799456291
-1.082031,-0.146973,0.128418,-21.171568,12.176513,245.788559,1.099492305754797
-1.028809,-0.122314,0.159668,-14.884948,12.329101,244.422897,1.0482855256565362
-0.993652,-0.060791,0.176514,-8.537292,8.522034,240.417465,1.0110376031488642
-0.963135,-0.008789,0.17334,-0.465393,4.03595,236.06871,0.9786485734654703
-0.938721,0.018311,0.185059,8.460999,3.135681,231.483444,0.9569635531424381
-0.939209,0.062744,0.215576,16.372681,5.760192,223.419174,0.9656724946859572
-0.899414,0.117432,0.236084,25.024412,10.231017,215.393051,0.9372680902900727
-0.852783,0.177246,0.267822,34.469604,12.626647,208.343491,0.9112538687374665
-0.839111,0.237305,0.301758,43.144222,12.817382,199.981674,0.9227561020713979
-0.821533,0.278564,0.322266,51.132198,15.899657,190.803513,0.9254024783525273
-0.794189,0.302002,0.348633,58.4259,25.329588,180.397018,0.9184151264074433
-0.756836,0.331055,0.400146,65.841675,35.339355,169.151291,0.9178861395821379
-0.714111,0.348389,0.469727,75.813293,33.981323,160.018921,0.9230237646837702
-0.73999,0.349609,0.533936,86.174004,15.083312,153.373718,0.9771894929219204
-0.788818,0.359863,0.581787,94.741814,-12.062072,148.68927,1.0441318543469498
-0.769531,0.405273,0.63623,102.508537,-31.379698,144.508362,1.0775958321142487
-0.727783,0.463135,0.710449,111.1679,-42.648312,137.145996,1.117541902979481
-0.731689,0.485352,0.787109,122.169487,-51.498409,128.089905,1.1791844361701862
-0.735596,0.484619,0.88501,136.131287,-59.104916,121.231071,1.2486792023882676
-0.78418,0.486572,0.98291,154.212952,-69.511414,115.943901,1.3482591188951774
-0.860352,0.463623,1.074707,175.247177,-84.83123,112.915031,1.4526344983794102
-0.887451,0.471436,1.18335,196.75444,-99.456779,112.693779,1.552462045267774
-0.856934,0.522461,1.306885,218.04808,-117.797844,110.168449,1.6478014989985899
-0.796631,0.572754,1.448486,240.4785,-138.420105,104.576103,1.7495084414980682
-0.831299,0.604492,1.579346,249.992355,-158.02002,94.528191,1.8843572891521925
-0.89624,0.525146,1.571289,249.992355,-175.384506,85.136406,1.8836065354624887
-0.95874,0.362793,1.447266,249.771103,-189.414963,77.896118,1.7735219263389443
-1.039795,0.177002,1.221436,249.992355,-198.730453,70.526123,1.6138182215246548
-1.124756,-0.063965,0.916016,249.992355,-198.631271,65.284729,1.4519824010699993
-1.303223,-0.283447,0.571045,249.992355,-187.278732,60.203548,1.4508014273369736
-4.989258,-5.323486,-5.951416,184.745773,-167.40416,17.242432,9.415495259826539
-2.463135,-5.994385,-2.571289,30.769346,86.34185,-39.512634,6.97217417151716
0.565674,-1.226074,1.4646,22.430418,148.330688,149.44458,1.9920586557006799
-1.267334,2.877441,1.624512,-133.491516,128.952026,216.072067,3.5390452687385903
0.456787,3.756348,0.610596,-68.771362,96.771233,157.981873,3.8329664928993314
0.372803,0.815186,-0.224121,175.476059,-59.753414,31.150816,0.9239807974444058
-0.420166,-1.049561,-0.717773,121.574394,-155.639648,-11.497497,1.3391474301980344
-0.714844,-0.798584,-0.876221,0.152588,-176.246628,-51.460262,1.3843776906007261
-1.576416,-0.042725,-1.0354,-9.552002,-154.594421,-73.562622,1.8865221945900876
-1.791504,0.204346,-1.075195,46.737667,-19.561768,-90.522758,2.0993542239834135
-0.925293,0.165527,-0.93457,57.464596,85.46447,-89.660637,1.3255140167037087
-0.508545,0.337646,-0.765137,21.354673,78.75824,-61.157223,0.9788041004766991
-0.675537,0.516846,-0.721924,-2.258301,39.749146,-60.913082,1.1156407521514262
-1.029053,0.43457,-0.781982,-9.223938,31.555174,-88.005058,1.3635604167153723
-1.351074,0.362549,-0.610352,-18.936157,55.7785,-95.222466,1.5262281267166453
-1.39917,0.399414,-0.435303,-25.520323,97.702019,-81.886284,1.5187813977347102
-1.148438,0.348633,-0.345703,-28.556822,117.515556,-70.68634,1.2489857376055182
-1.032227,0.329102,-0.21875,-39.276123,87.013237,-66.917419,1.1052837954267674
-1.11792,0.394531,-0.078125,-51.879879,33.096313,-58.700558,1.188067065441173
-1.447754,0.548584,0.00708,-59.707638,2.89917,-54.26025,1.5482203253968734
-1.58252,0.5979,-0.041748,-60.142513,13.21411,-51.460262,1.6922165511257712
-1.450928,0.473633,-0.117188,-65.116882,33.760071,-37.284851,1.5307688614604753
-1.322021,0.39502,-0.261475,-85.395805,31.311033,-25.871275,1.404332403836784
-1.28125,0.403564,-0.395996,-109.390251,15.678405,-15.411376,1.4004564600914946
-1.303711,0.434082,-0.382813,-132.492065,13.908385,1.167297,1.4264064453072274
-1.250244,0.459229,-0.286865,-152.511597,34.042358,14.625548,1.3624583891635003
-1.107178,0.436768,-0.167969,-166.76329,55.641171,24.894712,1.202007901167459
-0.971924,0.415283,-0.073242,-178.970322,61.050411,34.889221,1.059462421433153
-0.900635,0.443115,0.015869,-188.880905,56.198116,41.725155,1.0038655943954848
-0.856934,0.494385,0.11377,-193.695053,50.552364,44.898983,0.9958393552581661
-0.815918,0.546875,0.19165,-193.893417,47.798153,47.119137,1.0007617952584922
-0.751465,0.614746,0.24585,-189.651474,44.891354,47.889706,1.0015260921418874
-0.713135,0.653564,0.298828,-182.098373,41.946407,48.889156,1.0124256041334592
-0.703125,0.67041,0.336182,-173.042282,43.334957,48.812862,1.0280333996758082
-0.669922,0.687256,0.368652,-162.506088,50.872799,46.890255,1.0281150678421167
-0.61792,0.70752,0.392822,-150.497437,58.372494,43.601986,1.018193891399865
-0.584717,0.735352,0.425781,-136.878967,60.485836,40.206905,1.0314678831422721
-0.580322,0.783447,0.469971,-122.619621,58.059689,35.949707,1.0823287699835018
-0.570068,0.851807,0.514648,-107.429497,50.415035,32.00531,1.1469155390773116
-0.575684,0.893799,0.560547,-91.194145,36.224365,30.34973,1.2018742278067203
-0.583984,0.914307,0.559082,-75.500488,17.196655,29.327391,1.2204783018263783
-0.592529,0.920654,0.520508,-59.761044,-3.120422,27.70233,1.2122800755687606
-0.617188,0.906494,0.475586,-45.745846,-21.682737,25.321959,1.1953386310062935
-0.641602,0.892334,0.427002,-32.516479,-32.699585,23.28491,1.1790860027852081
-0.635742,0.894043,0.402344,-18.562317,-35.591125,20.324705,1.168486829514565
-0.614258,0.917969,0.428711,-4.394531,-36.575317,16.853333,1.1848093083049271
-0.616211,0.971191,0.48584,9.20105,-38.505554,12.924193,1.2485865851441782
-0.616211,1.03125,0.55249,23.41461,-39.787292,8.491516,1.3222850521430696
-0.620361,1.067871,0.616455,38.742065,-41.862484,4.676819,1.3802945374038833
-0.631592,1.064941,0.696777,54.702755,-46.798702,1.861572,1.4207413472106736
-0.636475,1.05957,0.800781,71.540833,-52.551266,-1.235962,1.4727658403446218
-0.655273,1.060303,0.928711,92.361443,-59.059139,-5.264282,1.5543903235220553
-0.712646,1.038818,1.032227,118.972771,-65.231323,-9.086609,1.6286496670459858
-0.773682,1.005615,1.200195,149.917603,-69.290161,-12.153625,1.7465146444773945
-0.846924,1.025146,1.451416,185.081467,-74.211121,-13.999938,1.9684544668719164
-0.902344,1.048828,1.613525,231.277451,-85.3424,-13.061522,2.125494717364642
-0.987793,0.920654,1.64917,249.992355,-104.74395,-11.474608,2.131455016523924
-1.133301,0.681641,1.561523,249.992355,-127.456657,-10.57434,2.0463039092497968
-1.267578,0.43335,1.322998,249.526962,-140.579224,-8.293152,1.8827824931701485
-2.118896,-0.447754,-0.924072,249.992355,-147.43042,-0.732422,2.3545940126730978
-2.345703,-6.925293,-7.300781,223.037704,-134.223938,-83.816521,10.332638042146787
-3.758301,-4.356201,-1.304932,114.624016,31.646727,-182.907089,5.8995051558267155
-3.16626,4.094971,0.962158,-168.365463,216.949448,28.511045,5.264953741050817
1.380127,4.186523,0.598389,46.615597,249.992355,249.992355,4.448572216001332
1.854004,-0.052979,-0.303467,204.872116,135.032654,146.522522,1.8794227375835377
-0.478027,-1.341797,-1.233154,6.813049,-138.023376,-92.185966,1.8840376295748447
-1.547607,-0.2229,-1.223633,-67.115784,-188.18663,-79.589844,1.9854595324856157
-1.633545,0.884521,-0.874268,-8.369446,-48.141476,26.481627,2.053093081740329
-0.776367,0.598389,-0.716064,71.06781,74.150085,22.102354,1.2139039361110913
-0.260986,0.190918,-0.496094,52.444454,61.012264,-25.459288,0.5921761830367716
-0.444824,0.45752,-0.381592,-3.555298,-12.763976,-12.893676,0.7435088404585382
-0.680664,0.779053,-0.45459,-18.424988,-41.816708,-14.823913,1.1299907635927826
-0.75,0.696045,-0.563965,-10.505675,-24.139402,-30.708311,1.1683471929396672
-0.80542,0.550537,-0.652832,-16.792297,-2.433777,-24.147032,1.1738747739827278
-0.86499,0.512207,-0.769043,-35.644531,19.813538,-33.39386,1.2656977707170065
-0.933838,0.36792,-0.796631,-43.67828,24.932859,-39.916992,1.281420885893858
-1.088135,0.287842,-0.769043,-56.663509,10.055541,-32.669067,1.3632013538131484
-1.249023,0.297852,-0.691895,-73.692322,-1.281738,-24.658201,1.4585928011127711
-1.370117,0.255615,-0.556885,-80.230713,0.587463,-16.845703,1.5008932424189936
-1.416992,0.247314,-0.339111,-82.511894,4.371643,-4.524231,1.4778453278273067
-1.442139,0.239258,-0.20459,-87.539665,4.966736,0.808716,1.4760983551189941
-1.519775,0.303955,-0.295898,-93.116753,8.636475,1.815796,1.5778657481085012
-1.427002,0.379639,-0.442627,-97.869865,19.271851,9.101868,1.5415508877276807
-1.446777,0.317871,-0.572998,-107.719414,26.458738,21.255491,1.588248207420364
-1.384766,0.26123,-0.674561,-128.295898,44.952389,26.893614,1.5623221595999335
-1.280762,0.352295,-0.585205,-147.697449,82.695,26.969908,1.4515260795776284
-1.166748,0.492432,-0.385986,-157.485962,111.862175,29.541014,1.3239242283167114
-1.077393,0.55542,-0.244629,-162.185654,121.086113,33.103943,1.236572036110311
-0.958252,0.598389,-0.140137,-167.419418,118.240349,32.051086,1.1384000481351009
-0.822266,0.639648,-0.050049,-171.035751,107.88726,30.250547,1.0429649280110047
-0.744141,0.665039,0.060303,-171.661362,94.558708,28.938292,0.9998295610807875
-0.727539,0.667969,0.1604,-168.457016,84.716789,27.397154,1.0006116836625485
-0.703857,0.678711,0.283447,-161.293015,85.670464,25.543211,1.018040028574024
-0.617188,0.727295,0.423828,-150.985718,95.809929,22.773741,1.0437955824552045
-0.498535,0.806641,0.531006,-138.35144,107.200615,18.363953,1.086818393818397
-0.404785,0.898682,0.635254,-125.617973,116.821281,14.35089,1.1726158270571825
-0.339844,0.977783,0.722656,-114.082329,125.572197,11.047362,1.2624520718668888
-0.284668,1.016846,0.778564,-102.661125,131.072998,7.240295,1.3119350441374755
-0.266602,1.022949,0.803711,-92.742912,130.203247,4.402161,1.3279505467170079
-0.278076,1.030518,0.880859,-83.915703,125.556938,4.646301,1.3839097470503632
-0.284912,1.061279,1.006348,-73.860168,116.867058,7.072448,1.4900416976343314
-0.27832,1.108643,1.093262,-59.501644,101.333611,9.162903,1.5816994418956467
-0.345703,1.128418,1.147217,-41.839596,78.49884,9.513855,1.6458871747546973
-0.439209,1.12085,1.135742,-19.241333,50.422665,11.192321,1.6550284465062828
-0.522949,1.074219,1.086426,7.797241,14.091491,14.411925,1.6148509435975817
-0.632324,1.035156,1.069824,34.156799,-31.173704,19.348145,1.617375953910531
-0.768066,1.057373,1.120605,58.616634,-76.99585,26.924131,1.7215454125610512
-0.782959,1.10791,1.227295,86.860649,-113.731377,36.735535,1.8294103915759306
-0.745605,1.144775,1.349609,120.269768,-144.523621,40.969845,1.9203856564583586
-0.759521,1.178711,1.540283,157.623291,-173.797592,38.024902,2.082955470251585
-0.851563,1.213135,1.727051,202.148422,-200.53862,34.568787,2.2758649405874243
-0.982422,1.144775,1.848389,247.238144,-224.60173,31.47888,2.3858341690130103
-1.108887,0.956055,1.774902,249.992355,-247.03215,29.991148,2.300858242351753
-1.234131,0.649658,1.536621,249.404892,-249.992355,29.777525,2.075172026547679
-1.357666,0.338623,1.231934,249.855026,-249.778732,29.060362,1.8642917915500783
-1.583984,0.015381,0.390381,249.992355,-249.893173,29.663084,1.6314530984916484
-3.38916,-6.35376,-5.495361,239.402756,-202.316269,-86.204521,9.0584581559734
-3.046631,-5.774414,-2.802002,160.369873,54.412838,-249.992355,7.1047190445197055
-3.88916,3.614746,-0.316162,-232.955917,249.992355,129.264832,5.319014247053677
0.050293,4.329834,1.431641,-122.13134,249.992355,249.992355,4.560656510447372
2.452393,1.620605,0.972412,58.0368,169.136032,163.87175,3.0961552109379142
0.476318,-0.671875,-0.601074,71.769714,-208.60289,68.725586,1.0196003169011867
-1.516602,-1.140137,-1.305908,-8.857727,-249.992355,46.745296,2.303343159331019
-2.022217,-0.195068,-0.937744,-69.488525,-235.122665,-0.541687,2.2375828318185227
-1.305664,0.707764,-0.643066,-15.853881,-111.0382,-21.766661,1.6184011372178406
-0.608398,0.625,-0.362793,69.030762,-24.375914,-7.568359,0.9446649603182071
-0.755615,0.456299,-0.188477,67.337036,-48.942562,-2.494812,0.902599792352624
-0.897461,0.822266,-0.123779,28.83148,-20.89691,-13.061522,1.2234700086712385
-0.649414,1.243164,-0.054932,25.421141,50.682064,-25.878904,1.4036426891898095
-0.323975,1.125977,-0.005615,55.633541,63.781734,-33.081055,1.1716721100115852
-0.266602,0.716064,-0.052734,65.879822,14.869689,-26.878355,0.7659015297386473
-0.50415,0.578369,-0.152344,40.252682,-17.677307,-25.642393,0.7822318179395416
-0.696289,0.692871,-0.237061,24.16992,1.533508,-32.623291,1.0104882542033826
-0.678223,0.731934,-0.26001,32.081604,38.032532,-35.78186,1.0311736120484272
-0.584961,0.688721,-0.248047,35.91156,45.722958,-33.943176,0.9370396478116602
-0.577637,0.657959,-0.280762,27.748106,19.27948,-32.89032,0.9194573671976314
-0.687988,0.634277,-0.350098,17.494202,-10.635375,-37.528992,0.9991013014089213
-0.765381,0.597168,-0.405029,10.353087,-22.605894,-44.464108,1.051886964567011
-0.737061,0.536377,-0.421631,5.516052,-24.711607,-46.874996,1.0043564626222106
-0.686768,0.466553,-0.409912,-1.686096,-30.807493,-47.378536,0.9259318740474377
-0.696777,0.427002,-0.416016,-13.427733,-37.17804,-51.544186,0.9170050206999959
-0.732666,0.410156,-0.423828,-25.329588,-33.210754,-59.524532,0.9405623772382139
-0.771973,0.374023,-0.406738,-32.653809,-21.926878,-66.238403,0.9493531049625319
-0.772705,0.343994,-0.384766,-40.916439,-12.275695,-71.800232,0.9292199760105246
-0.747803,0.334961,-0.354736,-50.704952,-3.746032,-80.093384,0.8928862346491854
-0.729248,0.320068,-0.333008,-54.550167,-2.13623,-88.447563,0.8632152096621097
-0.699219,0.306885,-0.312256,-56.426998,-3.921509,-97.671501,0.8249784377315568
-0.677002,0.319336,-0.314697,-59.387203,-7.583618,-107.398979,0.8119983932921296
-0.653564,0.30835,-0.324219,-61.485287,-12.451171,-117.492668,0.7920502411823382
-0.634033,0.293213,-0.312744,-62.896725,-15.037536,-128.65448,0.7653629975338498
-0.656738,0.27124,-0.304199,-63.545223,-14.114379,-142.112732,0.7729249445094912
-0.753174,0.254883,-0.302734,-64.01825,-12.374877,-157.684326,0.8508139001691263
-0.795654,0.223633,-0.283936,-63.125607,-13.252257,-166.725143,0.8738973958657846
-0.77417,0.147461,-0.276123,-59.967037,-23.03314,-165.977463,0.8350615824895791
-0.726563,0.106201,-0.261475,-63.217159,-44.273373,-167.282089,0.7794495628294367
-0.759766,0.142578,-0.19165,-76.248169,-65.177917,-182.052597,0.7964311541746719
-0.817871,0.164307,-0.155029,-84.877007,-68.481445,-199.333176,0.8484949933446868
-0.832764,0.169922,-0.085938,-88.027946,-50.628658,-214.202866,0.8542568147951761
-0.852783,0.180664,-0.008545,-88.48571,-18.188477,-227.020248,0.8717518815637852
-1.01001,0.190918,0.050781,-85.121147,15.953063,-241.004929,1.0291494511415724
-1.138672,0.156738,0.10376,-77.697754,44.692989,-249.992355,1.1540826928032495
-1.084961,0.095215,0.115234,-66.963196,67.001343,-246.635422,1.0952100905771458
-0.984863,0.046875,0.116943,-57.502743,74.554443,-240.745529,0.9928887448465715
-0.942871,0.02417,0.126953,-53.138729,68.969727,-247.703537,0.951686385186843
-0.875977,0.045898,0.104492,-49.957272,62.744137,-249.992355,0.8833803874871798
-0.857422,0.046387,0.072998,-42.4118,65.124512,-249.954208,0.861773141758897
-1.025879,-0.020508,0.068848,-32.958984,71.395874,-249.93132,1.0283911453377066
-1.267822,-0.077148,0.060791,-24.665831,85.998528,-249.992355,1.2716210061449127
-1.329834,-0.131592,-0.02124,-9.353638,99.159233,-249.992355,1.3364976841057377
-1.200439,-0.223389,-0.118408,13.71765,85.006706,-249.641403,1.2267749966909172
-1.05542,-0.377441,-0.163086,27.122496,29.678343,-241.61528,1.132682712977028
-0.996582,-0.514893,-0.155029,18.379211,-52.703854,-227.088913,1.132397666464392
-1.041016,-0.569824,-0.125977,-2.342224,-134.44519,-215.393051,1.1934336629075786
-1.165283,-0.567627,-0.087158,-22.926329,-181.274399,-207.420334,1.2991079239932302
-1.232178,-0.50293,-0.087891,-38.864136,-180.244431,-204.856857,1.3337638608333184
-1.200195,-0.429443,-0.107666,-45.013424,-141.586304,-206.954941,1.2792502866249433
-1.15332,-0.421387,-0.092041,-41.381832,-88.584892,-211.151108,1.2313348739680852
-1.171143,-0.486572,-0.036133,-36.582947,-42.312618,-215.240463,1.268713455167084
-1.172119,-0.572754,-0.003418,-35.15625,-7.919311,-213.668808,1.3045772408719232
-1.131104,-0.609375,0.010254,-32.096863,13.328551,-207.939133,1.284849911062378
-1.074219,-0.651855,0.019531,-26.954649,20.713804,-204.833969,1.2566792991638718
-1.028809,-0.705322,0.025879,-25.192259,23.41461,-203.323349,1.2476364874457624
-0.980225,-0.727295,0.016602,-25.283812,27.595518,-202.781662,1.2206861570665901
-0.916016,-0.727783,0.001221,-22.354124,33.866882,-205.261215,1.1699379890344617
-0.846436,-0.740723,-0.006836,-15.960692,38.589478,-209.365829,1.1247982911264578
-0.793701,-0.782715,-0.01123,-8.590698,37.437439,-212.875351,1.114778077253944
-0.759277,-0.84375,-0.020752,-1.609802,29.380796,-215.736374,1.13527365455779
-0.760986,-0.905762,-0.030273,4.165649,15.327453,-218.643173,1.183393825980599
-0.780518,-0.971924,-0.042725,8.132935,-2.052307,-220.153793,1.24726502224868
-0.801025,-1.032471,-0.061768,11.154174,-18.89801,-219.070419,1.3082250197462209
-0.827393,-1.083008,-0.067627,13.763427,-31.082151,-216.583237,1.3645727960215241
-0.848145,-1.114502,-0.048584,15.884398,-34.980774,-213.104233,1.401365424892808
-0.891113,-1.137695,-0.006348,17.677307,-26.649473,-207.321152,1.445154866752349
-0.918213,-1.140625,0.009277,22.392271,-5.805969,-200.004562,1.4643177820142046
-0.888184,-1.129395,-0.00415,33.325195,21.987913,-191.97081,1.4368093493504974
-0.838135,-1.136963,-0.027588,46.279903,48.660275,-182.785019,1.4127689971605406
-0.794678,-1.136475,-0.064209,55.282589,70.556641,-171.356186,1.3882403772365937
-0.779053,-1.108643,-0.109863,60.173031,90.591423,-156.509399,1.3594420756424306
-0.765625,-1.054932,-0.136475,64.01062,112.487785,-138.961792,1.3106061921393475
-0.739258,-0.993896,-0.139404,69.732666,137.557983,-119.316093,1.2465011530664543
-0.691406,-0.951416,-0.127441,77.194214,162.094101,-98.518364,1.182994450694085
-0.619385,-0.938965,-0.110596,82.717888,178.810104,-77.644348,1.130276304567162
-0.549316,-0.943848,-0.12207,82.641594,180.694565,-57.601925,1.0988622296994288
-0.42749,-0.935059,-0.238037,77.24762,160.377502,-38.444519,1.0553410097925693
-0.202148,-0.955566,-0.353027,67.733765,107.13958,-18.783569,1.03855585164641
-0.032471,-0.982422,-0.47876,48.156734,18.188477,0.602722,1.0933519513518966
0.123535,-0.938721,-0.540283,34.40094,-92.77343,9.040833,1.0901209713398785
0.100098,-1.022949,-0.57251,13.153075,-211.471542,5.722045,1.1765253785214325
-0.240234,-1.045166,-0.456299,-21.568296,-249.992355,0.473022,1.165458330320308
-0.621582,-0.968262,-0.367188,-33.7677,-249.992355,12.535094,1.2077758528435647
-0.666504,-0.882813,-0.27832,-29.365538,-226.181015,20.561216,1.1406350851104836
-0.674072,-0.892578,-0.209473,-24.131773,-168.037399,20.225523,1.137957593672541
-0.703857,-0.944336,-0.155762,-20.820616,-117.286674,19.989014,1.188043331696702
-0.69873,-0.945068,-0.113037,-19.447327,-76.469421,22.575377,1.1807431985376837
-0.648682,-0.897949,-0.07666,-16.860962,-38.398743,22.560118,1.110395199613633
-0.599854,-0.875,-0.054443,-11.268615,-1.068115,17.951965,1.0622682625236435
-0.612061,-0.878662,-0.0271,-3.456115,36.102295,12.870788,1.071167581643974
-0.593018,-0.894775,-0.008789,4.508972,71.632385,11.154174,1.073484930248208
-0.515381,-0.907959,0.015869,11.306762,95.863335,9.811401,1.0441546561707227
-0.472412,-0.902344,0.031738,13.786315,105.819695,8.392334,1.019021635061788
-0.446289,-0.881104,0.016602,13.374328,101.684563,5.241394,0.9878227354849655
-0.435059,-0.88208,0.003418,13.244628,89.431755,3.372192,0.9835411240029569
-0.4375,-0.905518,0.000977,12.168883,74.60022,2.838135,1.0056689578847506
-0.450684,-0.913818,-0.006836,9.490967,61.035152,2.555847,1.018933823109234
-0.470703,-0.909668,-0.023193,8.041382,52.597042,2.616882,1.0244974864205378
-0.486572,-0.90332,-0.038818,9.033203,51.895138,2.571106,1.026764905276763
-0.480957,-0.903809,-0.046387,11.734008,57.807919,2.464294,1.024861989781551
-0.450928,-0.913086,-0.047363,14.541625,65.284729,2.89154,1.0194632697400137
-0.41333,-0.929443,-0.046631,15.747069,69.152832,3.387451,1.0182732586639012
-0.39209,-0.93457,-0.048096,14.801024,68.29834,3.311157,1.014627457846475
-0.38501,-0.928955,-0.05835,12.947082,65.361023,3.27301,1.0072709737826262
-0.377197,-0.922852,-0.067627,11.306762,62.683102,3.219604,0.9992531220076323
-0.361572,-0.919922,-0.074951,9.880066,60.150143,3.189087,0.9912660841918279
-0.342285,-0.918945,-0.074707,8.430481,56.365963,3.257751,0.9834633038903892
-0.330811,-0.91626,-0.071289,6.828308,51.162716,3.27301,0.9767550495605334
-0.326904,-0.922607,-0.066895,5.15747,44.982906,3.14331,0.98109369720226
-0.323486,-0.923828,-0.065674,3.334045,38.276672,2.975464,0.9810272371631688
-0.322021,-0.925293,-0.065186,1.647949,31.578062,2.89917,0.9818930058239543
-0.326416,-0.92627,-0.063721,0.282288,25.749205,2.738952,0.9841665935180893
-0.331543,-0.929932,-0.06665,-0.221252,22.087095,2.784729,0.9895132682147318
-0.334717,-0.931152,-0.064209,-0.205994,20.362852,2.784729,0.9915655867737645
-0.332031,-0.936279,-0.06665,0.061035,19.676208,2.708435,0.9956430953419001
-0.328613,-0.937256,-0.067871,0.25177,19.073486,2.685547,0.9955108165891519
-0.327881,-0.939453,-0.073486,0.579834,17.944336,2.586365,0.9977364790193851
-0.330566,-0.943115,-0.076416,0.984192,16.326904,2.708435,1.0022869791816116
-0.334229,-0.944824,-0.079346,0.991821,14.038085,3.028869,1.0053343737946097
-0.341064,-0.943115,-0.080322,0.823975,11.566161,3.463745,1.006102469435892
-0.349854,-0.941406,-0.083984,0.419617,9.391785,4.089355,1.0078176374761456
-0.358887,-0.940674,-0.088135,0.053406,8.003235,4.730225,1.0106607894194768
-0.36499,-0.941162,-0.087891,0.076294,7.484436,5.073547,1.0132760918056836
-0.358643,-0.939209,-0.084717,0.228882,7.232666,5.180358,1.0089178941910981
-0.346924,-0.941162,-0.079834,0.518799,6.340026,5.180358,1.0062383612126902
-0.341553,-0.940918,-0.075195,0.419617,4.135132,5.050659,1.0038124439146985
-0.34668,-0.938477,-0.070068,0.015259,1.235962,5.027771,1.0029135688348223
-0.345459,-0.934326,-0.06543,-0.190735,-0.946045,4.905701,0.9982925822908834
-0.345459,-0.924805,-0.067139,0.320435,-1.25885,4.432678,0.9895018211337461
-0.346924,-0.915771,-0.067871,1.472473,0.0,4.081726,0.9816309178392865
-0.345215,-0.912354,-0.072021,2.510071,1.792908,3.65448,0.9781361060619325
-0.343018,-0.907959,-0.072021,3.27301,3.677368,2.616882,0.9732614851343908
-0.342529,-0.901367,-0.075684,3.921509,5.271911,1.548767,0.9672210979843233
-0.339355,-0.89624,-0.079102,4.53949,6.721496,0.640869,0.9615950707179192
-0.332031,-0.895752,-0.083252,5.386352,7.942199,-0.602722,0.9589301986948789
-0.324951,-0.901611,-0.088379,6.286621,7.972717,-2.235413,0.9624481260634259
-0.323486,-0.902832,-0.095459,6.378173,6.103515,-3.890991,0.963774472115235
-0.329346,-0.904053,-0.101074,5.973815,3.257751,-4.806519,0.9674691560980122
-0.334229,-0.908203,-0.10498,5.470275,0.457764,-5.386352,0.9734282274775065
-0.343994,-0.911377,-0.105957,5.332946,-1.502991,-5.981445,0.9798810101303117
-0.354004,-0.913086,-0.10498,5.317688,-2.525329,-6.233215,0.9849191214571884
-0.361328,-0.914307,-0.103027,5.28717,-3.028869,-6.004333,0.9884987488924809
-0.368164,-0.916748,-0.094482,5.119323,-3.288269,-5.424499,0.9924205130507934
-0.37207,-0.916748,-0.0896,4.928589,-3.295898,-4.837036,0.9934239479718616
-0.373779,-0.916016,-0.09082,4.882813,-3.204345,-4.150391,0.9935010445374479
-0.376953,-0.916992,-0.09082,4.837036,-3.067016,-3.410339,0.99559839527442
-0.377686,-0.916992,-0.092529,4.768372,-2.960205,-2.548218,0.9960334625407924
-0.378174,-0.914307,-0.088867,4.745483,-2.838135,-1.350403,0.9934134125398146
-0.383545,-0.914795,-0.08374,4.638672,-2.456665,-0.213623,0.9954742822644893
-0.38501,-0.915771,-0.090088,4.53186,-1.602173,0.518799,0.9974893845475249
-0.378662,-0.913574,-0.088379,4.653931,-0.869751,1.312256,0.9928812675043276
-0.373047,-0.917236,-0.087158,4.707336,-0.564575,2.296448,0.994023370383715
-0.377441,-0.921143,-0.085449,4.394531,-0.762939,2.670288,0.9991334578178233
-0.378418,-0.921631,-0.086182,4.043579,-0.801086,3.036499,1.0000156098826656
-0.376221,-0.91333,-0.087891,4.020691,-0.221252,3.540039,0.9916848075986644
-0.375244,-0.911865,-0.0896,4.318237,0.518799,4.020691,0.9901181736343395
-0.378906,-0.917236,-0.08667,4.547119,0.808716,4.226685,0.9961944215021484
-0.381592,-0.921631,-0.087158,4.554749,0.869751,4.417419,1.001305483650719
-0.383789,-0.922119,-0.086182,4.623413,1.12915,4.692078,1.0025092437508993
-0.382568,-0.919189,-0.090332,4.516602,1.525879,4.905701,0.9997132401688997
-0.381104,-0.915283,-0.092285,4.348755,1.64032,4.829407,0.9957408046926669
-0.381104,-0.916992,-0.096436,4.142761,1.312256,4.974365,0.9977046100805589
-0.384521,-0.916992,-0.094971,3.791809,0.648498,5.371093,0.9988744757706045
-0.389893,-0.915527,-0.092529,3.639221,0.610352,5.813598,0.9993837376198395
-0.395752,-0.915527,-0.093262,3.501892,1.327515,5.859375,1.0017520321302074
-0.395508,-0.915527,-0.092285,3.540039,2.319336,5.958557,1.0015651686325757
-0.394775,-0.919189,-0.087646,3.456115,2.998352,6.278991,1.0042099081676101
-0.397217,-0.924561,-0.083984,3.204345,3.356933,6.317138,1.0097760643162423
-0.39917,-0.929688,-0.083008,2.845764,3.532409,6.233215,1.015158506986963
-0.401611,-0.932373,-0.075928,2.494812,3.463745,6.126403,1.01802547494353
-0.40625,-0.936523,-0.071533,2.243042,3.448486,6.103515,1.0233432279142711
-0.40625,-0.9375,-0.067139,2.052307,3.242492,5.943298,1.0239399190484761
-0.40918,-0.935547,-0.064209,1.945495,3.364563,5.844116,1.0231320820353549
-0.410889,-0.932129,-0.062256,1.907349,3.433227,5.859375,1.0205733939790906
-0.408936,-0.929932,-0.063721,1.716614,3.265381,5.966186,1.0178715746895577
-0.405762,-0.933105,-0.060059,1.480102,2.998352,6.233215,1.0192815239912867
-0.40332,-0.934082,-0.054199,1.174927,2.510071,6.225585,1.018878666341091
-0.402588,-0.935547,-0.051514,1.022339,2.006531,6.034851,1.0197935963463391
-0.404053,-0.935547,-0.048584,0.686645,1.441955,6.187438,1.0202291022481176
-0.41333,-0.936279,-0.051025,0.144958,0.671387,6.309509,1.0247261123666167
-0.41748,-0.932861,-0.050049,-0.030518,0.350952,6.347656,1.0232419548288665
-0.41748,-0.930908,-0.048584,-0.022888,0.793457,6.431579,1.0213910416290128
-0.41333,-0.930908,-0.048828,-0.068665,0.938415,6.271362,1.019713472965813
-0.411377,-0.932373,-0.048828,-0.335693,0.564575,6.088256,1.0202620353820875
-0.414795,-0.932617,-0.049805,-0.892639,-0.312805,6.065368,1.0219148197080812
-0.416748,-0.929932,-0.048096,-1.312256,-1.373291,6.17218,1.0201792221683403
-0.417969,-0.924561,-0.048828,-1.594543,-2.212524,6.126403,1.0158224752711469
-0.419678,-0.926025,-0.049805,-1.89209,-2.998352,5.737304,1.0179059201782845
-0.422363,-0.924072,-0.05127,-2.227783,-3.883362,5.493164,1.0173141981968992
-0.423096,-0.921875,-0.050293,-2.609253,-4.905701,5.340576,1.0155752688452
-0.423096,-0.920898,-0.049561,-3.028869,-5.744934,5.172729,1.014652474663616
-0.42749,-0.918213,-0.047119,-3.303528,-6.301879,4.966736,1.013944285269166
-0.43042,-0.916504,-0.046875,-3.65448,-6.690979,4.859924,1.0136262743442477
-0.429199,-0.91626,-0.04126,-3.829956,-6.637573,4.501343,1.0126433512352706
-0.430908,-0.91626,-0.040527,-3.959656,-6.706237,3.921509,1.0133392964811934
-0.431152,-0.920654,-0.040039,-4.165649,-6.889343,3.555298,1.0173981306946658
-0.433594,-0.918457,-0.037842,-4.440308,-6.881713,3.166198,1.0163656008784436
-0.436523,-0.91748,-0.03833,-4.608154,-6.629943,2.662658,1.0167551666104284
-0.433594,-0.919434,-0.040039,-4.730225,-6.408691,2.258301,1.0173326686551454
-0.436035,-0.918701,-0.042725,-4.91333,-6.370544,1.937866,1.0178229090814375
-0.436035,-0.912598,-0.045166,-5.027771,-6.66809,1.739502,1.0124236259516075
-0.436523,-0.906738,-0.04248,-5.371093,-7.385253,1.617432,1.0072391377289704
-0.433838,-0.898438,-0.04126,-5.79071,-7.865905,1.533508,0.9985532723335295
-0.435547,-0.897949,-0.042236,-5.966186,-8.277893,1.449585,0.9988981306950174
-0.43335,-0.898926,-0.040771,-6.111145,-8.605957,1.426697,0.9987604569750447
-0.43335,-0.898926,-0.035889,-6.103515,-8.804321,1.281738,0.998573080098297
-0.431641,-0.901367,-0.031494,-5.996704,-8.964539,1.029968,0.9998841400912408
-0.432373,-0.9021,-0.032227,-5.844116,-9.368896,0.686645,1.0008843093275066
-0.432617,-0.9021,-0.035889,-5.691528,-9.895325,0.419617,1.0011143286408402
-0.436035,-0.904053,-0.036133,-5.653381,-10.383605,-0.053406,1.0043624553531458
-0.4375,-0.901611,-0.036621,-5.424499,-10.82611,-0.610352,1.0028208927630098
-0.438232,-0.900879,-0.03833,-4.997253,-11.32965,-1.205444,1.002546481398743
-0.439941,-0.896973,-0.039063,-4.79126,-11.985778,-1.937866,0.9998172653935319
-0.443115,-0.892822,-0.037842,-4.570007,-12.825011,-2.502441,0.9974537803191684
-0.448242,-0.889648,-0.039063,-4.203796,-13.511657,-3.097534,0.9969555518863417
-0.449707,-0.88623,-0.039795,-3.723144,-13.450622,-3.486633,0.9945972254003125
-0.453369,-0.885254,-0.040039,-3.135681,-12.870788,-3.791809,0.9954000282288523
-0.455322,-0.885254,-0.041504,-2.365112,-11.802672,-4.043579,0.9963510175716187
-0.45752,-0.882324,-0.044189,-1.419067,-10.086059,-4.188538,0.9948732879603311
-0.456543,-0.882568,-0.043701,-0.579834,-8.06427,-4.264832,0.9946193055003507
-0.45752,-0.884277,-0.044922,0.160217,-6.072998,-4.333496,0.9966385248489043
-0.456299,-0.887451,-0.041748,0.617981,-4.493713,-4.470825,0.9987597059883824
-0.456299,-0.890381,-0.039551,0.87738,-3.234863,-4.577637,1.0012748794227289
-0.456543,-0.893555,-0.04126,1.167297,-2.479553,-4.486084,1.0042780673070582
-0.457764,-0.897217,-0.039795,1.319885,-1.800537,-4.402161,1.0080326714992922
-0.45752,-0.902832,-0.035645,1.358032,-1.533508,-4.455566,1.0127688466027183
-0.456299,-0.905029,-0.038574,1.556396,-1.51062,-4.348755,1.01428507911632
-0.454834,-0.904785,-0.040527,1.617432,-1.663208,-4.135132,1.013485225106908
-0.453613,-0.905762,-0.044189,1.564026,-2.197266,-3.852844,1.0139636197290314
-0.454834,-0.905273,-0.043945,1.625061,-2.815246,-3.349304,1.014063279637913
-0.454834,-0.904785,-0.038818,1.777649,-3.410339,-2.922058,1.0134183247331774
-0.456543,-0.903076,-0.039551,1.876831,-3.89862,-2.502441,1.012690502683816
-0.455078,-0.901611,-0.040283,2.113342,-4.28009,-1.914978,1.0107527400378393
-0.452393,-0.899902,-0.039795,2.311707,-4.440308,-1.426697,1.008001328410831
-0.454346,-0.900146,-0.041504,2.479553,-4.524231,-0.961304,1.0091658392196994
-0.454834,-0.897949,-0.041992,2.746582,-4.478455,-0.480652,1.0074471213026517
-0.455322,-0.896484,-0.04248,2.906799,-4.219055,-0.083923,1.0063827484312318
-0.456543,-0.895996,-0.038818,3.082275,-3.814697,0.038147,1.006353407103588
-0.456787,-0.898193,-0.03833,3.433227,-3.311157,0.045776,1.008401813523756
-0.457031,-0.902344,-0.038818,3.738403,-2.731323,0.236511,1.0122296510283622
-0.454834,-0.903564,-0.037598,4.03595,-2.166748,0.25177,1.0122823120335551
-0.452393,-0.905518,-0.041016,4.417419,-1.686096,0.297546,1.0130669212983907
-0.452637,-0.907227,-0.042236,4.447937,-1.617432,0.37384,1.0147536464551383
-0.451904,-0.906006,-0.042725,4.554749,-1.708984,0.404358,1.0133555757368684
-0.451172,-0.906738,-0.044434,4.577637,-1.541138,0.396728,1.013757542306838
-0.449707,-0.905518,-0.048828,4.478455,-1.51062,0.274658,1.0122170754126805
-0.449219,-0.905273,-0.050049,4.425049,-1.51062,0.457764,1.0118408061009398
-0.448242,-0.908936,-0.053711,4.241943,-1.167297,0.556946,1.014874580517711
-0.447266,-0.913818,-0.056885,3.990173,-1.014709,0.297546,1.0189926962962002
-0.442383,-0.916016,-0.057861,3.639221,-0.87738,0.076294,1.0188895554798862
-0.438477,-0.916016,-0.0625,3.219604,-0.679016,-0.015259,1.017474147968881
-0.433838,-0.918213,-0.06665,2.746582,-0.671387,-0.404358,1.017729210602211
-0.433594,-0.919922,-0.07666,2.174377,-0.617981,-0.892639,1.0198710695573239
-0.432129,-0.922607,-0.082275,1.792908,-0.541687,-1.235962,1.0221097420115905
-0.430176,-0.922852,-0.085938,1.38855,-0.694275,-1.571655,1.0218084677296426
-0.427002,-0.925537,-0.086426,0.999451,-1.342773,-1.876831,1.0229461861940736
-0.42749,-0.925293,-0.085449,0.38147,-2.166748,-1.739502,1.0228471868026034
-0.430908,-0.922119,-0.082764,-0.1297,-2.63977,-1.502991,1.0211929466662997
-0.431641,-0.92041,-0.078125,-0.404358,-2.380371,-1.38092,1.0195940548110312
-0.432373,-0.916504,-0.069824,-0.579834,-1.419067,-1.220703,1.01577624707462
-0.431152,-0.915283,-0.068359,-0.572205,-0.083923,-1.12915,1.014055210564987
-0.430908,-0.913818,-0.063721,-0.328064,1.594543,-1.091003,1.0123267295833889
-0.43335,-0.911133,-0.059082,0.038147,3.135681,-1.045227,1.0106662401173792
-0.431641,-0.9104,-0.052246,0.442505,4.440308,-1.022339,1.0088963065632661
-0.43335,-0.911621,-0.043457,0.518799,5.470275,-1.037598,1.010313605268186
-0.430664,-0.911621,-0.043457,0.694275,6.41632,-1.251221,1.0091644263379482
-0.430664,-0.907471,-0.043945,0.892639,6.866455,-1.556396,1.0054383420986093
-0.432617,-0.907959,-0.039551,1.098633,6.721496,-1.693725,1.0065342994508433
-0.431396,-0.90625,-0.037109,1.121521,6.41632,-1.770019,1.0043747553562863
-0.430908,-0.908447,-0.033447,1.197815,6.41632,-2.075195,1.0060200584888952
-0.429688,-0.907227,-0.030762,1.495361,6.317138,-2.479553,1.0043101649973478
-0.428711,-0.903809,-0.032959,1.464844,5.92041,-2.876281,1.0008746803086788
-0.427246,-0.902832,-0.032959,1.434326,5.317688,-2.975464,0.9993653288067382
-0.429932,-0.902344,-0.03125,1.548767,4.768372,-2.960205,1.0000213905012232
-0.432129,-0.905029,-0.033691,1.594543,4.394531,-2.937317,1.0034680099350453
-0.433105,-0.906494,-0.03418,1.701355,4.40979,-2.761841,1.00522613647925
-0.434326,-0.906494,-0.030762,1.976013,4.455566,-2.677917,1.0056424548297471
-0.431152,-0.907959,-0.030762,2.151489,4.486084,-2.685547,1.0055982763653686
-0.43042,-0.911865,-0.033203,2.14386,4.127502,-2.6474,1.0088912695796313
-0.432617,-0.914307,-0.033203,2.189636,4.051208,-2.693176,1.012036164446212
-0.431396,-0.912109,-0.036865,2.258301,3.890991,-2.532959,1.0096555674694216
-0.428223,-0.909668,-0.043945,2.39563,3.707886,-2.433777,1.0063806292740336
-0.424316,-0.90918,-0.047363,2.311707,3.349304,-2.304077,1.004437949315437
-0.424316,-0.911621,-0.049072,2.197266,2.929687,-2.13623,1.0067298429474514
-0.422607,-0.912842,-0.050781,2.128601,2.601623,-2.052307,1.0072020171614033
-0.422607,-0.914551,-0.054443,2.098083,2.494812,-1.907349,1.0089421431871106
-0.421631,-0.914795,-0.054443,1.998901,2.403259,-1.800537,1.0087549912813318
-0.424561,-0.914795,-0.05542,2.044678,2.403259,-1.602173,1.0100362919945005
-0.423584,-0.912598,-0.054199,2.02179,2.334595,-1.38855,1.007569375408463
-0.42627,-0.910889,-0.052002,1.914978,2.555847,-0.984192,1.0070397664566182
-0.427734,-0.908691,-0.053223,1.708984,2.76947,-0.556946,1.0057377371690892
-0.425049,-0.906006,-0.054443,1.441955,3.242492,-0.289917,1.0022362818647108
-0.418701,-0.910156,-0.053223,1.182556,3.692627,-0.091553,1.0032582715662004
-0.419678,-0.914307,-0.052246,0.717163,4.211426,0.045776,1.007381039353531
-0.417725,-0.917969,-0.053223,0.404358,4.653931,0.045776,1.009947497801247
-0.416016,-0.919434,-0.053955,0.0,4.882813,0.160217,1.0106133457643434
-0.412598,-0.921387,-0.053955,-0.228882,5.004883,0.274658,1.010990729630099
-0.4104,-0.925293,-0.053467,-0.404358,4.989624,0.335693,1.013634064116829
-0.408203,-0.923096,-0.054199,-0.526428,4.707336,0.297546,1.0107786335424787
-0.405029,-0.923828,-0.054443,-0.495911,4.425049,0.38147,1.0101835004958257
-0.403564,-0.924561,-0.053955,-0.305176,3.784179,0.488281,1.010241598253606
-0.407959,-0.924072,-0.052734,-0.259399,3.02124,0.549316,1.0114941826926145
-0.41333,-0.922607,-0.047607,-0.160217,2.555847,0.62561,1.0120828976906981
-0.417969,-0.918945,-0.042236,0.091553,2.799988,0.663757,1.0104166851759722
-0.41748,-0.917236,-0.039063,0.488281,3.730774,0.709534,1.0085322741811489
-0.416504,-0.915283,-0.041016,0.999451,4.798889,0.724792,1.006429761265534
-0.414063,-0.909424,-0.04126,1.411438,5.744934,0.595093,1.0001012785438284
-0.414063,-0.907227,-0.04248,1.785278,6.629943,0.335693,0.9981550720694656
-0.411621,-0.905518,-0.041992,2.098083,7.43103,0.152588,0.9955691960024678
-0.410889,-0.90625,-0.044434,2.532959,8.201599,-0.137329,0.9960387608808203
-0.4104,-0.904541,-0.046631,2.952575,9.162903,-0.480652,0.9943827386082283
-0.409668,-0.906006,-0.047119,3.265381,9.941101,-0.88501,0.995437061004361
-0.407959,-0.905518,-0.049316,3.501892,10.421752,-1.235962,0.9943970343182849
-0.407715,-0.906738,-0.052979,3.585815,10.765075,-1.464844,0.9955963520975757
-0.406006,-0.90918,-0.056641,3.669739,10.887145,-1.693725,0.9973250961030711
-0.405029,-0.909424,-0.058594,3.639221,10.887145,-1.846313,0.9972631345101453
-0.403809,-0.913086,-0.05957,3.585815,10.871886,-1.823425,1.000168154250574
-0.402588,-0.913086,-0.058105,3.27301,10.650634,-1.831055,0.9995895818609756
-0.402832,-0.91626,-0.055664,2.89154,10.040282,-1.838684,1.002449244959564
-0.404053,-0.915527,-0.056396,2.212524,9.094238,-1.846313,1.0023118393763488
-0.405273,-0.912842,-0.054932,1.686096,8.079529,-1.686096,1.0002720860430925
-0.404297,-0.913086,-0.055664,1.197815,7.324218,-1.51062,1.000140284410642
-0.404053,-0.912109,-0.052734,0.778198,6.713867,-1.243591,0.9989907554357047
-0.405518,-0.914307,-0.049805,0.419617,6.332397,-1.00708,1.0014403010654205
-0.405029,-0.91626,-0.049072,0.099182,6.17218,-0.892639,1.002989999763208
-0.40332,-0.919678,-0.050293,-0.160217,5.737304,-0.823975,1.0054869625872829
-0.399902,-0.922119,-0.053955,-0.488281,5.332946,-0.770569,1.0065466714415185
-0.398926,-0.921387,-0.049805,-0.724792,4.867554,-0.732422,1.0052743383126816
-0.399902,-0.923828,-0.046631,-1.014709,4.081726,-0.862122,1.0077471078345994
-0.401367,-0.924561,-0.049072,-1.274109,3.40271,-0.808716,1.0091167289238643
-0.403076,-0.92627,-0.051025,-1.426697,3.082275,-0.724792,1.011459304817055
-0.404053,-0.929199,-0.051514,-1.365662,2.998352,-0.694275,1.014555715870745
-0.402588,-0.930908,-0.049805,-1.373291,2.883911,-0.732422,1.0154542531463442
-0.400635,-0.932373,-0.04834,-1.403808,2.746582,-0.62561,1.0159550039022398
-0.396729,-0.928711,-0.044922,-1.335144,2.525329,-0.564575,1.0108986136334346
-0.393555,-0.927979,-0.047607,-1.350403,2.319336,-0.450134,1.0091070255007641
-0.393555,-0.928223,-0.04834,-1.182556,2.349854,-0.289917,1.009366252335593
-0.390869,-0.928467,-0.052979,-0.968933,2.380371,-0.167847,1.0087796189906892
-0.388672,-0.926025,-0.055908,-0.747681,2.555847,-0.076294,1.0058399120501236
-0.380371,-0.924316,-0.060059,-0.595093,2.563476,0.022888,1.001323748334174
-0.377197,-0.923584,-0.062012,-0.572205,2.182007,-0.091553,0.9995651404530872
-0.375244,-0.921143,-0.064941,-0.854492,1.541138,-0.335693,0.9967596598307938
-0.377441,-0.919189,-0.061279,-0.862122,0.953674,-0.495911,0.9955527319248338
-0.37793,-0.918945,-0.065674,-0.923157,0.62561,-0.778198,0.9957931874646462
-0.380371,-0.916504,-0.066406,-0.869751,0.518799,-1.083374,0.9945207069201727
-0.382813,-0.918701,-0.064697,-0.671387,0.724792,-1.457214,0.9973680475025255
-0.385254,-0.917969,-0.063477,-0.511169,0.762939,-1.899719,0.9975555418150912
-0.392334,-0.917236,-0.064209,-0.343323,0.62561,-2.037048,0.9996852719396241
-0.394531,-0.918213,-0.061768,-0.274658,0.205994,-2.082825,1.001291720306325
-0.399414,-0.919434,-0.062744,-0.312805,-0.427246,-2.090454,1.0044039193909988
-0.4021,-0.921387,-0.05957,-0.640869,-0.976562,-2.044678,1.007068517365626
-0.408691,-0.921875,-0.057373,-0.831604,-1.197815,-1.823425,1.0100363905498653
-0.410156,-0.921387,-0.056641,-0.915527,-1.113892,-1.609802,1.0101436288894763
-0.413818,-0.920654,-0.055176,-0.892639,-0.740051,-1.441955,1.0108874891974873
-0.414307,-0.917969,-0.057129,-0.816345,-0.099182,-1.312256,1.0087522480029474
-0.413818,-0.915283,-0.060791,-0.747681,0.679016,-1.098633,1.0063219429655699
-0.4104,-0.912842,-0.062256,-0.579834,1.235962,-0.915527,1.0027883557860053
-0.406494,-0.909668,-0.06543,-0.610352,1.457214,-0.808716,0.9985060476331629
-0.403564,-0.910156,-0.064941,-0.686645,1.289368,-0.778198,0.9977300135372293
-0.402344,-0.915039,-0.067627,-0.839233,1.037598,-0.907898,1.001873483522745
-0.402344,-0.913818,-0.068359,-0.946045,1.152039,-1.113892,1.0008081656046777
-0.40332,-0.912842,-0.070557,-0.923157,1.411438,-1.220703,1.0004628077110114
-0.401855,-0.915771,-0.070801,-0.87738,1.770019,-1.174927,1.0025650837062898
-0.401611,-0.919189,-0.067139,-0.869751,2.090454,-1.235962,1.0053394741891915
-0.401123,-0.92041,-0.064941,-0.869751,2.113342,-1.396179,1.0061170720696473
-0.397949,-0.920166,-0.066406,-0.976562,1.968384,-1.350403,1.0047281378527229
-0.396484,-0.921143,-0.066895,-1.098633,1.831055,-1.289368,1.0050765790376375
-0.395264,-0.923096,-0.066895,-1.190186,1.808166,-1.266479,1.0063870010771205
-0.394043,-0.922607,-0.068848,-1.022339,1.853943,-1.197815,1.0055911740871635
-0.394043,-0.923096,-0.068604,-1.060486,1.754761,-1.174927,1.0060231706481717
-0.393555,-0.924316,-0.071045,-1.052856,1.579285,-1.220703,1.007121143609844
-0.393799,-0.926025,-0.070801,-1.075745,1.609802,-1.235962,1.0087679290238167
-0.394531,-0.925049,-0.068604,-1.113892,1.594543,-1.358032,1.0080063844926779
-0.393555,-0.924561,-0.071289,-1.068115,1.708984,-1.350403,1.0073632424637102
-0.391846,-0.922607,-0.070801,-0.991821,1.739502,-1.304626,1.0048680240539052
-0.391846,-0.922852,-0.070801,-1.037598,1.602173,-1.25885,1.005092972426432
-0.391602,-0.920166,-0.073975,-1.12915,1.487732,-1.190186,1.0027611353582666
-0.391602,-0.921875,-0.071289,-1.098633,1.525879,-1.045227,1.0041353312925505
-0.39502,-0.922119,-0.067627,-1.159668,1.564026,-0.892639,1.0054440122105257
-0.394531,-0.921631,-0.070068,-1.098633,1.716614,-0.930786,1.0049716089253466
-0.390869,-0.922363,-0.070313,-1.190186,1.777649,-0.968933,1.0042290559922076
-0.39209,-0.922607,-0.06543,-1.182556,1.586914,-0.862122,1.0045990889150755
-0.394287,-0.921143,-0.065674,-1.174927,1.213074,-0.785828,1.0041313355801622
-0.393555,-0.923828,-0.06543,-1.25885,0.968933,-0.938415,1.0062925998480758
-0.397949,-0.923584,-0.063232,-1.342773,0.846863,-1.037598,1.0076552473346228
-0.398682,-0.924561,-0.064453,-1.213074,1.083374,-0.907898,1.0089175234150707
-0.397949,-0.924561,-0.063232,-1.159668,1.289368,-0.984192,1.0085508094022828
-0.393311,-0.925537,-0.063477,-1.167297,1.235962,-1.13678,1.0076416082213955
-0.392334,-0.921631,-0.062012,-1.098633,1.144409,-1.014709,1.0035811655571263
-0.388672,-0.92041,-0.063965,-1.091003,1.068115,-0.930786,1.0011553390503392
-0.38623,-0.919678,-0.063232,-1.00708,0.831604,-1.022339,0.9994896309657244
-0.383789,-0.91748,-0.063232,-1.052856,0.801086,-1.00708,0.9965248781365169
-0.381836,-0.91626,-0.063965,-0.816345,0.953674,-1.144409,0.9946972603365307
-0.380615,-0.916016,-0.064453,-0.686645,1.091003,-1.289368,0.9940358543282029
-0.381348,-0.916504,-0.065918,-0.534058,0.968933,-1.419067,0.9948623331114712
-0.381836,-0.917236,-0.066895,-0.320435,0.831604,-1.770019,0.9957889091654919
-0.381836,-0.913818,-0.065918,0.022888,0.915527,-2.13623,0.9925760679887462
-0.38501,-0.916016,-0.069824,0.335693,0.938415,-2.403259,0.9960890539163655
-0.384277,-0.915771,-0.074463,0.541687,0.915527,-2.754211,0.9959167011045653
-0.387695,-0.916992,-0.075195,0.762939,0.709534,-2.868652,0.9984167612345057
-0.391846,-0.918701,-0.073242,0.846863,0.556946,-3.051758,1.0014585391722415
-0.39502,-0.919678,-0.071777,0.717163,0.602722,-3.204345,1.003494076620784
-0.396484,-0.922119,-0.07373,0.701904,0.808716,-3.181457,1.0064487693454647
-0.398193,-0.925537,-0.076172,0.709534,1.197815,-2.983093,1.0104348455996557
-0.396484,-0.924805,-0.074463,0.63324,1.548767,-2.830505,1.0089641166315082
-0.394775,-0.925049,-0.074463,0.473022,1.754761,-2.624511,1.0085175711880283
-0.397217,-0.924561,-0.074219,0.289917,1.716614,-2.296448,1.00901082638939
-0.395508,-0.920166,-0.07666,0.205994,1.571655,-1.693725,1.0044943012381902
-0.394043,-0.920166,-0.072266,0.053406,1.121521,-1.190186,1.0035924113707717
-0.39209,-0.919434,-0.071533,-0.167847,0.442505,-0.808716,1.0021029979722642
-0.393311,-0.91626,-0.067139,-0.434875,-0.007629,-0.442505,0.999366587215122
-0.393311,-0.916748,-0.064941,-0.457764,0.25177,-0.267029,0.9996688310165521
-0.391113,-0.915039,-0.067139,-0.297546,0.724792,-0.213623,0.9973832741784876
-0.388184,-0.916016,-0.071045,-0.190735,0.808716,-0.244141,0.9974063976820081
-0.386963,-0.91333,-0.069092,-0.198364,0.50354,-0.236511,0.9943267856861747
-0.386475,-0.914795,-0.068848,-0.25177,0.015259,-0.228882,0.9954661544994887
-0.385254,-0.917969,-0.072266,-0.25177,-0.389099,-0.236511,0.9981533470529466
-0.389648,-0.919189,-0.071045,-0.259399,-0.50354,-0.411987,1.0008902905163983
-0.392822,-0.920898,-0.071045,-0.282288,-0.480652,-0.511169,1.0036979835154598
-0.393311,-0.922852,-0.072021,-0.328064,-0.38147,-0.564575,1.005751649795316
-0.393066,-0.921387,-0.074463,-0.366211,-0.457764,-0.396728,1.004489732398495
-0.394531,-0.922119,-0.075684,-0.564575,-0.534058,-0.267029,1.0058261420235608
-0.39502,-0.92334,-0.077881,-0.587463,-0.419617,-0.007629,1.0073048228619776
-0.392822,-0.920166,-0.079834,-0.556946,-0.221252,0.221252,1.0036872315597127
-0.392578,-0.92041,-0.075928,-0.656128,0.053406,0.465393,1.0035123892448963
-0.392822,-0.919922,-0.077148,-0.694275,0.12207,0.511169,1.0032534194668863
-0.390381,-0.918701,-0.076904,-0.648498,0.335693,0.541687,1.001160865085127
-0.388916,-0.918457,-0.075928,-0.640869,0.473022,0.396728,1.0002919459282875
-0.384766,-0.917236,-0.073975,-0.518799,0.427246,0.343323,0.9974161895001505
-0.38501,-0.918213,-0.072754,-0.541687,0.045776,0.12207,0.9983190662233192
-0.387695,-0.915527,-0.072266,-0.62561,-0.366211,-0.053406,0.9968547915870194
-0.387207,-0.91748,-0.07251,-0.694275,-0.801086,-0.144958,0.9984770960562891
-0.391602,-0.920898,-0.07251,-0.656128,-1.029968,-0.259399,1.0033259454972745
-0.392822,-0.920166,-0.068848,-0.602722,-1.251221,-0.343323,1.002873191557138
-0.397217,-0.920654,-0.069824,-0.694275,-1.312256,-0.427246,1.00511716918029
-0.397217,-0.92334,-0.071289,-0.762939,-1.12915,-0.343323,1.0076806151802267
-0.396484,-0.92334,-0.070557,-0.640869,-1.091003,-0.350952,1.0073403635837295
-0.395996,-0.92334,-0.068848,-0.610352,-1.159668,-0.335693,1.0070301061636637
-0.39502,-0.921143,-0.070068,-0.709534,-1.213074,-0.259399,1.0047162542096153
-0.394775,-0.921875,-0.07251,-0.701904,-1.434326,-0.267029,1.0054643287307612
-0.391357,-0.921143,-0.072754,-0.816345,-1.76239,-0.160217,1.0034729056701033
-0.392822,-0.920166,-0.076172,-0.930786,-2.098083,-0.144958,1.0034025935904292
-0.393066,-0.918213,-0.077393,-0.785828,-2.243042,-0.045776,1.001801212903039
-0.394043,-0.919434,-0.077637,-0.747681,-2.26593,0.022888,1.0033226151014438
-0.392578,-0.917969,-0.079834,-0.831604,-2.403259,-0.007629,1.0015777746141337
-0.39209,-0.917969,-0.080078,-0.900268,-2.548218,-0.022888,1.0014060810405536
-0.391357,-0.915771,-0.081299,-0.991821,-2.655029,0.038147,0.9992028589285561
-0.39502,-0.917725,-0.078125,-1.022339,-2.693176,-0.106812,1.0021793709960307
-0.396484,-0.918701,-0.078613,-0.976562,-2.655029,-0.137329,1.0036887432994355
-0.395508,-0.917725,-0.078613,-1.045227,-2.502441,-0.228882,1.0024099747398767
-0.397949,-0.916992,-0.077148,-0.907898,-2.39563,-0.228882,1.0025914165645944
-0.401855,-0.920166,-0.075684,-0.831604,-2.235413,-0.228882,1.0069364311797444
-0.398926,-0.919434,-0.077393,-0.823975,-2.075195,-0.389099,1.005231570475679
-0.39917,-0.918701,-0.07666,-0.747681,-2.090454,-0.488281,1.0046018972214814
-0.399902,-0.919189,-0.079346,-0.75531,-2.189636,-0.526428,1.0055475200312514
-0.399414,-0.917725,-0.081299,-0.801086,-2.39563,-0.473022,1.0041714228268002
-0.401855,-0.916748,-0.079102,-0.923157,-2.609253,-0.335693,1.0040774187944872
-0.400879,-0.914795,-0.080078,-0.946045,-2.441406,-0.267029,1.0019812127729741
-0.4021,-0.913818,-0.079102,-0.938415,-2.098083,-0.152588,1.0015013097984444
-0.399902,-0.914307,-0.082031,-0.770569,-1.770019,-0.053406,1.0013031433157493
-0.398193,-0.915039,-0.080811,-0.778198,-1.64032,-0.015259,1.0011915173886563
-0.39917,-0.916016,-0.077637,-0.656128,-1.663208,-0.068665,1.002222283191209
-0.402832,-0.91748,-0.082764,-0.640869,-1.64032,-0.213623,1.0054317730806004
-0.404785,-0.917725,-0.082031,-0.679016,-1.533508,-0.320435,1.006379231110718
-0.403564,-0.922119,-0.08252,-0.62561,-1.426697,-0.511169,1.0099390588827626
-0.404297,-0.922852,-0.082031,-0.595093,-1.38855,-0.511169,1.010861495494808
-0.407227,-0.921387,-0.078857,-0.534058,-1.457214,-0.579834,1.0104485438393187
-0.405518,-0.918701,-0.078369,-0.617981,-1.13678,-0.595093,1.007272592641138
-0.401367,-0.919922,-0.082275,-0.640869,-0.663757,-0.495911,1.007035813860659
-0.400391,-0.919922,-0.083984,-0.442505,-0.350952,-0.419617,1.0067883348653779
-0.398438,-0.91748,-0.085938,-0.366211,-0.091553,-0.358582,1.003946079273185
-0.39624,-0.914063,-0.087158,-0.404358,0.175476,-0.015259,1.000056909647146
-0.390137,-0.914551,-0.084473,-0.442505,0.198364,0.038147,0.9978707822654194
-0.389648,-0.914063,-0.085205,-0.396728,-0.335693,-0.007629,0.9972946524964424
-0.389404,-0.914795,-0.084473,-0.541687,-1.037598,0.022888,0.9978081253277105
-0.391357,-0.915771,-0.082275,-0.679016,-1.426697,-0.160217,0.9992827435290775
-0.395996,-0.915771,-0.082275,-0.663757,-1.663208,-0.419617,1.0011086514869403
-0.400391,-0.914551,-0.078857,-0.701904,-1.602173,-0.572205,1.001466380329864
-0.402588,-0.914551,-0.079834,-0.50354,-1.266479,-0.724792,1.0024241102951386
-0.40332,-0.915283,-0.078125,-0.244141,-0.831604,-0.88501,1.0032514680348092
-0.403076,-0.91748,-0.078125,-0.274658,-0.465393,-0.785828,1.0051583595638052
-0.40332,-0.919678,-0.076904,-0.320435,-0.37384,-0.701904,1.0071687402317449
-0.40332,-0.920898,-0.077393,-0.411987,-0.404358,-0.495911,1.0083202989392805
-0.406982,-0.92041,-0.07666,-0.282288,-0.312805,-0.419617,1.00928968687092
-0.405762,-0.920166,-0.075439,-0.236511,-0.099182,-0.473022,1.008483669139466
-0.40332,-0.920654,-0.081055,-0.190735,0.358582,-0.335693,1.0083852057329086
-0.400879,-0.919678,-0.084473,-0.1297,0.732422,-0.282288,1.0068005185010585
-0.397217,-0.917236,-0.082764,-0.038147,0.900268,-0.213623,1.0029721354459455
-0.394287,-0.915771,-0.087402,-0.068665,0.717163,-0.312805,1.0008685590096233
-0.392334,-0.914551,-0.087646,-0.236511,0.289917,-0.282288,0.9990051653885479
-0.394287,-0.915527,-0.080811,-0.282288,-0.267029,-0.114441,1.0000911677537203
-0.39502,-0.918945,-0.081543,-0.320435,-0.457764,-0.228882,1.0035686196140252
-0.396973,-0.915771,-0.083008,-0.305176,-0.274658,-0.442505,1.0015559970535846
-0.396484,-0.913818,-0.08374,-0.099182,0.228882,-0.465393,0.9996375778150799
-0.395752,-0.914307,-0.083496,0.160217,0.549316,-0.343323,0.999774233399221
-0.394531,-0.914063,-0.082031,0.267029,0.656128,-0.366211,0.9989469269640905
-0.396729,-0.915039,-0.081055,0.228882,0.602722,-0.411987,1.0006298936105198
-0.396973,-0.91626,-0.08252,0.297546,0.450134,-0.465393,1.0019628240254226
-0.397461,-0.918213,-0.081299,0.099182,0.007629,-0.648498,1.00384256100795
-0.399414,-0.918213,-0.07959,0.007629,-0.434875,-0.617981,1.0044805746578676
-0.401367,-0.918701,-0.083252,0.022888,-0.595093,-0.556946,1.0060009401556242
-0.403809,-0.91748,-0.081055,0.015259,-0.274658,-0.694275,1.005684429583157
-0.403564,-0.91748,-0.080811,0.228882,0.045776,-0.671387,1.0055664424676272
-0.401123,-0.915527,-0.082275,0.328064,0.228882,-0.518799,1.0029249844744121
-0.398438,-0.912598,-0.07959,0.694275,0.190735,-0.465393,0.9989607187212118
-0.397949,-0.914795,-0.076416,0.938415,0.114441,-0.404358,1.0005262133907338
-0.397949,-0.915039,-0.077148,0.846863,0.328064,-0.38147,1.0008054716207342
-0.395508,-0.915527,-0.079834,0.694275,0.411987,-0.289917,1.0004947442885446
-0.397217,-0.915527,-0.082275,0.411987,0.205994,-0.366211,1.001369166912483
-0.400391,-0.917236,-0.082031,0.213623,0.106812,-0.549316,1.0041732507580552
-0.397705,-0.916504,-0.081787,0.228882,0.564575,-0.656128,1.0024160625259353
-0.395996,-0.92041,-0.081787,0.434875,0.991821,-0.732422,1.0053141367179712
-0.391357,-0.923828,-0.083984,0.396728,0.839233,-0.946045,1.0068126872904413
-0.389893,-0.921143,-0.080566,0.053406,0.259399,-0.892639,1.0034998048101453
-0.392334,-0.922119,-0.082764,-0.167847,-0.358582,-0.823975,1.0055243892681072
-0.392822,-0.919922,-0.081787,-0.236511,-0.671387,-0.87738,1.0036208064488301
-0.391113,-0.920166,-0.08252,-0.267029,-0.75531,-0.648498,1.003236959409391
-0.392334,-0.920898,-0.079834,-0.25177,-0.671387,-0.556946,1.0041675963284218
-0.392334,-0.922119,-0.080322,-0.198364,-0.770569,-0.488281,1.0053263357741107
-0.391113,-0.922363,-0.077637,-0.167847,-0.999451,-0.610352,1.0048633669842881
-0.39209,-0.924072,-0.079346,-0.38147,-1.274109,-0.526428,1.0069455879043316
-0.39209,-0.921143,-0.079102,-0.419617,-1.670837,-0.602722,1.0042390755955475
-0.393066,-0.918701,-0.080078,-0.564575,-1.853943,-0.640869,1.0024594225408827
-0.390625,-0.916992,-0.079834,-0.671387,-1.930237,-0.62561,0.9999178397473465
-0.392334,-0.917969,-0.080811,-0.511169,-2.037048,-0.679016,1.001560517511548
-0.392578,-0.915283,-0.078369,-0.50354,-2.082825,-0.656128,0.999000578745578
-0.392578,-0.915283,-0.081055,-0.465393,-2.227783,-0.701904,0.999214876389458
-0.395264,-0.916992,-0.079102,-0.442505,-2.441406,-0.62561,1.0016811289846685
-0.399902,-0.917236,-0.082031,-0.434875,-2.746582,-0.785828,1.0039783734030332
-0.401123,-0.920166,-0.081543,-0.411987,-2.861023,-0.900268,1.0071019757373134
-0.406006,-0.920898,-0.082031,-0.419617,-2.853393,-1.022339,1.0097638750722864
-0.405518,-0.920166,-0.089844,-0.396728,-2.853393,-0.923157,1.0095653818430979
-0.405518,-0.921143,-0.086914,-0.488281,-3.135681,-0.808716,1.0101996427286044
-0.404297,-0.921387,-0.085205,-0.762939,-3.65448,-0.709534,1.0097870864707075
-0.406982,-0.921143,-0.087646,-0.923157,-3.890991,-0.541687,1.0108514213716078
-0.406494,-0.919678,-0.086182,-1.106262,-3.761291,-0.274658,1.0091939025004064
-0.403564,-0.91748,-0.087158,-1.190186,-3.341675,0.076294,1.0060964016733187
-0.401367,-0.916016,-0.088379,-1.037598,-2.830505,0.396728,1.0039878627682708
-0.398438,-0.91333,-0.087646,-0.961304,-2.227783,0.694275,1.0003031290863784
-0.394287,-0.910889,-0.085205,-0.961304,-1.76239,0.869751,0.9962132807361082
-0.388916,-0.9104,-0.081787,-0.907898,-1.777649,0.968933,0.9933644489435889
-0.385742,-0.909424,-0.077637,-0.801086,-2.182007,0.923157,0.990896768643939
-0.385742,-0.9104,-0.074219,-0.961304,-2.868652,0.640869,0.9915308923704798
-0.389648,-0.910156,-0.072998,-1.098633,-3.39508,0.221252,0.9927427744607361
-0.392334,-0.909912,-0.072754,-1.00708,-3.448486,-0.076294,0.9935587349603445
-0.39502,-0.912109,-0.074463,-0.854492,-3.311157,-0.312805,0.9967589310610665
-0.398193,-0.917236,-0.071289,-0.717163,-3.189087,-0.480652,1.0024777635768287
-0.398682,-0.921143,-0.071289,-0.602722,-3.295898,-0.526428,1.0062474273726119
-0.403076,-0.921387,-0.071289,-0.686645,-3.639221,-0.50354,1.0082194141485274
-0.404541,-0.921875,-0.073975,-0.709534,-3.921509,-0.419617,1.0094450143177687
-0.405762,-0.921143,-0.074463,-0.785828,-3.845215,-0.37384,1.0093027125010612
-0.406982,-0.920654,-0.076904,-0.709534,-3.631592,-0.358582,1.0095307629072034
-0.408203,-0.923828,-0.081055,-0.671387,-3.189087,-0.389099,1.0132412229168333
-0.403564,-0.922607,-0.081299,-0.610352,-2.845764,-0.335693,1.0102856556172615
-0.400879,-0.92041,-0.085938,-0.602722,-2.89917,-0.335693,1.0075931126129236
-0.398682,-0.918701,-0.090088,-0.747681,-3.128052,-0.328064,1.005522109289
-0.395752,-0.91748,-0.086914,-0.900268,-3.501892,-0.335693,1.0029672174602717
-0.400635,-0.921143,-0.0896,-0.976562,-3.578186,-0.297546,1.008484501454534
-0.403076,-0.919922,-0.08374,-1.00708,-3.196716,-0.297546,1.007838843992431
-0.400635,-0.919189,-0.084473,-0.839233,-2.609253,-0.236511,1.0062566813070113
-0.399658,-0.914795,-0.081543,-0.831604,-2.098083,-0.152588,1.001611536394225
-0.398193,-0.91333,-0.080078,-0.610352,-1.876831,-0.144958,0.9995708280222066
-0.398193,-0.916748,-0.075928,-0.404358,-1.64032,-0.091553,1.0023719977817616
-0.396973,-0.922852,-0.072754,-0.244141,-1.731872,-0.038147,1.0072420370243689
-0.397949,-0.927246,-0.069824,0.076294,-1.976013,-0.221252,1.0114464603195763
-0.395996,-0.932617,-0.070313,0.076294,-2.26593,-0.62561,1.0156432536447038
-0.398438,-0.931641,-0.070557,0.205994,-2.510071,-1.266479,1.0157194902993643
-0.400146,-0.92749,-0.068848,0.541687,-2.731323,-1.808166,1.0124695395516845
-0.397217,-0.923584,-0.066406,0.663757,-3.242492,-2.189636,1.0075705965246307
-0.396729,-0.921143,-0.064941,0.701904,-4.089355,-2.63977,1.00504510315259
-0.398682,-0.921631,-0.061768,0.740051,-5.020141,-3.181457,1.0060647708318784
-0.400879,-0.919922,-0.061523,1.075745,-5.249023,-3.448486,1.0053584128329558
-0.402588,-0.917236,-0.064697,1.724243,-4.692078,-3.692627,1.0037851758464058
-0.4021,-0.916992,-0.072266,2.418518,-3.921509,-4.104614,1.003883017497557
-0.397949,-0.914307,-0.075684,2.754211,-3.684997,-4.585266,1.0000243820557577
-0.398682,-0.911133,-0.079834,2.922058,-3.77655,-4.989624,0.9977395192979979
-0.402588,-0.908447,-0.082275,2.853393,-4.112244,-5.577087,0.9970567813209036
-0.402344,-0.905518,-0.085693,2.716064,-4.112244,-6.126403,0.9945787213232546
-0.403809,-0.90332,-0.087402,2.807617,-3.761291,-6.484985,0.9933216198618653
-0.404541,-0.904785,-0.091553,2.952575,-3.211975,-6.698608,0.9953247051666104
-0.404053,-0.910645,-0.089355,2.861023,-2.532959,-6.645202,1.0002586959676982
-0.403809,-0.912109,-0.083984,2.685547,-1.960754,-6.42395,1.0010283955103372
-0.399902,-0.912109,-0.083008,2.418518,-1.51062,-5.989074,0.9993771888276217
-0.398193,-0.91748,-0.078125,2.311707,-1.411438,-5.599975,1.003210212903557
-0.399414,-0.923828,-0.072266,1.960754,-1.38092,-5.294799,1.009064959126022
-0.396729,-0.925049,-0.070313,1.777649,-1.220703,-4.943848,1.0089863575940956
-0.393555,-0.926025,-0.070801,1.724243,-1.029968,-4.501343,1.0086727022433986
-0.390381,-0.926514,-0.070557,1.609802,-0.87738,-4.203796,1.007870928048825
-0.390137,-0.924072,-0.068359,1.464844,-0.663757,-3.959656,1.0053799743549698
-0.386963,-0.925049,-0.066406,1.197815,-0.663757,-3.753662,1.0049207792686945
-0.382813,-0.926514,-0.059082,0.717163,-1.052856,-3.417969,1.0042234153259921
-0.381348,-0.927979,-0.057617,0.366211,-1.533508,-3.196716,1.0049333511402634
-0.381592,-0.932373,-0.057373,-0.015259,-1.838684,-2.960205,1.009070625239879
-0.380127,-0.935303,-0.057129,-0.228882,-1.754761,-2.662658,1.0112131133341773
-0.378906,-0.932617,-0.061523,-0.328064,-1.441955,-2.304077,1.008528286690066
-0.376709,-0.931396,-0.060547,-0.473022,-1.586914,-1.945495,1.006515831324078
-0.372314,-0.932617,-0.055176,-0.732422,-2.098083,-1.579285,1.005702030554279
-0.372314,-0.932373,-0.05542,-1.25885,-3.173828,-1.312256,1.005489185483862
-0.370605,-0.929932,-0.057373,-1.747131,-4.165649,-0.984192,1.0027029728578647
-0.367188,-0.927246,-0.05957,-2.243042,-5.203247,-0.419617,0.9990799551387266
-0.365967,-0.927979,-0.055176,-2.655029,-6.454467,0.25177,0.9990601886302947
-0.366699,-0.927246,-0.051025,-3.044128,-7.644653,0.724792,0.9984271890037851
-0.369629,-0.933105,-0.050049,-3.311157,-8.354187,1.029968,1.0048957364159727
-0.370605,-0.933838,-0.050537,-3.364563,-8.56781,1.235962,1.0059599716877405
-0.369141,-0.931152,-0.05542,-3.257751,-8.44574,1.358032,1.0031851780130128
-0.365234,-0.924805,-0.060791,-3.013611,-8.270264,1.441955,0.9961705217792785
-0.366699,-0.920166,-0.059082,-2.914428,-8.44574,1.457214,0.9923025279021515
-0.364746,-0.919922,-0.060059,-3.005981,-9.170532,1.113892,0.991414753814467
-0.366943,-0.92041,-0.060547,-3.318786,-10.162353,0.709534,0.9927072441349464
-0.369873,-0.920166,-0.063477,-3.578186,-11.291503,0.457764,0.9937508909248837
-0.376953,-0.921875,-0.066406,-3.807068,-12.008666,0.015259,0.9981767562260704
-0.384277,-0.919434,-0.069824,-3.852844,-12.001037,-0.434875,0.9989509918214206
-0.388428,-0.91748,-0.070557,-3.608703,-11.535644,-0.617981,0.9988113694952615
-0.392334,-0.918457,-0.070313,-3.40271,-11.047362,-0.785828,1.0012158340607684
-0.396484,-0.917969,-0.072021,-3.433227,-11.001586,-0.900268,1.0025236514207534
-0.398926,-0.917969,-0.066895,-3.64685,-11.405944,-0.862122,1.003137069129638
-0.400635,-0.922363,-0.068604,-3.799438,-11.482238,-0.846863,1.007952586092223
-0.402344,-0.922852,-0.070068,-3.77655,-11.177062,-0.846863,1.0091808722245978
-0.40332,-0.921631,-0.072266,-3.601074,-10.406493,-0.816345,1.0086094870250826
-0.404785,-0.923096,-0.072266,-3.379822,-9.338379,-0.770569,1.0105342627526295
-0.40332,-0.919678,-0.073975,-2.990722,-8.178711,-0.907898,1.0069493267831306
-0.403564,-0.919434,-0.071777,-2.700805,-7.148742,-1.12915,1.0066651479916249
-0.404297,-0.923096,-0.074707,-2.342224,-5.981445,-1.312256,1.0105164151432673
-0.397949,-0.920654,-0.077148,-2.182007,-4.959106,-1.449585,1.005941851311993
-0.39502,-0.919678,-0.077637,-1.914978,-4.440308,-1.449585,1.0039302405311836
-0.391357,-0.921387,-0.073242,-1.701355,-4.203796,-1.63269,1.0037323825512454
-0.391846,-0.92041,-0.075439,-1.663208,-4.188538,-1.716614,1.0031893632495312
-0.391357,-0.919922,-0.075439,-1.747131,-3.967285,-1.548767,1.0025506621882008
-0.388916,-0.91748,-0.072266,-1.64032,-3.585815,-1.464844,0.9991234058973896
-0.387207,-0.919678,-0.070557,-1.602173,-3.082275,-1.251221,1.0003575234794808
-0.388672,-0.920898,-0.068604,-1.365662,-2.433777,-1.174927,1.0019109535303026
-0.388672,-0.924316,-0.063965,-1.075745,-2.059937,-1.190186,1.0047474870160165
-0.38623,-0.929199,-0.060059,-0.961304,-1.968384,-1.106262,1.008063231142769
-0.385742,-0.931396,-0.053955,-1.060486,-2.197266,-1.251221,1.0095575968735018
-0.386719,-0.934814,-0.051514,-0.999451,-2.578735,-1.350403,1.0129573000640255
-0.38623,-0.93457,-0.048828,-0.740051,-2.685547,-1.564026,1.012412401832376
-0.385986,-0.929199,-0.047363,-0.343323,-2.655029,-1.876831,1.0072930197147205
-0.382813,-0.923584,-0.050537,0.068665,-2.63977,-2.075195,1.0010530387516936
-0.382324,-0.916748,-0.057861,0.221252,-2.754211,-2.220154,0.9949605177096225
-0.383545,-0.910645,-0.064941,0.25177,-3.120422,-2.243042,0.9902516935259439
-0.381836,-0.907471,-0.065918,0.442505,-3.40271,-2.159119,0.986735795165555
-0.382813,-0.908203,-0.067139,0.495911,-3.631592,-2.220154,0.987869489102179
-0.384521,-0.910156,-0.071045,0.389099,-3.677368,-2.349854,0.9905996849393806
-0.388428,-0.915771,-0.075195,0.328064,-3.189087,-2.525329,0.9975806351618901
-0.390137,-0.918457,-0.076416,0.62561,-2.510071,-2.677917,1.0008044487680896
-0.39502,-0.920654,-0.074463,0.686645,-1.731872,-2.868652,1.0045841559993864
-0.397705,-0.922363,-0.075684,0.732422,-0.907898,-2.983093,1.0072987832068498
-0.39624,-0.923828,-0.078125,0.839233,-0.305176,-3.234863,1.0082498831187634
-0.394531,-0.921875,-0.079346,0.808716,-0.297546,-3.486633,1.005884691851904
-0.39502,-0.924805,-0.074707,0.694275,-0.717163,-3.417969,1.0084077668651705
-0.397461,-0.924805,-0.073975,0.526428,-1.037598,-3.387451,1.0093125557383102
-0.39917,-0.926025,-0.07373,0.427246,-1.13678,-3.334045,1.0110861004014446
-0.398682,-0.927246,-0.070801,0.564575,-1.228333,-3.112793,1.0118029764934475
-0.399658,-0.928711,-0.067139,0.465393,-1.045227,-2.754211,1.0132809500854143
-0.397705,-0.925537,-0.067871,0.50354,-0.63324,-2.502441,1.0096506712893327
-0.391846,-0.921875,-0.069092,0.717163,-0.030518,-2.365112,1.0040769431696954
-0.388916,-0.919434,-0.070068,0.87738,1.052856,-2.250671,1.0007617398941668
-0.385986,-0.916504,-0.069824,1.281738,2.212524,-2.250671,0.9969153249840229
-0.381592,-0.916748,-0.071289,1.594543,3.181457,-2.220154,0.9955508382242465
-0.376221,-0.917236,-0.071289,1.678467,3.700256,-2.296448,0.9939548491043243
-0.37207,-0.914307,-0.075684,1.63269,3.410339,-2.372742,0.9900108297412711
-0.373047,-0.911621,-0.071045,1.51062,2.555847,-2.441406,0.9875547093072871
-0.377686,-0.912109,-0.071289,1.083374,2.296448,-2.525329,0.9897836450447137
-0.377441,-0.911621,-0.075195,0.968933,3.089905,-2.677917,0.9895296075140956
-0.375,-0.915771,-0.07666,1.205444,4.333496,-2.929687,0.9925413240973899
-0.377441,-0.922852,-0.076904,1.335144,5.012512,-3.074646,1.0000158736745133
-0.373779,-0.928955,-0.074219,1.098633,4.943848,-3.067016,1.0040799733223444
-0.375977,-0.934326,-0.06958,0.930786,4.196167,-3.112793,1.0095370994693558
-0.381592,-0.936279,-0.068359,0.511169,3.211975,-3.227234,1.013362606960608
-0.384277,-0.937256,-0.066895,0.25177,2.258301,-2.861023,1.0151810495128442
-0.387939,-0.936279,-0.063721,0.221252,1.564026,-2.502441,1.015468069120344
-0.39209,-0.938721,-0.061523,0.183105,1.480102,-2.174377,1.0191745500501865
-0.393311,-0.935303,-0.063232,0.213623,1.914978,-1.686096,1.0166039200957273
-0.387207,-0.929443,-0.066162,0.297546,2.670288,-1.266479,1.0090445784711397
-0.381348,-0.924805,-0.068359,0.282288,3.555298,-1.00708,1.002678182673783
-0.376709,-0.920898,-0.073975,0.320435,4.196167,-0.785828,0.997714938101059
-0.368896,-0.916992,-0.081299,0.267029,4.53949,-0.801086,0.9917500261058732
-0.366211,-0.915771,-0.083984,0.213623,4.554749,-1.014709,0.989848641570013
-0.368164,-0.914551,-0.088135,0.106812,4.394531,-1.220703,0.9898060621768286
-0.367188,-0.917969,-0.085693,-0.045776,4.104614,-1.457214,0.9923897432732768
-0.368896,-0.918945,-0.083252,-0.274658,3.715515,-1.678467,0.993717800658215
-0.370361,-0.919434,-0.082275,-0.419617,3.318786,-1.785278,0.9946332622137669
-0.371094,-0.922852,-0.081299,-0.411987,3.120422,-1.739502,0.9979860210148236
-0.375244,-0.928955,-0.081787,-0.427246,3.135681,-1.792908,1.0052136911771545
-0.378174,-0.93335,-0.075195,-0.267029,3.311157,-1.815796,1.0098574576646944
-0.378662,-0.935791,-0.071533,0.015259,3.585815,-1.808166,1.0120309659363196
-0.381592,-0.936279,-0.06958,0.190735,3.936767,-1.808166,1.0134457048628702
-0.384521,-0.935547,-0.069824,0.358582,4.653931,-1.800537,1.0138934754825084
-0.382813,-0.939697,-0.068848,0.747681,5.508422,-1.770019,1.0170134177492447
-0.379395,-0.939209,-0.065674,0.892639,6.011962,-1.609802,1.0150700399391168
-0.371338,-0.938965,-0.060791,0.984192,5.859375,-1.373291,1.0115546090795098
-0.366699,-0.94165,-0.053223,1.12915,5.134582,-1.174927,1.0119316018536035
-0.363037,-0.940186,-0.04834,1.13678,4.127502,-1.106262,1.0090006608347688
-0.359375,-0.930908,-0.055908,1.121521,3.234863,-1.060486,0.999432738883913
-0.355225,-0.919678,-0.070068,1.220703,2.89917,-0.862122,0.9883835029648158
-0.354004,-0.911133,-0.074463,1.670837,2.716064,-0.640869,0.9803198019391427
-0.352051,-0.907715,-0.074707,2.159119,2.693176,-0.587463,0.9764566368636142
-0.348145,-0.906738,-0.082031,2.120972,2.365112,-0.511169,0.9747347468055092
-0.342285,-0.906006,-0.085449,2.006531,1.449585,-0.63324,0.9722692141901851
-0.351318,-0.911621,-0.084473,1.625061,0.167847,-0.762939,0.9806186172483164
-0.358887,-0.912109,-0.082764,1.205444,-0.610352,-0.930786,0.9836628418040401
-0.36084,-0.915283,-0.077881,1.159668,-0.747681,-0.816345,0.9869214385400693
-0.366699,-0.917725,-0.07373,1.319885,-0.62561,-0.869751,0.9910214150693213
-0.368408,-0.920654,-0.072754,1.213074,-0.770569,-0.839233,0.9942944165064994
-0.369141,-0.923828,-0.073975,1.091003,-1.029968,-0.732422,0.997594883752919
-0.369873,-0.921631,-0.074463,1.274109,-1.037598,-0.656128,0.9958687035242146
-0.375244,-0.916504,-0.078369,1.51062,-0.709534,-0.595093,0.9934431748786642
-0.373779,-0.913574,-0.078125,1.548767,-0.221252,-0.75531,0.9901675161011898
-0.373535,-0.916016,-0.077148,1.693725,0.305176,-0.747681,0.992252751260988
-0.374512,-0.922363,-0.073242,1.823425,0.854492,-0.801086,0.9981869226136957
-0.374756,-0.927979,-0.07373,1.724243,1.296997,-1.045227,1.003505454333458
-0.373535,-0.927979,-0.076904,1.701355,1.800537,-1.358032,1.0032884161007742
-0.371582,-0.926514,-0.076172,1.64032,2.044678,-1.487732,1.0011511117229006
-0.37207,-0.929199,-0.073486,1.541138,2.075195,-1.480102,1.0036169880472332
-0.370361,-0.93042,-0.075684,1.487732,2.227783,-1.312256,1.0042792015057367
-0.370605,-0.928711,-0.073975,1.495361,2.311707,-1.25885,1.002658709716821
-0.369873,-0.931885,-0.07251,1.655578,2.410889,-0.999451,1.0052230545774405
-0.368408,-0.937256,-0.066406,1.625061,2.479553,-0.88501,1.0092487408146715
-0.366211,-0.937988,-0.062744,1.64032,2.601623,-0.839233,1.0088948380287215
-0.362793,-0.937988,-0.061035,1.579285,2.548218,-0.793457,1.0075542269366946
-0.361328,-0.937988,-0.062012,1.464844,2.39563,-0.808716,1.0070873347788662
-0.363037,-0.940186,-0.052002,1.411438,2.418518,-0.801086,1.0091827317037287
-0.364014,-0.948242,-0.045654,1.564026,2.807617,-0.679016,1.016736627881577
-0.360107,-0.957031,-0.036377,1.976013,3.623962,-0.762939,1.023185551373259
-0.35376,-0.957031,-0.030762,2.204895,3.913879,-0.732422,1.0207843911448684
-0.345703,-0.949707,-0.030762,2.243042,3.425598,-0.709534,1.0111380967513786
-0.3479,-0.941162,-0.037598,2.372742,2.479553,-0.823975,1.0041085249354276
-0.347412,-0.932129,-0.042725,2.677917,1.708984,-0.839233,0.9956831805398744
-0.340576,-0.931885,-0.050781,3.173828,1.266479,-0.671387,0.9934688595834295
-0.336426,-0.931641,-0.057617,3.623962,0.534058,-1.327515,0.9921981279190161
-0.336182,-0.928223,-0.06665,3.562927,-0.87738,-2.105713,0.9894738487463931
-0.341309,-0.926514,-0.072998,3.356933,-2.555847,-2.525329,0.9900751151710662
-0.346924,-0.924072,-0.075928,3.074646,-4.165649,-2.990722,0.9899648398524061
-0.352295,-0.924561,-0.080566,3.158569,-5.889892,-3.608703,0.9926810616215058
-0.361084,-0.92749,-0.083008,2.632141,-6.713867,-4.257202,0.9987540654335281
-0.367432,-0.92334,-0.089844,2.090454,-6.523132,-4.356384,0.9978151003868402
-0.371094,-0.919434,-0.094482,2.212524,-5.546569,-4.119873,0.9959902035241109
-0.371826,-0.920898,-0.101318,2.235413,-4.394531,-4.081726,0.9982850483724576
-0.373291,-0.923096,-0.102783,1.777649,-3.364563,-3.761291,1.0010078625994903
-0.376465,-0.928711,-0.104736,1.64032,-2.319336,-3.265381,1.007571162470423
-0.374268,-0.930908,-0.103027,1.312256,-1.609802,-2.853393,1.008603392328719
-0.378662,-0.932861,-0.104492,0.793457,-0.953674,-2.609253,1.0121922414388485
-0.380127,-0.931152,-0.103516,0.450134,-0.343323,-2.571106,1.0110668353224725
-0.381592,-0.933105,-0.10083,0.183105,0.366211,-2.27356,1.0131456382914552
-0.382324,-0.935303,-0.0979,-0.076294,0.923157,-1.945495,1.0151589790692885
-0.37915,-0.935059,-0.092529,-0.442505,1.335144,-1.708984,1.0132382107984281
-0.379883,-0.938721,-0.084229,-0.747681,2.044678,-1.403808,1.016170622469967
-0.37793,-0.94043,-0.078125,-0.991821,2.777099,-1.121521,1.016534891395765
-0.37085,-0.940186,-0.073486,-0.923157,3.356933,-0.930786,1.013350694129135
-0.369141,-0.935791,-0.068848,-0.915527,4.104614,-0.785828,1.0083203462521224
-0.36499,-0.933838,-0.064209,-0.801086,4.79126,-0.686645,1.0046859738370988
-0.359131,-0.935303,-0.064697,-0.610352,5.294799,-0.701904,1.0039683654274172
-0.356689,-0.933105,-0.064453,-0.465393,5.645751,-0.663757,1.0010325533942441
-0.348877,-0.930664,-0.060547,-0.396728,5.714416,-0.602722,0.9957492562055973
-0.343994,-0.931885,-0.060059,-0.434875,5.142211,-0.518799,0.9951626041718007
-0.340332,-0.93457,-0.057129,-0.679016,4.127502,-0.366211,0.9962483012607851
-0.339844,-0.934082,-0.056641,-0.724792,3.128052,-0.221252,0.995595967218128
-0.338135,-0.931885,-0.056396,-0.617981,2.624511,-0.297546,0.9929377826762359
-0.335449,-0.927734,-0.060791,-0.274658,2.670288,-0.450134,0.9883885632877385
-0.333008,-0.925537,-0.064453,0.198364,3.005981,-0.511169,0.985731837591746
-0.330811,-0.927734,-0.063477,0.511169,3.097534,-0.778198,0.9869932228774421
-0.331543,-0.930664,-0.066162,0.640869,2.5177,-1.190186,0.9901684967665857
-0.332764,-0.929932,-0.064453,0.587463,1.487732,-1.63269,0.9897775474969109
-0.33667,-0.929932,-0.064941,0.465393,0.167847,-2.006531,0.9911294299964056
-0.343994,-0.93335,-0.064941,0.137329,-0.991821,-2.220154,0.9968407234944808
-0.352051,-0.935059,-0.063721,0.061035,-1.518249,-2.319336,1.0011671218747646
-0.356445,-0.934814,-0.061523,0.267029,-1.396179,-2.326965,1.0023548933137405
-0.36084,-0.933838,-0.064453,0.488281,-0.839233,-2.311707,1.003201427956021
-0.359131,-0.929443,-0.067871,0.717163,-0.213623,-2.14386,0.9987221025145083
-0.358887,-0.930908,-0.070068,0.900268,0.38147,-2.029419,1.0001495427469835
-0.357422,-0.929932,-0.070313,0.923157,0.961304,-1.945495,0.9987331618991131
-0.356689,-0.93042,-0.072754,1.022339,1.327515,-1.907349,0.999100377157871
-0.35498,-0.93457,-0.072266,1.091003,1.304626,-1.88446,1.002324428543972
-0.35376,-0.935547,-0.073486,0.930786,0.930786,-1.815796,1.0028930745622886
-0.353516,-0.93335,-0.074951,0.694275,0.679016,-2.13623,1.0008663433031406
-0.355957,-0.93457,-0.075928,0.808716,0.747681,-2.090454,1.002941439932063
-0.35498,-0.937988,-0.074463,0.831604,0.984192,-2.052307,1.005672425252378
-0.353027,-0.938965,-0.070557,0.747681,1.167297,-1.869202,1.0056150477210453
-0.353516,-0.933838,-0.070557,0.679016,1.182556,-1.76239,1.00100212924299
-0.351074,-0.93042,-0.068848,0.617981,1.159668,-1.739502,0.9968321709194583
-0.353516,-0.930176,-0.071777,0.587463,1.243591,-1.701355,0.9976737397370946
-0.353271,-0.93042,-0.06958,0.701904,1.441955,-1.64032,0.9976588355951147
-0.351318,-0.93335,-0.068359,0.717163,1.541138,-1.731872,0.9996196839323443
-0.349609,-0.933105,-0.067627,0.686645,1.556396,-1.976013,0.9987416107457423
-0.346924,-0.93457,-0.069824,0.579834,1.274109,-2.120972,0.9993261417835521
-0.348877,-0.930664,-0.072754,0.579834,1.014709,-2.212524,0.9965659970824814
-0.346924,-0.929443,-0.06958,0.579834,0.740051,-2.296448,0.9945159266824237
-0.350098,-0.926758,-0.067871,0.495911,0.595093,-2.403259,0.9930032592136845
-0.350586,-0.925781,-0.069824,0.579834,0.587463,-2.487183,0.9923993119369844
-0.351074,-0.92749,-0.072266,0.495911,0.724792,-2.388,0.9943404991912982
-0.351807,-0.927979,-0.075439,0.411987,0.793457,-2.479553,0.995291029001568
-0.352295,-0.928955,-0.072021,0.404358,0.88501,-2.449036,0.9961205667443074
-0.353516,-0.932373,-0.074219,0.419617,1.190186,-2.39563,0.9999007117439211
-0.355225,-0.933594,-0.075195,0.411987,1.579285,-2.39563,1.0017169487864324
-0.35498,-0.932861,-0.081787,0.343323,1.831055,-2.326965,1.0014637083239712
-0.354004,-0.937012,-0.082764,0.053406,1.88446,-2.311707,1.005067261359159
-0.35498,-0.938232,-0.079834,-0.106812,1.76239,-2.296448,1.0063118571198493
-0.355225,-0.938232,-0.078613,-0.328064,1.525879,-2.174377,1.006302186332714
-0.356201,-0.938965,-0.076904,-0.663757,1.556396,-2.006531,1.0071984158257996
-0.357422,-0.936279,-0.076904,-0.762939,2.052307,-1.823425,1.0051283883867772
-0.356934,-0.93457,-0.077881,-0.579834,2.883911,-1.625061,1.003438296766174
-0.351318,-0.935059,-0.080811,-0.427246,3.852844,-1.25885,1.0021427484774812
-0.350342,-0.939697,-0.078125,-0.556946,4.653931,-0.938415,1.005919223595016
-0.345459,-0.942139,-0.076172,-0.656128,5.15747,-0.732422,1.0063647398364073
-0.34375,-0.942871,-0.074219,-0.869751,5.134582,-0.396728,1.0063191566804242
-0.341309,-0.941162,-0.071777,-1.159668,4.997253,-0.267029,1.0037079662202548
-0.338135,-0.937012,-0.072998,-1.235962,4.516602,-0.099182,0.9988270492798039
-0.337891,-0.936523,-0.068848,-1.502991,3.547668,-0.053406,0.9979908338827567
-0.339111,-0.939453,-0.068359,-2.01416,2.510071,0.007629,1.001119954056955
-0.339844,-0.940918,-0.067871,-2.319336,1.556396,0.1297,1.0027098781307582
-0.342529,-0.938965,-0.064453,-2.449036,0.602722,0.289917,1.0015665610806903
-0.343506,-0.940674,-0.063232,-2.868652,-0.465393,0.37384,1.0034252498995628
-0.343506,-0.94043,-0.061279,-3.227234,-1.525879,0.488281,1.0030753076299905
-0.343262,-0.939453,-0.060547,-3.311157,-2.403259,0.671387,1.0020312764889128
-0.344727,-0.934814,-0.060303,-3.494262,-3.044128,0.671387,0.9981735174477432
-0.347168,-0.931152,-0.059082,-3.616333,-3.372192,0.778198,0.9955201404552295
-0.346436,-0.929932,-0.059326,-3.593445,-3.410339,0.907898,0.9941383208568112
-0.343018,-0.930176,-0.060303,-3.364563,-3.280639,0.862122,0.9932397450308762
-0.344971,-0.931396,-0.064209,-3.39508,-3.105163,1.037598,0.9953021125959696
-0.345215,-0.933594,-0.066895,-3.479004,-3.158569,1.098633,0.997620215355523
-0.34375,-0.9375,-0.066895,-3.387451,-3.219604,0.892639,1.000772328516831
-0.345215,-0.937012,-0.067627,-3.372192,-3.39508,0.724792,1.0008687703680237
-0.346191,-0.938477,-0.071533,-3.448486,-3.692627,0.549316,1.0028480732887708
-0.348877,-0.935303,-0.078613,-3.540039,-4.096985,0.38147,1.0013425321572036
-0.347412,-0.931885,-0.080322,-3.562927,-4.402161,0.442505,0.9977757136015087
-0.348145,-0.93335,-0.082275,-3.639221,-4.463196,0.602722,0.9995580719247882
-0.349609,-0.932373,-0.08667,-3.639221,-4.470825,0.450134,0.9995286653768365
-0.345459,-0.934814,-0.089111,-3.944397,-4.425049,0.442505,1.0005797847238371
-0.342773,-0.937744,-0.093994,-4.53949,-4.585266,0.335693,1.0028419671618256
-0.339844,-0.939209,-0.100098,-4.951477,-4.486084,0.274658,1.00380630582847
-0.344238,-0.940918,-0.095459,-5.012512,-4.020691,0.030518,1.0064486594203401
-0.353027,-0.944824,-0.093994,-4.943848,-3.242492,-0.053406,1.012993250590052
-0.358643,-0.950928,-0.091309,-5.058288,-2.380371,0.244141,1.0204049177233516
-0.359863,-0.954834,-0.085205,-5.28717,-1.251221,0.442505,1.0239478689611106
-0.357422,-0.961182,-0.084961,-5.508422,-0.366211,0.289917,1.0289993657573362
-0.350586,-0.964355,-0.083496,-5.966186,0.396728,-0.022888,1.0294963290060823
-0.344971,-0.965576,-0.084229,-6.469726,0.816345,-0.457764,1.028803444326466
-0.338135,-0.968018,-0.088135,-7.209777,0.87738,-0.976562,1.0291559185925134
-0.333984,-0.967285,-0.09082,-8.148193,0.976562,-1.457214,1.0273431052384592
-0.324951,-0.960449,-0.092529,-8.598328,0.679016,-2.037048,1.0181439239336452
-0.321289,-0.961426,-0.091553,-8.69751,-0.617981,-2.128601,1.0178155662034256
-0.326416,-0.962402,-0.091553,-9.437561,-3.219604,-1.945495,1.0203660943352637
-0.332275,-0.952393,-0.088623,-10.017395,-6.622314,-0.793457,1.012577472691843
-0.340088,-0.947021,-0.083008,-10.513305,-9.590149,0.709534,1.00965288602024
-0.34375,-0.936035,-0.08374,-11.20758,-11.45935,1.792908,1.000668762041166
-0.341797,-0.928223,-0.083252,-11.222838,-11.848449,3.112793,0.9926499999707853
-0.34375,-0.927002,-0.081055,-11.009215,-11.619567,4.127502,0.9920013525842593
-0.342773,-0.925781,-0.077393,-11.07788,-11.589049,4.936218,0.990228996716921
-0.343262,-0.923584,-0.075928,-11.238097,-11.230468,5.722045,0.9882313832721565
-0.339844,-0.918945,-0.080078,-11.047362,-10.505675,5.599975,0.9830393397240011
-0.334717,-0.918457,-0.082275,-10.44464,-9.674072,5.111694,0.9810035201583122
-0.335693,-0.917236,-0.081299,-10.131835,-9.399414,4.722595,0.9801128492913457
-0.336914,-0.914795,-0.084717,-9.803772,-9.628296,4.249573,0.9785386581581742
-0.337646,-0.90918,-0.085938,-9.384155,-10.276793,3.570556,0.973652111156752
-0.338623,-0.908203,-0.085938,-8.81958,-11.383056,2.807617,0.9730794238817302
-0.338623,-0.906494,-0.090088,-8.491516,-12.161254,1.976013,0.971860461130609
-0.341797,-0.902588,-0.092773,-7.949829,-12.428283,0.938415,0.9695860541911687
-0.345215,-0.902832,-0.094727,-7.209777,-12.245177,0.038147,0.9712117281921588
-0.3479,-0.901367,-0.098389,-6.622314,-11.45172,-0.717163,0.9711731431675816
-0.345703,-0.901855,-0.099854,-5.737304,-10.513305,-1.846313,0.970991156782594
-0.344482,-0.90918,-0.107666,-4.989624,-9.407043,-3.14331,0.9781963444421575
-0.348633,-0.91626,-0.116211,-4.425049,-8.712769,-4.432678,0.987209376378689
-0.356201,-0.924072,-0.121094,-3.608703,-8.125305,-4.936218,0.9977233937424741
-0.365967,-0.929443,-0.126953,-2.952575,-7.766723,-5.371093,1.0069325695134705
-0.372803,-0.937988,-0.12793,-2.555847,-7.896423,-5.798339,1.0174328724063324
-0.381592,-0.945313,-0.129883,-2.243042,-8.087158,-5.737304,1.0276666366687204
-0.391602,-0.94165,-0.134033,-2.296448,-7.896423,-5.187988,1.0286018150834657
-0.395264,-0.938477,-0.133789,-2.433777,-6.942749,-4.379272,1.0270697180552057
-0.39209,-0.932129,-0.135498,-2.464294,-5.630493,-3.509521,1.020273859679351
-0.387939,-0.925537,-0.136963,-2.693176,-4.28009,-2.449036,1.0128545154458264
-0.379883,-0.916992,-0.137207,-2.822876,-3.013611,-1.411438,1.0020035841263244
-0.380615,-0.911621,-0.133545,-2.967834,-1.922607,-0.541687,0.9968725559924899
-0.377686,-0.90625,-0.132813,-3.219604,-1.060486,-0.030518,0.9907447047877672
-0.375488,-0.905518,-0.131836,-3.227234,-0.228882,0.37384,0.9891080918504308
-0.374023,-0.901611,-0.128906,-3.227234,-0.160217,0.732422,0.984587404289736
-0.376709,-0.905518,-0.126709,-3.829956,-0.534058,0.740051,0.9889022649817323
-0.376709,-0.901367,-0.121826,-4.310608,-0.823975,0.709534,0.9844865228361432
-0.380615,-0.9021,-0.114258,-4.081726,-0.770569,0.991821,0.9857520371721278
-0.383545,-0.904053,-0.109375,-4.104614,-0.50354,0.900268,0.9881201771338343
-0.380859,-0.905273,-0.10498,-4.081726,-0.183105,0.846863,0.9877214095128241
-0.378662,-0.903076,-0.10498,-3.799438,0.350952,0.87738,0.984861397568206
-0.37915,-0.905762,-0.102051,-3.700256,0.679016,0.900268,0.9872051102709102
-0.376953,-0.907227,-0.0979,-3.356933,1.083374,1.12915,0.9872886121788299
-0.374512,-0.911865,-0.10083,-2.944946,2.082825,1.327515,0.9909206352019319
-0.37085,-0.919189,-0.102295,-2.616882,3.059387,1.167297,0.9964448841988202
-0.364502,-0.926025,-0.101807,-2.250671,3.852844,1.274109,1.0003742669011433
-0.364502,-0.931152,-0.102295,-1.907349,4.478455,1.38855,1.0051716381459437
-0.362305,-0.932373,-0.105957,-1.876831,5.1651,1.220703,1.0058882691447395
-0.358887,-0.932373,-0.109375,-1.304626,6.278991,1.121521,1.0050284476187727
-0.354248,-0.935059,-0.115479,-0.762939,7.156372,0.968933,1.0065596745479126
-0.346191,-0.937744,-0.123047,-0.404358,7.514953,0.732422,1.0071507246812663
-0.342529,-0.938721,-0.127686,-0.076294,7.621765,0.473022,1.0073861951992393
-0.341553,-0.937988,-0.134277,0.053406,7.583618,0.068665,1.0072289971411665
-0.340332,-0.939209,-0.138916,0.190735,7.5531,-0.236511,1.0085817125850538
-0.3396,-0.945557,-0.14209,0.068665,7.316589,-0.549316,1.01468998632538
-0.341064,-0.949463,-0.14209,-0.190735,6.553649,-1.00708,1.018820007933197
-0.344727,-0.947754,-0.144287,-0.541687,5.317688,-1.365662,1.0187703801220371
-0.35083,-0.946533,-0.14502,-1.167297,3.77655,-1.518249,1.0198221459592842
-0.361816,-0.943604,-0.13916,-1.808166,2.26593,-1.434326,1.0201298114808723
-0.365479,-0.940918,-0.138184,-2.159119,1.327515,-1.045227,1.0188210834199496
-0.370117,-0.941895,-0.137207,-2.326965,1.281738,-0.556946,1.0212632107165125
-0.370117,-0.934326,-0.133057,-2.563476,1.312256,-0.205994,1.013733610577256
-0.369141,-0.927246,-0.131104,-2.525329,1.396179,0.526428,1.0065974772534452
-0.373047,-0.919922,-0.128662,-2.906799,1.266479,1.106262,1.0009867434371946
-0.370605,-0.912354,-0.127197,-2.784729,1.594543,1.731872,0.9929335144660997
-0.367432,-0.90918,-0.127686,-2.258301,2.250671,1.899719,0.9888974980350592
-0.366211,-0.909668,-0.122314,-1.716614,2.799988,1.754761,0.9882140867954676
-0.363281,-0.907471,-0.122559,-1.319885,3.547668,1.655578,0.9851382691191121
-0.362061,-0.905762,-0.122803,-0.602722,4.554749,1.525879,0.9831447223954365
-0.358154,-0.907715,-0.124268,0.091553,5.470275,0.823975,0.9836988079513973
-0.35791,-0.90918,-0.121582,0.854492,6.576538,0.198364,0.9846268446594375
-0.355225,-0.909668,-0.125,1.663208,7.949829,-0.556946,0.9845332248578511
-0.355713,-0.911865,-0.128418,2.403259,9.315491,-1.548767,0.9871781497369155
-0.352295,-0.917969,-0.126953,2.929687,10.45227,-2.586365,0.9914110732662815
-0.351807,-0.922119,-0.12915,3.250122,11.238097,-3.700256,0.9953649270041617
-0.351563,-0.924805,-0.132324,3.623962,11.550902,-4.585266,0.9981835863056455
-0.348145,-0.929932,-0.135986,3.868103,11.657714,-5.439758,1.0022328361438773
-0.347412,-0.935059,-0.135254,3.799438,11.398314,-5.943298,1.0066399931162082
-0.345215,-0.931641,-0.135498,3.570556,11.001586,-6.034851,1.002740274004191
-0.345703,-0.927734,-0.137939,3.295898,10.643004,-5.91278,0.9996139788368307
-0.346191,-0.927734,-0.138184,3.166198,10.467528,-5.622863,0.9998166837440751
-0.343262,-0.928955,-0.138428,3.219604,10.231017,-5.149841,0.9999742515950099
-0.343506,-0.925293,-0.137695,3.15094,10.108947,-4.486084,0.9965557791262866
-0.344238,-0.921143,-0.13916,2.929687,9.963989,-3.807068,0.9931614836938654
-0.341309,-0.924072,-0.141113,2.975464,9.910583,-3.120422,0.9951451016982398
-0.336914,-0.925049,-0.138672,2.685547,9.857178,-2.578735,0.9942115566523052
-0.3396,-0.92627,-0.138672,2.632141,9.895325,-1.899719,0.996260104834074
-0.337891,-0.930908,-0.139404,2.685547,9.712219,-1.495361,1.0000967491003059
-0.328613,-0.931641,-0.133301,2.593994,8.628845,-0.785828,0.9968503464668105
-0.329102,-0.929199,-0.128662,2.304077,6.698608,0.045776,0.9941191167304851
-0.330811,-0.928223,-0.12793,1.869202,4.981995,0.617981,0.9936799989684808
-0.333984,-0.92627,-0.129395,1.876831,4.264832,1.319885,0.9931084991988539
-0.335449,-0.924316,-0.131348,2.075195,3.829956,1.853943,0.99203749755793
-0.334961,-0.921387,-0.134521,2.433777,3.555298,2.372742,0.9895699948619097
-0.33667,-0.921875,-0.132324,2.410889,3.158569,2.548218,0.9903079548812077
-0.334717,-0.919678,-0.130615,2.075195,2.403259,2.510071,0.9873719522034237
-0.335205,-0.912842,-0.128174,2.052307,2.357483,2.578735,0.9808524268538056
-0.335938,-0.903076,-0.128906,2.151489,3.189087,2.319336,0.9721200329465491
-0.336426,-0.895752,-0.12793,2.548218,4.577637,1.823425,0.965360131702154
-0.335449,-0.890381,-0.130127,3.089905,6.523132,1.411438,0.9603319180840549
-0.332764,-0.88916,-0.129883,3.555298,8.491516,1.068115,0.9582311719960898
-0.331543,-0.893066,-0.133057,3.89862,9.544373,0.686645,0.9618689133421456
-0.330811,-0.895752,-0.134521,3.921509,9.613037,0.38147,0.9643150225242786
-0.334473,-0.900635,-0.136719,3.684997,8.773804,0.030518,0.9704162384848061
-0.338623,-0.908447,-0.13501,3.005981,7.141113,0.007629,0.9788611689294862
-0.342773,-0.911865,-0.134521,2.14386,5.088806,0.144958,0.9834058201958132
-0.346191,-0.916504,-0.133545,1.419067,3.387451,0.389099,0.9887679492793039
-0.353271,-0.922363,-0.128662,0.793457,2.159119,0.541687,0.9960460900249546
-0.357422,-0.92749,-0.127686,0.312805,1.647949,0.801086,1.0021436527664087
-0.357178,-0.930176,-0.127441,0.114441,2.006531,1.25885,1.004512181678749
-0.35791,-0.932129,-0.12915,-0.091553,2.479553,1.51062,1.0067987699838534
-0.352539,-0.931396,-0.126221,-0.091553,2.6474,1.960754,1.0038495884234848
-0.349365,-0.932617,-0.124268,-0.152588,2.761841,2.563476,1.0036298659057532
-0.349365,-0.937012,-0.125977,-0.038147,2.662658,2.922058,1.0079273763014873
-0.3479,-0.936279,-0.126953,-0.061035,2.487183,3.265381,1.0068613807520874
-0.346436,-0.932373,-0.126953,0.061035,2.6474,3.64685,1.0027234800452216
-0.343262,-0.933594,-0.12915,0.411987,2.807617,3.883362,1.0030484933341957
-0.338867,-0.937256,-0.131104,0.366211,2.807617,3.913879,1.0052203300973372
-0.335205,-0.938721,-0.129883,0.144958,2.494812,4.074097,1.005201025444662
-0.334473,-0.937012,-0.129639,0.061035,2.27356,4.119873,1.003329430543129
-0.332031,-0.937012,-0.134277,0.076294,2.258301,3.921509,1.0031282997872206
-0.32666,-0.935547,-0.135498,0.221252,2.288818,3.677368,1.0001573140326476
-0.328857,-0.93457,-0.137695,0.022888,2.082825,3.425598,1.0002639273581748
-0.339111,-0.936035,-0.139404,-0.320435,1.861572,3.364563,1.0052816852812947
-0.338623,-0.93335,-0.142334,-0.37384,2.067566,3.27301,1.0030287763494126
-0.329346,-0.932129,-0.141602,-0.198364,2.479553,2.746582,0.9986913370811824
-0.330566,-0.937012,-0.138916,-0.045776,2.197266,1.647949,1.0032761452142676
-0.331055,-0.937256,-0.137207,-0.1297,1.594543,0.793457,1.0034301088815305
-0.333008,-0.935059,-0.135986,-0.213623,1.106262,0.473022,1.0018591985608556
-0.338379,-0.936768,-0.136475,0.144958,0.617981,0.061035,1.0053159001478094
-0.335449,-0.936279,-0.133545,0.350952,0.1297,-0.198364,1.0034832656636583
-0.343506,-0.937256,-0.131104,0.297546,-0.526428,-0.434875,1.0067936433986857
-0.359375,-0.935303,-0.13208,0.038147,-0.854492,-0.801086,1.010637036147993
-0.359375,-0.932373,-0.131836,0.259399,0.289917,-0.465393,1.0078941078555823
-0.348633,-0.931885,-0.128662,0.640869,1.792908,-0.610352,1.0032489881171074
-0.344482,-0.932617,-0.123047,0.663757,1.937866,-1.235962,1.0017898388494466
-0.342041,-0.930908,-0.124023,0.427246,1.373291,-1.426697,0.9994815929640726
-0.344238,-0.928711,-0.125488,0.259399,0.389099,-1.396179,0.9983742586370102
-0.353516,-0.928223,-0.124023,0.022888,-0.572205,-1.037598,1.0009761258461662
-0.35083,-0.929688,-0.127197,-0.068665,-0.770569,-0.732422,1.0017886718530011
-0.349854,-0.930176,-0.123779,-0.1297,-1.174927,-1.068115,1.0014721429640467
-0.348633,-0.93335,-0.11792,-0.62561,-2.380371,-1.045227,1.0032907442954908
-0.355469,-0.932861,-0.12207,-1.335144,-3.189087,-0.991821,1.0057280647282347
-0.355225,-0.928467,-0.121826,-1.327515,-3.334045,-0.999451,1.0015374905563945
-0.351074,-0.928223,-0.116455,-0.968933,-2.998352,-1.00708,0.9992060139080429
-0.355469,-0.931885,-0.117432,-0.968933,-2.89154,-1.106262,1.0042699526571528
-0.356445,-0.932373,-0.120361,-0.946045,-2.983093,-0.984192,1.0054149489016961
-0.347656,-0.929932,-0.11792,-0.778198,-3.005981,-0.846863,0.999771646607364
-0.343018,-0.928711,-0.117432,-0.640869,-3.593445,-1.083374,0.996973291753094
-0.347656,-0.928467,-0.116699,-0.87738,-4.03595,-1.457214,0.9982656565393804
-0.347412,-0.926758,-0.114746,-0.831604,-3.623962,-1.693725,0.9963644578285598
-0.338135,-0.924316,-0.119385,-0.434875,-2.960205,-1.998901,0.9914374031203382
-0.334961,-0.924561,-0.125,-0.38147,-3.067016,-2.296448,0.9912804417731644
-0.336182,-0.924561,-0.129639,-0.411987,-3.532409,-2.479553,0.992289096063239
-0.336426,-0.921875,-0.128906,-0.198364,-3.845215,-2.578735,0.9897740782304818
-0.333496,-0.917725,-0.126953,0.007629,-4.15802,-2.89154,0.9846602570683962
-0.33667,-0.920166,-0.129395,-0.091553,-4.592896,-3.227234,0.9883295110847394
-0.340332,-0.919678,-0.130615,-0.068665,-4.905701,-3.578186,0.9892895289716758
-0.342529,-0.921387,-0.135742,0.175476,-4.829407,-3.761291,0.9923235410761955
-0.342285,-0.922607,-0.137451,0.350952,-4.646301,-3.852844,0.9936073042580756
-0.343018,-0.928223,-0.136475,0.343323,-4.837036,-3.90625,0.9989417959410849
-0.34668,-0.929688,-0.135254,0.259399,-5.310058,-3.875732,1.0013992431892487
-0.347168,-0.933105,-0.133545,0.022888,-6.065368,-3.837585,1.0045122340091235
-0.347656,-0.935791,-0.131836,-0.205994,-6.965637,-3.730774,1.0069509525855767
-0.349121,-0.932373,-0.133545,-0.434875,-7.705688,-3.463745,1.0045094080171675
-0.351074,-0.927002,-0.133301,-0.602722,-8.262634,-3.387451,1.0001773933063074
-0.351807,-0.922852,-0.134521,-0.602722,-8.529663,-3.219604,0.9967546732240588
-0.353271,-0.917969,-0.135986,-0.564575,-8.636475,-2.975464,0.9929550224446221
-0.356934,-0.914307,-0.135742,-0.480652,-8.850098,-2.677917,0.9908506755152362
-0.35498,-0.911377,-0.135254,-0.404358,-8.956909,-2.26593,0.9873765649664772
-0.36084,-0.908203,-0.134033,-0.534058,-8.903503,-2.304077,0.986409164544815
-0.364014,-0.914063,-0.133545,-0.488281,-8.575439,-2.159119,0.9929006129467339
-0.366943,-0.916504,-0.133057,-0.396728,-7.728576,-2.227783,0.9961580760672475
-0.364746,-0.917969,-0.132324,-0.274658,-6.507873,-2.326965,0.9966024134292472
-0.366455,-0.917236,-0.133301,-0.015259,-5.134582,-2.388,0.9966846559077751
-0.366211,-0.918457,-0.134277,0.213623,-4.173279,-2.578735,0.9978497232043511
-0.365234,-0.92041,-0.140625,0.228882,-3.509521,-2.532959,1.0001629034717294
-0.362549,-0.92041,-0.14502,0.152588,-3.013611,-2.5177,0.9998135555697372
-0.358887,-0.923584,-0.144287,0.167847,-2.929687,-2.525329,1.0013121502278897
-0.362061,-0.924316,-0.14502,-0.068665,-3.40271,-2.319336,1.0032342876801013
-0.359375,-0.923828,-0.144531,-0.419617,-4.150391,-2.01416,1.0017473604507277
-0.358887,-0.919434,-0.14502,-0.831604,-4.78363,-1.64032,0.9975918802421159
-0.36084,-0.916748,-0.147217,-1.029968,-5.043029,-1.13678,0.9961451933292657
-0.36377,-0.914307,-0.14502,-1.060486,-4.585266,-0.747681,0.9946440084517677
-0.364258,-0.914551,-0.14209,-1.037598,-3.868103,-0.297546,0.9946240446847241
-0.362549,-0.91748,-0.143066,-1.098633,-3.257751,0.236511,0.9968345941815021
-0.362061,-0.918457,-0.141113,-1.266479,-2.738952,0.50354,0.9972784502529872
-0.358154,-0.925537,-0.137695,-1.502991,-2.525329,0.778198,1.0019246174787804
-0.360596,-0.927246,-0.138672,-1.495361,-2.365112,1.022339,1.0045120921701243
-0.363037,-0.93042,-0.13916,-1.541138,-1.968384,0.823975,1.008386208438513
-0.358398,-0.929199,-0.136963,-1.525879,-1.64032,0.663757,1.005295365240485
-0.355225,-0.929688,-0.137207,-1.457214,-1.464844,0.610352,1.0046543379779933
-0.35498,-0.928711,-0.139893,-1.708984,-1.457214,0.495911,1.0040343487002823
-0.351074,-0.927002,-0.139404,-1.64032,-1.365662,0.457764,1.0010090592477172
-0.351074,-0.925293,-0.136719,-1.434326,-1.022339,0.587463,0.9990556412362627
-0.348145,-0.924072,-0.138428,-1.38855,-0.62561,0.564575,0.9971340498614015
-0.344727,-0.925537,-0.13916,-1.235962,-0.480652,0.62561,0.9974071127167683
-0.34375,-0.924316,-0.137451,-1.12915,-0.50354,0.724792,0.9956992054616696
-0.344727,-0.921875,-0.141357,-1.144409,-0.526428,0.778198,0.9943198789137225
-0.345703,-0.91748,-0.142334,-0.953674,-0.190735,0.701904,0.9907265425762044
-0.344727,-0.914063,-0.141602,-0.938415,-0.076294,0.579834,0.9871165072583884
-0.341553,-0.9104,-0.138184,-0.823975,-0.083923,0.740051,0.9821310654210058
-0.344727,-0.906006,-0.140381,-0.686645,-0.205994,0.770569,0.9794847633965522
-0.344971,-0.901611,-0.140381,-1.060486,-0.709534,0.717163,0.9755071559568387
-0.349121,-0.904785,-0.140625,-1.25885,-1.182556,1.121521,0.9799473248552699
-0.356201,-0.908447,-0.139648,-1.38855,-1.625061,1.579285,0.9857264671875257
-0.361328,-0.913818,-0.141602,-1.502991,-1.838684,2.02179,0.9928103480081178
-0.367188,-0.921387,-0.141846,-1.335144,-2.01416,2.532959,1.0019487605805997
-0.367676,-0.932129,-0.140625,-1.319885,-2.571106,2.89917,1.0118426281996622
-0.371826,-0.938965,-0.143555,-1.525879,-3.639221,3.311157,1.0200577844053738
-0.376953,-0.941895,-0.143066,-1.647949,-4.333496,3.90625,1.0245621677526455
-0.381836,-0.940674,-0.143066,-1.594543,-4.493713,4.310608,1.0252483530969458
-0.381836,-0.93457,-0.148438,-1.304626,-4.112244,4.760742,1.0204183728451777
-0.381104,-0.933594,-0.155029,-0.984192,-3.997802,5.081176,1.0202313494952997
-0.383545,-0.931396,-0.152832,-1.220703,-3.494262,5.592346,1.0188046407751585
-0.380371,-0.92627,-0.158691,-1.167297,-2.441406,6.378173,1.013824957288979
-0.374023,-0.920898,-0.162109,-0.778198,-0.785828,6.286621,1.0070877115792845
-0.368408,-0.915771,-0.170166,-0.495911,0.808716,6.16455,1.0016573498262766
-0.361816,-0.906738,-0.173096,-0.205994,2.182007,6.324768,0.9914871878728438
-0.356201,-0.902832,-0.178467,0.053406,3.128052,5.981445,0.9868309088764903
-0.358154,-0.900146,-0.177002,0.25177,3.723144,5.523681,0.9848181644527075
-0.358643,-0.894287,-0.171631,0.366211,4.196167,5.004883,0.9786885306260619
-0.360596,-0.896729,-0.165039,0.50354,4.760742,4.547119,0.9805050974768056
-0.36499,-0.899902,-0.157715,0.587463,5.241394,3.684997,0.983826880568426
-0.365479,-0.900391,-0.151367,0.778198,5.889892,2.799988,0.9834586015745655
-0.369385,-0.902832,-0.146729,0.991821,6.645202,2.044678,0.9864483249973107
-0.374023,-0.906982,-0.14209,1.190186,7.369995,1.434326,0.9913118182252242
-0.375732,-0.909912,-0.134521,1.533508,7.820129,1.274109,0.9935845625858929
-0.372803,-0.914551,-0.128662,1.647949,8.171082,1.281738,0.9959616050099521
-0.374756,-0.919922,-0.121826,1.533508,8.338928,1.190186,1.0007697636799386
-0.378174,-0.924805,-0.118652,1.64032,8.31604,1.121521,1.0061601062480066
-0.379883,-0.930176,-0.114258,1.625061,8.384705,1.342773,1.0112335908329984
-0.378418,-0.933838,-0.111816,1.541138,8.506775,1.449585,1.0137832168782435
-0.373779,-0.934082,-0.117188,1.403808,8.644104,1.586914,1.012893356138246
-0.368896,-0.935303,-0.120117,1.167297,8.628845,1.808166,1.0125729871540126
-0.363037,-0.932617,-0.120117,1.144409,8.293152,2.227783,1.0079674725639711
-0.355957,-0.931396,-0.121826,1.083374,7.530212,2.63977,1.0045125529036458
-0.354492,-0.929932,-0.121826,0.946045,6.92749,2.937317,1.0026363632763375
-0.349854,-0.929688,-0.120605,0.976562,6.401062,3.181457,1.000631383020241
-0.347412,-0.92749,-0.121582,1.060486,5.867004,3.105163,0.9978551901794168
-0.346924,-0.927246,-0.121338,1.159668,5.462646,2.929687,0.997428852869216
-0.343506,-0.92627,-0.121338,1.235962,5.241394,2.716064,0.9953368249894103
-0.341309,-0.922363,-0.123291,1.220703,4.928589,2.304077,0.9911841443097241
-0.3396,-0.919922,-0.126953,1.350403,4.631042,1.808166,0.9887880006821483
-0.338623,-0.920654,-0.126465,1.319885,4.112244,1.289368,0.989071645569723
-0.341797,-0.922607,-0.125977,1.220703,3.479004,0.762939,0.9919168665704803
-0.345215,-0.922119,-0.127686,1.106262,2.670288,0.396728,0.992864825130793
-0.346191,-0.921143,-0.130615,0.900268,1.899719,0.061035,0.992679662909944
-0.346436,-0.922852,-0.130371,0.75531,1.167297,-0.236511,0.9943190200539263
-0.351807,-0.925537,-0.133057,0.617981,0.648498,-0.602722,0.9990450784959607
-0.356445,-0.932129,-0.132813,0.63324,0.053406,-0.869751,1.0067555828675598
-0.361328,-0.931641,-0.13501,0.320435,-0.526428,-0.846863,1.0083355476055578
-0.360596,-0.928467,-0.142822,-0.198364,-1.335144,-0.686645,1.0062199406635708
-0.365479,-0.928711,-0.143555,-0.37384,-2.319336,-0.396728,1.00830900967263
-0.373047,-0.927979,-0.136719,-0.350952,-3.356933,0.045776,1.009455879972473
-0.384277,-0.929443,-0.13208,-0.366211,-3.585815,0.686645,1.0143856413504677
-0.388428,-0.930176,-0.131348,-0.511169,-2.220154,0.62561,1.0165411940811842
-0.375244,-0.925049,-0.136719,-0.343323,-0.091553,0.488281,1.0075791764908602
-0.363525,-0.922852,-0.142334,-0.099182,0.892639,0.320435,1.0020305419921092
-0.359131,-0.919922,-0.144531,-0.366211,0.007629,0.183105,0.9980585008936099
-0.367432,-0.917969,-0.140869,-0.778198,-1.548767,0.366211,0.9987579460239603
-0.372803,-0.9104,-0.141846,-0.976562,-2.288818,0.366211,0.9939469425100115
-0.371582,-0.907715,-0.140137,-0.732422,-2.39563,0.282288,0.9907865979705217
-0.37207,-0.908691,-0.134277,-0.534058,-2.311707,0.175476,0.9910528397164301
-0.377441,-0.909424,-0.130371,-0.38147,-1.89209,-0.045776,0.9932322577816329
-0.379883,-0.910156,-0.128174,-0.205994,-1.060486,-0.297546,0.994546938209052
-0.376221,-0.911377,-0.124023,0.099182,-0.549316,-0.511169,0.9937464372258147
-0.375488,-0.913086,-0.123291,0.244141,-0.427246,-0.404358,0.9949462056920463
-0.378662,-0.916992,-0.125488,0.259399,-0.541687,-0.343323,1.0000032382207569
-0.379395,-0.918701,-0.13208,0.358582,-0.556946,-0.190735,1.002694978458554
-0.378662,-0.924316,-0.133789,0.335693,-0.717163,-0.091553,1.007791880608789
-0.378906,-0.925781,-0.13501,0.236511,-0.808716,0.091553,1.0093898735855238
-0.37915,-0.924805,-0.138428,0.022888,-0.602722,0.038147,1.0090497122089674
-0.375732,-0.922607,-0.143555,0.366211,-0.152588,0.091553,1.0064721805882166
-0.368408,-0.922852,-0.144287,0.663757,-0.091553,0.335693,1.0040911346770272
-0.366943,-0.92041,-0.143311,0.511169,-0.534058,0.534058,1.0011692045154006
-0.369141,-0.918457,-0.142334,0.366211,-1.144409,0.579834,1.0000436521902432
-0.368164,-0.916992,-0.147461,0.236511,-1.487732,0.679016,0.9990814809018332
-0.369141,-0.916504,-0.143066,0.030518,-1.419067,0.595093,0.9983549169774244
-0.369141,-0.914307,-0.141357,-0.007629,-1.152039,0.572205,0.9960944581609718
-0.371338,-0.915527,-0.144287,-0.061035,-1.106262,0.511169,0.9984489653167056
-0.37207,-0.916016,-0.144775,0.083923,-0.88501,0.343323,0.9992403103262999
-0.375244,-0.919678,-0.144775,0.213623,-0.656128,0.099182,1.0037805954714407
-0.37793,-0.920166,-0.143555,0.320435,-0.442505,-0.099182,1.0050594959906602
-0.378418,-0.921875,-0.141113,0.389099,-0.396728,-0.328064,1.0064624072055548
-0.378906,-0.921631,-0.139893,0.465393,-0.442505,-0.396728,1.0062522091632893
-0.380615,-0.918213,-0.14209,0.511169,-0.343323,-0.366211,1.0040779151510104
-0.382324,-0.915771,-0.142334,0.526428,0.0,-0.411987,1.0025303651126982
-0.385254,-0.918945,-0.142578,0.732422,0.640869,-0.312805,1.0065828548236853
-0.387451,-0.918945,-0.145996,0.961304,1.472473,-0.198364,1.0079151861352225
-0.387451,-0.91626,-0.146729,1.289368,2.204895,-0.106812,1.005574494725279
-0.382324,-0.916992,-0.146729,1.358032,2.761841,0.068665,1.004278531325349
-0.380371,-0.915771,-0.145508,1.396179,2.914428,0.038147,1.0022430843592787
-0.380127,-0.916016,-0.142334,1.281738,2.784729,0.038147,1.001918567519836
-0.379639,-0.914063,-0.143311,1.342773,2.662658,-0.12207,1.0000874866785405
-0.381104,-0.912109,-0.140625,1.38855,2.807617,-0.282288,0.998478080541581
-0.38501,-0.912598,-0.141357,1.472473,3.181457,-0.450134,1.0005246679382773
-0.385986,-0.914551,-0.141602,1.533508,3.64685,-0.511169,1.00271623613114
-0.382324,-0.915283,-0.139893,1.731872,4.173279,-0.442505,1.0017408160367631
-0.38208,-0.913818,-0.140625,1.678467,4.364014,-0.488281,1.0004118422674733
-0.382324,-0.912842,-0.141113,1.731872,4.53186,-0.457764,0.9996824679411959
-0.38208,-0.913818,-0.142334,1.693725,4.707336,-0.282288,1.000653502007563
-0.378906,-0.917236,-0.140381,1.655578,4.852295,-0.12207,1.0022965936752455
-0.376709,-0.919189,-0.137939,1.617432,4.959106,-0.053406,1.002918369620878
-0.375977,-0.920654,-0.135254,1.579285,5.050659,0.061035,1.0036215107105866
-0.375488,-0.922119,-0.137939,1.571655,5.027771,0.022888,1.005147678714924
-0.373291,-0.92041,-0.135498,1.609802,5.081176,-0.053406,1.002427277554337
-0.369873,-0.916016,-0.138672,1.792908,5.249023,-0.053406,0.99755765345618
-0.368896,-0.912598,-0.137451,1.930237,5.126953,0.030518,0.9938873909155906
-0.367432,-0.915527,-0.135254,1.907349,4.997253,0.007629,0.995735711355679
-0.366455,-0.918701,-0.133789,1.968384,4.981995,-0.076294,0.9980983373130125
-0.366455,-0.916992,-0.134766,1.968384,4.959106,-0.183105,0.9966571475913871
-0.365723,-0.917236,-0.137207,1.945495,4.768372,-0.297546,0.9969458126066834
-0.365479,-0.915527,-0.137451,1.968384,4.615784,-0.335693,0.9953177204144413
-0.367432,-0.916992,-0.137695,1.808166,4.40979,-0.335693,0.9974169217097733
-0.369385,-0.916748,-0.138672,1.686096,4.104614,-0.244141,0.9980491457403288
-0.368652,-0.916504,-0.137207,1.63269,3.852844,-0.198364,0.9973513122109982
-0.370361,-0.917236,-0.137695,1.426697,3.410339,-0.221252,0.9987237170719439
-0.370117,-0.919678,-0.136475,1.190186,3.005981,-0.183105,1.0007095697543817
-0.375488,-0.920654,-0.13623,1.091003,2.670288,-0.190735,1.003570445340037
-0.377686,-0.922363,-0.137207,1.052856,2.555847,-0.175476,1.006094418637734
-0.374268,-0.924561,-0.135742,0.938415,2.464294,-0.137329,1.00663571817664
-0.375732,-0.92334,-0.137207,0.862122,2.235413,-0.198364,1.0062589389779353
-0.375977,-0.923096,-0.136963,0.808716,2.319336,-0.282288,1.0060933322082997
-0.375244,-0.922607,-0.13623,0.823975,2.372742,-0.213623,1.0052712812395468
-0.373291,-0.92334,-0.135986,0.839233,2.456665,-0.167847,1.005184121679705
-0.375488,-0.921875,-0.137939,0.740051,2.418518,-0.183105,1.0049238386514672
-0.374512,-0.917725,-0.13916,0.778198,2.449036,-0.198364,1.0009215350710565
-0.371094,-0.91748,-0.140625,0.679016,2.487183,-0.076294,0.9996277796565078
-0.373047,-0.919678,-0.142334,0.587463,2.426147,0.015259,1.0026119166701541
-0.373047,-0.916992,-0.142822,0.488281,2.281189,0.152588,1.0002182341654247
-0.37207,-0.913818,-0.142578,0.358582,2.128601,0.228882,0.9969091774620193
-0.369385,-0.915039,-0.142334,0.244141,1.960754,0.389099,0.9969957960302541
-0.366699,-0.915527,-0.141602,0.267029,1.876831,0.572205,0.9963478161435393
-0.366211,-0.914795,-0.138672,0.198364,1.716614,0.732422,0.9950830679546306
-0.36792,-0.915039,-0.13916,0.099182,1.655578,0.717163,0.9960055238406061
-0.366699,-0.918213,-0.135986,0.007629,1.403808,0.62561,0.998035802046199
-0.365967,-0.918701,-0.13501,0.053406,1.213074,0.450134,0.9980837001925239
-0.367432,-0.918945,-0.133789,0.114441,1.228333,0.328064,0.9986819734880569
-0.368896,-0.916016,-0.134766,0.160217,1.274109,0.175476,0.9966601456002944
-0.369629,-0.916504,-0.134277,0.25177,1.235962,0.045776,0.997314139269067
-0.369629,-0.917969,-0.135986,0.305176,1.243591,-0.068665,0.9988918233712798
-0.369873,-0.917725,-0.135742,0.366211,1.296997,-0.022888,0.9987247380124316
-0.367676,-0.916016,-0.134033,0.518799,1.289368,-0.274658,0.9961103344113041
-0.373291,-0.91748,-0.137451,0.411987,1.083374,-0.595093,1.000004249231972
-0.37207,-0.916504,-0.136475,0.427246,0.854492,-0.480652,0.9985194502567288
-0.374268,-0.917969,-0.133789,0.534058,0.862122,-0.480652,1.0003215069696343
-0.374756,-0.915771,-0.136963,0.442505,0.823975,-0.88501,0.998918138460805
-0.374512,-0.914795,-0.142822,0.556946,0.915527,-1.00708,0.9987528492339834
-0.372559,-0.918457,-0.143799,0.511169,0.770569,-0.892639,1.001519656188035
-0.370117,-0.918457,-0.145264,0.419617,0.411987,-0.762939,1.0008254014732039
-0.374756,-0.917969,-0.142334,0.282288,-0.015259,-0.671387,1.0016826403871637
-0.375244,-0.91333,-0.143311,0.114441,-0.465393,-0.587463,0.9977563786601417
-0.373291,-0.912842,-0.141113,0.015259,-0.587463,-0.167847,0.9962627998746114
-0.374268,-0.91333,-0.140869,0.083923,-0.617981,-0.068665,0.9970417743931294
-0.376221,-0.91333,-0.140869,0.137329,-0.541687,0.022888,0.9977765305427864
-0.374023,-0.913086,-0.140625,0.244141,-0.267029,0.297546,0.9966918473379823
-0.371582,-0.912109,-0.140137,0.404358,-0.038147,0.419617,0.9948137460720976
-0.370605,-0.912598,-0.139404,0.465393,-0.350952,0.457764,0.9947947782557969
-0.370605,-0.912842,-0.136719,0.335693,-0.648498,0.404358,0.9946460013240893
-0.370361,-0.9104,-0.13501,0.259399,-0.823975,0.144958,0.9920802036231747
-0.372314,-0.909912,-0.135254,0.350952,-0.862122,-0.068665,0.9923966983298564
-0.373779,-0.912842,-0.13623,0.534058,-0.701904,-0.427246,0.9957659718553351
-0.378662,-0.914063,-0.137939,0.671387,-0.679016,-0.724792,0.998961083293038
-0.378174,-0.913086,-0.137939,0.556946,-0.846863,-0.808716,0.9978821500522994
-0.380371,-0.914551,-0.140137,0.701904,-0.915527,-0.816345,1.000361938505759
-0.382324,-0.916992,-0.141602,0.617981,-0.961304,-0.617981,1.0035422738699153
-0.380127,-0.915283,-0.142822,0.495911,-0.793457,-0.50354,1.0013179464595647
-0.380371,-0.914551,-0.141602,0.617981,-0.389099,-0.312805,1.0005682163880683
-0.381348,-0.91333,-0.140869,0.793457,0.114441,-0.198364,0.999720991659673
-0.37915,-0.918213,-0.141846,0.793457,0.610352,-0.099182,1.0034889753181147
-0.378662,-0.921143,-0.140381,0.930786,0.892639,-0.083923,1.0057813688143165
-0.376709,-0.921143,-0.144287,1.075745,1.014709,-0.167847,1.0056007336408421
-0.377197,-0.920166,-0.144531,1.113892,1.052856,-0.236511,1.004924004254053
-0.374512,-0.921143,-0.142822,1.083374,0.915527,-0.25177,1.0045704496335734
-0.373779,-0.925537,-0.141113,1.167297,0.602722,-0.343323,1.0080884673375645
-0.373535,-0.926758,-0.141113,1.037598,0.534058,-0.228882,1.009119252396861
-0.374023,-0.921631,-0.142578,1.152039,0.87738,-0.175476,1.004801169771413
-0.367676,-0.914795,-0.144775,1.228333,1.190186,0.053406,0.9964915120692198
-0.363525,-0.911133,-0.145752,1.296997,1.121521,0.305176,0.9917446318574151
-0.360596,-0.908936,-0.147461,1.235962,1.022339,0.587463,0.9889079197948614
-0.358398,-0.907227,-0.145264,1.152039,0.938415,0.854492,0.986210720702731
-0.35498,-0.90332,-0.14502,1.13678,0.808716,1.098633,0.9813402178653436
-0.348633,-0.901123,-0.147461,1.060486,0.602722,1.228333,0.9774008268561062
-0.348145,-0.900635,-0.148438,0.862122,0.595093,1.274109,0.9769248610277046
-0.350586,-0.903076,-0.150635,0.617981,0.839233,1.228333,0.9803814096549363
-0.353271,-0.907471,-0.156982,0.434875,1.335144,1.159668,0.9863809424385692
-0.351074,-0.916748,-0.162354,0.495911,1.670837,1.091003,0.995006869471764
-0.350098,-0.927979,-0.164063,0.267029,1.091003,1.38855,1.005301100175465
-0.351318,-0.93457,-0.16748,-0.457764,-0.38147,1.808166,1.0123709658144093
-0.354492,-0.936035,-0.16626,-1.029968,-2.128601,2.334595,1.0146272650037549
-0.356201,-0.933105,-0.165283,-1.441955,-3.768921,3.044128,1.0123648371585214
-0.356934,-0.928711,-0.169922,-1.785278,-5.081176,4.03595,1.009346069473201
-0.359619,-0.922363,-0.174072,-1.960754,-6.011962,5.065917,1.005176795451427
-0.362061,-0.91333,-0.173584,-2.098083,-6.446838,5.989074,0.9976929696439681
-0.364258,-0.906494,-0.172363,-2.044678,-6.645202,6.744384,0.9920303757289894
-0.364014,-0.896484,-0.175049,-1.899719,-6.454467,7.476806,0.9832761091641553
-0.366699,-0.892578,-0.178711,-1.678467,-6.057739,8.102417,0.981377228289917
-0.362305,-0.894531,-0.176514,-1.533508,-5.393981,8.918762,0.9811257896834635
-0.360352,-0.897461,-0.175049,-1.396179,-5.027771,9.513855,0.9828183773342865
-0.361328,-0.901611,-0.173096,-1.365662,-5.249023,9.880066,0.9866217837251517
-0.363037,-0.900146,-0.171875,-1.197815,-5.584716,10.093688,0.9856975704088958
-0.362549,-0.901855,-0.17041,-0.953674,-5.867004,10.330199,0.9868251043249762
-0.364746,-0.90332,-0.170898,-0.724792,-6.103515,10.360717,0.9890565167471472
-0.36499,-0.9021,-0.171875,-0.419617,-6.454467,10.124206,0.9882019660600763
-0.365234,-0.902832,-0.17041,-0.053406,-6.774902,10.06317,0.9887067629383345
-0.369141,-0.902344,-0.170654,0.205994,-7.118225,9.971619,0.9897537875315254
-0.369873,-0.902588,-0.176514,0.480652,-7.43103,9.933472,0.9912761099053078
-0.369629,-0.904297,-0.177979,0.709534,-7.484436,9.857178,0.9930031149452655
-0.367432,-0.900635,-0.177979,1.014709,-7.30133,9.963989,0.98885095049254
-0.366699,-0.895996,-0.182617,1.464844,-6.767272,9.994507,0.9852035106037738
-0.36377,-0.894043,-0.182129,1.625061,-6.202697,10.055541,0.9822486810324563
-0.356201,-0.890869,-0.18457,1.846313,-6.202697,10.078429,0.9770326568042647
-0.35498,-0.894043,-0.184326,1.937866,-6.54602,9.910583,0.9794384924664744
-0.355713,-0.897949,-0.188232,1.800537,-6.607055,9.796143,0.9840098733214012
-0.353027,-0.897705,-0.193115,1.853943,-6.614685,9.635925,0.9837660966810149
-0.350098,-0.901611,-0.202881,1.861572,-6.767272,9.231567,0.9882467834938802
-0.345215,-0.902344,-0.206299,1.548767,-7.392883,8.644104,0.9879055460731051
-0.343262,-0.897217,-0.208008,1.106262,-8.659363,8.132935,0.9829010498503906
-0.34082,-0.89624,-0.200195,0.534058,-10.345458,7.507324,0.9795317493705857
-0.337402,-0.903076,-0.203857,0.068665,-11.894225,6.820678,0.9853649312965221
-0.328613,-0.908203,-0.218506,-0.389099,-13.809203,5.905151,0.9902343485327096
-0.306885,-0.911621,-0.229248,-1.426697,-18.028259,5.584716,0.9888305701028868
-0.295654,-0.921143,-0.229736,-3.829956,-25.80261,5.645751,0.9943311037380859
-0.289063,-0.922363,-0.2229,-7.514953,-35.720825,5.0354,0.9919653883770341
-0.295654,-0.917969,-0.2146,-11.184691,-46.95892,4.135132,0.9879936906058663
-0.319824,-0.909424,-0.211426,-14.793395,-57.861324,3.822326,0.9869348287642908
-0.335449,-0.891357,-0.213623,-17.63916,-66.581726,5.104064,0.9760523137511635
-0.351074,-0.875244,-0.213623,-20.248411,-73.326111,6.721496,0.9669228506664842
-0.388428,-0.856689,-0.209717,-23.117064,-77.507019,8.476257,0.9637289940610898
-0.398193,-0.817383,-0.193848,-24.581907,-79.109192,11.970519,0.9296503004044048
-0.415771,-0.777344,-0.182373,-25.093077,-78.193665,16.105652,0.9002161573233397
-0.460693,-0.742432,-0.182373,-26.374815,-76.324463,19.943237,0.8925823356990659
-0.486328,-0.704834,-0.174072,-26.702879,-71.281433,26.252745,0.8738460690098685
-0.511719,-0.699219,-0.150391,-25.360106,-63.3316,33.195496,0.8794208308898533
-0.526855,-0.739258,-0.125977,-22.972105,-55.633541,38.391113,0.9164871991020933
-0.574463,-0.813232,-0.090332,-21.263121,-51.597591,41.343685,0.9997569176639889
-0.677979,-0.890625,-0.063232,-20.973204,-49.118038,42.938229,1.1211006649226465
-0.786621,-0.940674,-0.061279,-19.340515,-43.617245,45.516964,1.227760272918944
-0.855225,-0.99292,-0.057129,-16.181946,-33.26416,48.377987,1.311702576678875
-0.900635,-1.044434,-0.054688,-15.502929,-19.882202,48.400875,1.3802088830771233
-0.922852,-1.06665,-0.077393,-16.975403,-7.148742,45.829769,1.4125819313770795
-0.904053,-1.062012,-0.121826,-18.577576,0.930786,43.762203,1.4000081747007764
-0.866699,-1.033447,-0.138428,-21.217344,-0.228882,44.921871,1.3558547745219618
-0.833252,-1.002441,-0.135254,-25.817869,-10.765075,48.477169,1.3105306171551276
-0.807373,-0.957031,-0.126709,-30.899046,-26.893614,52.413937,1.2584969871918645
-0.798584,-0.899658,-0.128174,-35.392761,-45.104977,56.365963,1.209772497743274
-0.791992,-0.839355,-0.129639,-37.559509,-61.43951,62.088009,1.1612813674601001
