ax,ay,az,gx,gy,gz,acc_mag
-0.400879,-0.929443,0.11499,-0.045776,-0.984192,-1.350403,1.0187202574750343
-0.396973,-0.931885,0.115967,0.015259,-1.25885,-1.220703,1.0195320304154254
-0.39502,-0.930664,0.116455,0.015259,-1.167297,-1.121521,1.0177121637874826
-0.396973,-0.931641,0.117188,-0.022888,-0.579834,-0.892639,1.0194486465506736
-0.401855,-0.931885,0.118408,0.160217,-0.25177,-0.778198,1.0217228336070403
-0.4021,-0.931152,0.117432,0.205994,-0.38147,-0.549316,1.0210380657585691
-0.400391,-0.929688,0.119141,0.25177,-0.579834,-0.366211,1.019228781042804
-0.397217,-0.928223,0.119385,0.312805,-0.732422,-0.1297,1.01667696985965
-0.394775,-0.928955,0.116455,0.343323,-0.701904,-0.022888,1.0160543586221162
-0.394531,-0.930908,0.116699,0.305176,-0.602722,0.015259,1.017773585344992
-0.38916,-0.930664,0.116211,0.099182,-0.450134,-0.068665,1.0154240409882958
-0.384033,-0.935547,0.115723,-0.045776,0.137329,-0.099182,1.017900460274481
-0.385986,-0.939209,0.116699,0.038147,1.152039,0.099182,1.022114178787282
-0.394775,-0.941895,0.116455,-0.022888,1.831055,0.259399,1.02789846710412
-0.40332,-0.940186,0.116211,0.25177,1.716614,0.717163,1.0296221314234655
-0.40332,-0.939941,0.122559,0.587463,1.518249,1.312256,1.0301343671395493
-0.395996,-0.945068,0.14209,1.159668,2.082825,2.037048,1.03448340960114
-0.366211,-0.951416,0.168457,2.250671,5.187988,3.662109,1.0332863409655622
-0.333984,-0.952881,0.174316,3.845215,13.748168,6.523132,1.0246529072193178
-0.305908,-0.973389,0.153564,6.278991,29.014585,10.231017,1.0318176931420588
-0.348145,-0.995117,0.128174,10.528563,45.1889,13.923644,1.0620222968422084
-0.403076,-0.985352,0.135498,14.869689,56.640621,17.50946,1.07319547785294
-0.428467,-0.981689,0.150879,17.700195,62.171932,22.895811,1.0816939194850823
-0.400879,-1.000977,0.169434,19.996643,67.863464,30.006407,1.091497506880341
-0.400635,-1.03125,0.172852,25.146482,81.207268,38.520813,1.11976014379375
-0.480713,-1.040527,0.186523,33.180237,99.365227,47.843929,1.1612804379765467
-0.554199,-1.037842,0.19751,39.657593,113.670341,60.493465,1.1930057622094705
-0.586182,-1.047607,0.199219,44.738766,123.100273,73.387146,1.216872209204401
-0.61499,-1.077881,0.20459,50.025936,132.087708,85.075371,1.2577349555295823
-0.669678,-1.102783,0.221191,55.831905,141.113281,98.197929,1.309016587845242
-0.751953,-1.117432,0.223389,61.050411,146.591187,111.595146,1.3652802767761645
-0.853027,-1.11792,0.202148,65.742493,144.691467,124.26757,1.4206561874827421
-0.915039,-1.114502,0.177979,69.18335,135.414124,137.023926,1.4529582251276187
-0.963135,-1.119629,0.191895,72.128296,121.574394,149.047852,1.4893024598418547
-1.006836,-1.116699,0.237549,75.706482,104.690544,160.118103,1.5222236743980826
-1.061035,-1.078369,0.259033,80.718987,83.282463,170.974716,1.5348527833232084
-1.059326,-1.02832,0.273438,85.052483,61.408993,180.191025,1.5014599350365632
-1.063721,-1.011963,0.264648,90.12603,44.212337,187.873825,1.4918478619195725
-1.079346,-0.960938,0.262207,95.619194,32.814026,194.374069,1.4687212596027197
-1.112305,-0.914063,0.255371,98.266594,23.605345,200.187668,1.4621723320576818
-1.136963,-0.868408,0.267334,100.006096,14.312743,205.062851,1.4554328515561958
-1.136475,-0.807129,0.296631,100.929253,6.027221,209.747299,1.4251395013917056
-1.102783,-0.763672,0.306396,100.807182,0.343323,214.691147,1.3759374177225505
-1.082275,-0.712646,0.29834,101.562492,-3.807068,217.559799,1.329733150876897
-1.116943,-0.647217,0.299805,103.210442,-8.94165,219.238266,1.325267727051029
-1.121338,-0.583008,0.318604,102.98156,-16.105652,222.526535,1.3033824255083386
-1.08374,-0.542236,0.322021,101.562492,-20.668028,225.707993,1.253877901446947
-1.074951,-0.490723,0.316895,102.745049,-24.269102,226.646408,1.2234178174912282
-1.047363,-0.428711,0.314453,102.592461,-29.579161,226.097092,1.174582080784055
-1.044922,-0.389893,0.297119,101.608269,-35.346985,225.975021,1.154191594881023
-1.024414,-0.344482,0.282227,100.036613,-39.0625,225.425705,1.117024606375795
-0.990479,-0.3125,0.249512,98.304741,-39.207458,225.23497,1.0681578242867484
-0.975586,-0.271973,0.236084,96.580498,-37.29248,224.029526,1.0399389458910557
-0.95752,-0.240479,0.232422,95.100395,-36.636353,222.5952,1.0142458705486554
-0.92749,-0.201172,0.241699,95.16143,-37.857056,220.45134,0.9793499273931663
-0.922607,-0.158936,0.248779,94.627373,-38.482666,217.55217,0.9686874208876669
-0.918213,-0.145508,0.21875,92.033379,-36.941528,216.445908,0.9550598169397558
-0.926025,-0.128418,0.16626,90.095512,-34.446716,213.661179,0.9495556176175254
-0.952393,-0.082275,0.124268,88.36364,-34.873962,210.067734,0.9639834738718295
-0.958496,-0.02832,0.084473,83.930962,-38.986206,207.046494,0.9626278056159608
-0.955566,-0.016846,0.057129,78.559875,-41.496273,203.804001,0.9574204357088896
-0.939209,0.000977,0.049072,74.890137,-41.259762,200.386032,0.9404905961220452
-0.923096,0.044189,0.057129,72.128296,-41.137691,195.816025,0.9259171753337336
-0.936279,0.070068,0.051514,68.67981,-42.884823,190.536484,0.9403093015923004
-0.947754,0.087891,0.024902,64.01062,-43.998714,187.18718,0.9521463028342861
-0.971924,0.102051,-0.030518,59.974667,-38.795471,186.218246,0.9777433286404975
-0.952637,0.156982,-0.116455,55.3894,-27.435301,185.897812,0.9724825803673812
-0.921631,0.251465,-0.212891,49.293514,-13.626098,183.540329,0.9787547825001929
-0.936279,0.307129,-0.293945,40.351864,-0.686645,180.023178,1.02827537727352
-0.989746,0.327148,-0.374512,28.95355,5.966186,177.017197,1.1076471444300302
-0.998047,0.331787,-0.421631,14.671325,6.126403,174.003586,1.1331165552311906
-1.017578,0.30249,-0.44043,-1.724243,5.683898,171.035751,1.1493231795643906
-0.997803,0.273193,-0.442627,-19.096375,7.156372,170.2957,1.1252394870368707
-0.939941,0.266113,-0.431641,-37.567139,11.83319,171.028122,1.067997736482152
-0.914551,0.273682,-0.439941,-56.53381,19.172668,171.752914,1.0511200940929633
-0.890381,0.296875,-0.466309,-76.690674,27.282713,171.112045,1.0480253690951378
-0.910645,0.318848,-0.521484,-96.099846,36.109924,169.967636,1.0967606509102157
-0.940674,0.355225,-0.59668,-117.866508,44.960018,170.021042,1.1692217057944998
-0.972412,0.347412,-0.688965,-143.943787,53.474422,170.585617,1.2413512664483812
-1.029785,0.323975,-0.752441,-172.889694,60.9436,170.608505,1.3158968064901595
-1.0271,0.276611,-0.762207,-208.198532,68.733215,172.294601,1.30858991520262
-0.946289,0.206787,-0.732422,-244.537338,80.345146,175.918564,1.214358151853892
-0.847412,0.18042,-0.715576,-249.992355,96.542351,179.565414,1.1237025789415989
-0.812012,0.123047,-0.653076,-249.694809,107.925407,180.328354,1.049291339013622
-0.726318,0.018555,-0.497559,-249.80925,99.220268,178.527817,0.8805947329106619
-0.575439,-0.108643,-0.211914,-249.992355,65.223694,172.576889,0.6227687271901183
-0.453857,-0.232178,0.094238,-249.992355,16.624451,162.559494,0.5184337959440916
-0.659424,0.0354,-0.494141,-249.992355,-35.850525,151.641846,0.8247839108863606
0.539063,-4.42334,1.538818,-190.658554,-38.215637,124.465935,4.7142853658527075
0.683594,-6.306885,7.999756,-30.84564,-29.785154,51.933285,10.209808774879038
-2.092285,-0.498535,3.851318,100.555412,-86.280815,-33.103943,4.411217972915644
-0.441162,1.64502,0.098633,153.915405,-215.209946,-20.065308,1.7060021041408477
-0.822754,0.732178,-0.128662,111.839287,-92.384331,15.251159,1.108856473329168
-0.855225,1.131836,-0.32959,65.429688,78.155518,43.952938,1.4563969581199352
-0.737793,1.273193,-0.524658,28.778074,191.619858,53.283688,1.5622499617737233
-0.794922,1.076172,-0.111816,-22.346495,176.460251,39.428711,1.3425907706833082
-0.343262,0.703369,0.285645,-69.450378,80.360405,29.754637,0.833156538010715
-0.045898,0.333496,0.439453,-89.378349,-4.524231,3.616333,0.5535748798753426
-0.100586,0.313477,0.581543,-83.610527,-59.585567,-21.415709,0.6682646435163243
-0.242676,0.426758,0.792969,-78.49884,-103.843681,-33.187866,0.9326381219428037
-0.19873,0.378662,0.997803,-71.937561,-130.989075,-40.214535,1.0855824933891483
-0.314209,0.304932,1.148193,-51.856991,-128.570557,-44.296261,1.228844166505257
-0.419189,0.330566,1.257324,-25.711058,-106.033318,-46.127316,1.3659637400213083
-0.541016,0.419189,1.209717,-6.553649,-70.716858,-44.212337,1.3899039355531013
-0.511963,0.477051,0.998047,4.364014,-24.322508,-39.69574,1.2189264063835028
-0.613525,0.496582,0.760254,16.731262,23.643492,-41.076656,1.0958981489467896
-0.855469,0.478516,0.549072,23.384092,53.871151,-37.841797,1.123514500752438
-1.074951,0.367188,0.455811,27.389524,56.587215,-25.077818,1.2239731808605938
-1.176758,0.186768,0.513184,41.244503,40.245052,-17.410278,1.297304703700715
-1.075195,0.229736,0.714355,67.054749,3.616333,-18.997192,1.3111544469458964
-0.786133,0.316406,0.911133,87.22686,-37.406921,-20.492552,1.2442994793111504
-0.674561,0.291992,1.016113,108.001701,-57.708736,-23.15521,1.2541042618355143
-0.720459,0.293945,1.004639,127.30407,-61.286922,-30.044554,1.270733785663622
-0.769531,0.336914,0.880615,142.555237,-60.859676,-38.337708,1.2170340100350525
-0.7771,0.406494,0.702637,153.144836,-58.814999,-43.472286,1.123752880221003
-0.750488,0.485352,0.54248,158.218384,-54.496761,-45.379635,1.0455062660969565
-0.712646,0.54541,0.429443,157.852173,-45.555111,-47.088619,0.9948656591042833
-0.686279,0.577637,0.363281,154.800415,-29.884336,-47.630306,0.9677894681029547
-0.681152,0.596924,0.341309,150.016785,-9.628296,-46.661373,0.967872999086657
-0.705566,0.5979,0.334473,144.020081,9.872437,-43.472286,0.9834530889091762
-0.72998,0.60791,0.335938,136.741638,22.247313,-38.414001,1.0076108913385167
-0.740234,0.611328,0.314453,127.17437,23.368834,-32.50885,1.0102222466116058
-0.728027,0.628662,0.265869,118.675224,13.771056,-27.626036,0.9979606946839139
-0.706055,0.671143,0.209717,109.649651,-0.518799,-24.345396,0.9964576305909851
-0.711182,0.718994,0.143066,99.395744,-15.61737,-21.537779,1.0213716706057594
-0.71582,0.74707,0.080811,88.966362,-29.96063,-19.821167,1.0378064728170662
-0.716553,0.771484,0.058594,79.696655,-41.168209,-18.951416,1.0545468320093707
-0.722168,0.767822,0.060303,70.4422,-45.623775,-17.219543,1.0558000263861524
-0.733154,0.76416,0.060547,60.928341,-41.259762,-13.549804,1.0607173198006148
-0.755615,0.786133,0.048096,49.644466,-29.396055,-8.483887,1.0914542350140017
-0.778809,0.785889,0.016846,38.291931,-13.183593,-1.426697,1.1065481311348369
-0.78418,0.805176,-0.021729,27.671812,3.578186,5.371093,1.124152486461245
-0.789063,0.829346,-0.05249,16.578674,18.722534,11.573791,1.1459452019119414
-0.825439,0.840088,-0.096924,4.814148,30.281065,17.593384,1.1817324791343427
-0.843994,0.852539,-0.164307,-8.384705,37.200928,23.719786,1.2108449152579368
-0.856689,0.872314,-0.252441,-22.476194,42.030331,28.488157,1.2484286987241202
-0.882568,0.876953,-0.364746,-40.924068,49.133297,33.943176,1.29653865478396
-0.910156,0.854736,-0.457275,-64.041138,59.814449,42.144772,1.3296834208400885
-0.962158,0.818115,-0.522705,-91.247551,72.372437,51.887508,1.3668506455403238
-1.010742,0.789795,-0.50293,-123.062126,81.443779,63.2019,1.3777932056331965
-0.94458,0.719727,-0.431641,-161.758408,87.760918,76.904297,1.2635474996255582
-0.896973,0.616211,-0.361084,-199.981674,100.563042,91.941826,1.1465854587888336
-0.856445,0.595215,-0.374756,-238.731369,110.054008,106.414787,1.1082513224833075
-0.768066,0.642334,-0.464111,-249.992355,100.051872,113.250725,1.1035929359292764
-0.640869,0.628174,-0.5354,-249.992355,71.044922,112.899773,1.0449731142172989
-0.49707,0.49707,-0.491943,-249.68718,38.955688,110.28289,0.8580006323127041
-0.413086,0.384521,-0.32666,-249.992355,10.169982,108.009331,0.6520760679836365
-0.1604,0.833496,-1.23584,-249.992355,-12.763976,109.817497,1.4992478939841805
-0.339355,-3.08374,2.181885,-220.06987,-12.992858,82.252495,3.7927874125568914
0.443848,-6.411133,7.999756,-158.859253,-49.835201,30.838011,10.261370446988503
-1.996826,-1.467285,3.702881,7.041931,-71.151733,-14.373778,4.455509740272374
-0.588623,0.993164,1.081055,81.68029,-165.420517,-10.742187,1.5816231156789535
-0.91748,0.813477,1.098145,92.491142,-96.04644,-15.052794,1.6460367009741914
-0.775391,1.690186,0.160889,61.485287,3.463745,18.066406,1.8665061445915467
-0.994385,1.480713,-0.277832,48.828121,63.400265,24.734495,1.8051324430129774
-0.884033,1.323975,-0.257813,8.857727,9.902954,27.9541,1.6127280268796098
-0.32959,0.962891,-0.022217,-30.052183,-51.445004,25.085447,1.0179794895134184
-0.0271,0.58667,0.298584,-47.019955,-58.860775,11.924743,0.6588387541394328
-0.012695,0.44043,0.620361,-46.401974,-44.113155,0.595093,0.7609122933991802
-0.080566,0.347656,0.878662,-36.857605,-38.368225,-11.83319,0.9483683276744327
-0.258057,0.304932,1.084961,-18.547058,-41.66412,-21.217344,1.1561649153100955
-0.391113,0.338135,1.182617,1.365662,-65.238953,-28.366087,1.2906926921940018
-0.375488,0.332764,1.268555,22.193907,-88.592522,-34.500122,1.3641682102530466
-0.333252,0.275879,1.378662,43.655392,-84.106438,-36.743164,1.4449481057771592
-0.30835,0.296143,1.428223,63.232418,-48.866268,-35.186768,1.4908391384311053
-0.441406,0.369873,1.306152,78.75061,2.26593,-32.180786,1.4274727107966023
-0.619141,0.567139,0.974854,85.815422,33.485413,-32.119751,1.2865933874064486
-0.721924,0.588623,0.706787,76.049805,38.146973,-33.706665,1.169272919926738
-0.901123,0.412109,0.47998,66.329956,43.136593,-24.749754,1.1010164800810205
-1.057373,0.160156,0.279785,63.095089,43.17474,-10.231017,1.1054262760084907
-1.003174,0.002686,0.64502,85.891716,28.07617,-4.959106,1.1926508664617657
-0.797363,0.175293,1.108887,113.845818,5.096435,-4.585266,1.3770060887254638
-0.697754,0.2146,1.389893,136.97052,-20.568846,-1.777649,1.5699415135491512
-0.628662,0.246582,1.452637,155.715942,-55.282589,-9.773254,1.6019278531622452
-0.527344,0.254639,1.259277,168.457016,-87.623589,-23.902891,1.3887805000740758
-0.545166,0.300293,0.946533,179.931625,-103.363029,-33.103943,1.1328312202150856
-0.56958,0.393311,0.658936,184.684738,-109.680168,-38.665771,0.9556733601063702
-0.545166,0.463867,0.480957,183.486923,-109.649651,-44.662472,0.8623793811855662
-0.489502,0.519287,0.404053,179.946884,-98.747246,-49.896236,0.8200792785956733
-0.451416,0.573242,0.356934,174.613937,-74.08905,-52.993771,0.8122713068772034
-0.486084,0.635254,0.302246,167.922958,-41.862484,-53.489681,0.8550894363094425
-0.560059,0.69165,0.187988,159.042358,-14.823913,-50.041195,0.9096072196970514
-0.623291,0.76001,0.067627,150.131226,-3.341675,-46.058651,0.9852310804628526
-0.636475,0.819824,-0.024414,139.640808,-5.615234,-42.465206,1.0381752549531318
-0.61792,0.849121,-0.119141,128.02887,-14.678954,-38.551331,1.0568945912067107
-0.625,0.908691,-0.209229,116.638176,-25.871275,-35.476685,1.1225511604920286
-0.63501,0.974854,-0.314941,103.263847,-35.827637,-31.303404,1.2053073694692984
-0.649902,1.020996,-0.405518,90.133659,-40.344234,-25.497435,1.2764208905936945
-0.688721,1.057861,-0.496826,76.309204,-37.620544,-17.997742,1.3565554118568102
-0.684326,1.084717,-0.572998,59.333797,-27.740477,-8.270264,1.4047205246485865
-0.671143,1.061768,-0.625488,40.061951,-7.965087,2.243042,1.4032175349592095
-0.712646,1.022949,-0.66626,19.508362,17.601013,13.534545,1.413573968887727
-0.784912,0.995605,-0.674316,-3.89862,38.528442,24.772642,1.4359729216196941
-0.858398,0.961426,-0.704102,-33.378601,50.094601,35.179138,1.468654726708766
-0.875244,0.938965,-0.74585,-68.321228,55.046078,44.342037,1.4845873343326759
-0.834961,0.919189,-0.770996,-106.842033,63.064571,54.191586,1.4616781866259072
-0.743408,0.913086,-0.804932,-149.765015,76.972961,65.261841,1.4262878469944276
-0.629639,0.905518,-0.851074,-196.121201,92.857353,73.478699,1.3931026782405525
-0.54834,0.874756,-0.880127,-241.828903,107.51342,80.703728,1.356649678902037
-0.525635,0.815674,-0.860596,-249.992355,119.445793,86.677544,1.2970126070000245
-0.519775,0.718506,-0.720215,-249.694809,122.680656,88.630669,1.1424213622328672
-0.523926,0.549561,-0.417969,-249.740585,112.564079,88.012688,0.8667259262062027
-0.56665,0.291016,0.044189,-249.992355,83.168022,86.791985,0.6385414649629262
-0.619629,0.078125,0.461426,-249.992355,23.422239,83.793633,0.776503423522395
-0.627441,-0.250244,-1.836914,-249.992355,-51.383968,65.101624,1.9571809603133277
1.189209,-6.069092,7.433838,-211.227402,-123.725883,15.121459,9.67005910842271
-1.281982,-5.448975,7.034668,23.841856,-24.917601,-23.254393,8.990070092561737
-2.098633,0.953857,2.009277,169.395432,-193.077072,-65.483093,3.057989160848514
-0.51416,0.64502,1.169189,152.114868,-216.430649,-56.861874,1.4308788291539576
-0.488525,1.459473,0.803467,134.101868,0.25177,-10.803222,1.7361674266737641
-0.964355,1.777344,0.125,129.653931,153.030396,31.791685,2.025970695829779
-1.368164,1.401123,-0.205811,89.096062,128.074646,46.333309,1.9691055227554464
-0.623047,1.013916,-0.2771,25.215147,9.07135,49.865719,1.2218828214133302
-0.141113,0.762939,-0.207275,-21.041868,-67.436218,42.304989,0.8030888631496518
0.144043,0.501709,-0.028809,-55.732723,-94.429008,35.842896,0.5227717140502152
0.227051,0.453125,0.196289,-74.760437,-81.260674,31.265257,0.5435106197186951
0.255371,0.395996,0.431152,-76.820374,-52.421566,20.26367,0.6386855460717739
0.034668,0.407471,0.626709,-71.044922,-27.19116,10.06317,0.7483305798549195
-0.053711,0.477783,0.688965,-69.984436,-30.71594,4.043579,0.8401394157132493
-0.091064,0.462646,0.677246,-65.010071,-37.322998,-2.372742,0.8252248893047276
-0.181396,0.419434,0.677734,-55.870052,-33.988953,-8.094788,0.8174061193360372
-0.272217,0.416504,0.669189,-48.103329,-26.916502,-14.030456,0.8339014299220263
-0.347168,0.424805,0.665527,-41.358944,-16.113281,-20.156858,0.8625028092580337
-0.473633,0.440186,0.679688,-36.437988,-1.960754,-22.65167,0.9381192411570077
-0.545166,0.43457,0.711426,-34.27887,7.942199,-23.117064,0.9960843367566825
-0.572754,0.402588,0.750732,-32.691956,13.85498,-24.497984,1.026509999018032
-0.565186,0.35376,0.784912,-30.09796,17.906189,-28.503416,1.0298874695518925
-0.530029,0.309326,0.814209,-26.847837,23.490904,-33.7677,1.0195830573317701
-0.499268,0.268311,0.837891,-22.438047,30.921934,-39.459229,1.0115931279056813
-0.494141,0.232178,0.848633,-16.166687,35.697937,-45.639034,1.0090886582724037
-0.469482,0.230957,0.85376,-9.971619,32.600403,-52.513119,1.0013294271981623
-0.389893,0.245605,0.829102,-5.638122,26.145933,-60.119625,0.948550733423363
-0.354004,0.278809,0.794922,-1.678467,24.581907,-67.993164,0.9137583250405985
-0.361084,0.296143,0.76416,1.434326,26.527403,-75.843811,0.8955572774005021
-0.392334,0.288574,0.747803,3.372192,28.968809,-84.014885,0.8924182023250086
-0.428223,0.272949,0.731689,4.455566,30.998228,-91.484062,0.8906429627246825
-0.437988,0.264404,0.723633,3.082275,34.393311,-97.55706,0.8862210119654126
-0.457275,0.244141,0.734131,0.923157,42.503353,-101.799004,0.8986954871740483
-0.477783,0.228516,0.756592,-1.167297,52.917477,-104.339592,0.9235408013775027
-0.472656,0.218018,0.763672,-3.448486,63.888546,-106.033318,0.9241917908334829
-0.441895,0.208252,0.761475,-5.325317,75.576782,-108.367912,0.9047012004822366
-0.42749,0.182861,0.738281,-6.530761,86.540215,-112.853996,0.8724933698212267
-0.401855,0.186523,0.704102,-8.026123,90.522758,-119.61364,0.8318881517115146
-0.325684,0.170898,0.693604,-13.504027,96.145622,-127.578728,0.78508770406624
-0.263916,0.150635,0.670898,-16.166687,114.631645,-133.918762,0.7365097994494031
-0.290527,0.137207,0.625732,-16.63208,138.847351,-145.057678,0.7034004793870985
-0.379883,0.101563,0.591064,-16.090393,158.004761,-156.196594,0.7099174520703094
-0.450195,0.062012,0.555664,-14.442443,171.409592,-165.290817,0.7178325062749666
-0.54126,0.021729,0.543701,-10.795592,179.893478,-173.82811,0.7674928758249161
-0.690186,-0.028809,0.549316,-7.331848,181.900009,-181.327805,0.8825727963930227
-0.773438,-0.072266,0.537842,-4.676819,174.156174,-184.776291,0.9448294722139017
-0.788086,-0.027832,0.506104,-2.151489,157.203674,-190.124496,0.937014099379513
-0.744385,-0.007813,0.452881,-2.02179,138.847351,-196.861252,0.8713617339285676
-0.778564,-0.063477,0.385254,-2.784729,123.313896,-200.958237,0.8709832812063617
-0.804443,-0.075684,0.347412,-0.587463,108.306877,-205.093369,0.8795178826203592
-0.733398,-0.055176,0.313965,-4.226685,93.917839,-211.326584,0.7996818358603627
-0.691162,-0.11084,0.296875,-8.934021,92.056267,-219.970688,0.7603454356205475
-0.872803,-0.228027,0.326416,-6.660461,101.318352,-227.294907,0.9593376853819514
-1.142578,-0.269775,0.339844,-1.197815,100.83007,-228.401169,1.2221935121105005
-1.235352,-0.241455,0.348877,-4.867554,82.94677,-223.85405,1.3061815501904779
-1.19751,-0.241455,0.354248,-12.535094,61.592098,-222.328171,1.271936461710647
-1.112305,-0.254883,0.361816,-17.333984,49.407955,-223.60228,1.1971209523561102
-1.025391,-0.268799,0.364014,-19.577026,47.966,-225.662216,1.1207969474788908
-0.953369,-0.276611,0.358154,-20.935057,52.734371,-229.377731,1.055320038281279
-0.871338,-0.287842,0.346191,-23.620604,62.377926,-233.520493,0.9807808805686415
-0.769043,-0.359863,0.315186,-25.993345,78.125,-236.381516,0.9056879866786355
-0.753906,-0.501465,0.270508,-23.101805,95.817558,-239.72319,0.9449952280964175
-0.887939,-0.591553,0.243164,-12.550353,100.532524,-243.080124,1.094303134613988
-0.996338,-0.514648,0.238037,-5.15747,82.740776,-246.139511,1.1463915507002833
-0.960938,-0.466309,0.228271,-8.346558,55.053707,-246.894821,1.0922241403512376
-0.913818,-0.520752,0.224121,-13.267516,37.124634,-246.498093,1.0753958365499654
-0.881104,-0.591553,0.223145,-15.266418,37.742615,-245.719894,1.084468949140546
-0.858643,-0.650391,0.20752,-15.960692,50.750729,-244.171127,1.096968916938853
-0.827148,-0.690186,0.19043,-16.860962,68.855286,-245.155319,1.0939808560482216
-0.781006,-0.737793,0.176025,-18.356323,89.706413,-248.649582,1.0887119378008125
-0.730713,-0.808594,0.146729,-19.973755,113.525383,-249.992355,1.0996795645305046
-0.728516,-0.91748,0.107422,-18.295288,137.023926,-249.992355,1.176454248468677
-0.797852,-1.024902,0.08252,-12.08496,151.260376,-249.961838,1.3014612840603441
-0.889648,-1.067139,0.082764,-5.41687,147.453308,-249.992355,1.3918006642191978
-0.892822,-1.09082,0.10376,-4.28009,130.706787,-249.992355,1.413430413456566
-0.86499,-1.169434,0.118896,-5.638122,111.04583,-249.992355,1.459424489061356
-0.852051,-1.25415,0.122314,-5.981445,93.887321,-249.992355,1.5211324214863742
-0.843262,-1.309082,0.123047,-7.270813,78.50647,-249.992355,1.5620265835052232
-0.83252,-1.352295,0.124268,-11.192321,64.613342,-249.992355,1.5928696912330902
-0.811035,-1.35791,0.119873,-16.50238,53.329464,-249.992355,1.5862114850971165
-0.798828,-1.370117,0.134521,-21.911619,45.005795,-247.91716,1.5916791971732243
-0.842773,-1.355225,0.166992,-22.743223,35.591125,-231.65892,1.604614426651462
-0.858643,-1.28833,0.187988,-24.009703,21.01898,-206.886276,1.5596158111833183
-0.820801,-1.231934,0.180176,-27.44293,3.494262,-178.123459,1.4912541879012444
-0.763184,-1.181885,0.144531,-30.426023,-13.519286,-145.652771,1.4142811534634832
-0.673584,-1.125,0.091064,-33.370972,-29.441832,-112.037651,1.314394559160985
-0.564697,-1.091309,0.041016,-36.804199,-45.448299,-80.169678,1.2294390377509574
-0.451904,-1.080566,0.021484,-40.550228,-61.752316,-53.344723,1.1714528022195345
-0.353027,-1.079102,0.031494,-44.296261,-77.255249,-31.745909,1.1358173537893317
-0.28418,-1.072754,0.061035,-47.180172,-88.470451,-14.35089,1.1114336184140734
-0.235107,-1.047363,0.109131,-47.531124,-88.584892,1.13678,1.0789597445590824
-0.153076,-1.004883,0.180664,-44.242855,-67.253113,15.281676,1.0324057275901757
-0.086182,-0.996094,0.262207,-39.299011,-21.781919,24.024961,1.0336261920099548
-0.020996,-1.00293,0.314209,-31.898497,40.611263,26.908873,1.0512072643380088
-0.116211,-1.001709,0.291748,-23.826597,107.086174,28.427122,1.0497822691901402
-0.407471,-0.954102,0.217285,-15.754699,156.295776,30.624388,1.059979251433725
-0.665527,-0.920166,0.218018,-8.598328,165.245041,33.355713,1.1563578613945598
-0.690674,-0.904785,0.224854,-2.380371,137.72583,31.684874,1.1602697064980194
-0.604736,-0.904541,0.223877,1.358032,106.391899,27.214048,1.1108649609678038
-0.538818,-0.907715,0.209229,4.455566,82.748405,22.613523,1.076126448327519
-0.489502,-0.902832,0.206055,6.79779,63.217159,14.450072,1.0474619283071818
-0.465332,-0.875,0.202881,7.583618,44.250484,8.453369,1.011592591108199
-0.494873,-0.861816,0.169678,6.515502,21.995543,5.859375,1.008174948939419
-0.509033,-0.872559,0.129395,3.997802,-2.716064,3.14331,1.0184384466402474
-0.486816,-0.871338,0.102295,2.01416,-25.039671,0.663757,1.0033364316743412
-0.45752,-0.876221,0.082275,0.068665,-40.687557,-0.961304,0.9918956431328853
-0.445068,-0.898682,0.069092,-1.937866,-49.949642,-1.823425,1.0052306034995155
-0.442871,-0.916992,0.057861,-3.387451,-56.251522,-2.243042,1.0199788948924384
-0.436768,-0.93042,0.050049,-4.623413,-62.873837,-1.609802,1.0290542087883416
-0.417236,-0.949463,0.044434,-5.905151,-69.67926,-0.061035,1.0380463614025146
-0.390381,-0.9729,0.038574,-6.896972,-75.164795,1.457214,1.0490089077967832
-0.373047,-0.986816,0.043701,-7.644653,-79.650879,2.952575,1.0558786196651584
-0.360352,-1.000488,0.052979,-8.262634,-84.777824,4.470825,1.0647237089916803
-0.342529,-1.004395,0.062012,-8.377075,-90.843193,5.966186,1.0630056067632003
-0.30957,-1.00293,0.07251,-8.087158,-95.931999,7.194519,1.0521216041408903
-0.278076,-1.003906,0.077148,-7.545471,-97.503654,8.155823,1.044559875026798
-0.245605,-0.999756,0.084229,-6.324768,-95.001213,8.911133,1.0329222623227752
-0.228516,-0.995605,0.092529,-4.959106,-88.951103,9.216309,1.0256756281212887
-0.220459,-0.991455,0.099365,-3.311157,-80.993645,9.346008,1.0205187851926096
-0.22583,-0.988037,0.098145,-1.617432,-72.845459,9.552002,1.0182576998451818
-0.230957,-0.982178,0.094971,0.030518,-65.551758,9.552002,1.0134269832474365
-0.238281,-0.975098,0.092285,1.098633,-59.288021,9.407043,1.0080230482434418
-0.240234,-0.976563,0.07373,1.335144,-53.733822,9.284973,1.0083768048824804
-0.235352,-0.971191,0.060059,1.937866,-48.202511,9.094238,1.0011041933115654
-0.230469,-0.967529,0.055176,2.571106,-41.442867,8.476257,0.9961288655480274
-0.236328,-0.966064,0.051025,2.853393,-34.103394,7.873535,0.9958584870878995
-0.244873,-0.965332,0.045166,2.410889,-27.717588,7.766723,0.9969295982711116
-0.256592,-0.965088,0.040771,1.63269,-22.491453,8.117676,0.999448136047589
-0.266357,-0.966797,0.033447,0.511169,-16.63208,9.010315,1.0033749012542619
-0.274658,-0.963135,0.02417,-0.694275,-9.872437,10.108947,1.0018234545512497
-0.288818,-0.961182,0.015625,-2.159119,-3.921509,10.772704,1.0037583448584624
-0.29541,-0.955566,0.015869,-2.777099,0.88501,11.558532,1.0003125879528858
-0.303467,-0.946533,0.02002,-3.753662,4.394531,12.245177,0.9941920038795323
-0.317383,-0.946533,0.026123,-4.714966,6.835937,12.977599,0.9986686637253619
-0.340576,-0.950928,0.033936,-5.523681,7.118225,13.877868,1.0106471812932543
-0.359375,-0.953369,0.042969,-6.149292,3.639221,14.183043,1.0197593714926085
-0.363281,-0.951416,0.050293,-7.164001,-3.27301,13.755797,1.019654292329513
-0.335693,-0.954834,0.05957,-8.369446,-11.436461,12.809752,1.0138768873512207
-0.297119,-0.963623,0.075684,-8.422852,-17.662048,10.124206,1.0112255209131147
-0.267334,-0.964111,0.093262,-7.980346,-21.324156,6.92749,1.0048259991267146
-0.243164,-0.963379,0.109131,-7.499694,-22.682188,3.791809,0.9995686087998162
-0.219727,-0.9646,0.116211,-6.935119,-21.530149,0.701904,0.9961114952905623
-0.196777,-0.96875,0.126709,-6.027221,-16.929626,-2.334595,0.9966207507923965
-0.190674,-0.973145,0.135498,-5.0354,-8.903503,-4.920959,1.0008633639538416
-0.201904,-0.980469,0.138672,-3.845215,-0.091553,-7.17926,1.0106011125864647
-0.219727,-0.986572,0.138428,-2.6474,6.782531,-9.307861,1.0201796787316437
-0.239502,-0.992676,0.135986,-1.731872,11.047362,-11.108397,1.0301742770890758
-0.255859,-0.998291,0.128662,-1.167297,12.947082,-12.268065,1.0385579708451522
-0.271484,-1.003662,0.125244,-0.816345,13.694762,-12.687682,1.0472473595268694
-0.290771,-1.003418,0.116699,-0.694275,13.420104,-12.634276,1.0511965152938816
-0.304932,-1.003906,0.112305,-0.717163,11.825561,-12.138366,1.0551887008895613
-0.312012,-1.001953,0.105957,-1.075745,9.048462,-11.352538,1.0547455561423333
-0.315186,-0.998291,0.103027,-1.152039,5.828857,-10.368346,1.0519228574406014
-0.317871,-0.993652,0.097168,-1.037598,2.830505,-9.162903,1.0477728236449921
-0.318115,-0.988037,0.093506,-1.121521,0.305176,-7.987976,1.0421888689820094
-0.320313,-0.982422,0.089844,-0.869751,-1.701355,-7.04956,1.0372200096358535
-0.326172,-0.979492,0.083984,-0.709534,-3.166198,-6.16455,1.0357828266118339
-0.327393,-0.972168,0.07959,-0.556946,-4.447937,-5.477905,1.028898131387651
-0.32959,-0.966553,0.073486,-0.457764,-5.516052,-5.134582,1.0238429870370749
-0.329346,-0.962158,0.070557,-0.411987,-6.141662,-5.004883,1.019409189152717
-0.330078,-0.96167,0.070801,-0.434875,-6.42395,-5.096435,1.0192023629216134
-0.332031,-0.959717,0.067383,-0.328064,-6.576538,-5.233764,1.0177631226071222
-0.333984,-0.955322,0.063232,-0.022888,-6.408691,-5.40924,1.0139939456249234
-0.3396,-0.953857,0.064697,0.152588,-6.256103,-5.66864,1.01457234254537
-0.338867,-0.955811,0.063721,0.679016,-6.118774,-6.088256,1.01610328079925
-0.338867,-0.95459,0.064941,1.235962,-5.958557,-6.507873,1.015032140018236
-0.340088,-0.954102,0.065186,1.571655,-5.523681,-6.706237,1.0149973836143618
-0.3396,-0.958008,0.068848,2.14386,-5.081176,-7.019042,1.0187480233934199
-0.337891,-0.960938,0.073486,2.799988,-4.890442,-7.255554,1.021260182285102
-0.331787,-0.966064,0.077393,3.425598,-4.760742,-7.286071,1.0243788078215987
-0.325684,-0.970703,0.080078,3.829956,-4.40979,-7.270813,1.0270086991593597
-0.320313,-0.972168,0.083252,4.356384,-3.921509,-7.17163,1.026957610467443
-0.314209,-0.970947,0.088379,4.867554,-3.540039,-6.912231,1.0243418473004995
-0.304688,-0.970459,0.095459,5.172729,-2.944946,-6.607055,1.021634899906028
-0.293213,-0.970215,0.098145,5.279541,-1.945495,-6.149292,1.0182943830833007
-0.286621,-0.9729,0.10498,5.508422,-0.762939,-5.683898,1.0196601434012218
-0.282959,-0.970947,0.110352,6.011962,0.389099,-5.462646,1.0173403739132738
-0.279053,-0.969727,0.114502,6.286621,1.052856,-5.020141,1.0155548923332505
-0.275391,-0.972168,0.121094,6.439209,1.182556,-4.516602,1.0176515022054455
-0.269043,-0.973389,0.126465,6.614685,1.091003,-4.302979,1.0177738832348766
-0.268066,-0.974365,0.131592,6.767272,0.724792,-4.219055,1.0190991060956733
-0.262451,-0.974854,0.134766,6.828308,0.419617,-4.081726,1.0185198689632913
-0.258789,-0.972656,0.138428,7.04956,0.297546,-4.081726,1.0159693657000686
-0.255615,-0.969727,0.136963,7.17163,0.450134,-4.127502,1.0121602373749918
-0.257324,-0.963867,0.134521,7.240295,0.63324,-4.043579,1.006653432967871
-0.261475,-0.959229,0.135742,7.194519,0.442505,-3.997802,1.0034517131531542
-0.260498,-0.95752,0.13623,6.958007,-0.076294,-3.814697,1.0016298574343718
-0.261963,-0.958252,0.135498,6.568908,-0.701904,-3.623962,1.0026121966528236
-0.262939,-0.955078,0.135986,6.401062,-1.220703,-3.52478,0.9999015431536247
-0.26123,-0.952148,0.135498,6.256103,-1.556396,-3.280639,0.9965874948081578
-0.261719,-0.953857,0.135498,6.057739,-1.533508,-3.089905,0.9983484959742264
-0.263184,-0.955078,0.132568,5.935668,-1.243591,-2.89917,0.999506917716931
-0.263916,-0.953857,0.130859,5.821228,-1.197815,-2.792358,0.998308023300424
-0.26709,-0.956299,0.128662,5.66864,-1.213074,-2.616882,1.0011986594802254
-0.267822,-0.956055,0.130371,5.493164,-1.205444,-2.372742,1.001382236885596
-0.268555,-0.955322,0.130371,5.340576,-1.106262,-2.151489,1.0008788684701062
-0.268066,-0.954834,0.129395,5.149841,-0.953674,-1.792908,1.0001551949257674
-0.268066,-0.955566,0.134033,4.653931,-0.87738,-1.411438,1.0014642309144146
-0.269287,-0.955078,0.136475,4.272461,-0.595093,-1.075745,1.0016560787406024
-0.269775,-0.955566,0.140381,4.043579,-0.320435,-0.724792,1.0027919804934622
-0.269531,-0.955322,0.14209,3.807068,-0.587463,-0.541687,1.0027345868897712
-0.269531,-0.954102,0.143066,3.204345,-0.991821,-0.221252,1.0017112691394663
-0.266113,-0.95459,0.147217,2.914428,-1.571655,0.045776,1.0018637841333522
-0.263916,-0.950928,0.148682,2.525329,-2.037048,0.076294,0.9980090447305576
-0.262695,-0.950928,0.152344,2.166748,-2.479553,-0.030518,0.9982391589919722
-0.265869,-0.95166,0.15625,1.76239,-3.005981,-0.061035,1.0003784999993752
-0.265137,-0.956787,0.154053,1.525879,-4.005432,-0.205994,1.0047244990279673
-0.263916,-0.969482,0.147217,1.197815,-4.981995,-0.404358,1.0154899548833558
-0.264648,-0.98584,0.138184,0.968933,-5.577087,-0.656128,1.030055283642582
-0.26416,-1.000244,0.126709,0.747681,-5.981445,-0.946045,1.0422685526374666
-0.262451,-1.000244,0.11792,0.38147,-6.134033,-1.289368,1.0408043588191778
-0.262451,-0.982422,0.115234,-0.366211,-6.301879,-1.533508,1.0233828160766625
-0.256348,-0.963623,0.11792,-1.235962,-6.523132,-1.686096,1.004086007089532
-0.252441,-0.955811,0.124756,-2.159119,-6.385803,-1.586914,0.9964262068703331
-0.245605,-0.951172,0.133057,-2.799988,-6.095886,-1.235962,0.9913395759566951
-0.24292,-0.952393,0.144043,-3.196716,-5.828857,-0.961304,0.9933835808478012
-0.240234,-0.95752,0.151123,-3.311157,-5.722045,-0.793457,0.9986966938390254
-0.235596,-0.964844,0.161621,-3.189087,-5.66864,-0.740051,1.006255815979714
-0.234375,-0.970703,0.171143,-2.662658,-5.241394,-0.823975,1.0131563952732077
-0.237061,-0.973145,0.175293,-1.907349,-4.920959,-0.930786,1.0168268016702746
-0.236572,-0.973145,0.175781,-1.38092,-4.684448,-1.045227,1.016797158812907
-0.230957,-0.972656,0.177246,-0.907898,-4.478455,-1.121521,1.0152915712744788
-0.230957,-0.973877,0.176758,-0.442505,-4.104614,-1.159668,1.0163763759267528
-0.231201,-0.974609,0.180664,-0.038147,-3.761291,-0.976562,1.017819279724058
-0.229004,-0.976318,0.182617,0.244141,-3.341675,-0.747681,1.0193079210076805
-0.229248,-0.977051,0.183838,0.526428,-2.39563,-0.427246,1.0202841331457626
-0.231689,-0.980713,0.182129,1.029968,-1.441955,-0.1297,1.0240355236665377
-0.237549,-0.985352,0.173584,1.533508,-1.00708,-0.068665,1.0283382208014054
-0.242432,-0.986816,0.164307,1.89209,-1.190186,0.152588,1.0293570239372731
-0.235107,-0.982666,0.155273,1.914978,-1.76239,0.289917,1.022260961562164
-0.23584,-0.980957,0.149902,1.976013,-2.258301,0.442505,1.0199841915701438
-0.237305,-0.977539,0.143799,1.968384,-3.082275,0.419617,1.0161566375057538
-0.235596,-0.975342,0.138428,1.777649,-4.180908,0.267029,1.0128967387468477
-0.234375,-0.977539,0.136719,1.541138,-4.646301,0.061035,1.0144980148364018
-0.238037,-0.976807,0.135742,1.106262,-4.66156,-0.137329,1.0145143760351552
-0.23999,-0.976074,0.132813,1.106262,-4.585266,-0.343323,1.0138811303821567
-0.237305,-0.976563,0.135254,0.946045,-4.341125,-0.862122,1.0140427015219822
-0.236816,-0.97583,0.132813,0.747681,-3.540039,-1.350403,1.0128994519324215
-0.240967,-0.976563,0.133301,0.587463,-2.700805,-1.487732,1.014647497734558
-0.24292,-0.97583,0.138672,0.579834,-2.113342,-1.800537,1.0151276958511182
-0.246094,-0.972656,0.138428,0.404358,-2.006531,-2.006531,1.0128100820765953
-0.247803,-0.971924,0.137939,0.305176,-2.235413,-2.166748,1.0124572861637176
-0.248535,-0.973145,0.141357,0.167847,-2.5177,-2.380371,1.0142793691577288
-0.248535,-0.973389,0.142822,0.083923,-2.670288,-2.510071,1.0147186384560007
-0.24707,-0.972412,0.141602,0.068665,-2.944946,-2.540588,1.0132520955063453
-0.244873,-0.969482,0.143799,0.083923,-3.067016,-2.449036,1.0102159605025056
-0.244629,-0.967529,0.144775,0.068665,-3.067016,-2.449036,1.0084222895726769
-0.246094,-0.967773,0.14209,0.061035,-2.975464,-2.426147,1.0086309555357698
-0.24585,-0.967041,0.14209,-0.007629,-3.14331,-2.372742,1.0078690819154044
-0.244385,-0.968018,0.141846,-0.061035,-3.440857,-2.250671,1.0084161662056992
-0.245117,-0.970215,0.142578,-0.144958,-3.761291,-2.288818,1.0108056074231089
-0.244629,-0.972412,0.141602,-0.244141,-4.03595,-2.197266,1.0126596524938674
-0.239014,-0.976318,0.14209,-0.167847,-4.013062,-2.243042,1.0151424025327678
-0.236572,-0.977783,0.139404,-0.015259,-3.288269,-2.357483,1.0156078876658057
-0.238281,-0.977539,0.139893,0.320435,-2.281189,-2.433777,1.0158397427404582
-0.23999,-0.977295,0.137939,0.37384,-1.564026,-2.441406,1.0157400675596095
-0.240967,-0.976318,0.131592,0.419617,-0.854492,-2.304077,1.0141885360607268
-0.243652,-0.973877,0.132324,0.442505,-0.106812,-2.059937,1.012577083094912
-0.250488,-0.96875,0.133057,0.312805,0.358582,-1.785278,1.0094181323381306
-0.252441,-0.968994,0.133545,-0.076294,0.183105,-1.617432,1.0102029981850182
-0.249512,-0.96875,0.134521,-0.312805,-0.37384,-1.327515,1.0093704474002596
-0.244873,-0.965576,0.131348,-0.480652,-0.610352,-1.121521,1.004764696338899
-0.243408,-0.965576,0.129883,-0.457764,-0.427246,-1.121521,1.0042181336388027
-0.243164,-0.966553,0.132324,-0.465393,0.007629,-1.113892,1.0054168656239062
-0.24292,-0.966797,0.133301,-0.335693,0.617981,-1.052856,1.0057214933618552
-0.246582,-0.967041,0.13208,-0.404358,0.946045,-1.00708,1.0066857030895988
-0.249756,-0.965576,0.13501,-0.610352,0.846863,-1.037598,1.0064505807102504
-0.248535,-0.964111,0.139893,-0.671387,0.762939,-1.00708,1.0054102237370575
-0.250488,-0.962891,0.14209,-0.793457,0.671387,-0.915527,1.0050337726290595
-0.249512,-0.965332,0.142822,-1.060486,0.518799,-0.953674,1.007233951002447
-0.250488,-0.968018,0.142578,-1.098633,0.25177,-1.060486,1.010015629855301
-0.251709,-0.968262,0.140869,-1.060486,-0.213623,-1.045227,1.0103132170203457
-0.250244,-0.968994,0.138672,-1.037598,-0.556946,-1.052856,1.0103471458642324
-0.250244,-0.970947,0.138428,-1.029968,-0.823975,-1.167297,1.0121869627341582
-0.248291,-0.971436,0.135986,-0.831604,-0.640869,-1.00708,1.0118441159452378
-0.247559,-0.972412,0.133057,-0.846863,-0.427246,-0.823975,1.0122127846821538
-0.244141,-0.9729,0.133789,-0.87738,-0.152588,-0.724792,1.0119479899688522
-0.248535,-0.972656,0.132813,-0.900268,0.305176,-0.534058,1.012654251721682
-0.250977,-0.969727,0.131104,-0.999451,0.473022,-0.320435,1.010221840921092
-0.252197,-0.969482,0.134277,-1.174927,0.137329,-0.236511,1.0107071721631344
-0.249512,-0.972656,0.134277,-1.167297,-0.076294,-0.152588,1.0130874815182547
-0.249023,-0.973389,0.130859,-1.289368,0.053406,-0.152588,1.0132239030594372
-0.249268,-0.973877,0.129395,-1.13678,0.236511,-0.160217,1.013565001851386
-0.248535,-0.973877,0.12793,-1.167297,0.457764,-0.137329,1.01319896479122
-0.24707,-0.97583,0.129639,-1.159668,1.060486,-0.144958,1.01493548766461
-0.252686,-0.97583,0.12915,-1.106262,1.663208,-0.053406,1.0162549512774832
-0.253906,-0.974609,0.131836,-1.014709,2.105713,0.061035,1.0157320958860165
-0.256348,-0.973633,0.128662,-0.831604,2.174377,0.190735,1.0150021803114513
-0.252686,-0.971924,0.126221,-0.793457,1.899719,0.25177,1.0121354737449924
-0.251221,-0.972412,0.127441,-0.488281,1.678467,0.244141,1.0123923632001577
-0.249512,-0.974854,0.125977,-0.305176,1.770019,0.213623,1.014133504026467
-0.24707,-0.975586,0.126465,-0.305176,2.105713,0.114441,1.0143002634925222
-0.247314,-0.974121,0.128906,-0.175476,2.63977,0.106812,1.013258453738729
-0.246338,-0.974121,0.126953,0.015259,3.303528,0.114441,1.0127740108701448
-0.250244,-0.97583,0.128906,0.091553,3.845215,-0.030518,1.0156195179652665
-0.254639,-0.977539,0.127197,0.106812,3.974914,-0.076294,1.0181368246218188
-0.254883,-0.979492,0.126709,0.152588,3.868103,-0.137329,1.0200123001385817
-0.253662,-0.977051,0.124268,0.175476,3.639221,-0.282288,1.0170622412954873
-0.25415,-0.976074,0.123535,0.167847,3.494262,-0.267029,1.0161562735135774
-0.256348,-0.974365,0.122559,0.106812,3.540039,-0.289917,1.0149493380509196
-0.254639,-0.968262,0.120361,-0.038147,3.601074,-0.022888,1.008394313394319
-0.254883,-0.962402,0.117676,-0.343323,3.547668,0.25177,1.0025121417065233
-0.256348,-0.955566,0.121338,-0.549316,3.387451,0.595093,0.9967665663052708
-0.26123,-0.955078,0.121094,-0.62561,2.944946,0.892639,0.9975363932308435
-0.261719,-0.956055,0.118408,-0.846863,2.151489,1.243591,0.9982777431406552
-0.259766,-0.958008,0.119141,-0.892639,0.839233,1.564026,0.9997261028406731
-0.258057,-0.963867,0.118652,-0.762939,-0.259399,1.579285,1.0048439212345368
-0.254639,-0.966064,0.119873,-0.610352,-0.915527,1.335144,1.006225724450533
-0.254883,-0.971436,0.117188,-0.236511,-1.060486,1.159668,1.0111311849255762
-0.255371,-0.978027,0.117676,0.152588,-0.762939,0.907898,1.0176437497208932
-0.256592,-0.985596,0.116699,0.663757,-0.152588,0.648498,1.0251134504439008
-0.255615,-0.989258,0.114258,1.159668,0.793457,0.480652,1.0281173616630546
-0.254639,-0.99292,0.115234,1.701355,2.13623,0.411987,1.0315086143493908
-0.256104,-0.99585,0.11377,2.27356,3.578186,0.434875,1.0345289238179858
-0.256104,-0.995117,0.112549,2.777099,5.371093,0.556946,1.033689692270364
-0.253662,-0.99292,0.113037,3.097534,6.706237,0.862122,1.0310246844828692
-0.25415,-0.986572,0.113281,3.40271,7.698059,1.327515,1.0250605438924083
-0.254883,-0.983154,0.113281,3.631592,8.44574,1.647949,1.021953871936498
-0.254395,-0.981201,0.112305,3.875732,8.81958,1.770019,1.0198453958571367
-0.254395,-0.97876,0.111816,3.967285,8.834839,1.968384,1.0174432522165548
-0.252197,-0.97583,0.110596,4.02832,9.025574,2.204895,1.0139423015758835
-0.255127,-0.97168,0.112305,3.959656,9.284973,2.243042,1.0108729997155925
-0.256592,-0.969971,0.111816,3.883362,9.346008,2.14386,1.0095474298719205
-0.257324,-0.970459,0.110107,3.761291,9.57489,2.067566,1.0100147836076458
-0.26123,-0.970947,0.11377,3.791809,9.94873,1.937866,1.011890706849806
-0.270752,-0.967773,0.116455,3.883362,10.139464,1.907349,1.0116585353062564
-0.274414,-0.967773,0.115967,3.700256,9.895325,1.823425,1.0125887457472555
-0.273682,-0.964355,0.112061,3.601074,9.70459,1.747131,1.0086823438873112
-0.275391,-0.965088,0.116211,3.341675,9.552002,1.686096,1.010316805336821
-0.277344,-0.9646,0.115723,3.15094,9.185791,1.579285,1.0103289895202452
-0.279297,-0.965088,0.111816,3.02124,8.544922,1.663208,1.0108929121370869
-0.28125,-0.965332,0.111816,2.807617,7.728576,1.655578,1.011667065086138
-0.281494,-0.965332,0.114014,2.624511,6.980896,1.861572,1.0119802045771449
-0.280273,-0.961182,0.114258,2.449036,6.393432,2.02179,1.0077096219730166
-0.276611,-0.961182,0.112793,2.304077,5.805969,2.243042,1.006532037887518
-0.275391,-0.962158,0.114502,2.044678,5.485534,2.388,1.0073226532988324
-0.273193,-0.963867,0.114502,1.861572,5.0354,2.487183,1.0083574351101896
-0.273682,-0.965576,0.112793,1.602173,4.333496,2.655029,1.0099312401094442
-0.275391,-0.966797,0.111572,1.426697,3.77655,2.761841,1.0114271863431394
-0.275391,-0.966553,0.111816,1.251221,3.250122,2.792358,1.0112209068972022
-0.273438,-0.964355,0.115967,0.991821,2.838135,2.944946,1.0090576053714673
-0.274658,-0.965332,0.114502,0.793457,2.792358,3.135681,1.0101552332151726
-0.274902,-0.965332,0.113037,0.648498,3.02124,3.280639,1.0100566039569268
-0.272217,-0.962158,0.112793,0.572205,3.082275,3.456115,1.0062665516164193
-0.271973,-0.960205,0.112061,0.526428,3.295898,3.562927,1.0042512745697663
-0.272705,-0.959961,0.110107,0.488281,3.601074,3.829956,1.004000343622949
-0.274902,-0.957031,0.110107,0.427246,3.768921,4.03595,1.0017998782261854
-0.273926,-0.958252,0.10791,0.549316,4.081726,4.020691,1.002460431677979
-0.274902,-0.960205,0.107422,0.808716,4.356384,3.807068,1.0045418048608032
-0.275635,-0.966309,0.108154,0.816345,4.585266,3.479004,1.0106557398154923
-0.276855,-0.969727,0.10791,1.068115,5.142211,3.051758,1.0142306018130196
-0.281494,-0.971924,0.107666,1.106262,5.561828,2.380371,1.0175790393713895
-0.285645,-0.970215,0.105957,1.235962,6.034851,1.777649,1.0169253158905034
-0.288086,-0.968506,0.107178,1.266479,6.553649,1.342773,1.0161124638129384
-0.290771,-0.967773,0.106934,1.159668,7.080078,1.075745,1.0161531549554919
-0.295898,-0.963379,0.105957,1.182556,7.347106,0.946045,1.013351671382645
-0.29834,-0.963623,0.107666,0.923157,7.316589,0.831604,1.0144791812969844
-0.301514,-0.964355,0.109619,0.62561,6.988525,1.022339,1.0163206105270126
-0.302979,-0.962891,0.108887,0.549316,6.195068,1.068115,1.015288988953884
-0.299072,-0.964844,0.113037,0.411987,5.249023,1.235962,1.0164375873062743
-0.300781,-0.965576,0.114502,0.350952,4.623413,1.426697,1.0178000440857724
-0.300293,-0.963867,0.115967,0.457764,4.142761,1.63269,1.0162006812765871
-0.300049,-0.963623,0.119873,0.50354,3.440857,1.716614,1.0163504438228972
-0.301514,-0.96582,0.116699,0.640869,2.761841,1.937866,1.0184977276346767
-0.30127,-0.966797,0.114502,0.740051,2.113342,2.128601,1.0191029192937286
-0.301025,-0.96875,0.11084,0.75531,1.495361,2.26593,1.020479357324292
-0.297119,-0.968506,0.108887,0.87738,1.106262,2.418518,1.0188915305203003
-0.296875,-0.970947,0.104248,0.900268,0.999451,2.326965,1.020656890408329
-0.295654,-0.967773,0.10376,1.014709,0.892639,2.418518,1.0172325225065308
-0.293945,-0.964355,0.104248,1.106262,0.984192,2.342224,1.013534347989253
-0.290771,-0.965088,0.104492,0.946045,0.999451,2.502441,1.0133416009663276
-0.289795,-0.9646,0.104248,0.793457,1.167297,2.563476,1.0125719468408159
-0.289307,-0.965576,0.106445,0.976562,1.525879,2.548218,1.0135906915762398
-0.287598,-0.968994,0.108643,1.12915,1.831055,2.548218,1.0165949454374639
-0.290039,-0.974365,0.108887,1.358032,2.182007,2.510071,1.0224314908662586
-0.288818,-0.974365,0.105225,1.63269,2.76947,2.502441,1.0217021537483417
-0.290771,-0.972168,0.105225,1.823425,3.326416,2.471924,1.0201620926548878
-0.291748,-0.9729,0.104248,2.01416,3.837585,2.502441,1.0210381731394766
-0.294434,-0.968262,0.105469,2.13623,4.264832,2.510071,1.017519725096767
-0.296875,-0.966309,0.103516,2.105713,4.470825,2.700805,1.0161709557756509
-0.294922,-0.966309,0.102783,2.090454,4.341125,2.89154,1.0155276533182147
-0.296875,-0.962402,0.10498,1.960754,4.219055,3.013611,1.0126071181010925
-0.299561,-0.960205,0.108643,1.777649,4.096985,3.166198,1.0116984413326928
-0.297363,-0.960205,0.107178,1.617432,3.868103,3.242492,1.0108934263699612
-0.300537,-0.958984,0.105713,1.411438,3.89862,3.242492,1.0105186979932632
-0.304199,-0.956299,0.107422,1.419067,3.486633,3.036499,1.0092493721008697
-0.30542,-0.955566,0.104736,1.251221,2.754211,2.861023,1.0086413567031645
-0.306641,-0.954834,0.102539,1.121521,1.747131,2.700805,1.008092712481347
-0.307617,-0.954102,0.102539,0.930786,0.740051,2.388,1.0076969244837457
-0.305664,-0.955322,0.098145,0.579834,-0.274658,2.26593,1.0078209392570687
-0.304443,-0.95874,0.099121,0.343323,-0.724792,2.166748,1.0107882570004463
-0.303955,-0.956787,0.099609,0.267029,-1.213074,2.029419,1.0088369334411782
-0.301514,-0.959473,0.099121,0.274658,-1.449585,1.869202,1.010605809683479
-0.30127,-0.962402,0.0979,0.068665,-1.411438,1.785278,1.0131957523124542
-0.302002,-0.96167,0.100342,-0.053406,-1.51062,1.670837,1.0129575084217501
-0.303223,-0.964355,0.098633,-0.12207,-1.335144,1.556396,1.0157033141833298
-0.304688,-0.969238,0.101807,-0.099182,-1.174927,1.434326,1.0210885090123187
-0.305664,-0.971924,0.10083,-0.198364,-1.350403,1.190186,1.0238327165958314
-0.304688,-0.97583,0.102051,-0.190735,-1.63269,1.174927,1.0273720712794365
-0.307129,-0.97583,0.102295,-0.160217,-1.64032,1.220703,1.0281228907898121
-0.307129,-0.974854,0.100586,-0.076294,-1.617432,1.022339,1.0270277928824516
-0.30249,-0.970947,0.103516,0.045776,-1.770019,0.999451,1.0222298367612834
-0.300537,-0.968994,0.104492,0.1297,-1.655578,0.907898,1.01989726858591
-0.29834,-0.966553,0.106689,0.076294,-1.342773,0.907898,1.0171597711913305
-0.297852,-0.963867,0.105469,0.244141,-1.113892,1.075745,1.0143367870456044
-0.299072,-0.963623,0.105469,0.198364,-1.052856,0.946045,1.0144639260584873
-0.298096,-0.962402,0.107178,0.228882,-1.091003,0.900268,1.013195913189547
-0.298096,-0.959961,0.10791,0.343323,-1.106262,0.778198,1.0109554465143356
-0.298828,-0.962402,0.103271,0.450134,-0.862122,0.671387,1.013005766335513
-0.302734,-0.966553,0.102051,0.785828,-0.663757,0.419617,1.0179818186814535
-0.30542,-0.965088,0.101318,0.793457,-0.282288,0.289917,1.0173207759934917
-0.30835,-0.963135,0.10083,0.823975,0.114441,0.289917,1.016304796616153
-0.310547,-0.961426,0.100098,0.762939,0.183105,0.457764,1.0152827203734929
-0.313232,-0.962646,0.097656,0.801086,0.12207,0.602722,1.017024238391593
-0.313721,-0.966309,0.095459,0.709534,-0.25177,0.778198,1.0204344025967569
-0.313232,-0.966064,0.094971,0.549316,-0.686645,0.968933,1.0200065827047393
-0.311279,-0.969727,0.093506,0.358582,-1.106262,0.984192,1.0227455413767395
-0.307129,-0.970703,0.09375,0.25177,-1.38855,0.991821,1.0224390443200024
-0.302246,-0.967773,0.096436,0.045776,-1.251221,0.862122,1.0184483914961033
-0.302734,-0.965332,0.100342,-0.152588,-0.854492,0.823975,1.0166524784526911
-0.299805,-0.965576,0.10498,-0.198364,-0.717163,0.564575,1.0164845548265848
-0.294189,-0.962891,0.108154,-0.259399,-0.686645,0.320435,1.0126221078556403
-0.29541,-0.960938,0.109619,-0.221252,-0.37384,0.152588,1.0112790085357255
-0.297607,-0.963379,0.109375,0.053406,-0.030518,-0.091553,1.0142149253067616
-0.297119,-0.963623,0.109863,0.282288,0.221252,-0.289917,1.0143563797103068
-0.300781,-0.962646,0.109375,0.480652,0.587463,-0.587463,1.0144552340552047
-0.302246,-0.965576,0.109131,0.648498,0.740051,-0.785828,1.017643961045807
-0.307617,-0.964355,0.107178,0.679016,0.656128,-0.63324,1.0178879645609333
-0.311768,-0.963867,0.106934,0.717163,0.37384,-0.679016,1.0186627311671905
-0.314209,-0.963379,0.107178,0.747681,-0.030518,-0.610352,1.0189767009142063
-0.311279,-0.965576,0.105225,0.801086,-0.457764,-0.450134,1.0199529049137515
-0.31543,-0.966553,0.105469,0.862122,-0.564575,-0.320435,1.0221763530184016
-0.314697,-0.964844,0.105225,1.075745,-0.366211,-0.205994,1.020308995731195
-0.315674,-0.965332,0.105469,1.190186,-0.091553,-0.053406,1.0210972796266768
-0.314209,-0.963867,0.103516,1.228333,0.152588,-0.137329,1.0190595917933358
-0.312012,-0.961914,0.105713,1.373291,0.511169,-0.076294,1.0167621501162403
-0.311768,-0.960449,0.106934,1.449585,0.762939,0.12207,1.015429193878628
-0.316162,-0.956299,0.106934,1.487732,0.663757,-0.030518,1.0128677445752727
-0.316162,-0.956055,0.108643,1.403808,0.518799,-0.030518,1.0128192705107857
-0.313477,-0.956299,0.106201,1.190186,0.335693,-0.076294,1.0119556607534739
-0.314209,-0.956543,0.108887,1.091003,0.022888,-0.160217,1.0126984671159527
-0.313232,-0.955078,0.111816,1.091003,-0.106812,-0.236511,1.0113313451900916
-0.315186,-0.957031,0.111816,1.00708,-0.450134,-0.236511,1.0137817158604705
-0.315674,-0.958984,0.108887,0.923157,-0.892639,-0.297546,1.01545889394943
-0.317383,-0.960205,0.110352,0.862122,-1.00708,-0.38147,1.0173019092766906
-0.318604,-0.960693,0.108887,0.88501,-1.167297,-0.389099,1.0179862120058405
-0.317627,-0.961426,0.110596,0.869751,-1.25885,-0.442505,1.0185569889903068
-0.317871,-0.960205,0.111572,0.679016,-1.472473,-0.404358,1.0175873062543577
-0.316895,-0.960693,0.109131,0.617981,-1.647949,-0.320435,1.017478774439546
-0.317383,-0.960693,0.109619,0.556946,-1.792908,-0.183105,1.0176833171959734
-0.318604,-0.959473,0.111816,0.305176,-2.082825,-0.175476,1.0171527733831336
-0.318115,-0.960449,0.111572,0.198364,-2.525329,-0.144958,1.0178937793355454
-0.315186,-0.95874,0.11377,0.167847,-2.998352,-0.167847,1.015612236582447
-0.315186,-0.956787,0.114014,-0.015259,-3.349304,-0.267029,1.0137962172749513
-0.31665,-0.955811,0.111816,-0.114441,-3.562927,-0.244141,1.0130867228806228
-0.314209,-0.958008,0.11377,-0.328064,-3.822326,-0.335693,1.0146182713932368
-0.311279,-0.957031,0.112061,-0.236511,-4.104614,-0.587463,1.012600917698083
-0.310791,-0.958008,0.112305,-0.152588,-4.150391,-0.579834,1.0134015920502593
-0.312012,-0.957764,0.111572,-0.114441,-4.272461,-0.465393,1.0134651839229603
-0.314697,-0.958252,0.109863,-0.297546,-4.394531,-0.511169,1.014569354988608
-0.314209,-0.959473,0.109375,-0.305176,-4.257202,-0.350952,1.0155188939822832
-0.312012,-0.958984,0.109619,-0.259399,-4.127502,-0.25177,1.0144053063549106
-0.310059,-0.96167,0.105713,-0.183105,-3.791809,-0.244141,1.0159335661105011
-0.30957,-0.964355,0.106689,-0.007629,-3.250122,-0.144958,1.0184285412565772
-0.312744,-0.962646,0.109619,0.114441,-2.677917,-0.114441,1.0180925576847126
-0.3125,-0.962402,0.113037,0.183105,-2.166748,-0.076294,1.0181607058676936
-0.313477,-0.963867,0.111084,0.419617,-1.945495,-0.022888,1.0196308539241052
-0.312012,-0.958496,0.109375,0.396728,-1.907349,-0.045776,1.0139176301776194
-0.312744,-0.958984,0.110596,0.335693,-1.960754,0.0,1.0147367131468141
-0.312988,-0.959717,0.111572,0.511169,-2.02179,0.068665,1.0156114017757973
-0.312012,-0.95874,0.109863,0.587463,-1.914978,0.015259,1.0142010424531223
-0.311035,-0.957764,0.109863,0.396728,-1.960754,-0.022888,1.0129780499546868
-0.313721,-0.956055,0.111084,0.434875,-2.098083,-0.061035,1.0123248904981048
-0.313477,-0.958008,0.108643,0.534058,-2.151489,-0.114441,1.0138296005946956
-0.314209,-0.958984,0.107422,0.434875,-2.342224,-0.045776,1.014848310843054
-0.3125,-0.960205,0.108887,0.274658,-2.700805,0.0,1.015630971757951
-0.3125,-0.958008,0.107666,0.221252,-2.815246,-0.015259,1.0134236752809753
-0.312256,-0.959473,0.108398,0.045776,-2.685547,-0.106812,1.0148114966184607
-0.309326,-0.95459,0.110596,0.083923,-2.540588,-0.12207,1.0095326233421087
-0.310059,-0.955322,0.115723,-0.038147,-2.418518,-0.007629,1.0110235011581086
-0.311035,-0.958496,0.112549,-0.038147,-2.296448,0.022888,1.013964807398166
-0.310791,-0.962646,0.109863,-0.030518,-2.006531,-0.099182,1.017520636530778
-0.311035,-0.963379,0.108154,0.091553,-1.747131,-0.1297,1.018105670636403
-0.3125,-0.962646,0.106445,0.289917,-1.464844,-0.343323,1.0176807502065663
-0.31543,-0.960693,0.108643,0.335693,-1.144409,-0.495911,1.0169712024428224
-0.317627,-0.959229,0.107422,0.289917,-1.251221,-0.38147,1.0161430370051256
-0.316406,-0.960205,0.104492,0.137329,-1.556396,-0.267029,1.016378363074008
-0.314453,-0.959961,0.106201,0.106812,-1.876831,-0.267029,1.015718692912068
-0.314941,-0.958496,0.106689,0.175476,-2.182007,-0.213623,1.0145368195477185
-0.313721,-0.95752,0.109375,0.205994,-2.151489,-0.167847,1.0135227214354892
-0.311523,-0.954346,0.109619,0.297546,-1.853943,-0.099182,1.0098708790761322
-0.310303,-0.957275,0.108643,0.366211,-1.434326,-0.076294,1.0121594137698864
-0.311279,-0.959717,0.109375,0.434875,-0.999451,-0.1297,1.0148468980861103
-0.314697,-0.956787,0.111084,0.457764,-0.869751,-0.167847,1.0133189133900542
-0.31543,-0.957275,0.110596,0.541687,-0.732422,-0.213623,1.0139541339434441
-0.316162,-0.958984,0.109375,0.457764,-0.732422,-0.228882,1.0156631395915674
-0.316406,-0.960205,0.109619,0.518799,-0.724792,-0.190735,1.0169182484457637
-0.317871,-0.960449,0.109863,0.595093,-0.701904,-0.053406,1.0176316293291006
-0.316406,-0.960449,0.108643,0.63324,-0.671387,0.091553,1.0170439222993273
-0.315186,-0.959473,0.10791,0.740051,-0.602722,0.076294,1.0156649154248658
-0.317627,-0.962646,0.110596,0.694275,-0.640869,0.228882,1.0197086386125205
-0.318359,-0.958984,0.11084,0.717163,-0.785828,0.267029,1.0165078803122973
-0.316162,-0.95752,0.110596,0.785828,-0.793457,0.312805,1.014413345663394
-0.316406,-0.958252,0.111084,0.717163,-0.930786,0.312805,1.0152336220772045
-0.31543,-0.960449,0.112549,0.709534,-1.098633,0.244141,1.0171654948443738
-0.3125,-0.960693,0.109863,0.701904,-1.190186,0.190735,1.0161974065200128
-0.308594,-0.961426,0.107666,0.679016,-1.243591,0.12207,1.015461559030178
-0.311279,-0.960449,0.108398,0.701904,-1.113892,-0.030518,1.0154344015474364
-0.312744,-0.960449,0.109375,0.63324,-1.014709,-0.144958,1.01598916419517
-0.312256,-0.962158,0.110352,0.579834,-1.190186,-0.335693,1.017560509455826
-0.314209,-0.961426,0.108643,0.473022,-1.182556,-0.427246,1.017285874573121
-0.313965,-0.961426,0.107666,0.411987,-1.327515,-0.541687,1.017106652351168
-0.313965,-0.961914,0.106201,0.488281,-1.396179,-0.648498,1.0174139850729398
-0.315674,-0.960205,0.107422,0.312805,-1.586914,-0.686645,1.0164561979667397
-0.313232,-0.959717,0.107666,0.244141,-1.76239,-0.640869,1.0152649769734994
-0.312012,-0.96167,0.107422,0.213623,-1.815796,-0.701904,1.016710461797261
-0.312012,-0.959229,0.108887,0.213623,-1.586914,-0.701904,1.0145581015171088
-0.312012,-0.960938,0.108154,0.175476,-1.449585,-0.854492,1.0160957709310672
-0.314453,-0.959961,0.109619,0.228882,-1.091003,-0.938415,1.0160817564994462
-0.315186,-0.960205,0.110107,0.328064,-0.808716,-0.991821,1.0165920558759054
-0.317871,-0.959229,0.112061,0.350952,-0.732422,-1.052856,1.0167201752709543
-0.320068,-0.957275,0.110107,0.267029,-0.808716,-1.060486,1.0153533875936986
-0.318359,-0.95874,0.111328,0.274658,-0.869751,-1.121521,1.0163310307498241
-0.315918,-0.959229,0.113281,0.228882,-0.823975,-1.106262,1.0162465459355814
-0.317627,-0.957764,0.112793,0.282288,-0.495911,-1.106262,1.0153428247020806
-0.317383,-0.95752,0.111328,0.335693,-0.167847,-1.068115,1.0148745945549136
-0.320557,-0.956543,0.114014,0.358582,-0.091553,-0.938415,1.0152489809371887
-0.325684,-0.955322,0.115723,0.335693,-0.366211,-0.831604,1.015924211872618
-0.327393,-0.957764,0.113281,0.190735,-0.839233,-0.808716,1.018494300968837
-0.326172,-0.958008,0.11084,0.068665,-1.541138,-0.671387,1.018063361116586
-0.324951,-0.95752,0.111084,0.022888,-2.052307,-0.534058,1.0172400689399725
-0.327881,-0.959229,0.109863,0.015259,-2.532959,-0.465393,1.0196548942514816
-0.326416,-0.959961,0.108643,-0.175476,-2.868652,-0.404358,1.0197430205821465
-0.325439,-0.958984,0.108398,-0.183105,-3.349304,-0.389099,1.018484649555898
-0.322021,-0.960693,0.110107,-0.038147,-3.684997,-0.37384,1.0191918936780258
-0.322266,-0.959961,0.109375,-0.114441,-4.03595,-0.289917,1.018500558125522
-0.31958,-0.959717,0.110596,-0.335693,-4.28772,-0.320435,1.0175556848177894
-0.31665,-0.959473,0.107422,-0.419617,-4.53186,-0.389099,1.016068475208733
-0.314209,-0.958984,0.108643,-0.457764,-4.547119,-0.366211,1.0149782802533265
-0.312012,-0.957031,0.113525,-0.488281,-4.646301,-0.37384,1.0129895106712605
-0.308838,-0.956787,0.111084,-0.556946,-4.570007,-0.450134,1.0115146705159546
-0.308594,-0.959961,0.10791,-0.396728,-4.302979,-0.37384,1.014100560327722
-0.307373,-0.960449,0.108154,-0.480652,-3.974914,-0.50354,1.014217792412458
-0.308594,-0.96167,0.106201,-0.37384,-3.486633,-0.63324,1.0155383292308569
-0.310791,-0.961182,0.106445,-0.312805,-2.967834,-0.686645,1.0157718350249725
-0.310059,-0.954834,0.106445,-0.297546,-2.662658,-0.75531,1.0095420194632811
-0.310303,-0.952881,0.106201,-0.328064,-2.426147,-0.732422,1.0077444142097738
-0.313721,-0.956543,0.104492,-0.38147,-2.304077,-0.88501,1.012083966256753
-0.318604,-0.961182,0.104004,-0.556946,-2.586365,-1.029968,1.0179372170993652
-0.318359,-0.964111,0.105713,-0.656128,-3.005981,-1.228333,1.020802484112867
-0.314697,-0.964111,0.108643,-0.663757,-3.39508,-1.457214,1.0199742759398396
-0.315918,-0.962646,0.111328,-0.862122,-3.738403,-1.708984,1.019257292161307
-0.317627,-0.962158,0.11377,-0.846863,-3.837585,-1.876831,1.019597244500494
-0.31958,-0.96167,0.112549,-0.869751,-4.043579,-1.770019,1.0196116136554154
-0.318604,-0.959717,0.113281,-0.75531,-4.470825,-1.747131,1.017544993533947
-0.317139,-0.960693,0.11377,-0.717163,-5.004883,-1.747131,1.0180627674510054
-0.315186,-0.960449,0.111816,-0.648498,-5.340576,-1.571655,1.017009003919336
-0.313965,-0.962646,0.111328,-0.747681,-5.584716,-1.350403,1.0186536536649735
-0.313721,-0.964355,0.110107,-0.831604,-5.699157,-1.014709,1.0200612644910108
-0.311768,-0.96875,0.108398,-0.709534,-5.783081,-0.930786,1.0234383101721374
-0.312012,-0.966797,0.107422,-0.732422,-5.714416,-0.87738,1.0215612626940198
-0.308838,-0.966553,0.106934,-0.671387,-5.393981,-0.854492,1.0203139185608516
-0.308838,-0.963135,0.106689,-0.541687,-4.951477,-0.946045,1.0170508744354925
-0.307861,-0.965088,0.104248,-0.534058,-4.638672,-0.984192,1.0183520454975283
-0.307617,-0.965332,0.102783,-0.526428,-4.165649,-0.900268,1.0183606600816824
-0.309326,-0.962402,0.104736,-0.480652,-3.822326,-0.770569,1.0163020287178413
-0.307373,-0.960693,0.103027,-0.465393,-3.738403,-0.808716,1.0139150675017115
-0.30835,-0.960693,0.102539,-0.419617,-3.77655,-0.816345,1.0141622203917873
-0.305176,-0.956055,0.102051,-0.541687,-3.77655,-0.770569,1.008755649601032
-0.302979,-0.952148,0.105957,-0.762939,-3.814697,-0.770569,1.004793000669292
-0.303467,-0.953125,0.108887,-0.862122,-3.852844,-0.785828,1.0061788431899172
-0.304199,-0.954834,0.110107,-0.946045,-3.837585,-0.709534,1.008151055450521
-0.30249,-0.956543,0.108398,-0.930786,-3.669739,-0.770569,1.0090712746644808
-0.303955,-0.95459,0.108887,-0.808716,-3.479004,-0.801086,1.0077137931446607
-0.302002,-0.950684,0.106934,-0.816345,-3.059387,-0.793457,1.0032149102839332
-0.30249,-0.952393,0.104492,-0.923157,-2.632141,-0.732422,1.0047244421297812
-0.300049,-0.953125,0.10083,-1.075745,-2.571106,-0.778198,1.0043123801517135
-0.299561,-0.950684,0.09668,-1.365662,-2.868652,-0.778198,1.0014409033872143
-0.294922,-0.950195,0.093262,-1.63269,-3.067016,-0.862122,0.9992733984015586
-0.290527,-0.95166,0.09375,-1.983642,-2.845764,-1.045227,0.9994257130117274
-0.287842,-0.958496,0.093262,-2.365112,-2.418518,-1.304626,1.0051195946871196
-0.285645,-0.963379,0.090332,-2.845764,-1.815796,-1.747131,1.008886531721977
-0.28418,-0.962646,0.088623,-3.211975,-1.022339,-2.365112,1.0076207768029597
-0.286865,-0.965332,0.088867,-3.868103,-0.228882,-2.983093,1.0109672309911928
-0.286621,-0.965332,0.088135,-4.600525,0.053406,-3.723144,1.0108339359607987
-0.291504,-0.964355,0.09082,-5.1651,0.221252,-4.562378,1.0115351800313224
-0.299072,-0.967529,0.096191,-5.935668,-0.099182,-5.41687,1.017255688362567
-0.302002,-0.971436,0.101074,-6.523132,-0.88501,-6.202697,1.0223057583599928
-0.307373,-0.974365,0.104492,-7.026672,-1.647949,-7.072448,1.0270267242959163
-0.30957,-0.972168,0.107178,-7.369995,-2.540588,-7.659912,1.0258807575971
-0.313232,-0.968018,0.112549,-7.659912,-3.166198,-7.759094,1.0236407629383466
-0.31665,-0.965088,0.116455,-7.736206,-4.03595,-7.835388,1.0223618915379231
-0.321045,-0.965088,0.115234,-7.728576,-4.882813,-7.598876,1.0235934810875849
-0.324707,-0.966553,0.118408,-7.781982,-6.088256,-7.156372,1.0264890608876451
-0.327148,-0.969727,0.119141,-7.667541,-7.453918,-6.706237,1.0303353077100679
-0.325928,-0.970215,0.118408,-7.347106,-8.682251,-6.286621,1.030323571443942
-0.321045,-0.9646,0.113037,-7.057189,-9.475708,-5.737304,1.0228882712173408
-0.320801,-0.964844,0.106201,-6.652832,-9.765625,-5.256652,1.0223090913896835
-0.318604,-0.967041,0.098877,-6.362915,-9.735107,-4.966736,1.0229630812624666
-0.319336,-0.967285,0.095459,-6.065368,-9.773254,-4.615784,1.0230973427792684
-0.318359,-0.970459,0.091797,-5.889892,-10.002136,-4.318237,1.0254607807083602
-0.31665,-0.968506,0.088135,-5.874633,-10.505675,-3.990173,1.0227604180652476
-0.314453,-0.968506,0.08667,-5.836486,-11.047362,-3.829956,1.0219570686408506
-0.310059,-0.965332,0.082764,-5.653381,-11.604308,-3.578186,1.01727692070596
-0.306641,-0.961914,0.083252,-5.577087,-12.069701,-3.387451,1.013034126661585
-0.306641,-0.96582,0.083984,-5.485534,-12.557982,-3.189087,1.016803957278393
-0.303223,-0.966797,0.08667,-5.371093,-13.130187,-3.051758,1.0169327980933647
-0.298096,-0.966797,0.089355,-5.218505,-13.618468,-2.89154,1.015648551640773
-0.294189,-0.968506,0.089355,-4.928589,-13.999938,-2.700805,1.0161374689391194
-0.291992,-0.973633,0.091064,-4.79126,-14.328002,-2.578735,1.0205455398212273
-0.287842,-0.976807,0.087402,-4.760742,-14.61029,-2.593994,1.0220782953458116
-0.287354,-0.973389,0.088623,-4.463196,-14.923095,-2.571106,1.018779908893967
-0.286133,-0.976318,0.089355,-4.592896,-15.663146,-2.624511,1.0212997830402197
-0.283447,-0.975586,0.092773,-4.608154,-16.334534,-2.784729,1.0201554169507703
-0.279785,-0.9729,0.094971,-4.524231,-16.777039,-2.876281,1.0167760555137004
-0.275146,-0.972656,0.095703,-4.28009,-16.50238,-3.074646,1.0153443159150495
-0.27417,-0.971924,0.091553,-3.929138,-16.166687,-3.463745,1.0139957605853192
-0.277832,-0.974854,0.088379,-3.829956,-16.517639,-3.822326,1.0175174638211375
-0.278564,-0.975098,0.088379,-3.601074,-17.00592,-4.005432,1.0179513049949884
-0.282471,-0.97583,0.087646,-3.570556,-17.38739,-4.066467,1.0196645899789794
-0.281982,-0.977051,0.080322,-3.700256,-17.76886,-4.081726,1.0200951566442222
-0.279297,-0.976074,0.079102,-3.677368,-17.967224,-3.822326,1.0183243069322268
-0.278076,-0.975586,0.074463,-3.860473,-18.196106,-3.349304,1.0171720815776453
-0.277344,-0.976318,0.071045,-3.929138,-18.569946,-2.914428,1.0174300582767348
-0.276855,-0.97583,0.071777,-4.112244,-18.981934,-2.418518,1.0168799425959782
-0.275146,-0.976563,0.074463,-4.188538,-19.065857,-2.02179,1.0173128096382154
-0.273682,-0.975098,0.072021,-4.203796,-18.699646,-1.480102,1.0153349059147923
-0.268799,-0.975098,0.072754,-4.043579,-18.157959,-0.984192,1.014081927913618
-0.268799,-0.974609,0.072754,-3.784179,-17.25769,-0.694275,1.0136117352310006
-0.268555,-0.975342,0.075439,-3.677368,-16.25824,-0.541687,1.0144480507694813
-0.27002,-0.9729,0.080078,-3.471374,-15.426635,-0.411987,1.0128463340921958
-0.268066,-0.972168,0.082031,-3.295898,-14.907836,-0.144958,1.0117801567242757
-0.269043,-0.975098,0.083496,-3.089905,-14.343261,-0.061035,1.01497380629699
-0.270508,-0.974854,0.085205,-2.845764,-13.97705,0.007629,1.015270797080759
-0.269531,-0.974365,0.083496,-2.555847,-13.610839,0.0,1.0143991794170577
-0.268066,-0.976807,0.07959,-2.27356,-12.96997,-0.160217,1.0160442233018208
-0.269531,-0.974854,0.081055,-2.052307,-12.245177,-0.068665,1.014670978348154
-0.27002,-0.972412,0.081543,-1.89209,-11.802672,-0.015259,1.0124945229446924
-0.272217,-0.968018,0.079346,-1.853943,-11.787414,0.099182,1.0086906022805011
-0.271729,-0.966797,0.079102,-1.731872,-12.08496,0.228882,1.0073679640796604
-0.27002,-0.970947,0.078857,-1.724243,-12.428283,0.282288,1.0108745241908117
-0.269531,-0.971436,0.073975,-1.731872,-12.901305,0.396728,1.0108447767496254
-0.265625,-0.971436,0.07251,-1.777649,-13.504027,0.328064,1.0097040372411115
-0.263428,-0.973145,0.06958,-1.808166,-13.816833,0.228882,1.0105676021964092
-0.264404,-0.976563,0.072266,-1.88446,-14.09912,0.083923,1.0143013077685545
-0.265869,-0.976807,0.068359,-1.914978,-14.289855,-0.022888,1.0146483101503692
-0.264404,-0.980713,0.067139,-2.01416,-14.305114,-0.099182,1.0179465157394076
-0.26416,-0.980225,0.065186,-2.166748,-13.832091,-0.053406,1.0172859828096523
-0.258545,-0.980713,0.064209,-2.319336,-13.008117,0.282288,1.016251101389317
-0.260498,-0.978271,0.063721,-2.510071,-12.413024,0.343323,1.014363703651703
-0.263184,-0.979004,0.067871,-2.807617,-12.428283,0.556946,1.016032047975358
-0.260254,-0.978516,0.064697,-3.013611,-12.886046,0.839233,1.0145991368915115
-0.258789,-0.97876,0.06665,-3.204345,-13.702392,0.762939,1.014586175059073
-0.250488,-0.976563,0.070068,-3.349304,-14.434813,0.938415,1.010608260275464
-0.240967,-0.976074,0.074463,-3.257751,-14.633178,0.648498,1.0081320781197272
-0.239258,-0.974609,0.076172,-2.89917,-14.335631,0.343323,1.006433935749883
-0.238525,-0.976807,0.075195,-2.754211,-13.313293,0.106812,1.0083156147253696
-0.237061,-0.977295,0.073486,-2.449036,-11.886596,-0.228882,1.0083172253522201
-0.234131,-0.974365,0.073975,-2.250671,-10.429381,-0.50354,1.0048267407921627
-0.235596,-0.973877,0.077393,-2.151489,-9.353638,-0.808716,1.0049535127527043
-0.236572,-0.97583,0.077393,-1.724243,-8.81958,-1.144409,1.007075060029291
-0.234863,-0.979492,0.076904,-1.617432,-8.415222,-1.464844,1.0101878201844448
-0.232666,-0.980225,0.07666,-1.335144,-7.789611,-1.571655,1.0103718492619436
-0.233154,-0.981201,0.075684,-1.25885,-6.614685,-1.533508,1.0113576310944612
-0.240723,-0.981445,0.076416,-1.037598,-5.294799,-1.556396,1.0134205720282177
-0.247803,-0.982178,0.075195,-0.831604,-4.577637,-1.472473,1.0157431951620448
-0.247559,-0.981445,0.072754,-0.892639,-4.257202,-1.396179,1.0147969703453001
-0.24292,-0.97998,0.072998,-0.564575,-3.707886,-1.266479,1.012274485899946
-0.248047,-0.978027,0.073242,-0.274658,-2.525329,-1.190186,1.0116464389805362
-0.256104,-0.975098,0.06958,-0.205994,-1.63269,-0.923157,1.0105675360014292
-0.264648,-0.972412,0.064697,-0.137329,-1.64032,-0.907898,1.009856110273637
-0.265381,-0.973145,0.063721,-0.183105,-2.250671,-0.762939,1.0106921549250296
-0.263428,-0.969482,0.062988,-0.312805,-2.471924,-0.450134,1.00660674925812
-0.267822,-0.966553,0.059326,-0.282288,-2.319336,-0.236511,1.004725285721923
-0.275146,-0.960693,0.059326,-0.244141,-2.6474,-0.053406,1.001077387538546
-0.268311,-0.956543,0.0625,-0.167847,-3.822326,-0.12207,0.9954253129039868
-0.256348,-0.959229,0.070068,0.083923,-4.486084,-0.144958,0.9953612892658624
-0.243164,-0.959717,0.069824,0.312805,-3.601074,-0.389099,0.9925023133277827
-0.242432,-0.960938,0.066162,0.434875,-1.556396,-0.579834,0.9932535047569678
-0.253662,-0.963867,0.060059,0.396728,0.747681,-0.694275,0.9984944103068379
-0.265137,-0.965576,0.054688,0.358582,2.380371,-0.595093,1.0028087643658685
-0.27417,-0.967041,0.052246,0.083923,3.257751,-0.282288,1.0065123591377307
-0.280518,-0.972656,0.046631,-0.053406,3.723144,0.328064,1.0133728301178198
-0.282959,-0.975586,0.049316,0.12207,4.104614,0.793457,1.0169886464130264
-0.286133,-0.981445,0.05127,0.045776,4.234314,1.327515,1.023589270466431
-0.288574,-0.982422,0.056641,-0.099182,3.601074,1.76239,1.0254931215961423
-0.285645,-0.979736,0.070557,0.053406,2.761841,2.067566,1.0229633355941943
-0.276611,-0.974854,0.085205,0.450134,2.593994,2.105713,1.0169138895019578
-0.268555,-0.972168,0.095703,0.88501,3.623962,2.105713,1.013109802764735
-0.271729,-0.971924,0.098633,1.403808,5.111694,2.044678,1.0140026528101393
-0.273193,-0.969727,0.101807,1.731872,6.256103,1.922607,1.012605320461531
-0.272705,-0.96875,0.10083,2.27356,6.813049,1.876831,1.0114401951796261
-0.276367,-0.969238,0.096924,2.593994,7.17926,2.044678,1.0125192744382696
-0.277588,-0.967041,0.089844,2.76947,6.912231,2.349854,1.0100966972329928
-0.276367,-0.965088,0.08667,2.990722,6.355285,2.494812,1.0076136438799348
-0.273926,-0.9646,0.08667,3.028869,5.775451,2.63977,1.0064791614216362
-0.273926,-0.967529,0.08374,3.089905,5.561828,2.922058,1.0090392494432514
-0.277832,-0.966064,0.077881,3.074646,5.599975,3.181457,1.0082339621739589
-0.278809,-0.966797,0.076416,2.990722,5.500793,3.158569,1.0090938027487832
-0.27832,-0.967773,0.072021,2.914428,5.66864,3.120422,1.0095710110586575
-0.285889,-0.971436,0.067871,2.89917,6.271362,3.158569,1.0149024066667691
-0.285889,-0.974121,0.065918,2.929687,6.896972,3.234863,1.0173443004637122
-0.29126,-0.969727,0.063232,2.838135,6.752014,2.990722,1.0144955041561299
-0.288086,-0.964111,0.063965,2.861023,6.301879,2.632141,1.0082634005764566
-0.288574,-0.967285,0.06665,2.723694,5.798339,2.738952,1.011611312313677
-0.290527,-0.967773,0.064941,2.76947,5.371093,2.822876,1.0125254815257738
-0.289063,-0.967285,0.068604,2.731323,4.707336,2.655029,1.0118815138196764
-0.282715,-0.972168,0.070557,2.929687,4.676819,2.288818,1.0148973749586705
-0.276367,-0.970703,0.074219,3.135681,5.256652,2.075195,1.0120037019986636
-0.273193,-0.971191,0.074951,3.440857,6.080627,1.876831,1.0116639887487349
-0.276123,-0.970215,0.079102,3.540039,6.744384,1.533508,1.0118390107907482
-0.278809,-0.969727,0.078125,3.639221,6.79779,1.25885,1.0120318318289203
-0.275146,-0.972656,0.079834,3.570556,6.469726,0.839233,1.0139716382660808
-0.270264,-0.976563,0.07666,3.639221,6.92749,0.495911,1.0161666587056475
-0.271484,-0.977295,0.074951,3.768921,8.308411,0.396728,1.0170677124370826
-0.275879,-0.977295,0.074463,3.890991,9.658813,0.358582,1.0182138665501468
-0.281494,-0.978027,0.074951,3.814697,10.032654,0.38147,1.0204868138128977
-0.281982,-0.979492,0.073486,3.662109,9.529114,0.495911,1.02191908612375
-0.281738,-0.97876,0.077148,3.532409,8.857727,0.534058,1.0214202133049846
-0.277832,-0.974854,0.078125,3.540039,8.872986,0.419617,1.0166781482676805
-0.281982,-0.978516,0.07959,3.417969,9.368896,0.404358,1.0214411283475913
-0.288086,-0.979492,0.076416,3.387451,9.895325,0.465393,1.023834716404948
-0.29248,-0.977051,0.074951,3.303528,9.70459,0.411987,1.0226391638315053
-0.29541,-0.979004,0.076904,3.028869,8.903503,0.419617,1.0254901878282405
-0.296387,-0.977539,0.077393,2.998352,8.178711,0.358582,1.024410770511029
-0.296631,-0.975586,0.081787,2.906799,7.713317,0.274658,1.0229599732765695
-0.296631,-0.972656,0.083496,2.830505,7.30133,0.083923,1.0203044773561467
-0.296387,-0.96875,0.08252,2.929687,7.072448,0.015259,1.0164306993932248
-0.29248,-0.968994,0.078125,2.922058,7.019042,-0.106812,1.0151834504467654
-0.296387,-0.969482,0.075439,2.76947,7.316589,-0.144958,1.0165784007217544
-0.303467,-0.96582,0.071533,2.471924,7.400512,-0.144958,1.0148977596674456
-0.307617,-0.963867,0.067383,2.113342,6.942749,-0.160217,1.0140060557348758
-0.309326,-0.966064,0.069092,1.724243,6.324768,-0.228882,1.0167280515634454
-0.311035,-0.965576,0.071289,1.312256,5.363464,-0.205994,1.0169375125945548
-0.310547,-0.962646,0.074707,1.075745,4.219055,-0.297546,1.0142523829767423
-0.306396,-0.964844,0.078369,1.014709,3.211975,-0.419617,1.0153542009136516
-0.302979,-0.966797,0.081299,1.00708,2.685547,-0.465393,1.0164163718924444
-0.307373,-0.963867,0.08374,0.946045,2.326965,-0.572205,1.015150305333156
-0.30835,-0.961182,0.08667,0.968933,1.876831,-0.595093,1.013144732268791
-0.307617,-0.962402,0.086914,0.862122,1.441955,-0.488281,1.0141005234635272
-0.30542,-0.963867,0.081299,0.823975,1.091003,-0.404358,1.0143621135915912
-0.305664,-0.963135,0.074951,0.663757,0.87738,-0.160217,1.0132507890557008
-0.303711,-0.960205,0.071777,0.534058,1.060486,0.244141,1.009646448651705
-0.299561,-0.961914,0.070801,0.312805,1.541138,0.663757,1.0099644140849717
-0.299805,-0.959717,0.072266,0.289917,1.914978,1.083374,1.0080486758435825
-0.298828,-0.959961,0.075928,0.442505,2.197266,1.541138,1.0082600638173664
-0.293945,-0.961914,0.076172,0.793457,2.777099,1.823425,1.0087043075178177
-0.291992,-0.963135,0.072266,1.167297,3.433227,2.006531,1.0090147328186045
-0.293213,-0.968994,0.073486,1.541138,3.829956,2.029419,1.015048485344912
-0.294189,-0.973145,0.072266,1.441955,3.829956,1.831055,1.0192059328231955
-0.29248,-0.97168,0.071045,1.197815,3.944397,1.487732,1.017228570590209
-0.293701,-0.970459,0.069092,1.243591,4.653931,1.091003,1.0162798101635198
-0.299072,-0.972168,0.069824,1.00708,5.363464,1.029968,1.0195244344222456
-0.305664,-0.969971,0.071777,0.854492,5.516052,0.785828,1.0195225154286687
-0.307617,-0.969971,0.071045,0.62561,5.073547,0.816345,1.0200585039864136
-0.310547,-0.969482,0.073242,0.518799,4.40979,0.991821,1.020636653318408
-0.309082,-0.96875,0.077148,0.549316,3.77655,1.029968,1.0197843199069105
-0.307129,-0.965332,0.079834,0.602722,3.059387,1.144409,1.0161533154111146
-0.304932,-0.9646,0.082764,0.602722,2.5177,1.335144,1.01503032679817
-0.307373,-0.96167,0.081543,0.511169,2.227783,1.548767,1.0128852900886656
-0.30835,-0.960693,0.079102,0.259399,1.861572,1.63269,1.01206120820482
-0.310059,-0.958984,0.083496,0.099182,1.022339,1.64032,1.0113152217548196
-0.309326,-0.958252,0.07959,0.083923,0.12207,1.647949,1.0100812036069178
-0.308105,-0.959229,0.075928,-0.114441,-0.442505,1.518249,1.0103534167062533
-0.30835,-0.958984,0.072021,-0.144958,-0.823975,1.289368,1.0099094311852919
-0.309814,-0.962891,0.067383,-0.282288,-1.243591,1.098633,1.0137476318916854
-0.309082,-0.964355,0.068115,-0.106812,-1.602173,0.823975,1.0149639904814356
-0.306885,-0.963135,0.068115,-0.053406,-1.907349,0.549316,1.0131372486859813
-0.305908,-0.961914,0.063965,-0.37384,-2.037048,0.274658,1.0114097928559918
-0.30542,-0.965088,0.061035,-0.518799,-1.998901,0.228882,1.0141013240150119
-0.306885,-0.968262,0.063232,-0.434875,-1.655578,0.137329,1.0176973959350588
-0.304688,-0.968018,0.063477,-0.259399,-1.312256,0.190735,1.0168200210445308
-0.302002,-0.969727,0.064697,-0.259399,-1.060486,0.228882,1.0177236188386314
-0.299805,-0.969727,0.064697,-0.297546,-0.62561,0.259399,1.0170738391891712
-0.299805,-0.971924,0.063721,-0.175476,0.167847,0.282288,1.0191072885825123
-0.305176,-0.973877,0.065918,-0.305176,0.709534,0.244141,1.0226993618991849
-0.306396,-0.971436,0.069336,-0.267029,0.778198,0.228882,1.0209671355180832
-0.301514,-0.970947,0.069336,-0.37384,0.267029,0.274658,1.0190467358767212
-0.302979,-0.970215,0.06958,-0.38147,-0.053406,0.259399,1.0188006660117572
-0.298584,-0.970947,0.070068,-0.343323,0.015259,0.1297,1.0182337680950284
-0.29248,-0.967041,0.073975,-0.25177,0.465393,0.083923,1.0130079697149477
-0.29248,-0.962158,0.07251,-0.076294,1.373291,0.083923,1.0082411752472717
-0.29541,-0.962158,0.072021,0.053406,2.182007,0.045776,1.0090600128362037
-0.299561,-0.962891,0.072754,0.1297,2.243042,-0.038147,1.011033636986426
-0.30127,-0.962158,0.07251,0.152588,1.739502,-0.289917,1.0108260631602253
-0.303955,-0.963623,0.071289,0.175476,1.205444,-0.617981,1.0129363502584947
-0.305664,-0.962402,0.071533,0.152588,0.892639,-0.862122,1.012306801611547
-0.306885,-0.964111,0.070313,0.022888,0.541687,-1.052856,1.014215135715791
-0.309326,-0.964844,0.067627,0.0,0.572205,-1.167297,1.015470299782815
-0.312988,-0.963867,0.06665,-0.1297,0.938415,-1.144409,1.0155999725940328
-0.317139,-0.964111,0.064209,-0.12207,1.029968,-1.075745,1.01696114051767
-0.318848,-0.964844,0.065186,-0.198364,0.602722,-0.907898,1.0182520346338624
-0.31543,-0.966797,0.064941,-0.320435,0.221252,-0.816345,1.0190239730202622
-0.314697,-0.966309,0.066895,-0.213623,0.25177,-0.648498,1.0184607141736004
-0.313477,-0.960693,0.070068,-0.190735,0.389099,-0.495911,1.0129700856402424
-0.313721,-0.961426,0.072754,-0.244141,0.25177,-0.495911,1.0139299600233735
-0.312988,-0.963135,0.071289,-0.335693,0.106812,-0.534058,1.0152204873277528
-0.315186,-0.965088,0.070801,-0.480652,0.015259,-0.411987,1.0177179589360699
-0.31665,-0.965088,0.068359,-0.556946,-0.411987,-0.320435,1.018005414094149
-0.319336,-0.964111,0.069824,-0.724792,-1.022339,-0.404358,1.0180181197763625
-0.313965,-0.962891,0.06958,-0.831604,-1.739502,-0.350952,1.0151721408244023
-0.30835,-0.965332,0.071533,-0.770569,-2.037048,-0.419617,1.015904800073806
-0.30835,-0.964355,0.071045,-0.75531,-2.037048,-0.389099,1.014942205522068
-0.307617,-0.964844,0.072021,-0.709534,-2.029419,-0.198364,1.0152532627211794
-0.305908,-0.965088,0.072754,-0.839233,-2.174377,-0.289917,1.015021032651048
-0.30542,-0.966309,0.07373,-0.656128,-2.159119,-0.282288,1.016105591354068
-0.304443,-0.963867,0.071777,-0.549316,-1.922607,-0.37384,1.01334943216395
-0.302979,-0.961426,0.072021,-0.434875,-1.739502,-0.419617,1.0106053890406481
-0.304932,-0.962891,0.073975,-0.289917,-1.525879,-0.526428,1.0127264700450955
-0.307373,-0.961182,0.077148,-0.305176,-1.350403,-0.541687,1.0120774733966764
-0.311035,-0.957764,0.076416,-0.320435,-1.174927,-0.427246,1.009898042367149
-0.315186,-0.959717,0.076416,-0.175476,-1.190186,-0.244141,1.0130342243680617
-0.316162,-0.962646,0.077637,0.1297,-1.472473,-0.076294,1.016205311602434
-0.317139,-0.966797,0.07666,0.274658,-1.869202,-0.045776,1.0203677474959703
-0.314453,-0.968506,0.07251,0.396728,-2.037048,0.015259,1.0208536924285478
-0.31665,-0.96875,0.07251,0.549316,-1.899719,-0.137329,1.0217639086892825
-0.322998,-0.968994,0.074951,0.488281,-1.922607,-0.183105,1.0241556192498287
-0.323242,-0.973145,0.074951,0.37384,-1.51062,0.038147,1.0281606070989104
-0.31958,-0.973633,0.067871,0.183105,-1.274109,0.236511,1.026985427223775
-0.321045,-0.966064,0.061768,0.267029,-1.266479,-0.045776,1.0198847140461513
-0.326416,-0.9646,0.060547,0.038147,-1.281738,0.114441,1.0201306309806601
-0.333496,-0.965332,0.065186,-0.106812,-1.853943,0.679016,1.023393700799453
-0.330811,-0.965332,0.074463,-0.022888,-3.013611,1.022339,1.0231551819318514
-0.32251,-0.964844,0.077148,-0.007629,-3.814697,1.106262,1.0202394122655722
-0.316895,-0.963135,0.082275,0.282288,-4.295349,1.220703,1.0172613454147366
-0.313477,-0.9646,0.083984,0.434875,-4.234314,1.365662,1.01772997488774
-0.314453,-0.963135,0.080078,0.305176,-4.02832,1.411438,1.016327803180647
-0.323242,-0.958496,0.072266,-0.068665,-4.478455,1.426697,1.0141116049705772
-0.323975,-0.95752,0.067139,-0.305176,-5.638122,1.426697,1.0130705781662006
-0.319336,-0.958008,0.06665,-0.549316,-6.91986,1.564026,1.0120262009750538
-0.312744,-0.960449,0.064209,-0.63324,-7.659912,1.586914,1.0121234543364757
-0.309326,-0.96167,0.062012,-0.679016,-7.751464,1.647949,1.0120954753974547
-0.311035,-0.961426,0.061035,-0.648498,-7.56073,1.579285,1.0123280080714945
-0.310547,-0.965088,0.066895,-0.595093,-7.583618,1.64032,1.016026194533389
-0.30835,-0.970215,0.068604,-0.617981,-7.67517,1.63269,1.0203447346563808
-0.306641,-0.970459,0.067627,-0.450134,-7.339477,1.487732,1.0199964630776912
-0.3125,-0.969482,0.068115,-0.297546,-6.896972,1.426697,1.0208776868699794
-0.314697,-0.971191,0.065918,-0.160217,-6.660461,1.525879,1.023030470227549
-0.315186,-0.972412,0.061035,-0.198364,-6.477355,1.495361,1.0240373936360918
-0.319336,-0.969238,0.056396,-0.328064,-6.492614,1.617432,1.022046129270103
-0.320557,-0.968994,0.052734,-0.305176,-6.660461,2.067566,1.0220014858311117
-0.323486,-0.969238,0.053467,-0.473022,-7.026672,2.624511,1.0231931454661922
-0.323975,-0.964844,0.049316,-0.198364,-7.133483,3.105163,1.0189778274413042
-0.321045,-0.962158,0.047607,-0.068665,-7.095336,3.532409,1.015423229711631
-0.315186,-0.959717,0.055908,-0.068665,-7.072448,4.119873,1.0116939453950489
-0.304199,-0.952148,0.062256,-0.015259,-6.706237,4.440308,1.0014982052110728
-0.292969,-0.944824,0.069092,0.236511,-6.248474,4.554749,0.9916132968052617
-0.289795,-0.940918,0.073975,0.076294,-5.645751,4.440308,0.9873095387840635
-0.287354,-0.938232,0.070313,-0.335693,-4.745483,4.295349,0.9837659910308955
-0.287354,-0.936035,0.064941,-0.892639,-3.684997,4.058838,0.9813007571697884
-0.291748,-0.939697,0.057617,-1.655578,-2.89154,3.768921,0.9856302886995711
-0.304932,-0.943115,0.053223,-2.487183,-2.342224,3.372192,0.9926137796635709
-0.319092,-0.945557,0.045166,-3.135681,-2.593994,3.349304,0.9989683239567709
-0.329346,-0.946045,0.044434,-4.066467,-3.936767,3.532409,1.0027184600360164
-0.329834,-0.952393,0.04248,-4.875183,-5.577087,3.677368,1.008785132922269
-0.330566,-0.953857,0.040039,-5.462646,-6.92749,3.761291,1.0103069723237585
-0.337402,-0.952393,0.039795,-5.935668,-8.171082,3.746032,1.011175641556896
-0.342529,-0.948486,0.037354,-6.393432,-9.437561,3.990173,1.0091318691593285
-0.349121,-0.944824,0.03418,-7.202148,-10.803222,4.478455,1.0078423170402202
-0.349609,-0.944824,0.034424,-7.652282,-12.153625,4.806519,1.0080197694653612
-0.343506,-0.94873,0.042969,-8.041382,-12.924193,5.020141,1.0099164915462069
-0.338867,-0.949219,0.051514,-8.132935,-13.420104,4.920959,1.0092082271989264
-0.339111,-0.950684,0.057129,-8.033752,-13.923644,4.814148,1.0109698614785705
-0.345215,-0.954346,0.063232,-8.010864,-15.205382,4.577637,1.016832321361295
-0.3396,-0.961426,0.06543,-8.049011,-16.792297,4.272461,1.0217383218691565
-0.330078,-0.967041,0.067871,-7.80487,-17.158508,3.921509,1.0240733637811308
-0.323242,-0.967285,0.069336,-7.080078,-16.494751,3.631592,1.0222197135083044
-0.320068,-0.970703,0.070313,-6.317138,-15.663146,3.326416,1.0245251372230941
-0.320557,-0.976318,0.067383,-5.615234,-15.151977,2.983093,1.0298029404026774
-0.31958,-0.977051,0.069336,-4.974365,-14.35852,2.822876,1.030323984917851
-0.319336,-0.97876,0.069336,-4.165649,-13.824462,2.868652,1.031869225915765
-0.318115,-0.973633,0.070801,-3.433227,-13.290404,2.754211,1.0267283737751673
-0.316406,-0.974854,0.065674,-2.815246,-12.115478,3.128052,1.0270180876829775
-0.31665,-0.973877,0.058594,-2.403259,-10.742187,3.387451,1.025737242409088
-0.318604,-0.972656,0.052979,-2.02179,-9.521484,3.921509,1.024878030593397
-0.323242,-0.969971,0.049316,-1.716614,-9.124756,4.852295,1.0236020707584566
-0.321533,-0.969727,0.048828,-1.625061,-9.33075,5.516052,1.022808925558435
-0.321533,-0.971924,0.041504,-1.464844,-9.681702,6.111145,1.0245693309293422
-0.319824,-0.969727,0.044434,-1.319885,-9.872437,6.660461,1.0220725149719074
-0.31665,-0.969482,0.037842,-1.335144,-9.803772,6.851196,1.0205854142539956
-0.315186,-0.970215,0.037598,-1.045227,-9.056091,6.813049,1.020819754131453
-0.317139,-0.971924,0.031738,-0.999451,-8.140564,6.721496,1.0228493084227999
-0.316162,-0.969727,0.030762,-1.029968,-7.347106,6.256103,1.0204289124760235
-0.318604,-0.968018,0.032227,-1.014709,-6.538391,5.844116,1.0196106789696742
-0.317383,-0.967529,0.031982,-0.862122,-5.737304,5.104064,1.018757666402565
-0.316895,-0.96875,0.033936,-1.022339,-5.111694,4.684448,1.019828738377675
-0.316406,-0.968994,0.037598,-1.167297,-5.0354,3.997802,1.020037126028264
-0.305176,-0.970703,0.045898,-1.228333,-5.073547,3.265381,1.0185790747845744
-0.30249,-0.975586,0.046631,-1.411438,-4.882813,2.861023,1.0224689206313313
-0.307129,-0.972412,0.052002,-1.457214,-4.585266,2.548218,1.0210864451107948
-0.30249,-0.975586,0.055664,-1.76239,-4.852295,2.326965,1.0229206833337567
-0.297119,-0.980957,0.057373,-1.808166,-5.226135,1.907349,1.0265709898195057
-0.299316,-0.980713,0.0625,-1.747131,-5.233764,1.396179,1.0272751852473612
-0.299316,-0.978027,0.0625,-1.304626,-4.631042,1.121521,1.0247112425385991
-0.293213,-0.975098,0.064697,-0.709534,-3.517151,0.480652,1.02028215449551
-0.291748,-0.973389,0.070801,0.221252,-1.091003,-0.022888,1.0186342927793075
-0.301514,-0.9729,0.069092,1.00708,2.044678,-0.022888,1.0208911825753026
-0.311523,-0.971436,0.066162,1.38855,4.753113,0.228882,1.022307141650199
-0.320557,-0.96875,0.060791,1.594543,6.500244,0.358582,1.0222176375068082
-0.329346,-0.96167,0.054932,1.914978,7.286071,0.648498,1.0179860024774408
-0.338379,-0.957764,0.050293,1.991272,7.263183,0.938415,1.017025866527494
-0.343262,-0.955322,0.046143,1.968384,6.744384,1.029968,1.0161683427351003
-0.343506,-0.953125,0.045166,2.082825,6.195068,1.403808,1.0141418072523192
-0.342529,-0.950439,0.044434,2.098083,5.966186,1.716614,1.0112540674420054
-0.346924,-0.946045,0.039795,2.052307,6.29425,1.960754,1.0084349487329363
-0.3479,-0.940674,0.041748,1.937866,6.759643,2.288818,1.003815162158851
-0.351807,-0.938477,0.043457,2.02179,7.30133,2.494812,1.0031927808885988
-0.351318,-0.938965,0.044434,1.937866,7.965087,2.563476,1.0035207963490342
-0.352783,-0.941406,0.043945,1.869202,8.460999,2.746582,1.0062963107107172
-0.357666,-0.939453,0.042969,1.945495,8.583069,3.082275,1.0061526930471338
-0.358887,-0.941895,0.041992,1.815796,8.140564,3.501892,1.008825751979994
-0.354492,-0.947754,0.040771,1.403808,7.324218,3.990173,1.0127015834000654
-0.35083,-0.950928,0.039795,1.197815,6.652832,4.516602,1.014361568726359
-0.349121,-0.954102,0.038818,0.88501,6.195068,4.989624,1.0167118255282563
-0.347168,-0.958984,0.03833,0.648498,5.79071,5.393981,1.0206101711133395
-0.345947,-0.960205,0.03833,0.488281,5.371093,5.569458,1.0213433104172172
-0.350342,-0.955566,0.031738,0.343323,4.959106,5.599975,1.0182598872409734
-0.350586,-0.951172,0.03833,0.030518,4.486084,5.722045,1.0144495580757085
-0.331787,-0.95459,0.039307,-0.137329,4.493713,5.66864,1.011370219908615
-0.331543,-0.953857,0.033447,0.076294,5.256652,4.623413,1.0103873708172524
-0.335938,-0.947754,0.029541,0.183105,6.088256,4.638672,1.0059645396538588
-0.338135,-0.949463,0.027344,-0.083923,5.859375,4.142761,1.00824747008361
-0.330078,-0.947754,0.031738,-0.602722,5.859375,3.379822,1.0040898521765869
-0.324707,-0.944092,0.036377,-0.907898,6.393432,2.868652,0.9990333460110329
-0.324707,-0.944824,0.032715,-1.13678,7.759094,2.105713,0.9995985684513559
-0.333496,-0.946777,0.031006,-1.091003,9.506226,1.190186,1.0042746844270247
-0.342529,-0.947266,0.030029,-1.396179,10.44464,0.160217,1.0077404087551516
-0.348389,-0.945313,0.03418,-1.609802,10.665893,-0.663757,1.0080475364237542
-0.354248,-0.944336,0.037109,-1.625061,10.620116,-1.274109,1.0092765747212207
-0.359375,-0.945801,0.036621,-1.739502,10.253905,-1.770019,1.0124381560702855
-0.364502,-0.947754,0.033203,-1.678467,10.009766,-2.120972,1.015973322351035
-0.36792,-0.948486,0.032471,-1.564026,9.742737,-2.357483,1.0178630479769861
-0.375732,-0.948242,0.029785,-1.708984,9.475708,-2.426147,1.0204041222050213
-0.381104,-0.947998,0.030762,-1.747131,8.705139,-2.357483,1.0221970296689382
-0.379639,-0.950928,0.030518,-1.991272,7.637023,-2.113342,1.0243637927167282
-0.38208,-0.952393,0.030273,-2.14386,6.774902,-2.01416,1.0266226216960155
-0.387451,-0.956787,0.029785,-2.128601,5.630493,-1.88446,1.0326891047139986
-0.386719,-0.95874,0.028076,-2.365112,4.272461,-1.853943,1.0341770807443955
-0.383789,-0.963623,0.030762,-2.563476,3.349304,-1.617432,1.0376943592860086
-0.381836,-0.963135,0.031494,-2.609253,2.853393,-1.63269,1.0365421511723487
-0.380859,-0.961426,0.034912,-2.494812,2.540588,-1.76239,1.0347040055498964
-0.380615,-0.962646,0.038818,-2.532959,2.059937,-1.502991,1.035887028910489
-0.383301,-0.959473,0.042236,-2.456665,1.304626,-1.335144,1.0340657493728336
-0.384277,-0.959229,0.046143,-2.14386,0.320435,-1.167297,1.0343685337533233
-0.384277,-0.963379,0.04834,-1.777649,-1.052856,-0.88501,1.0383181911003967
-0.381836,-0.965332,0.050049,-1.174927,-2.494812,-0.602722,1.039312033761276
-0.377686,-0.970703,0.04834,-0.350952,-3.761291,-0.495911,1.0427117455965478
-0.371582,-0.978027,0.046387,0.75531,-4.394531,-0.37384,1.0472639348425974
-0.369873,-0.980469,0.047363,1.937866,-4.318237,-0.274658,1.0489846280375132
-0.367432,-0.979248,0.044922,3.036499,-3.631592,-0.25177,1.0468767387863769
-0.362549,-0.976807,0.045654,4.074097,-2.578735,-0.068665,1.042918012293392
-0.362549,-0.975342,0.043701,5.226135,-1.327515,0.061035,1.0414622277192775
-0.355225,-0.970703,0.036865,6.278991,0.015259,0.167847,1.034315301568627
-0.349365,-0.964111,0.032227,7.156372,1.861572,0.564575,1.0259651568523174
-0.345459,-0.958252,0.02417,7.865905,3.982544,0.991821,1.0189077510182165
-0.344727,-0.955322,0.020752,8.277893,5.760192,1.502991,1.0158284666797834
-0.354492,-0.955811,0.019043,8.079529,7.263183,1.808166,1.019608690446487
-0.356689,-0.954102,0.023926,7.690429,8.155823,2.548218,1.018876892760357
-0.358643,-0.954834,0.027832,7.743835,8.644104,2.838135,1.0203467005038043
-0.369873,-0.956299,0.030518,7.728576,8.293152,2.426147,1.025790018402402
-0.371338,-0.949219,0.0271,7.209777,7.202148,2.212524,1.0196288688562127
-0.368164,-0.950439,0.025635,6.736755,5.744934,1.63269,1.0195764693449922
-0.366211,-0.95166,0.031738,6.29425,4.241943,0.923157,1.020183587774769
-0.364258,-0.951416,0.033936,5.973815,3.089905,0.312805,1.019327203461185
-0.360352,-0.953125,0.032227,5.607605,2.677917,-0.289917,1.0194799699150543
-0.362061,-0.953857,0.039063,5.226135,2.662658,-0.679016,1.0210079637980303
-0.36499,-0.950684,0.041016,5.096435,2.464294,-1.037598,1.0191663653260934
-0.367188,-0.951172,0.043457,4.79126,1.777649,-1.251221,1.0205114951714165
-0.367676,-0.948975,0.044678,4.653931,0.968933,-1.38092,1.0186929445544421
-0.371582,-0.950684,0.043701,4.03595,0.312805,-1.342773,1.021657001141283
-0.372559,-0.946533,0.046387,3.768921,-0.572205,-1.205444,1.018271418797071
-0.372559,-0.946777,0.044189,3.456115,-1.419067,-1.022339,1.0184004928960904
-0.373535,-0.94458,0.039795,3.280639,-2.13623,-0.839233,1.0165350041439793
-0.375244,-0.944092,0.039795,2.861023,-2.998352,-0.617981,1.016711073031567
-0.375488,-0.944336,0.038574,2.799988,-3.784179,-0.442505,1.0169806647699846
-0.375732,-0.943359,0.037354,2.670288,-4.501343,-0.213623,1.0161181329063074
-0.374268,-0.945313,0.03833,2.632141,-5.142211,0.0,1.0174293059928046
-0.372803,-0.944336,0.038574,2.655029,-5.271911,0.167847,1.015992377521111
-0.371582,-0.942871,0.037598,2.685547,-5.149841,0.442505,1.014146199997318
-0.368164,-0.943359,0.036133,2.799988,-4.676819,0.686645,1.0132998211121917
-0.368896,-0.944824,0.032715,2.952575,-4.104614,0.785828,1.014813737104992
-0.366699,-0.943115,0.034668,3.097534,-3.204345,0.991821,1.0124899654070652
-0.367188,-0.944092,0.03125,3.15094,-2.372742,1.235962,1.013465980834088
-0.368652,-0.943115,0.029785,2.944946,-1.922607,1.335144,1.0130436054553624
-0.366211,-0.940186,0.031982,2.716064,-1.655578,1.457214,1.0094964385479523
-0.367188,-0.940674,0.0354,2.319336,-1.556396,1.533508,1.0104195968111467
-0.364258,-0.941406,0.037109,2.105713,-1.983642,1.663208,1.0101020865640264
-0.363037,-0.941406,0.036133,1.731872,-2.319336,1.655578,1.009627017216754
-0.360596,-0.939453,0.037354,1.319885,-2.685547,1.358032,1.0069740491894517
-0.35791,-0.936768,0.040527,1.022339,-3.082275,1.243591,1.003631551742471
-0.357178,-0.936768,0.040527,0.663757,-3.39508,1.060486,1.0033707426654417
-0.356201,-0.936279,0.043945,0.099182,-3.738403,0.671387,1.002710666776314
-0.354492,-0.934814,0.048096,-0.343323,-4.295349,0.396728,1.0009270792000784
-0.356201,-0.934814,0.050293,-0.831604,-4.875183,0.068665,1.0016415291140839
-0.355713,-0.934326,0.04834,-1.190186,-5.332946,-0.221252,1.0009163642607708
-0.354736,-0.937012,0.050293,-1.838684,-5.500793,-0.541687,1.003174214027155
-0.353516,-0.941162,0.05127,-2.250671,-5.752563,-0.686645,1.0066717863335597
-0.353027,-0.943604,0.05127,-2.593994,-5.683898,-0.831604,1.0087840127822207
-0.354736,-0.945557,0.050049,-3.044128,-5.836486,-1.00708,1.0111481455978644
-0.35498,-0.946533,0.045654,-3.387451,-6.019592,-1.152039,1.0119386385572002
-0.35498,-0.947754,0.045166,-3.662109,-6.04248,-1.220703,1.0130589383012225
-0.358398,-0.947998,0.043945,-3.883362,-5.851745,-1.197815,1.014436048961688
-0.361328,-0.94873,0.043213,-4.127502,-5.569458,-1.190186,1.0161269112925806
-0.363037,-0.949707,0.043457,-4.371643,-5.714416,-1.174927,1.0176579779410173
-0.365234,-0.950439,0.043945,-4.379272,-5.950927,-1.205444,1.0191473546558418
-0.364746,-0.953613,0.039795,-4.40979,-6.233215,-1.220703,1.0217636910313461
-0.362061,-0.954834,0.036133,-4.440308,-6.652832,-1.205444,1.0218129618310778
-0.362793,-0.953125,0.041504,-4.470825,-6.866455,-1.159668,1.0206804634605289
-0.36084,-0.954102,0.043213,-4.592896,-6.683349,-1.190186,1.0209718386777376
-0.361328,-0.947021,0.041748,-4.760742,-6.599426,-1.197815,1.0144701047980664
-0.358154,-0.942627,0.044189,-4.79126,-6.484985,-1.029968,1.009342665582903
-0.357422,-0.946045,0.043945,-4.508972,-6.378173,-1.060486,1.0122661661509784
-0.356445,-0.949463,0.040283,-4.501343,-5.958557,-1.12915,1.0149658843936578
-0.357422,-0.954834,0.036865,-4.28772,-5.477905,-1.220703,1.0202046274473568
-0.360596,-0.960693,0.039795,-4.013062,-4.959106,-1.426697,1.0269100045719683
-0.362305,-0.96582,0.036865,-3.982544,-4.234314,-1.518249,1.032197758983229
-0.359863,-0.964111,0.036133,-4.013062,-4.608154,-1.838684,1.0297169478934491
-0.359863,-0.961914,0.037354,-3.959656,-4.760742,-2.174377,1.0277038695465732
-0.364014,-0.962158,0.040039,-3.868103,-4.714966,-2.319336,1.0294937254208982
-0.36499,-0.960205,0.041016,-3.631592,-5.264282,-2.532959,1.0280533324594594
-0.358154,-0.957764,0.04126,-3.39508,-5.92041,-2.593994,1.0233711716733083
-0.350586,-0.955078,0.043945,-3.211975,-5.767822,-2.632141,1.0183396744235196
-0.351807,-0.950195,0.046387,-2.967834,-5.050659,-2.456665,1.0142930824189822
-0.35376,-0.950684,0.047363,-2.960205,-4.264832,-2.13623,1.0154749919249613
-0.356201,-0.950928,0.050049,-2.830505,-3.77655,-1.88446,1.0166848656225782
-0.359131,-0.950439,0.049805,-2.563476,-3.64685,-1.739502,1.017246236614813
-0.361572,-0.95166,0.049561,-2.319336,-3.692627,-1.777649,1.0192386175498847
-0.362549,-0.954346,0.049805,-2.037048,-3.77655,-1.792908,1.0221049863600118
-0.362305,-0.955566,0.046875,-1.739502,-3.753662,-1.876831,1.0230193346198302
-0.362793,-0.958008,0.042236,-1.335144,-3.471374,-2.006531,1.0252716560058606
-0.361816,-0.961914,0.036865,-0.900268,-2.845764,-2.075195,1.0283717175598521
-0.362061,-0.959717,0.034912,-0.38147,-2.13623,-2.067566,1.026335099055859
-0.362061,-0.959229,0.034424,-0.030518,-1.296997,-2.059937,1.0258622977466323
-0.366211,-0.956543,0.036865,0.25177,-0.282288,-2.105713,1.0249117208789253
-0.368896,-0.952637,0.038574,0.389099,0.717163,-1.724243,1.0222961733573104
-0.369629,-0.95459,0.038574,0.549316,0.747681,-1.38855,1.0243806027141473
-0.366943,-0.952393,0.037842,0.62561,0.75531,-1.12915,1.021338146091685
-0.370605,-0.948486,0.040771,0.930786,0.808716,-0.671387,1.019134943303388
-0.374756,-0.948242,0.043213,0.984192,0.549316,-0.183105,1.0205255084852118
-0.375244,-0.944824,0.043213,0.839233,-0.289917,0.030518,1.0175302520716523
-0.37207,-0.942871,0.044678,0.785828,-1.312256,0.328064,1.0146122073112465
-0.370605,-0.94458,0.047119,0.816345,-2.204895,0.541687,1.0157753898308426
-0.36792,-0.944336,0.044678,0.87738,-2.433777,0.663757,1.0144613008784513
-0.368408,-0.944824,0.042725,0.747681,-2.784729,0.617981,1.0150085078781361
-0.368896,-0.94873,0.041748,0.75531,-3.631592,0.541687,1.0187815110316834
-0.365723,-0.951172,0.038818,0.854492,-4.043579,0.305176,1.0197981777964698
-0.36499,-0.951172,0.036865,0.862122,-4.066467,0.045776,1.019463045877093
-0.363037,-0.95166,0.032715,0.854492,-3.822326,-0.144958,1.0190794327205313
-0.360107,-0.949463,0.032715,1.075745,-3.52478,-0.282288,1.0159858813207001
-0.361572,-0.949707,0.031982,1.083374,-2.990722,-0.274658,1.0167106497706218
-0.364746,-0.94873,0.033691,1.045227,-2.63977,-0.259399,1.0169873848268718
-0.361816,-0.949707,0.033203,0.999451,-2.304077,-0.167847,1.0168365861405657
-0.36377,-0.948975,0.035156,0.869751,-2.044678,-0.015259,1.0169159787617656
-0.36499,-0.947266,0.035156,0.968933,-1.953125,0.175476,1.0157590852126306
-0.364258,-0.944824,0.035645,0.892639,-1.922607,0.328064,1.0132358301821942
-0.364014,-0.940186,0.038574,0.778198,-1.899719,0.534058,1.0089320394694579
-0.361328,-0.936523,0.042725,0.839233,-1.785278,0.671387,1.0047182086226965
-0.35791,-0.931396,0.041016,0.640869,-1.663208,0.991821,0.9986392687912888
-0.355957,-0.929443,0.041016,0.442505,-1.625061,1.251221,0.9961184610045133
-0.359619,-0.932129,0.040039,0.099182,-1.335144,1.571655,0.9998967043265019
-0.359131,-0.933838,0.040527,-0.137329,-1.174927,2.067566,1.0013345710270867
-0.360596,-0.94043,0.039551,0.068665,-1.068115,2.197266,1.0079694150702192
-0.362549,-0.945313,0.035889,0.526428,-1.014709,2.029419,1.0130875903351102
-0.361572,-0.952393,0.033691,1.281738,-0.930786,1.76239,1.0192751449505673
-0.36084,-0.962646,0.028809,2.288818,-0.312805,1.296997,1.02845650632246
-0.364014,-0.9729,0.026855,3.257751,0.762939,0.663757,1.0391158709311488
-0.364014,-0.97998,0.022461,4.203796,2.151489,0.213623,1.0456440546940435
-0.36499,-0.983643,0.023193,4.890442,3.448486,-0.061035,1.04943278336347
-0.364502,-0.983887,0.028076,5.584716,5.065917,-0.068665,1.0496111654079332
-0.364258,-0.983154,0.031738,6.385803,6.896972,-0.106812,1.0489437444038645
-0.362549,-0.981201,0.037598,7.164001,8.422852,0.007629,1.0467142826034237
-0.363037,-0.976074,0.042725,8.178711,9.635925,0.061035,1.0422771908038668
-0.358887,-0.973145,0.04248,9.178162,10.627746,0.183105,1.0380826653951987
-0.355225,-0.96875,0.043945,9.971619,11.810302,0.350952,1.0327596652416282
-0.35083,-0.963867,0.047607,10.658263,13.298034,0.617981,1.0268338273732514
-0.347656,-0.955811,0.051025,11.169433,15.121459,0.907898,1.0183530393149518
-0.348145,-0.947021,0.052734,11.550902,16.952515,1.167297,1.0103635930802337
-0.354248,-0.941895,0.053955,11.726378,18.211365,1.403808,1.0077544237332825
-0.359375,-0.943359,0.052246,11.558532,18.928528,1.579285,1.0108443193795966
-0.36377,-0.942383,0.048584,11.032104,18.943787,1.64032,1.0113232602115902
-0.372803,-0.940186,0.044678,10.459899,18.440247,1.602173,1.0123872357398627
-0.378662,-0.937744,0.039795,9.689331,17.150879,1.480102,1.0120930598541815
-0.380127,-0.931641,0.039307,8.865356,15.449523,1.38092,1.0069739466634675
-0.38208,-0.930908,0.038818,8.071899,13.47351,1.197815,1.007016220320209
-0.384033,-0.935059,0.039063,7.324218,11.909484,0.808716,1.0116039721842733
-0.382568,-0.938721,0.038818,6.851196,10.856627,0.495911,1.0144270439952792
-0.38208,-0.938721,0.036133,6.454467,9.300232,0.007629,1.0141438931088627
-0.381104,-0.940674,0.037842,6.179809,8.522034,-0.671387,1.0156475028551983
-0.386719,-0.945801,0.039307,5.928039,7.797241,-0.823975,1.0225635221398228
-0.39209,-0.946045,0.037598,5.546569,6.774902,-0.984192,1.024767934572994
-0.390381,-0.94751,0.041504,5.15747,5.53894,-1.220703,1.025619377389585
-0.388428,-0.945801,0.046387,4.943848,4.447937,-1.434326,1.0235074970678035
-0.391113,-0.945801,0.049072,4.669189,3.501892,-1.228333,1.024654562061771
-0.391357,-0.946533,0.051514,4.318237,2.334595,-1.083374,1.0255431310939584
-0.388916,-0.945068,0.055908,4.005432,0.900268,-0.923157,1.0234915164006002
-0.388428,-0.947754,0.056396,3.913879,-0.564575,-0.648498,1.0258140496776207
-0.382324,-0.943848,0.057861,3.677368,-1.846313,-0.396728,1.0199845995901116
-0.376221,-0.943359,0.057617,3.410339,-2.89154,-0.160217,1.0172453796459338
-0.369873,-0.94043,0.059082,3.051758,-3.562927,0.114441,1.012277286000728
-0.365479,-0.937256,0.063965,2.746582,-3.913879,0.305176,1.0080254114862381
-0.364502,-0.936279,0.059326,2.601623,-3.883362,0.38147,1.0064788363999513
-0.359863,-0.9375,0.059814,2.403259,-3.509521,0.534058,1.0059748224309593
-0.356934,-0.937988,0.059082,2.250671,-2.983093,0.526428,1.0053427531066208
-0.357178,-0.936768,0.054688,2.113342,-2.250671,0.434875,1.0040424228348124
-0.357422,-0.942627,0.050781,1.76239,-1.358032,0.427246,1.0093933114371227
-0.360596,-0.946045,0.049316,1.38855,-0.518799,0.289917,1.0136383403842812
-0.366943,-0.944336,0.049072,1.251221,0.099182,0.045776,1.0143104590454541
-0.37085,-0.943359,0.049316,1.457214,0.228882,-0.228882,1.0148339732374945
-0.369873,-0.946289,0.053955,1.556396,-0.045776,-0.686645,1.0174379832083134
-0.369873,-0.950439,0.054443,1.464844,-0.038147,-0.778198,1.0213248107722637
-0.371094,-0.949707,0.055176,1.571655,0.099182,-0.938415,1.0211261105568694
-0.372559,-0.952393,0.055664,1.739502,0.190735,-1.014709,1.0241831456463244
-0.373535,-0.955566,0.056641,1.800537,0.259399,-0.961304,1.0275422032510393
-0.376953,-0.952881,0.060059,1.853943,0.25177,-0.930786,1.0264905493237626
-0.378174,-0.950684,0.063477,1.960754,0.091553,-0.694275,1.0251072976332771
-0.377686,-0.946045,0.06665,1.724243,-0.137329,-0.595093,1.0208281339779974
-0.377686,-0.942627,0.065674,1.586914,-0.801086,-0.183105,1.0175978822703005
-0.377441,-0.942139,0.064209,1.487732,-1.480102,0.137329,1.0169613559437742
-0.375977,-0.940674,0.062744,1.121521,-2.189636,0.366211,1.0149695011875972
-0.375732,-0.936523,0.05957,0.923157,-2.693176,0.686645,1.0108404672612787
-0.373291,-0.936768,0.056641,0.778198,-3.39508,0.953674,1.00999438581905
-0.369629,-0.936523,0.054688,0.480652,-3.997802,1.121521,1.0083113132926755
-0.368408,-0.935303,0.053223,0.144958,-4.53949,1.029968,1.0066522954834007
-0.36792,-0.938477,0.052979,0.038147,-4.875183,0.846863,1.0094112047971333
-0.36499,-0.943604,0.05249,0.0,-4.798889,0.640869,1.0130949654479584
-0.366943,-0.946533,0.05249,-0.076294,-4.486084,0.38147,1.0165269723120975
-0.365967,-0.95166,0.050049,-0.061035,-4.165649,0.091553,1.0208298110312022
-0.365967,-0.954834,0.052246,-0.068665,-4.173279,-0.259399,1.0238991440376342
-0.366943,-0.955078,0.054932,0.091553,-4.058838,-0.518799,1.024616355499462
-0.365967,-0.957275,0.054932,0.289917,-3.715515,-0.686645,1.0263161283629914
-0.364502,-0.956299,0.055176,0.427246,-3.257751,-0.694275,1.0248970076944317
-0.366211,-0.955322,0.055176,0.602722,-2.922058,-0.602722,1.0245950474119032
-0.367432,-0.951904,0.057617,0.663757,-2.868652,-0.411987,1.0219820049927493
-0.364746,-0.950928,0.058838,0.75531,-3.044128,-0.228882,1.0201792077591074
-0.365234,-0.949951,0.060059,0.762939,-3.14331,-0.099182,1.0195145220338944
-0.364746,-0.948486,0.061523,0.839233,-3.372192,-0.038147,1.0180620885982348
-0.364502,-0.948242,0.058594,0.892639,-3.410339,-0.061035,1.017574496242904
-0.361084,-0.94873,0.057617,1.029968,-3.463745,-0.297546,1.0167546344349752
-0.357666,-0.948486,0.056152,0.991821,-3.227234,-0.564575,1.0152357887978536
-0.359375,-0.946289,0.05542,0.999451,-2.876281,-0.823975,1.013747818022806
-0.360107,-0.944092,0.05542,0.938415,-2.426147,-0.976562,1.011957574364163
-0.361328,-0.943115,0.05835,0.831604,-2.090454,-0.953674,1.0116464547009494
-0.359131,-0.943115,0.055176,0.610352,-1.518249,-0.900268,1.0106855937243788
-0.358398,-0.946777,0.053223,0.717163,-0.679016,-0.816345,1.0137398590674038
-0.358154,-0.950684,0.052246,0.778198,0.160217,-0.717163,1.017253164206433
-0.361328,-0.954346,0.050537,0.663757,1.213074,-0.770569,1.0217084709783903
-0.365479,-0.955811,0.052246,0.701904,2.220154,-0.846863,1.0246361362347123
-0.368408,-0.951172,0.054199,0.854492,2.754211,-0.907898,1.0214647128750949
-0.369873,-0.949707,0.056396,0.87738,2.89154,-0.862122,1.0207496905676727
-0.370361,-0.947754,0.057373,0.846863,3.028869,-0.946045,1.0191646461519355
-0.369141,-0.944824,0.056396,0.991821,3.013611,-0.930786,1.0159419164858787
-0.367432,-0.945313,0.058594,1.205444,2.983093,-0.961304,1.015901668188905
-0.367188,-0.947266,0.058594,1.464844,3.486633,-0.862122,1.0176311507299687
-0.367676,-0.946533,0.060547,1.502991,4.104614,-0.778198,1.0172395491102377
-0.370361,-0.945313,0.061768,1.533508,4.592896,-0.663757,1.0171525077951682
-0.371338,-0.94458,0.064697,1.724243,4.745483,-0.579834,1.017009827117221
-0.374512,-0.94458,0.064697,1.861572,4.699707,-0.564575,1.0181730286906052
-0.374023,-0.946045,0.06665,1.88446,4.417419,-0.549316,1.0194785770451482
-0.375977,-0.94458,0.068359,1.800537,4.013062,-0.526428,1.0189519290967557
-0.375244,-0.945557,0.066895,1.831055,3.723144,-0.556946,1.0194905790687818
-0.376465,-0.945801,0.06543,1.930237,3.570556,-0.564575,1.0200718174354195
-0.380371,-0.945557,0.063232,1.976013,3.40271,-0.587463,1.0211554356286803
-0.38208,-0.944824,0.063232,2.128601,3.051758,-0.549316,1.0211149804013258
-0.379395,-0.944336,0.062256,2.02179,2.571106,-0.350952,1.019601322310343
-0.381104,-0.944092,0.061279,2.067566,2.113342,-0.160217,1.0199534690960173
-0.381348,-0.942871,0.059326,2.067566,1.686096,-0.030518,1.0187990940420981
-0.378418,-0.945313,0.060791,2.044678,1.312256,0.190735,1.0200550947738067
-0.376953,-0.947021,0.060303,2.090454,0.923157,0.320435,1.021067475957882
-0.373535,-0.946045,0.05835,2.01416,0.679016,0.473022,1.018790587289655
-0.374512,-0.94751,0.058838,1.968384,0.648498,0.50354,1.0205372842223845
-0.373291,-0.946289,0.058838,1.960754,0.663757,0.434875,1.0189558147662736
-0.373535,-0.945557,0.058594,1.968384,0.511169,0.305176,1.01835145863793
-0.373047,-0.943359,0.058105,1.922607,0.350952,0.183105,1.016103566628422
-0.370361,-0.943848,0.060303,1.846313,0.061035,0.205994,1.0157030910822316
-0.366943,-0.944336,0.059082,1.739502,-0.144958,0.175476,1.0148439923796169
-0.366699,-0.943115,0.061035,1.747131,-0.091553,0.015259,1.0137353358007208
-0.365234,-0.945801,0.05835,1.571655,0.183105,-0.152588,1.0155491759914927
-0.362549,-0.941406,0.058838,1.403808,0.617981,-0.205994,1.0105191460239633
-0.364746,-0.941162,0.058838,1.319885,1.106262,-0.114441,1.0110823235543187
-0.369629,-0.942383,0.058838,0.900268,1.373291,-0.190735,1.013988770437819
-0.369629,-0.940918,0.056396,0.656128,1.335144,-0.228882,1.0124884143440853
-0.372803,-0.945801,0.053467,0.579834,1.342773,-0.320435,1.0180276658809426
-0.375977,-0.946777,0.058594,0.389099,1.075745,-0.457764,1.020381619343469
-0.377197,-0.947266,0.062256,0.213623,0.88501,-0.572205,1.021501963336831
-0.378906,-0.946777,0.061035,0.099182,0.450134,-0.770569,1.0216074176463286
-0.380371,-0.949707,0.05957,0.190735,0.030518,-0.907898,1.0247800097533128
-0.384277,-0.950195,0.0625,0.221252,-0.656128,-1.167297,1.0268620164140847
-0.385742,-0.952148,0.063721,0.144958,-1.434326,-1.174927,1.0292925095953045
-0.384277,-0.952637,0.068115,0.328064,-2.281189,-1.266479,1.029478372634899
-0.383057,-0.950439,0.067627,0.694275,-2.922058,-1.251221,1.0269568487034886
-0.38208,-0.946777,0.068115,1.014709,-3.097534,-1.350403,1.0232357828741134
-0.380371,-0.94458,0.068848,1.312256,-2.998352,-1.296997,1.0206142861752425
-0.379395,-0.941162,0.067627,1.548767,-2.960205,-1.228333,1.017005352688962
-0.378906,-0.939209,0.067627,1.564026,-2.937317,-1.083374,1.0150156223654885
-0.379639,-0.940186,0.065918,1.586914,-2.944946,-0.846863,1.0160810339933524
-0.379639,-0.938965,0.065918,1.564026,-3.059387,-0.549316,1.0149513408385646
-0.379883,-0.942139,0.065186,1.495361,-3.234863,-0.480652,1.0179323177922979
-0.380615,-0.941406,0.065918,1.449585,-3.295898,-0.320435,1.0175746743040532
-0.379395,-0.938965,0.061523,1.289368,-3.456115,-0.198364,1.014584110253556
-0.378662,-0.941406,0.061279,1.052856,-3.677368,-0.152588,1.0165555975552936
-0.378418,-0.94165,0.060059,1.098633,-3.768921,-0.221252,1.0166179167735536
-0.378906,-0.942139,0.058838,1.022339,-3.768921,-0.190735,1.0171811846475534
-0.375977,-0.943604,0.05835,0.915527,-3.860473,-0.236511,1.0174241671225428
-0.373535,-0.94458,0.061279,0.808716,-4.096985,-0.282288,1.0176025198799383
-0.37085,-0.942871,0.063965,0.686645,-4.112244,-0.50354,1.0151979936770954
-0.371826,-0.944092,0.064209,0.740051,-3.997802,-0.686645,1.0167040249851478
-0.374023,-0.945801,0.068115,0.602722,-3.967285,-0.816345,1.0193490027242877
-0.373535,-0.943359,0.073975,0.518799,-4.180908,-1.060486,1.017313570012216
-0.374268,-0.942627,0.073486,0.457764,-4.364014,-1.022339,1.0168689144373526
-0.372314,-0.943359,0.069092,0.37384,-4.608154,-0.999451,1.0165223174829954
-0.371338,-0.949707,0.065186,0.335693,-4.928589,-1.144409,1.0218045364398223
-0.372314,-0.95459,0.064209,0.488281,-4.821777,-1.083374,1.0266365366462467
-0.372559,-0.954346,0.063721,0.63324,-4.707336,-1.113892,1.0264681495487329
-0.374268,-0.953369,0.067139,0.747681,-4.737854,-1.197815,1.0263998398801513
-0.373047,-0.950195,0.068604,0.75531,-4.928589,-1.228333,1.0231036658374362
-0.373047,-0.947021,0.069824,0.610352,-5.218505,-1.220703,1.0202393001771692
-0.371582,-0.945801,0.06665,0.457764,-5.683898,-1.167297,1.0183589430181286
-0.368896,-0.946045,0.065186,0.335693,-6.217956,-1.052856,1.0175139386942078
-0.365967,-0.945068,0.064697,0.297546,-6.332397,-0.953674,1.0155151754267386
-0.363037,-0.944336,0.062744,0.198364,-5.798339,-0.75531,1.0136583022897803
-0.36084,-0.943604,0.060791,0.312805,-5.271911,-0.679016,1.0120719144887877
-0.358154,-0.943604,0.058838,0.221252,-4.341125,-0.648498,1.0110018332208899
-0.359863,-0.945068,0.059082,0.289917,-3.372192,-0.579834,1.012988443229734
-0.361572,-0.943604,0.062012,0.328064,-2.746582,-0.602722,1.0124071849527738
-0.364014,-0.94458,0.063721,0.12207,-2.342224,-0.511169,1.0142967684248037
-0.363525,-0.942871,0.063721,-0.007629,-2.128601,-0.427246,1.012529759615489
-0.36084,-0.944336,0.063477,0.053406,-1.846313,-0.495911,1.0129192050825178
-0.36084,-0.94751,0.064697,0.1297,-1.403808,-0.518799,1.0159559082504515
-0.360596,-0.95459,0.060791,0.282288,-0.87738,-0.816345,1.0222363175885505
-0.36084,-0.955078,0.05957,0.495911,-0.114441,-1.091003,1.022706251366442
-0.365234,-0.955566,0.060059,0.38147,0.740051,-1.152039,1.024748426977568
-0.369385,-0.953369,0.061035,0.320435,1.106262,-1.449585,1.0242475284866448
-0.373291,-0.951904,0.060791,0.167847,0.762939,-1.739502,1.0242865524734766
-0.375488,-0.952148,0.060059,0.1297,-0.25177,-1.907349,1.0252727127593906
-0.373535,-0.950928,0.060059,0.221252,-1.625061,-2.212524,1.0234253958594148
-0.368652,-0.94458,0.05835,0.205994,-2.784729,-2.372742,1.0156477716236076
-0.364502,-0.944092,0.05957,-0.053406,-3.456115,-2.502441,1.0137652575266132
-0.363037,-0.943359,0.058105,-0.320435,-3.814697,-2.426147,1.0124713612122567
-0.364502,-0.938965,0.055908,-0.602722,-3.715515,-2.334595,1.0087827732931407
-0.361816,-0.9375,0.055176,-0.694275,-3.341675,-2.388,1.006410184185355
-0.365967,-0.932129,0.052734,-0.900268,-3.02124,-2.449036,1.002784718913287
-0.370361,-0.932617,0.047852,-1.091003,-3.059387,-2.426147,1.0046051726494345
-0.373047,-0.938965,0.044922,-1.037598,-3.326416,-2.456665,1.011354201809633
-0.373779,-0.945313,0.03833,-0.671387,-3.372192,-2.601623,1.0172495257850946
-0.376221,-0.949951,0.035889,-0.404358,-3.39508,-2.876281,1.0223684089226348
-0.379395,-0.956543,0.033203,-0.12207,-3.471374,-3.120422,1.0295715206254494
-0.383789,-0.95874,0.035645,0.549316,-3.509521,-3.501892,1.0333184166296467
-0.385986,-0.961182,0.035156,1.281738,-3.631592,-4.02832,1.0363840859719913
-0.387695,-0.959717,0.030029,1.785278,-3.669739,-4.318237,1.0355027155710408
-0.381592,-0.957764,0.027832,2.189636,-3.723144,-4.272461,1.031357820731486
-0.379395,-0.956299,0.030273,2.830505,-3.044128,-4.356384,1.0292544864876711
-0.377686,-0.952148,0.03418,3.204345,-1.922607,-4.219055,1.0248906287502095
-0.378906,-0.947998,0.032959,3.791809,-0.778198,-3.952026,1.021448119348702
-0.380859,-0.945068,0.035156,4.188538,-0.160217,-3.890991,1.0195307973970182
-0.382813,-0.939941,0.037354,4.66156,-0.076294,-3.746032,1.0155935199507724
-0.380859,-0.943848,0.039307,5.004883,0.144958,-3.684997,1.0185517489229499
-0.380127,-0.943115,0.042725,5.523681,0.511169,-3.768921,1.017736638320052
-0.381836,-0.942383,0.044678,6.004333,1.060486,-3.997802,1.0177821836075733
-0.386475,-0.946777,0.043213,6.614685,1.556396,-4.386902,1.0235316197963793
-0.388916,-0.94873,0.044189,7.339477,2.059937,-4.79126,1.0263025556223662
-0.388184,-0.952148,0.040527,7.904052,2.662658,-5.172729,1.029035990375944
-0.392334,-0.955322,0.0354,8.323669,3.578186,-5.470275,1.0333534009427754
-0.39624,-0.960938,0.03833,8.666992,4.570007,-5.722045,1.0401332445143747
-0.395508,-0.961426,0.045654,8.850098,5.546569,-6.088256,1.0406011816522216
-0.387451,-0.958252,0.060059,9.399414,7.392883,-6.16455,1.0353609304904257
-0.38623,-0.960938,0.066162,10.475158,9.544373,-6.378173,1.0377633945114848
-0.380615,-0.95166,0.071045,11.573791,13.09204,-6.729125,1.0274103006345614
-0.372803,-0.951416,0.074707,12.931823,18.829346,-6.248474,1.0245758233112863
-0.37793,-0.955078,0.073975,14.396667,25.382994,-6.286621,1.0297948201505966
-0.387207,-0.949707,0.07373,15.86914,30.647276,-6.057739,1.028255201590539
-0.401855,-0.944824,0.081543,16.822815,33.988953,-5.569458,1.0299655784782324
-0.403076,-0.941162,0.098145,17.189026,35.736084,-4.676819,1.0285371228327154
-0.397217,-0.94043,0.111328,18.188477,36.964417,-3.463745,1.0269293323169808
-0.394775,-0.931885,0.121582,19.355774,38.131714,-2.571106,1.0193326918008663
-0.39917,-0.926758,0.131104,20.484922,38.81073,-1.647949,1.0175486908644715
-0.393555,-0.929688,0.134766,21.995543,39.268494,-0.823975,1.0185122434831109
-0.388916,-0.941895,0.143066,23.605345,40.481564,-0.480652,1.0290236763247969
-0.400879,-0.956055,0.156982,25.512693,41.778561,-0.488281,1.0485172788228145
-0.408447,-0.968018,0.179443,27.534483,42.381283,-0.282288,1.065874096871671
-0.415527,-0.975098,0.19873,29.876707,42.266842,0.076294,1.078411985390092
-0.411133,-0.978516,0.212402,32.562256,42.16766,0.480652,1.0824225217303085
-0.41333,-0.976807,0.218018,35.461426,42.190548,0.984192,1.0828321441816362
-0.42334,-0.971436,0.218994,38.68103,42.610165,1.739502,1.08206424473411
-0.43042,-0.962891,0.204346,41.267391,42.388912,3.639221,1.074326645856371
-0.420654,-0.95166,0.199707,42.991634,41.839596,6.713867,1.0594760163236352
-0.407471,-0.94043,0.216064,45.021053,42.625423,9.95636,1.0474372787126685
-0.404053,-0.926514,0.239258,47.309872,45.364376,14.801024,1.0387162314939533
-0.405518,-0.90625,0.248535,49.98016,49.034115,21.873472,1.0234762122536116
-0.406982,-0.879395,0.246338,52.055355,52.902218,29.571531,0.9998261471840992
-0.429443,-0.860352,0.237793,53.726192,57.121273,38.108826,0.9905414504209302
-0.469238,-0.871094,0.22583,54.26025,60.539242,47.767635,1.0148833658997471
-0.505859,-0.901367,0.227295,53.25317,61.653133,58.135983,1.0583094129766588
-0.529541,-0.951904,0.240967,51.536556,60.508724,67.886353,1.1156164174957268
-0.552979,-1.000244,0.254883,50.216671,57.655331,76.133728,1.170999221889579
-0.584717,-1.031982,0.267822,49.484249,52.810665,82.748405,1.2159808559747147
-0.623291,-1.040771,0.273682,48.820492,45.448299,88.027946,1.2436228456594065
-0.661377,-1.04126,0.276367,47.966,35.758972,91.842644,1.2641284121551892
-0.691162,-1.037109,0.282227,47.058102,24.505613,94.169609,1.2778701294161312
-0.717285,-1.020508,0.29126,46.142574,12.359618,95.489494,1.280924172966144
-0.753906,-1.00293,0.305664,45.700069,0.091553,96.687309,1.2913842660618102
-0.759766,-0.980225,0.321289,44.952389,-13.21411,98.411552,1.28113701332137
-0.736328,-0.949707,0.330078,44.456478,-25.497435,99.670403,1.246223814375652
-0.73877,-0.925537,0.333984,46.06628,-36.308289,100.593559,1.2304247898693361
-0.765869,-0.889404,0.342529,48.286434,-49.591061,102.386467,1.222669585872651
-0.765137,-0.83667,0.355469,48.828121,-65.307617,105.148308,1.1881959129832083
-0.746338,-0.800293,0.366943,48.759457,-78.041077,108.215324,1.1541821612475216
-0.740723,-0.771973,0.378418,49.110409,-85.029594,111.648552,1.1348185133236064
-0.738281,-0.734619,0.385498,49.804684,-87.974541,115.341179,1.1105550945927896
-0.710205,-0.693848,0.392578,49.301144,-88.058464,118.537895,1.0676767653241312
-0.691895,-0.668945,0.397705,49.22485,-85.807793,120.964043,1.0413334581559357
-0.678467,-0.630371,0.408203,49.758907,-82.740776,122.627251,1.0120843625602562
-0.672363,-0.598633,0.422607,50.407406,-80.368034,123.977654,0.9944999491739555
-0.675049,-0.563965,0.45166,51.582333,-79.452515,125.984184,0.9888096021105378
-0.689209,-0.53418,0.465088,52.856441,-78.50647,128.700256,0.9882632067546581
-0.699463,-0.492676,0.471191,53.207394,-77.026367,132.278442,0.9767287688125091
-0.705078,-0.458252,0.476563,52.978512,-73.730469,135.414124,0.9665620386488392
-0.724121,-0.434814,0.474365,53.306576,-69.999695,138.397217,0.9687293690510265
-0.749756,-0.416016,0.469238,53.436275,-69.259644,141.265869,0.9774393446326989
-0.747559,-0.373535,0.473389,52.429195,-73.883057,143.875122,0.9604530181258217
-0.686523,-0.337891,0.481445,48.736568,-78.948975,146.720886,0.9040317723592461
-0.661377,-0.323486,0.493652,47.157284,-79.963684,148.864746,0.8864282404284061
-0.659424,-0.295166,0.514893,47.500607,-78.475952,150.054932,0.8871740419900709
-0.679688,-0.273682,0.539551,48.400875,-77.339172,150.802612,0.9099411497833253
-0.695313,-0.252441,0.561035,48.72131,-76.843262,152.244568,0.9284109530132655
-0.680176,-0.236572,0.573242,48.667904,-77.003479,154.174805,0.9204412489257531
-0.677734,-0.213623,0.57959,49.797054,-76.812744,154.296875,0.9169965806833742
-0.689941,-0.189697,0.578613,51.559444,-77.507019,154.792786,0.9202154851223706
-0.698486,-0.159668,0.573975,52.429195,-80.26123,156.585693,0.9180543900254494
-0.69165,-0.142578,0.574219,52.001949,-82.626335,158.531189,0.910184414580364
-0.675049,-0.137451,0.557373,52.284237,-81.840508,159.873962,0.8861425342071105
-0.65332,-0.121338,0.544678,52.452084,-78.681946,161.033615,0.8591996603397839
-0.652588,-0.112305,0.533203,52.719112,-73.959351,161.178574,0.8501699535845759
-0.617432,-0.083252,0.52417,53.047176,-70.69397,161.582932,0.8141912300117216
-0.585693,-0.055664,0.527344,51.185604,-67.710876,160.133362,0.7900800373892509
-0.622559,-0.055908,0.5271,50.666805,-62.316891,157.775879,0.8176428455902981
-0.655762,-0.045898,0.541016,50.590511,-58.395382,159.133911,0.8513687446130496
-0.679932,-0.051514,0.563477,50.079342,-56.335445,160.644516,0.8845719565693907
-0.66748,-0.029297,0.570801,50.704952,-54.428097,162.132248,0.8787500476301552
-0.599365,0.00415,0.571777,49.118038,-48.316952,164.543137,0.828362579704081
-0.599365,0.006348,0.56958,48.614498,-35.110474,165.748581,0.8268615825692955
-0.641846,0.031738,0.561768,48.988338,-21.003721,166.229233,0.8535554312310362
-0.689453,0.067871,0.575195,44.93713,-13.641356,166.931137,0.9004450010272699
-0.743896,0.078857,0.591309,39.44397,-12.268065,167.068466,0.9535439259656577
-0.782471,0.084229,0.599854,36.392212,-15.266418,168.15184,0.9895353513634568
-0.845947,0.087646,0.60791,34.736633,-21.39282,168.952927,1.0454007443200908
-0.831543,0.101563,0.59082,33.973694,-27.328489,169.265732,1.0251083241384786
-0.772705,0.105713,0.565918,33.576965,-28.411863,168.350204,0.963592983638839
-0.724854,0.124268,0.551758,35.400391,-20.683287,163.352951,0.9193980355123672
-0.700439,0.147461,0.536865,36.178589,-8.979797,158.195496,0.8947533556612124
-0.679932,0.165771,0.534668,36.2854,4.40979,153.388977,0.8807141529968733
-0.772705,0.162598,0.550049,37.155151,14.808654,149.177551,0.9623227260280202
-0.907471,0.181885,0.595215,37.689209,14.213561,148.338318,1.1003938682539993
-0.880371,0.2229,0.658936,33.01239,2.571106,150.009155,1.1220223526013196
-0.782471,0.212158,0.695557,28.57971,-6.072998,149.475098,1.0682094471843993
-0.702148,0.204346,0.714355,28.259275,-5.905151,149.612427,1.0222877127526282
-0.696045,0.219727,0.700195,27.755735,-0.282288,149.803162,1.011450263027797
-0.669922,0.269531,0.683838,26.077269,8.636475,150.375366,0.9945234317445718
-0.665039,0.283447,0.654053,21.484373,19.378662,151.023865,0.9748868653023283
-0.710693,0.278076,0.644775,20.027161,27.961729,147.666931,0.9990723710772909
-0.749512,0.310791,0.646484,18.165588,30.776976,145.15686,1.037449201687003
-0.723145,0.345215,0.631592,14.518737,29.891966,144.53125,1.0203041417704821
-0.709717,0.358154,0.611084,11.83319,29.319761,142.951965,1.0026944513963363
-0.720215,0.364014,0.570557,9.902954,29.472349,141.319275,0.9883072035910697
