ax,ay,az,gx,gy,gz,acc_mag
0.27417,0.763184,0.285645,-24.284361,-19.294739,-48.629757,0.8597744313370803
0.256592,0.807617,0.184814,-30.815123,-37.353516,-44.853207,0.8673182159674729
0.196289,0.880127,0.096436,-34.980774,-35.15625,-38.742065,0.9068918401584612
0.249756,0.967773,0.072754,-42.098995,-20.309446,-35.652161,1.0021256326334538
0.370605,1.071289,0.10083,-54.344173,-17.074585,-33.14209,1.1380575013794338
0.341309,1.193359,0.133545,-62.728878,-32.402039,-36.590576,1.248371660759327
0.20874,1.281494,0.194092,-53.25317,-54.855343,-51.925655,1.312810330588543
0.159668,1.31665,0.258545,-34.957886,-73.440552,-70.999146,1.3512611182702625
0.118408,1.32666,0.304688,-20.507811,-82.702629,-77.781677,1.3663388991783845
0.051025,1.314453,0.376953,-9.475708,-86.112968,-69.351196,1.368387300453713
0.007568,1.24292,0.457031,4.135132,-86.585991,-56.015011,1.3243053786740429
-0.018799,1.108643,0.488281,17.929077,-85.014336,-46.06628,1.2115531514593159
-0.067871,0.964111,0.482178,24.559019,-84.411613,-38.154602,1.0800981976866735
-0.14917,0.876465,0.467041,22.064207,-82.900993,-31.501768,1.0042757991737132
-0.202637,0.843506,0.456787,14.381408,-78.460693,-27.275084,0.9804175075823565
-0.220215,0.864502,0.421875,3.730774,-68.824768,-24.490355,0.9868317333030996
-0.213135,0.91626,0.361328,-2.502441,-55.908199,-21.842955,1.0077285544277288
-0.181641,0.955566,0.310547,0.907898,-41.831966,-19.599915,1.0210481244515364
-0.157959,0.953125,0.308594,10.993957,-26.268003,-17.051697,1.0142132754711901
-0.12915,0.915039,0.341309,18.035889,-10.093688,-11.871337,0.9851233057348711
-0.072021,0.878174,0.372559,16.998291,5.462646,-4.081726,0.9566487376242129
0.00293,0.876709,0.385742,6.645202,20.736692,4.631042,0.9578226068249799
0.071289,0.906006,0.403564,-7.507324,33.927917,13.72528,0.9943806593317269
0.111572,0.927734,0.45459,-15.594481,45.883175,20.118711,1.0391298061551308
0.147461,0.925781,0.485596,-17.13562,57.128902,24.620054,1.0557550292080071
0.210205,0.913086,0.482422,-16.235352,65.139771,28.259275,1.0538705667704171
0.315918,0.911377,0.463623,-14.915465,65.452576,30.754087,1.070214233217817
0.402588,0.944824,0.39624,-15.86151,53.37524,30.075071,1.1008068069920351
0.392578,1.021729,0.335205,-19.302368,29.975889,24.436949,1.1447314215788786
0.336914,1.11084,0.325439,-21.064756,5.233764,18.684387,1.2055650508027347
0.259033,1.172607,0.303467,-17.127991,-11.70349,12.161254,1.238627260973615
0.208252,1.180908,0.30835,-4.79126,-23.567198,3.578186,1.238140671518386
0.205078,1.108643,0.328125,11.337279,-34.461975,-4.211426,1.1742283862852236
0.16748,1.003174,0.331299,22.125242,-45.654293,-8.811951,1.0696572591615503
0.09375,0.939941,0.308594,21.507261,-56.159969,-11.596679,0.9937345736246677
0.036865,0.94751,0.277832,12.397765,-64.338684,-16.00647,0.9880915183063763
-0.005615,1.006836,0.280029,3.562927,-69.816589,-18.493652,1.0450677011380651
-0.046875,1.061035,0.301758,2.563476,-72.143555,-18.486023,1.1041061667312613
-0.07959,1.060059,0.325195,10.734557,-71.296692,-18.592834,1.1116705625346028
-0.077881,1.01416,0.352539,20.820616,-66.581726,-18.234253,1.076508105999207
-0.082031,0.955078,0.376221,25.787352,-56.472775,-15.678405,1.029779253959799
-0.116455,0.899902,0.391602,24.871824,-43.42651,-14.678954,0.9883003101451502
-0.12793,0.86499,0.439697,19.500732,-32.38678,-16.609192,0.9787273557068894
-0.099609,0.870361,0.48291,9.735107,-23.025511,-20.744322,1.0003260924828463
-0.075684,0.928711,0.449463,-1.899719,-15.708922,-24.436949,1.0345284808771578
-0.048828,1.003662,0.418701,-7.156372,-8.476257,-24.253843,1.0885918019299061
-0.029541,1.022705,0.400391,-3.27301,1.396179,-19.889832,1.0986860973849628
-0.002197,0.969727,0.37085,4.920959,8.201599,-15.647887,1.0382220397573922
0.008301,0.911133,0.329346,6.607055,10.925292,-14.648437,0.9688658513984275
0.018311,0.901123,0.283691,-0.595093,12.512206,-16.357422,0.9449013373527417
0.006836,0.954834,0.286621,-11.878966,17.990112,-13.015746,0.9969484921965628
-0.016357,1.046631,0.291016,-21.507261,27.870176,-3.715515,1.086459531628307
-0.041504,1.106689,0.276855,-20.713804,38.108826,6.767272,1.1415479910025683
-0.003906,1.081055,0.278809,-7.972717,44.700619,12.802123,1.1164361281963247
0.055908,1.000244,0.289551,4.272461,45.425411,12.001037,1.042810407313333
0.10791,0.942871,0.286377,7.125854,39.710999,5.805969,0.991293133674394
0.139893,0.93335,0.275635,2.235413,32.684326,1.266479,0.9832023836291286
0.136719,0.951904,0.27832,-4.112244,29.319761,0.701904,1.0011370198813947
0.141357,0.963867,0.323242,-8.010864,28.488157,0.823975,1.0264047864765635
0.162109,0.981689,0.363037,-11.360168,26.56555,0.274658,1.0591451666183442
0.165771,1.001221,0.381592,-12.496947,22.872923,0.892639,1.0842213656564788
0.176514,1.004883,0.401611,-8.995056,18.501282,2.555847,1.0964663383825333
0.178223,0.977051,0.407715,-1.930237,14.114379,2.342224,1.0736030996392476
0.161865,0.933594,0.404053,3.120422,9.590149,2.13623,1.0300761437243366
0.150391,0.898926,0.406006,3.196716,6.118774,3.189087,0.9977606318115583
0.159668,0.896729,0.408936,-2.502441,2.777099,3.089905,0.9984214649941175
0.145752,0.939697,0.408936,-9.757996,-2.204895,1.922607,1.035134169762065
0.113037,0.992432,0.383789,-12.557982,-6.874084,0.930786,1.0700432862805132
0.105957,1.017334,0.369385,-9.384155,-9.391785,0.694275,1.0874928191165218
0.089844,1.010254,0.36377,-4.272461,-10.002136,1.495361,1.0775034578840108
0.06958,0.993408,0.339355,-0.808716,-10.276793,1.190186,1.0520753998117245
0.045898,0.975586,0.325928,-0.244141,-8.972168,0.411987,1.029613389085437
0.027832,0.970215,0.330566,-3.14331,-5.958557,-0.152588,1.0253612274730306
-0.007568,0.991699,0.328369,-6.950378,-1.945495,-1.235962,1.04467716610731
-0.041504,1.019775,0.317871,-7.873535,3.517151,-1.907349,1.0689740900891846
-0.040283,1.03833,0.302979,-5.943298,11.146544,-0.473022,1.0823807940969759
-0.025635,1.03125,0.30127,-1.861572,19.432068,1.579285,1.0746614949019992
0.009277,0.996826,0.312256,2.174377,26.702879,3.517151,1.0446300524783882
0.038574,0.957031,0.331787,3.158569,32.699585,6.523132,1.0136463396106157
0.056641,0.924072,0.351318,1.091003,36.476135,8.415222,0.9902230057865753
0.064453,0.903564,0.357422,-2.235413,38.124084,8.934021,0.9738236890674822
0.079346,0.901367,0.368164,-6.256103,39.268494,9.819031,0.9768843264691066
0.0979,0.908447,0.38208,-10.124206,39.451599,10.841369,0.9903764376281374
0.114502,0.919434,0.388184,-12.474059,37.788391,10.82611,1.004567770842764
0.137451,0.929688,0.386963,-13.397216,34.362793,9.223938,1.0163429136438153
0.135742,0.929932,0.378906,-13.137816,30.685423,7.835388,1.013296191655727
0.141357,0.922607,0.362793,-12.4588,28.656004,6.622314,1.0014011377799608
0.140137,0.905762,0.351807,-11.741637,28.900145,6.904602,0.9817389391594895
0.144287,0.876465,0.33252,-12.809752,31.303404,9.788513,0.9484614831367693
0.157227,0.844971,0.310547,-15.830993,37.162781,14.076232,0.9138576254422787
0.189941,0.819824,0.283691,-20.233152,44.670101,18.844604,0.888070694223157
0.248291,0.82373,0.25293,-26.512144,49.545284,22.590635,0.896745849436171
0.289307,0.849854,0.215332,-31.753538,46.165462,25.527952,0.9232108273785571
0.330078,0.891846,0.192139,-31.257627,32.997131,27.534483,0.9701846056916179
0.369629,0.915771,0.208496,-25.062559,12.763976,30.906675,1.009322893873908
0.406006,0.941895,0.291504,-15.747069,-10.45227,39.93988,1.0662934141581295
0.558838,1.039795,0.326416,-3.822326,-41.343685,48.027035,1.2247534271538087
0.658691,1.221436,0.246094,15.716552,-79.971313,55.114742,1.409376455179027
0.541504,1.446045,0.132568,45.829769,-120.857231,72.853088,1.549789340092711
0.306885,1.605957,0.220459,88.668816,-143.325806,105.087273,1.6498116437202763
0.264893,1.684326,0.209961,111.488335,-112.861626,129.920959,1.7179074472293319
0.369141,1.785889,0.193604,140.678406,-44.18182,171.68425,1.8338885208806996
0.436523,1.885254,0.118652,179.252609,33.180237,222.869858,1.9387659144798786
0.61499,2.017334,-0.032227,214.538559,104.003899,249.992355,2.109238665297268
0.84668,2.173096,-0.158936,247.802719,170.738205,249.992355,2.337621419244784
1.022949,2.261475,-0.166504,249.992355,234.886154,249.458298,2.4876529931326834
1.130127,2.161133,0.007813,249.565109,249.992355,249.992355,2.438799688942698
1.236816,1.85791,0.251465,249.885544,249.80925,249.992355,2.24605833231931
1.474121,1.531494,0.39917,249.992355,249.55748,249.992355,2.1628322365770765
1.717529,1.323975,0.338135,249.992355,249.992355,249.992355,2.1948008895321234
1.86084,1.204346,0.040771,249.992355,249.992355,249.992355,2.2169431809942717
1.876709,1.088135,-0.224365,235.839828,249.984726,249.992355,2.180920471298988
1.81543,0.974854,-0.252686,174.07988,249.313339,249.992355,2.0760483185157326
1.750244,0.903564,-0.154785,115.440361,203.048691,249.992355,1.9757885407747964
1.730957,0.831787,-0.017334,87.837212,91.026299,249.992355,1.9205161329116713
1.675781,0.838867,0.151855,86.776726,-10.581969,249.992355,1.8801594997964932
1.496338,0.92334,0.210938,84.320061,-94.451897,249.992355,1.7708977965111368
1.146729,1.012939,0.220215,75.439453,-147.117615,249.992355,1.5458096465564577
0.868652,1.035645,0.23999,67.741394,-170.79924,249.992355,1.3728481573826727
0.773682,0.961914,0.227783,66.650391,-178.970322,249.992355,1.25528780588716
0.766846,0.854736,0.224609,72.914124,-181.228622,249.992355,1.1700750490002767
0.837891,0.764648,0.282471,84.259026,-185.9207,249.992355,1.168990058822572
0.859131,0.729248,0.365479,96.30584,-188.5681,249.992355,1.184687140179212
0.728271,0.716797,0.410889,106.697075,-183.158859,249.992355,1.1013656790417068
0.531006,0.693115,0.398193,116.607658,-172.416672,249.992355,0.959652770803065
0.400879,0.643799,0.366943,129.463196,-157.836914,249.992355,0.8425130801898568
0.364014,0.555664,0.350342,142.723083,-138.504028,249.992355,0.7510047869727596
0.393311,0.464111,0.341797,149.925232,-117.21801,249.992355,0.6977949213422235
0.463623,0.401611,0.331787,147.666931,-98.220818,249.992355,0.6973666860547613
0.520264,0.374268,0.335449,138.801575,-83.000175,249.992355,0.7233790134645876
0.552002,0.366455,0.325928,129.547119,-70.762634,249.992355,0.7383932124640638
0.508545,0.343506,0.312012,125.953667,-54.603573,249.855026,0.6884517972995641
0.337158,0.290283,0.331787,126.838676,-29.617308,245.39183,0.5549976129876596
0.170166,0.216553,0.362793,128.15094,1.960754,236.030563,0.4554892207440259
0.119873,0.124756,0.383301,127.708427,34.210205,224.205002,0.4205392398647242
0.215088,0.039551,0.398438,123.558037,59.654232,210.861191,0.4545106920513532
0.350098,-0.035156,0.413818,115.623466,77.819824,201.057419,0.5431849510654727
0.437744,-0.088135,0.420898,103.553764,92.025749,194.389328,0.613630763704852
0.494141,-0.122803,0.436035,88.706963,106.475822,191.017136,0.6703599226646831
0.39917,-0.138672,0.483643,78.353882,128.791809,192.588791,0.6422438508331552
0.231445,-0.154053,0.571777,73.402405,150.878906,190.124496,0.6357893146027228
0.178711,-0.182373,0.627441,69.541931,161.84996,174.568161,0.6774066290869909
0.187988,-0.229736,0.64502,63.766476,157.218933,150.939941,0.7100485323131088
0.244141,-0.321533,0.698486,59.814449,138.725281,133.422852,0.8067657591680499
0.310547,-0.411621,0.76416,54.63409,121.612541,131.088257,0.9218523702036026
0.210938,-0.461426,0.820801,42.114254,122.543327,134.422302,0.964947187633085
0.112061,-0.495117,0.889893,22.827147,136.116028,132.003784,1.0245038130036412
0.102295,-0.515625,0.949219,7.255554,153.717041,124.374382,1.0850576563533387
0.095947,-0.534668,1.049316,-4.524231,169.639572,106.224052,1.181583583539057
0.087891,-0.555176,1.077637,-22.674559,179.283127,78.605652,1.2154203892587947
0.161865,-0.57373,1.080566,-45.402523,173.622116,49.423214,1.2340945148087321
0.202393,-0.581787,1.121338,-70.739746,164.016708,30.555723,1.2793896787382646
0.205078,-0.571045,1.101318,-98.129265,158.111572,16.296387,1.2573983916138114
0.250977,-0.550781,1.043945,-126.831047,157.920837,0.495911,1.2067188270326272
0.291504,-0.501465,1.040527,-157.249451,169.967636,-14.312743,1.191275856369968
0.30835,-0.44165,1.134277,-188.720688,192.131027,-26.908873,1.2556746225551427
0.329834,-0.394531,1.189453,-220.45134,214.14183,-40.534969,1.2958563256495683
0.345947,-0.336426,1.137207,-248.687729,228.294357,-60.249325,1.2353548239813532
0.363281,-0.269775,1.064209,-249.992355,231.048569,-81.565849,1.1564136073511933
0.418457,-0.19751,1.003906,-249.618515,230.483994,-97.152702,1.1054156312378616
0.612061,-0.115234,0.873291,-249.916061,238.731369,-102.691643,1.0726298117980873
0.853516,-0.010498,0.710205,-249.992355,249.992355,-94.581596,1.110401239320724
1.005859,0.125,0.606201,-249.992355,249.992355,-79.75769,1.1810406344753765
1.070801,0.280518,0.621094,-249.992355,249.755844,-67.985535,1.2692765209996597
1.134766,0.406738,0.732178,-249.992355,249.992355,-64.926147,1.4103950861669932
1.166992,0.481201,0.837402,-249.992355,249.992355,-68.344116,1.5148157776010258
1.238525,0.539063,0.737793,-249.992355,249.992355,-75.462341,1.5391139023616804
0.258301,2.156494,-0.834229,-249.992355,249.992355,-107.147209,2.3266120869362816
5.67041,4.67749,-4.548828,-107.421867,-13.816833,-227.592453,8.644321745619145
3.759521,-4.356445,1.785645,249.992355,96.084587,122.673027,6.0250426764871134
-0.733643,-2.630371,2.606689,224.647507,-20.660398,108.459465,3.7751703526875446
-3.403076,-0.925781,-0.141846,-16.815186,-15.922545,249.992355,3.5296057866924744
-2.303711,-1.078857,0.121582,102.210991,57.800289,243.171677,2.5467231849366745
0.701416,-1.417725,0.197998,205.917343,34.957886,41.259762,1.594092779196054
2.155029,-1.706299,-0.571289,157.00531,31.784056,-21.919249,2.807485955399065
0.779053,-1.802002,-0.487305,71.563721,103.370659,10.253905,2.022770611769412
0.069336,-1.237793,0.384521,-32.440186,72.357178,-2.334595,1.2979966838116344
0.174805,-0.920898,0.019775,-74.066162,-18.165588,9.353638,0.9375505133346149
0.44458,-0.834229,-0.251465,-74.432373,-86.898796,2.082825,0.9781738327444667
0.586426,-0.793701,-0.152588,-50.193783,-97.984306,-27.893064,0.9985688902729745
0.260986,-0.841309,-0.01001,-8.224487,-49.354549,-25.0473,0.8809169800707669
0.091797,-0.957275,0.078857,22.827147,-19.699097,-12.367248,0.9648940570254332
0.356445,-1.054443,0.053711,30.273436,-35.476685,-24.406431,1.1143553965387345
0.607666,-1.03833,-0.118408,27.336119,-40.870663,-34.683228,1.2088869305770495
0.602295,-0.958984,-0.248779,23.765562,-29.060362,-26.130674,1.1594397656290731
0.653564,-0.861572,-0.313477,18.783569,-25.596617,-7.774353,1.1259307451211198
0.790771,-0.76416,-0.298096,20.576475,-23.735044,6.095886,1.1393509140106923
0.785156,-0.715088,-0.284668,29.136656,-11.215209,10.238647,1.099480178222418
0.679199,-0.672363,-0.314941,39.802551,1.899719,10.787963,1.0062659284955444
0.683838,-0.635254,-0.479004,36.03363,1.518249,16.014099,1.0491076621472175
0.807617,-0.668457,-0.642578,44.174191,6.629943,35.423279,1.2296285884859706
0.932373,-0.715088,-0.630371,86.84539,18.295288,61.508175,1.3334308592926745
0.982178,-0.739746,-0.530029,114.585869,11.039733,76.057434,1.3389654622285818
0.994385,-0.73877,-0.486084,107.467644,-21.942137,86.296074,1.330736749391479
1.01709,-0.686523,-0.596924,89.782707,-55.610653,93.048088,1.3645893739161976
1.016113,-0.622559,-0.671387,106.498711,-92.941277,102.149956,1.3677813571689739
0.998535,-0.538818,-0.698242,112.899773,-124.488823,98.297112,1.3322683190382485
0.956299,-0.460693,-0.662598,125.671379,-156.890869,94.551079,1.2513120822776387
0.909424,-0.407959,-0.498047,151.771545,-194.152817,101.570122,1.1142411640511223
0.759766,-0.404297,-0.361572,171.981796,-221.20665,121.513359,0.9335066952887913
0.618652,-0.444092,-0.289307,182.510361,-245.132431,126.090996,0.8146450403807783
0.513672,-0.498779,-0.169189,190.681442,-249.992355,114.730827,0.7357066889365625
0.451904,-0.563477,-0.073486,207.054123,-249.954208,100.112907,0.7260328828234985
0.391602,-0.625244,-0.003662,218.05571,-249.862656,89.477531,0.7377639162930104
0.390381,-0.653809,0.07666,213.26445,-249.900803,81.863396,0.765336716251089
0.416748,-0.627197,0.172852,197.982773,-243.309006,73.921204,0.7726142544743787
0.439697,-0.57373,0.234375,184.15831,-230.628952,66.268921,0.7598889427633487
0.445313,-0.537109,0.283203,183.547958,-222.34343,58.753963,0.7529898306477982
0.43457,-0.560303,0.385498,194.816574,-219.131454,49.064632,0.8070930830536215
0.431396,-0.625,0.477051,202.651962,-217.857346,40.824886,0.8968306224795181
0.455078,-0.658691,0.511475,195.724472,-219.467148,32.447815,0.9500402597732371
0.498047,-0.640137,0.552734,178.085312,-224.723801,24.116514,0.9814993977247259
0.506836,-0.585938,0.63208,160.339355,-232.269272,19.088745,0.9998655895369136
0.449463,-0.54126,0.755859,150.772095,-239.456161,16.967773,1.0326190991115745
0.37085,-0.526367,0.893799,150.192261,-242.279037,16.227722,1.1015755051697547
0.290039,-0.532471,1.061768,153.823853,-233.757004,15.624999,1.222701628847365
0.23584,-0.525879,1.210449,151.428223,-211.769089,8.865356,1.340655067436065
0.2854,-0.514648,1.311523,139.442444,-186.439499,-3.364563,1.437500714237388
0.412598,-0.50415,1.409424,126.220695,-167.388901,-15.014647,1.5527009834092333
0.427246,-0.499756,1.505859,119.033806,-149.177551,-14.640807,1.6431392308422923
0.49585,-0.525635,1.581543,110.923759,-153.289795,-19.851685,1.7388035071778523
0.540771,-0.597412,1.697266,110.572807,-153.587341,-30.708311,1.8788417301467943
0.308105,-0.681641,1.82666,101.440422,-132.400513,-11.878966,1.973892068859389
0.193115,-0.698975,1.852783,76.61438,-105.278008,-5.424499,1.9896392383894623
0.148682,-0.691895,1.857666,53.787228,-65.582275,-11.634826,1.9879003988391872
0.116455,-0.713379,1.819824,40.565487,-23.117064,-15.335082,1.9581191883136226
0.105225,-0.762207,1.727783,27.351377,14.640807,-17.250061,1.8913661482016115
0.119629,-0.817871,1.626221,6.141662,45.227047,-19.378662,1.8242310191209334
0.167236,-0.839355,1.530518,-22.445677,66.520691,-20.668028,1.75355925022367
0.217773,-0.815674,1.417725,-54.901119,82.496635,-23.017881,1.6500585836357446
0.240723,-0.767334,1.328857,-86.990349,97.801201,-29.052732,1.5532578526226737
0.241943,-0.708252,1.270996,-114.143364,114.303581,-38.18512,1.4749875059704742
0.244873,-0.675781,1.220215,-135.856628,133.583069,-47.447201,1.4161805648698191
0.263916,-0.664063,1.191406,-155.227661,156.364441,-55.068966,1.389273040068438
0.295898,-0.640381,1.161133,-175.827011,185.379013,-62.149044,1.3586291971152393
0.308594,-0.584961,1.108398,-197.631821,219.017014,-71.029663,1.2907190843715761
0.297119,-0.513428,1.0979,-217.208847,248.130783,-82.145683,1.2479072166411251
0.264893,-0.429199,1.146973,-234.199509,249.992355,-95.29113,1.2529673362777658
0.229248,-0.345703,1.166748,-248.489365,249.626144,-110.549919,1.238291607504872
0.323486,-0.269287,1.111084,-249.992355,249.900803,-126.724236,1.1881356553950395
0.51709,-0.198975,0.982422,-249.847397,249.992355,-137.496948,1.1278856789626333
0.599365,-0.107178,0.850098,-249.93895,249.992355,-143.669128,1.045653927699313
0.618164,-0.019043,0.811035,-249.992355,249.992355,-150.314331,1.019934869474517
0.610352,0.033936,0.918457,-249.992355,249.992355,-156.394958,1.103288029867541
0.599121,0.050781,1.055664,-249.992355,249.992355,-164.024338,1.2148873048550635
0.791016,0.078369,1.072998,-249.992355,249.992355,-169.54039,1.3353549042936113
1.103516,0.147461,0.94751,-249.992355,249.992355,-166.450485,1.461939639272771
1.252197,0.285156,0.905762,-249.992355,249.992355,-166.542038,1.5715330323569403
1.28833,0.428955,0.978516,-249.992355,249.992355,-174.758896,1.6737055126816665
1.239014,0.542969,1.013184,-249.992355,249.992355,-176.605209,1.6901221390813743
1.079346,0.583496,0.888916,-249.992355,249.992355,-169.471725,1.5151326756386716
0.208496,2.750488,-0.532959,-249.992355,238.777145,-182.762131,2.809394973271113
6.187744,5.359375,-5.459229,-107.421867,-22.949217,-239.517197,9.839423635284843
3.710693,-2.230469,1.352539,249.992355,178.710922,-37.322998,4.535812633556527
0.030518,-2.076416,2.016113,249.992355,70.678711,211.12059,2.8943300402941263
-2.306885,-1.258301,1.109375,198.577866,108.840935,249.992355,2.852324087555795
-1.855469,-1.524658,0.460693,152.511597,25.604246,192.047104,2.445319052224883
0.466553,-1.634766,-0.233154,55.580135,-53.38287,77.987671,1.7159523199322877
1.979492,-1.735596,-0.259033,-2.113342,-32.058716,-3.135681,2.645331765274254
1.445313,-0.935303,-0.477539,-78.544617,18.386841,-60.668941,1.7865511093442024
0.43335,-0.52417,0.163818,-92.056267,41.084286,-32.63092,0.699558967152877
0.175293,-0.483154,0.179443,-68.328857,-25.955198,9.262085,0.5443943550533932
0.326172,-0.601074,0.104736,-19.66095,-91.743462,6.401062,0.6918437372384028
0.385498,-0.788818,-0.016357,8.705139,-70.266724,-22.056578,0.8781287471532863
0.22168,-0.867188,-0.055176,15.205382,-5.325317,-31.158445,0.8967727921385661
0.255859,-0.860352,0.115723,18.928528,17.913818,-21.224974,0.905020002272878
0.438721,-0.82959,0.246582,17.829895,32.89032,-21.888731,0.9703083874032008
0.704346,-0.827637,0.00293,22.918699,35.041809,-30.647276,1.0867818899783894
0.882813,-0.834229,-0.10376,36.659241,31.410215,-21.606443,1.219041818400829
1.005371,-0.830322,-0.097412,40.672298,11.848449,-2.059937,1.307552893411582
1.087158,-0.786621,-0.198486,39.619446,-17.89856,13.938903,1.3564961506768092
1.081543,-0.738281,-0.281006,36.811829,-39.009094,17.311096,1.33931268486713
1.045166,-0.703857,-0.408936,23.887632,-54.077145,10.421752,1.3247699030778892
1.059814,-0.696045,-0.456787,41.900631,-45.1889,34.011841,1.347716112536316
1.015625,-0.741943,-0.437988,94.207756,-26.008604,76.721191,1.33184347579511
0.944824,-0.802002,-0.432373,124.076836,-22.209166,86.692802,1.312572287574669
0.937256,-0.779785,-0.436523,125.228874,-24.497984,86.227409,1.2950157471204742
0.954346,-0.692871,-0.496338,122.138969,-20.706175,83.999626,1.2795303515747487
0.955078,-0.640625,-0.55957,131.881714,-21.194456,85.182182,1.278942125981078
0.938965,-0.603516,-0.52002,146.476746,-30.021666,93.894951,1.2313844378913519
0.94165,-0.556396,-0.424316,151.977539,-47.32513,101.806633,1.1731689133164074
0.963623,-0.499512,-0.350342,151.657104,-70.838928,103.691093,1.1405354186683552
0.948975,-0.44751,-0.283691,153.167725,-95.687859,104.713432,1.086875951618215
0.919922,-0.398438,-0.2146,157.798767,-121.490471,108.062737,1.0252133855583432
0.821533,-0.353516,-0.145752,164.62706,-144.454956,112.083427,0.9061642664820766
0.726807,-0.335205,-0.061035,171.287521,-167.343124,113.456718,0.802705474317324
0.723633,-0.331543,0.049316,174.797043,-188.903793,112.869255,0.797494543802025
0.725342,-0.333252,0.113525,176.033005,-201.210007,114.021294,0.806266604847925
0.731201,-0.338867,0.161621,178.810104,-210.578903,113.464348,0.8219532186998236
0.775391,-0.350586,0.217773,183.372482,-222.381577,109.184258,0.8783887668942495
0.773438,-0.358398,0.259033,185.646042,-233.962997,104.354851,0.8909284827285521
0.768555,-0.360352,0.283203,184.265121,-247.978195,97.717278,0.8948375780766027
0.8125,-0.371338,0.355469,183.77684,-249.992355,91.26281,0.9614605401185219
0.823975,-0.39209,0.468506,187.110886,-249.855026,88.36364,1.0257520366838175
0.792969,-0.418457,0.580811,191.078171,-249.923691,84.724419,1.0682918672024981
0.741455,-0.431396,0.652588,190.765366,-249.992355,76.309204,1.077835387981393
0.687988,-0.418701,0.709229,185.981735,-249.992355,65.864563,1.0731466768275435
0.637695,-0.379639,0.760498,179.435715,-249.992355,54.168697,1.0626090021028431
0.599121,-0.332275,0.821777,176.956161,-249.992355,42.41943,1.0698925581547898
0.586914,-0.312012,0.944092,183.311447,-244.529709,32.081604,1.154612158260946
0.53833,-0.324219,1.112793,190.498337,-222.022995,25.123594,1.2779770771457521
0.454346,-0.322998,1.28125,192.916855,-195.24382,21.667479,1.3972686063244961
0.410645,-0.324463,1.464355,191.566452,-170.120224,18.455505,1.555069490543429
0.382324,-0.346191,1.641357,186.767563,-143.341064,16.662598,1.7204861670196594
0.305908,-0.381104,1.733643,176.879868,-115.333549,17.585754,1.801204601018163
0.275146,-0.40625,1.799561,162.162766,-94.276421,17.486572,1.865251772961763
0.327393,-0.457764,1.873291,144.165039,-79.963684,13.206481,1.9560044035804214
0.314697,-0.523438,1.906494,122.589104,-64.193726,10.31494,2.001934293049849
0.246826,-0.598633,1.92334,98.44207,-46.615597,9.796143,2.02941402837494
0.148438,-0.687744,1.904297,69.969177,-29.533384,12.20703,2.0301164285796514
0.063232,-0.745361,1.849365,33.889771,-15.174865,11.054992,1.994921604818094
0.028564,-0.760986,1.772705,-5.805969,-3.929138,3.936767,1.929351863014365
0.032959,-0.737549,1.663574,-44.090267,5.584716,-5.966186,1.8200393612661239
0.046875,-0.699463,1.536865,-77.598572,17.784119,-13.587951,1.6892009300906152
0.043701,-0.655273,1.395264,-105.49926,34.317017,-18.875122,1.5420940670484404
0.037109,-0.616699,1.236328,-128.181458,53.482052,-26.260374,1.3821004515106707
0.020508,-0.594482,1.096191,-146.522522,74.462891,-36.499023,1.2471824785768117
0.032471,-0.585938,0.989258,-161.270126,96.725456,-48.782345,1.1502213248975173
0.093018,-0.563232,0.890869,-176.918015,121.963493,-63.606258,1.0580785459071553
0.130615,-0.51123,0.805664,-192.543015,150.390625,-79.223633,0.9630736586684323
0.104248,-0.451904,0.757813,-204.673752,176.208481,-95.321648,0.8884623873237403
0.111816,-0.396729,0.764648,-213.13475,192.253098,-113.494865,0.8686675320287963
0.167969,-0.347412,0.776855,-219.642624,202.033981,-131.454468,0.8674170702320769
0.307617,-0.298096,0.764648,-225.48674,208.007797,-147.392273,0.8764565065130158
0.502686,-0.224365,0.746582,-234.260544,217.361435,-159.812927,0.9275869503960262
0.648193,-0.118652,0.74292,-244.560226,232.871994,-169.761642,0.9930571930926235
0.727539,0.00708,0.75,-249.992355,247.28392,-178.840622,1.04492254398161
0.719971,0.117432,0.761719,-249.992355,249.992355,-188.224777,1.0546868494610142
0.703857,0.193604,0.736328,-246.543869,249.458298,-200.057968,1.0368587699629106
0.717041,0.22583,0.725342,-240.272507,241.294846,-210.220322,1.0446377369906756
0.73999,0.219238,0.776123,-231.925949,226.783737,-213.478073,1.0945398173995315
0.784424,0.192627,0.81958,-225.921616,211.166367,-213.287338,1.1507117576982517
0.883301,0.15332,0.878418,-223.892197,194.305405,-211.357101,1.255127826846732
1.044434,0.119629,0.888184,-232.139572,177.902206,-208.091721,1.3762355524593164
1.07959,0.137939,0.857666,-249.465927,171.67662,-205.253586,1.3856885304342388
1.031738,0.199951,0.955566,-249.992355,168.052658,-205.505356,1.420411941445509
0.961182,0.2771,1.010498,-249.732956,171.81395,-209.014877,1.4218865830747542
0.894775,0.352539,0.996338,-249.954208,178.337082,-213.081345,1.3847727096494933
0.858643,0.404053,0.971924,-249.992355,181.51091,-213.340744,1.3583677300473536
0.843994,0.411133,0.848633,-249.992355,180.763229,-209.838852,1.2655173584009032
0.280273,0.763184,0.608398,-249.992355,173.355087,-215.194687,1.0154560053439046
4.290527,4.613281,-6.236084,-249.992355,21.697996,-242.042526,8.864520696447496
4.0625,1.918701,-2.120117,-140.869141,129.714966,81.108086,4.967918665909296
-2.070801,-0.058105,3.980713,187.210068,249.992355,22.949217,4.487501416266629
-0.705811,-0.583252,1.496826,249.992355,249.992355,-10.978698,1.7546623998652846
0.779785,-0.917725,0.871094,247.253403,246.856674,29.052732,1.4863002989591303
2.096924,-1.468018,1.119141,249.710068,245.262131,-32.180786,2.793679238563547
2.856689,-1.961182,0.754883,238.891586,149.040222,-2.731323,3.5463721214128103
2.368408,-1.830566,1.090332,100.318901,-42.655941,38.475037,3.1857734076741866
1.332275,-0.949463,1.070313,-90.820305,-224.8535,32.699585,1.9549952894989289
0.955322,-0.30542,0.562012,-122.352592,-249.992355,2.784729,1.1496864738823362
0.625,-0.281006,0.64917,-35.064697,-248.519882,36.834717,0.9439338223286631
0.674805,-0.430664,0.585693,-34.988403,-249.130234,17.562866,0.9919019907077513
0.492188,-0.52124,0.551758,7.186889,-228.591904,41.389462,0.9046419487885802
0.264648,-0.64209,0.637695,59.646603,-130.699158,46.356197,0.9428536710587705
0.277588,-0.705811,0.570313,67.108154,-34.950256,3.974914,0.9489368700993759
0.557617,-0.718506,0.601074,68.80188,22.712706,-22.15576,1.0901731716571454
0.866455,-0.658203,0.425293,47.195431,53.115841,-25.650023,1.1682677741352794
1.027832,-0.514648,0.210938,14.442443,58.364864,-23.117064,1.1686727617139026
0.9646,-0.383545,0.261475,3.540039,37.284851,-7.04956,1.07048078107456
0.870361,-0.376953,0.366211,-0.556946,13.313293,7.67517,1.0167262812827256
0.814209,-0.418945,0.384521,-4.981995,6.317138,20.759581,0.9931302070458838
0.780762,-0.493896,0.412109,-5.455017,8.827209,25.543211,1.0116107884660979
0.738037,-0.566162,0.401855,-10.69641,13.397216,23.605345,1.0132746244913076
0.700195,-0.592529,0.383301,-19.447327,15.533446,21.232603,0.9941243938597423
0.679688,-0.56958,0.368896,-32.791138,12.046813,15.563964,0.960458959331423
0.659668,-0.499023,0.312744,-48.095699,2.861023,5.706787,0.8843046049235523
0.612549,-0.412598,0.250977,-57.434078,-9.521484,-4.592896,0.7800274620383567
0.554443,-0.3479,0.218506,-56.823727,-24.711607,-12.847899,0.6900625495453293
0.524658,-0.315674,0.189941,-47.866817,-45.524593,-18.486023,0.6410878837733559
0.510986,-0.318604,0.156006,-34.065247,-69.17572,-19.218445,0.622055522480108
0.489502,-0.328369,0.122803,-20.797728,-95.726006,-21.858213,0.6020954948959508
0.461182,-0.357666,0.104492,-8.163452,-121.055595,-27.503965,0.5929016636374028
0.439941,-0.382813,0.096924,-2.624511,-129.768372,-30.807493,0.5911752178719943
0.562012,-0.386475,0.182373,-1.602173,-119.98748,-28.83148,0.7060313908729554
0.769043,-0.322266,0.308838,-5.012512,-84.732048,-28.755186,0.8891925667981037
0.780029,-0.171631,0.294678,-13.572692,-29.411314,-40.428158,0.8513151970251676
0.753418,-0.039551,0.241455,-6.820678,10.177611,-59.707638,0.7921511732933304
0.762207,0.02832,0.241699,20.362852,29.891966,-73.356628,0.8001124545024906
0.759521,0.032471,0.307617,45.196529,40.489193,-86.379997,0.820094344554942
0.789795,-0.038818,0.273682,63.133236,57.167049,-86.433403,0.8367704680932521
0.833496,-0.106445,0.204834,65.193176,59.18121,-73.272705,0.8648717174223007
0.928955,-0.13916,0.103027,39.649963,48.553463,-53.100582,0.9449536815918546
0.75415,-0.071533,0.14209,52.268978,60.379025,-16.174316,0.7707455875248329
0.657715,-0.020996,0.092285,73.028564,60.287472,-12.054442,0.6644895593355851
0.677979,-0.019775,0.063232,80.757133,72.479248,-18.386841,0.6812083828682675
0.709229,-0.00708,0.069092,79.193115,110.733025,-13.740539,0.7126216424618327
0.716797,0.0271,0.094971,84.762566,153.816223,-8.789063,0.7235688219167545
0.736328,0.011475,0.154297,102.043144,180.648788,-10.32257,0.7524082425239639
0.776123,-0.031738,0.183105,114.990227,180.412277,-22.468565,0.7980611836181485
0.807373,-0.066895,0.177979,116.760246,161.705002,-34.118652,0.8294592374523295
0.821289,-0.067139,0.209961,111.862175,135.704041,-37.055969,0.85035691821905
0.812256,-0.033203,0.261963,104.942314,106.185905,-34.65271,0.8541000305081367
0.80127,0.004639,0.30957,100.097649,71.624756,-34.255981,0.8590044924917448
0.789551,0.040771,0.355957,98.525993,33.058167,-39.18457,0.8670400463017842
0.739502,0.074707,0.399414,98.869316,-2.166748,-47.119137,0.8437866360929165
0.666992,0.108398,0.419434,99.220268,-31.723021,-56.266781,0.7953322166390596
0.623047,0.136719,0.417725,98.098747,-58.876034,-67.29126,0.7624787372740305
0.624268,0.159912,0.406494,97.152702,-85.700981,-80.047607,0.7619184704441808
0.715576,0.186035,0.418701,97.290031,-112.899773,-91.346733,0.8496873309647497
0.803467,0.213379,0.453613,99.029533,-133.255005,-96.80938,0.9470240606758626
0.783203,0.244141,0.470947,102.325432,-143.669128,-98.724358,0.945940190444935
0.734863,0.274658,0.459229,105.979912,-151.237488,-106.498711,0.909039009159673
0.699463,0.303223,0.458008,110.946648,-156.578064,-119.308464,0.8893615711070498
0.656738,0.320068,0.474121,115.165703,-159.828186,-132.087708,0.8709414721489613
0.62915,0.336914,0.454834,115.69976,-163.291916,-145.500183,0.8462947083918225
0.61084,0.353027,0.437256,114.768974,-168.136581,-156.715393,0.8300279380026916
0.588135,0.374023,0.418945,113.716118,-174.179062,-166.084274,0.813210240822753
0.560059,0.407715,0.393066,111.556999,-178.535446,-175.933823,0.7964913590629844
0.527344,0.447998,0.358398,109.931938,-181.106552,-186.80571,0.7792579988322225
0.494873,0.481689,0.327393,110.015862,-180.068954,-197.425827,0.7642707342944646
0.474121,0.504395,0.299072,109.069817,-175.201401,-208.48082,0.7540882573346438
0.458984,0.527588,0.262695,106.468193,-168.136581,-219.612106,0.7470100889713605
0.442871,0.55835,0.247803,103.256218,-163.24614,-231.651291,0.7545169129648455
0.44873,0.587402,0.223633,94.779961,-162.811264,-247.29155,0.7722767905310893
0.470459,0.637939,0.20166,83.831779,-164.855942,-249.992355,0.8179025577671218
0.499268,0.706055,0.188232,70.94574,-165.832504,-249.877914,0.8849934941416236
0.473389,0.79834,0.19458,54.38995,-157.524109,-249.908432,0.9483170763626478
0.420166,0.915771,0.170898,33.64563,-139.656067,-249.992355,1.0219501545579412
0.421875,1.04126,0.14624,19.378662,-120.353691,-249.992355,1.1329550038836493
0.443604,1.138672,0.146484,8.201599,-104.469292,-249.992355,1.2307786131778533
0.494873,1.260742,0.142822,-4.379272,-96.656792,-249.992355,1.3618986013565768
0.581055,1.381836,0.153809,-16.105652,-98.648064,-249.992355,1.5069017394647868
0.645996,1.519043,0.164551,-30.036924,-107.589714,-249.992355,1.658878988795144
0.703613,1.652588,0.17627,-40.588375,-116.157524,-249.992355,1.8047685348578635
0.77002,1.835938,0.145752,-48.171993,-120.87249,-249.992355,1.996207099914235
0.890381,2.010498,0.066162,-49.873348,-114.654533,-249.992355,2.199831344310059
1.060791,2.116943,0.018799,-36.842346,-100.58593,-249.992355,2.3679270709485545
1.125,2.128662,-0.016846,-19.088745,-75.98877,-249.992355,2.407718982348231
1.015381,2.087646,-0.042969,-11.970519,-45.82214,-249.992355,2.3218765538757653
0.893066,2.026611,0.049561,2.494812,-19.073486,-249.992355,2.2152145084388555
0.838867,1.929443,0.247314,27.435301,13.999938,-249.786362,2.118398533924625
0.804199,1.758057,0.479492,59.501644,55.229183,-224.540695,1.9918365959370263
0.764648,1.534424,0.5625,101.760857,101.760857,-168.769821,1.8043142258708709
0.691406,1.27832,0.503174,131.729126,144.927979,-126.434319,1.5379624031529509
0.561523,1.032471,0.418945,132.324219,174.96489,-99.205009,1.247725674335108
0.503906,0.847168,0.30542,112.518303,183.5327,-73.577881,1.0319381054404377
0.521973,0.736572,0.137207,80.108643,178.48204,-47.019955,0.9131373854804107
0.53418,0.695313,-0.034668,41.473385,164.810165,-21.987913,0.8775023137251547
0.510742,0.727295,-0.116455,2.738952,144.668579,-0.305176,0.8963131007711536
0.498291,0.793701,-0.118652,-39.093018,120.445244,13.450622,0.9446340535815972
0.533691,0.873291,-0.088135,-74.432373,95.062248,23.521421,1.027244387858605
0.573975,0.945313,-0.064209,-93.177788,74.127197,35.02655,1.1077846199848596
0.616943,0.983643,-0.066895,-95.474236,61.56921,48.492428,1.1630336012871685
0.638672,0.987061,-0.046387,-92.811577,56.442257,58.692928,1.1765811043332286
0.64209,0.961426,-0.018066,-95.726006,49.949642,56.65588,1.1562637683210522
0.607666,0.936523,0.004639,-95.977776,42.861935,50.712582,1.1164026233424929
0.536865,0.924805,0.048096,-96.229546,36.598206,41.122433,1.070421198157996
0.510742,0.923584,0.060059,-98.94561,29.785154,29.472349,1.057105424780802
0.492676,0.956787,0.130859,-96.900932,23.605345,25.085447,1.0841102721706866
0.427979,0.990234,0.27417,-103.60717,26.56555,19.851685,1.1130582141545877
0.379639,0.997559,0.263184,-118.080132,31.173704,19.035339,1.0993250414040425
0.32666,1.014648,0.263672,-112.716667,29.273985,26.145933,1.0980620397263536
0.296875,0.973633,0.215576,-93.559258,23.15521,18.997192,1.040465759210749
0.29248,0.880371,0.222412,-69.824219,11.528014,7.492065,0.9539731368256655
0.278076,0.781006,0.328369,-53.710934,-2.532959,1.167297,0.8916966042174883
0.279053,0.703125,0.381836,-56.007381,-16.151428,-4.776001,0.8473807133337412
0.280029,0.687012,0.337646,-75.744629,-25.459288,-10.627746,0.8151113729429862
0.235596,0.759277,0.251953,-103.759758,-27.503965,-18.02063,0.8339588432015096
0.19043,0.878906,0.220703,-123.405449,-25.978086,-23.750303,0.9259855052564268
0.186279,0.983643,0.233154,-126.304619,-22.308348,-21.789549,1.0279174115686533
0.201416,1.040039,0.22168,-113.380424,-18.226624,-15.48767,1.0823084352332286
0.216553,1.037598,0.210449,-95.886223,-17.38739,-13.038634,1.0806449893531178
0.213867,0.995117,0.239746,-81.871025,-22.789,-14.259337,1.0456935889131194
0.213867,0.942627,0.290771,-74.684143,-34.667969,-17.601013,1.0093723442114906
0.271729,0.911377,0.315186,-76.61438,-51.895138,-23.521421,1.001891660892534
0.314453,0.918457,0.288818,-84.899895,-74.462891,-28.96118,1.0128473661820916
0.185059,0.978027,0.16333,-92.39959,-103.797905,-37.54425,1.0086923887439618
0.00293,1.107666,-0.050537,-89.279167,-146.316528,-55.786129,1.1088221412043504
-0.07251,1.270508,-0.237061,-73.806763,-193.939194,-80.024719,1.294467533731534
-0.13501,1.345459,-0.235596,-49.690243,-230.339035,-94.352715,1.3725862799827921
-0.306152,1.296875,-0.109619,-24.780272,-240.875229,-86.204521,1.3370228636377166
-0.433838,1.242188,-0.036621,-8.209229,-214.469894,-69.801331,1.3162779095726709
-0.389893,1.194824,0.032959,2.029419,-165.847763,-65.315247,1.2572618017366153
-0.24292,1.138672,0.120361,3.013611,-114.738457,-63.140865,1.1705002436159506
-0.118408,1.103027,0.164307,-1.350403,-77.468872,-53.817745,1.1214659189837202
-0.074219,1.098389,0.174072,-3.692627,-60.203548,-46.989437,1.1145707319259734
-0.069336,1.092041,0.191406,-0.762939,-55.244442,-48.439022,1.1108543034138185
-0.095459,1.056885,0.25,4.776001,-49.942013,-49.47662,1.0902377373334682
-0.087158,1.02002,0.347656,5.813598,-38.917542,-47.378536,1.0811577182354108
-0.054443,1.006104,0.407959,3.013611,-24.398802,-43.106075,1.087032586791215
-0.024658,1.007813,0.431641,-0.831604,-13.168334,-38.108826,1.0966353144113135
0.002686,1.023438,0.432129,-4.051208,-6.484985,-32.012939,1.1109311531688182
0.003906,1.041016,0.420654,-4.79126,-4.219055,-24.841307,1.122799784827197
-0.014404,1.032715,0.390381,-3.471374,-4.951477,-17.631531,1.1041309123478067
-0.047119,1.004639,0.383301,-0.389099,-4.562378,-10.307311,1.0763082165824993
-0.058105,0.966553,0.385742,0.427246,-0.572205,-4.79126,1.0423040743458696
-0.029053,0.935791,0.391602,-2.212524,5.851745,-1.205444,1.0148403809929916
-0.003662,0.921631,0.381592,-7.240295,12.619018,-0.244141,0.9975116865826685
-0.000488,0.927002,0.384033,-12.176513,17.425537,-1.319885,1.003401360990207
-0.008057,0.949951,0.379639,-15.754699,22.354124,-1.678467,1.0230335224082345
-0.021484,0.9729,0.37207,-15.655517,28.07617,-0.610352,1.041840706229124
-0.018555,0.980957,0.364502,-13.442992,33.561707,-0.488281,1.0466530618490542
-0.014648,0.986572,0.349365,-11.245727,38.345337,-0.12207,1.0467066343121172
-0.018311,0.990479,0.320801,-8.110046,40.039063,0.0,1.0412959347673456
-0.013916,0.988281,0.308105,-4.165649,38.711548,-0.564575,1.0352882115826492
0.005371,0.981934,0.305664,-1.296997,36.16333,-1.113892,1.028422923165854
0.017578,0.975342,0.285645,0.572205,34.049988,-1.213074,1.0164615433320634
0.0354,0.977295,0.276367,1.678467,32.951355,-2.540588,1.0162368797253916
0.066406,0.989746,0.292725,-0.099182,32.844543,-5.706787,1.034260521811115
0.101318,1.015137,0.302734,-3.77655,32.295227,-7.942199,1.0641505253717634
0.105469,1.062256,0.30127,-6.698608,30.807493,-7.957458,1.1091776829692348
0.104736,1.102295,0.285889,-4.951477,28.053282,-5.66101,1.1435717804501824
0.098877,1.10791,0.259766,1.571655,25.619505,-0.961304,1.1422432332848376
0.09375,1.08667,0.23584,8.544922,22.850035,3.623962,1.1159127461410234
0.108643,1.043945,0.233643,13.59558,18.821716,6.782531,1.0752736934952887
0.117676,0.997559,0.236816,14.930724,13.458251,8.407593,1.0320142524757108
0.10376,0.967773,0.244141,11.314391,6.782531,7.736206,1.0034717459948737
0.083008,0.95752,0.269043,4.394531,0.114441,5.355834,0.9980576207379012
0.070557,0.9729,0.288574,-3.059387,-5.592346,4.051208,1.0172451296147846
0.049561,1.006592,0.299072,-8.270264,-10.726928,3.692627,1.0512505925653501
0.024902,1.0354,0.313232,-9.422302,-16.044617,3.669739,1.0820293690228562
-0.001465,1.043701,0.310303,-6.973266,-19.645691,4.318237,1.088853468302783
-0.022461,1.029785,0.31665,-2.746582,-20.286558,5.973815,1.077603296786902
-0.019531,1.01001,0.337891,-0.62561,-19.454956,8.049011,1.0652098328226227
-0.024658,1.007324,0.341309,-3.433227,-16.807556,10.528563,1.063861594109403
-0.077637,1.032959,0.34375,-7.247924,-12.733459,14.083861,1.0914191962532087
-0.098389,1.064941,0.334229,-10.665893,-6.774902,16.166687,1.1204859451340743
-0.095215,1.084229,0.312256,-10.658263,3.562927,18.943787,1.1323083635662152
-0.109131,1.074707,0.327637,-4.928589,14.312743,22.514341,1.128827141230667
-0.088867,1.030518,0.34375,1.785278,20.278929,25.390623,1.0899673180939877
-0.041016,0.982178,0.34375,5.462646,23.368834,28.663633,1.041402899189358
-0.003174,0.95459,0.336426,6.027221,25.436399,30.296324,1.0121435648424586
0.014893,0.945313,0.324951,5.699157,26.30615,30.105589,0.9997157705163002
0.024658,0.945557,0.316162,5.41687,25.650023,27.900694,0.9973186388797715
0.043701,0.956055,0.307617,3.608703,24.406431,24.261473,1.0052756632461566
0.053955,0.967285,0.295898,1.647949,22.758482,20.469664,1.0129694169391295
0.05249,0.976318,0.283203,1.602173,19.439697,17.623901,1.017917470344723
0.059814,0.971191,0.270508,3.768921,16.151428,15.48767,1.0099327953586814
0.07959,0.955811,0.261719,5.218505,13.877868,14.068603,0.9941861348771667
0.106934,0.943359,0.266846,4.768372,10.833739,12.855529,0.9861885575045981
0.127686,0.947754,0.290283,1.243591,6.851196,12.672423,0.9994026111637891
0.124756,0.970703,0.315186,-3.417969,3.562927,14.198302,1.0281880121558509
0.117432,1.005371,0.331299,-6.736755,2.876281,17.021179,1.065044670267872
0.122559,1.043457,0.325684,-7.835388,4.875183,20.477293,1.0999514931059462
0.139648,1.063721,0.316406,-4.821777,6.301879,23.674009,1.1185332746865422
0.168457,1.050537,0.315674,0.991821,4.814148,25.314329,1.1097999024571952
0.176758,1.013184,0.310791,6.324768,1.228333,25.749205,1.0744190309655726
0.161621,0.973877,0.312256,8.430481,-3.692627,25.901793,1.035404060406371
0.152588,0.950195,0.317871,6.401062,-9.002686,25.238035,1.013506590215377
0.137451,0.949707,0.319336,1.518249,-13.626098,23.986814,1.0113415071804381
0.128174,0.96582,0.307617,-2.777099,-18.470764,23.338316,1.0216971495335592
0.136963,0.982422,0.294434,-4.638672,-23.29254,22.804258,1.0346995843282243
0.142578,0.995361,0.28125,-4.302979,-27.740477,21.568296,1.0441137720119393
0.13501,1.000488,0.267578,-3.616333,-31.433104,18.936157,1.0444146323793055
0.108154,0.998535,0.268799,-2.204895,-32.943726,16.677856,1.039722239995856
0.092773,0.990967,0.272217,-0.831604,-33.401489,14.915465,1.0318548927572133
0.098877,0.97583,0.27417,0.518799,-33.721924,14.923095,1.0184252741016397
0.106445,0.960205,0.287109,0.419617,-34.248352,15.251159,1.0078470905504464
0.122559,0.962158,0.300293,-1.13678,-35.545349,14.999389,1.0153544264413288
0.145264,0.987793,0.312256,-4.882813,-36.026001,15.800475,1.046107284211806
0.166748,1.032227,0.313232,-9.07135,-35.53772,18.89801,1.0915180991889233
0.187744,1.075195,0.318115,-8.872986,-33.14209,26.863096,1.1368769725814662
0.171631,1.102783,0.325684,-4.882813,-25.93231,37.757874,1.1626081081370456
0.158691,1.097656,0.346436,1.083374,-19.691467,44.479366,1.1619162749152798
0.165527,1.075928,0.34082,5.950927,-12.870788,51.292416,1.1406921238059813
0.191895,1.071777,0.314453,7.125854,-2.288818,59.494015,1.13331827743269
0.235107,1.070068,0.29248,5.401611,10.131835,64.865112,1.1339600418326037
0.28125,1.074219,0.291748,1.358032,16.998291,65.246582,1.1481136346046066
0.309814,1.070068,0.311768,-1.167297,15.304564,66.474915,1.1568187088061812
0.312744,1.056396,0.319092,-4.318237,8.651733,69.801331,1.1469965225823484
0.310791,1.037842,0.304443,-8.041382,0.999451,71.411133,1.1253411051294626
0.270508,1.02832,0.30835,-12.275695,-4.486084,70.106506,1.1071117030200701
0.241943,1.014893,0.357422,-16.685486,-9.216309,67.024231,1.1028575169902957
0.256592,0.975586,0.356201,-19.538879,-14.739989,64.300537,1.0698068284793287
0.282959,0.951416,0.305664,-23.818968,-21.736143,61.370846,1.0385993845718378
0.316406,0.949707,0.282959,-29.144285,-30.822752,58.059689,1.0402509016415222
0.312988,0.956299,0.294189,-33.508301,-38.223267,56.076046,1.0483398462645594
0.32666,0.952881,0.312012,-35.484314,-47.195431,50.582882,1.0545332825022642
0.328369,0.922119,0.329346,-34.034729,-58.04443,45.661922,1.0327625274176053
0.289063,0.882568,0.329102,-30.6015,-67.680359,42.778011,0.9852876833681623
0.250977,0.850098,0.32373,-25.962828,-77.690125,37.513733,0.9436403854398137
0.261475,0.817871,0.369873,-22.117613,-87.98217,30.883787,0.934926833712136
0.355713,0.78418,0.44458,-20.408628,-99.433891,25.711058,0.9690827555833402
0.462402,0.763916,0.471191,-22.552488,-113.906853,21.118162,1.0096554972568614
0.49585,0.775146,0.4375,-26.176451,-132.05719,14.47296,1.0188840924344633
0.467041,0.820068,0.371338,-24.452208,-150.756836,11.596679,1.0141650410800995
0.44165,0.864502,0.284668,-12.664794,-163.74968,15.426635,1.011659182100375
0.398438,0.884766,0.196289,3.189087,-166.458115,24.54376,0.9899965081357611
0.363037,0.864258,0.177002,15.426635,-166.915878,26.924131,0.9539745604244382
0.373291,0.809326,0.172119,22.979734,-173.339828,18.699646,0.9077332731138591
0.395752,0.752197,0.163574,28.900145,-186.500534,7.972717,0.8655497823863166
0.366211,0.717041,0.068115,30.578611,-205.589279,-5.577087,0.8080210055604992
0.268311,0.698975,-0.02124,31.997679,-232.772812,-23.620604,0.7490046601630727
0.299072,0.668457,-0.023682,38.536072,-249.992355,-39.93988,0.7326934278107045
0.429443,0.622803,-0.006104,44.235226,-249.992355,-47.401424,0.7565329641687797
0.488525,0.630615,-0.041748,33.27179,-249.610886,-49.430843,0.7987958746475848
0.489746,0.69458,-0.032959,13.236999,-249.992355,-56.915279,0.8505167938359595
0.459717,0.791016,-0.069336,2.670288,-249.992355,-68.405151,0.9175257561730896
0.386963,0.87207,-0.04541,3.311157,-249.992355,-82.115166,0.9551484263552968
0.299072,0.931885,0.034424,9.269714,-249.992355,-89.317314,0.9793052262624764
0.262695,0.952637,0.163818,21.095274,-249.992355,-86.60125,1.0016797162356836
0.322266,0.955322,0.167969,36.705017,-230.91124,-76.637268,1.0221101131487742
0.42627,0.986572,0.059082,55.290218,-186.866745,-65.811157,1.0763461835339037
0.485107,1.04126,-0.023193,73.638916,-152.526855,-61.378475,1.1489513063215517
0.477783,1.087158,-0.053711,87.112419,-123.64196,-60.531612,1.1887278845783
0.46167,1.092041,-0.069824,93.215935,-90.286247,-50.2243,1.1876734086258731
0.371094,1.079834,-0.094971,89.385979,-39.710999,-22.460936,1.1457625038519108
0.319092,1.054688,-0.062988,85.960381,20.446775,-4.592896,1.103700126824311
0.347168,1.013916,-0.008545,83.236687,82.283012,3.410339,1.0717389105117907
0.418945,0.991943,0.030273,77.194214,132.049561,9.384155,1.0772104171437444
0.490967,0.994141,0.041992,66.566467,158.233643,14.564513,1.1095621888988467
0.520264,1.013916,0.032715,52.436825,163.520798,17.463684,1.1400748027989216
0.485107,1.046875,0.010986,37.322998,157.600403,19.302368,1.1538616725023845
0.407471,1.061768,-0.016113,23.933409,148.521423,22.445677,1.1373845130095626
0.361328,1.04834,-0.04248,12.733459,137.306213,25.566099,1.1096752811448942
0.333496,1.014404,-0.050049,1.998901,125.823967,27.06146,1.0689901588101736
0.300781,0.969482,-0.045166,-10.749816,111.740105,26.199339,1.0160730907966216
0.269775,0.928467,-0.034424,-25.268553,94.429008,22.28546,0.9674784403230907
0.259277,0.900635,-0.025391,-39.703369,74.356079,18.417358,0.9375567549940643
0.249512,0.905029,-0.031006,-54.496761,51.353451,18.188477,0.9393056483493538
0.237549,0.924072,-0.044189,-68.565369,25.68054,19.996643,0.955139391034628
0.218262,0.946533,-0.048096,-80.192566,-1.213074,21.186827,0.9725616926185197
0.196289,0.97583,-0.068604,-87.585442,-29.563902,21.606443,0.9977374751090589
0.17627,1.008057,-0.09668,-90.408318,-59.753414,20.614622,1.0279090672569242
0.17041,1.027344,-0.133301,-89.973442,-88.119499,14.930724,1.0498782877252963
0.159668,1.017822,-0.172363,-86.84539,-108.90197,8.811951,1.0445881952602183
0.123779,0.995117,-0.19165,-80.986015,-117.492668,7.728576,1.0209352609396936
0.104004,0.969971,-0.227783,-77.804565,-112.632744,7.041931,1.0017712652826494
0.085205,0.967529,-0.210205,-77.301025,-93.40667,2.433777,0.9937597294572769
0.098633,0.991943,-0.217773,-75.447083,-72.502136,-4.386902,1.0203452667930597
0.15332,1.028076,-0.251465,-66.574097,-54.595943,-10.002136,1.0694306571260241
0.163086,1.066895,-0.262451,-50.689693,-32.752991,-12.443542,1.110739623774177
0.142334,1.085938,-0.258545,-28.167723,-8.415222,-12.275695,1.1253292071322953
0.139893,1.096924,-0.263184,-4.226685,15.945434,-11.688231,1.1366961472095347
0.183105,1.071045,-0.234375,15.60974,33.432007,-8.140564,1.1115738723427246
0.263428,0.990723,-0.159668,25.672911,37.399292,-6.591796,1.03750674414049
0.318848,0.924072,-0.09668,22.132872,30.838011,-6.935119,0.9823034819687855
0.336426,0.901123,-0.077637,15.762328,12.7182,-9.368896,0.9650039473359682
0.312012,0.908936,-0.060791,13.565063,-10.32257,-17.845154,0.9629183173670547
0.280273,0.927734,-0.052734,17.555237,-30.372618,-33.439636,0.9705793136271759
0.25708,0.955322,-0.059082,25.840757,-42.457577,-48.46191,0.9910705993056196
0.261719,0.988525,-0.059326,40.466305,-53.924557,-60.791012,1.0243037073358663
0.264648,0.975586,-0.021484,47.355648,-58.326717,-68.29834,1.011072781532566
0.231445,0.971924,-0.02832,31.967161,-50.697323,-62.118526,0.9995024123037424
0.205566,0.999756,-0.042969,20.912169,-37.010193,-53.092953,1.0215751440070377
0.210205,1.025879,-0.050293,18.882751,-20.278929,-48.881527,1.0484003293184336
0.235107,1.033203,-0.04834,21.217344,-2.662658,-49.034115,1.0607169727396655
0.246094,1.023682,-0.036133,24.482725,13.954162,-48.660275,1.0534669846032196
0.230713,1.009033,-0.036133,24.559019,28.823851,-45.280453,1.0357034696992187
0.186523,1.012207,-0.061768,20.317076,43.29681,-39.352417,1.0311009292023745
0.195313,1.012695,-0.053955,15.968322,58.876034,-31.10504,1.032767869861858
0.270264,0.993896,-0.023682,12.947082,75.340271,-22.819517,1.0302585722215565
0.327881,0.974365,0.000488,9.796143,91.751091,-16.418457,1.0280531803024588
0.344238,0.95752,0.021484,6.431579,103.469841,-12.306212,1.0177455051730762
0.36499,0.946533,0.046143,3.64685,107.505791,-10.688781,1.01551543397331
0.39502,0.938477,0.056885,0.915527,105.49926,-10.749816,1.0198116410171048
0.410645,0.937256,0.056396,-2.540588,100.799553,-11.680602,1.0248212694792198
0.408936,0.940918,0.053711,-6.576538,92.872612,-12.527465,1.0273461959539247
0.413818,0.946533,0.040771,-9.70459,81.123344,-13.504027,1.0338434754129853
0.420166,0.943359,0.029053,-11.756896,67.54303,-14.450072,1.033106842125247
0.42041,0.938232,0.024414,-14.320373,53.421017,-14.076232,1.028406484479751
0.415039,0.938965,0.014648,-17.631531,39.054871,-13.618468,1.0267069721444382
0.413574,0.950684,0.004639,-21.202085,23.605345,-15.472411,1.0367569829294616
0.42041,0.960449,0.00293,-23.422239,6.599426,-19.332886,1.0484347545751238
0.42334,0.964355,0.003174,-24.826048,-11.566161,-22.430418,1.053189154853486
0.417236,0.965576,0.00415,-25.596617,-30.46417,-24.574278,1.0518745714066862
0.406738,0.959229,0.005859,-26.168821,-48.332211,-26.374815,1.041916696749793
0.38208,0.95459,0.003418,-26.840208,-63.034054,-28.030394,1.0282212199833263
0.336182,0.957764,-0.007813,-27.488707,-72.692871,-28.968809,1.015081898069806
0.293701,0.96582,-0.015625,-28.160093,-76.61438,-29.434202,1.0096101675528035
0.271729,0.984863,-0.024902,-29.327391,-74.577332,-29.174803,1.0219647194565966
0.265625,1.005127,-0.041992,-29.327391,-68.199158,-27.343748,1.040480780609618
0.267334,1.015625,-0.062256,-26.573179,-60.539242,-24.513243,1.0520634095514396
0.271729,1.009277,-0.070557,-22.178648,-53.840633,-22.232054,1.0475948655940426
0.275391,0.992188,-0.072266,-18.554688,-49.285885,-20.706175,1.0322304030501135
0.270752,0.97876,-0.075928,-17.318726,-46.371456,-19.599915,1.0183530057342591
0.258789,0.976563,-0.089844,-17.997742,-43.769833,-18.39447,1.0142578487869836
0.250977,0.986816,-0.098145,-18.981934,-40.565487,-16.937256,1.02295049411494
0.247803,1.003418,-0.100098,-18.676758,-36.781311,-14.701842,1.0383995469649434
0.243652,1.017578,-0.110352,-17.64679,-32.516479,-11.924743,1.0521448793260366
0.251953,1.032715,-0.115723,-15.541076,-28.511045,-9.101868,1.069285929096142
0.266113,1.03833,-0.111572,-12.878417,-26.023863,-6.362915,1.0776797431765153
0.270508,1.034424,-0.103027,-10.597228,-25.497435,-3.433227,1.0741611390145336
0.267334,1.02417,-0.094727,-8.499146,-26.596067,-1.235962,1.0627157950200046
0.264404,1.017334,-0.085693,-6.622314,-28.930662,0.015259,1.0546189989854156
0.259277,1.014893,-0.077881,-5.195617,-31.311033,0.526428,1.0503798428849442
0.255371,1.020752,-0.081055,-4.684448,-33.432007,1.060486,1.0553288142422723
0.253174,1.03833,-0.09082,-4.463196,-35.446167,2.02179,1.0726017600097437
0.25293,1.053711,-0.098145,-2.983093,-37.200928,3.051758,1.0880776155431193
0.244141,1.062988,-0.103027,-0.236511,-39.474487,4.119873,1.0955194561275485
0.237061,1.060303,-0.106201,3.173828,-41.969296,5.485534,1.0916588395332123
0.229736,1.047852,-0.098877,7.026672,-44.357296,6.843566,1.077287846737816
0.210693,1.031494,-0.090576,9.986877,-45.608517,8.621216,1.0566813256895382
0.193848,1.017822,-0.0896,11.543273,-45.196529,9.750366,1.0399840531412008
0.180908,1.013428,-0.092041,11.810302,-43.327328,10.360717,1.033554817766818
0.175781,1.018555,-0.096924,11.940001,-40.824886,10.963439,1.0381461890128962
0.177734,1.026367,-0.103027,12.733459,-38.642883,11.550902,1.0467249668246192
0.171631,1.02832,-0.10791,13.748168,-36.300659,12.939452,1.0481143976975986
0.158203,1.025146,-0.108643,15.182494,-32.814026,14.877318,1.0429553259723063
0.147461,1.015869,-0.104004,17.501831,-27.526854,16.059875,1.0317710035167686
0.144775,0.998291,-0.099365,19.454956,-21.64459,16.571045,1.0136163596405694
0.142334,0.982422,-0.095215,20.378111,-15.686034,16.174316,0.997235102603694
0.13501,0.981689,-0.099609,19.90509,-8.529663,16.021729,0.9959231625491999
0.13916,0.985107,-0.097412,19.187927,-1.579285,15.724181,0.9996451394334891
0.148682,0.991943,-0.093994,18.516541,4.257202,15.61737,1.0074185448010178
0.1521,0.999023,-0.097168,18.165588,9.590149,15.11383,1.0151960326720155
0.150879,1.001709,-0.092773,18.478394,13.778686,14.305114,1.0172473754456188
0.151855,0.999023,-0.09082,19.515991,18.211365,13.481139,1.0145714208245764
0.157715,0.987549,-0.083496,20.881651,21.606443,12.5885,1.0035430387591755
0.166016,0.974609,-0.075195,21.354673,23.79608,11.245727,0.9915030525227847
0.167969,0.968994,-0.066162,20.317076,25.238035,9.635925,0.9856674729547485
0.170898,0.970215,-0.063721,18.707275,26.05438,7.8125,0.9872100275372004
0.173096,0.976807,-0.063721,17.01355,27.168272,6.057739,0.9940696687385648
0.185791,0.985107,-0.061035,16.151428,26.222227,3.738403,1.0043303083921145
0.195313,0.990967,-0.063965,14.999389,25.268553,1.89209,1.0120544868153099
0.195801,0.992432,-0.070313,14.022826,23.254393,0.1297,1.014003562219581
0.200684,0.993652,-0.072266,13.008117,20.996092,-2.182007,1.0162877248673232
0.207764,0.990234,-0.068115,11.688231,18.447876,-4.272461,1.0140852566115928
0.21582,0.985352,-0.063721,9.979248,14.48059,-6.004333,1.0107211297608256
0.215088,0.983643,-0.061279,7.8125,10.635375,-7.980346,1.008747498155014
0.208008,0.981934,-0.065918,5.760192,7.194519,-9.506226,1.0058861223538178
0.209473,0.975586,-0.063232,4.020691,4.272461,-10.711669,0.9998226177422673
0.211426,0.969971,-0.064941,2.609253,1.869202,-12.023925,0.9948678443883892
0.214111,0.962891,-0.06543,0.793457,-0.305176,-13.023376,0.9885765944538643
0.214355,0.956787,-0.068604,-1.426697,-3.02124,-13.732909,0.9829017947943731
0.219482,0.95874,-0.074463,-3.448486,-6.301879,-14.251708,0.9863566668771495
0.220459,0.961426,-0.080811,-4.936218,-9.620667,-14.877318,0.9896830512229661
0.216553,0.963623,-0.077637,-6.591796,-12.855529,-15.335082,0.9907027766727011
0.214355,0.966797,-0.075684,-8.468628,-15.647887,-15.785216,0.9931629136702599
0.216309,0.973145,-0.072021,-10.162353,-17.860413,-16.38031,0.9994937713397719
0.216553,0.979736,-0.073975,-11.161803,-19.554138,-16.601563,1.006106421870967
0.212646,0.986328,-0.072021,-11.505126,-20.828245,-17.059326,1.0115573485181153
0.211426,0.986572,-0.071045,-12.016295,-21.545408,-17.616272,1.0114705416792917
0.211182,0.991943,-0.071533,-12.893676,-21.926878,-18.051147,1.0166935243533324
0.210449,0.996582,-0.076172,-13.633727,-21.934507,-18.493652,1.021404248037475
0.212402,1.00293,-0.084473,-13.778686,-21.720884,-18.707275,1.028649056886264
0.216309,1.008789,-0.089111,-13.488769,-21.499632,-18.64624,1.035560524702926
0.216309,1.009033,-0.087891,-13.191222,-21.362303,-18.539429,1.0356939733584434
0.216309,1.010986,-0.086914,-12.870788,-20.988462,-18.203735,1.037514491018318
0.21167,1.007324,-0.085449,-12.542724,-20.042419,-17.570496,1.0328636703248886
0.204346,0.999756,-0.086426,-11.886596,-18.478394,-16.647339,1.0240794894577276
0.204102,0.991455,-0.087158,-11.322021,-16.410828,-15.670775,1.0159907284975587
0.20752,0.981934,-0.0979,-11.215209,-14.312743,-14.808654,1.008386503656212
0.214355,0.979248,-0.106201,-11.665343,-12.771605,-14.038085,1.0080443263716135
0.219238,0.981689,-0.106445,-12.100219,-11.688231,-12.908935,1.0114885720511133
0.217285,0.978271,-0.10376,-12.611388,-10.856627,-11.726378,1.007468638849865
0.219482,0.976318,-0.106934,-13.038634,-10.467528,-10.742187,1.0063816700457138
0.221436,0.980713,-0.106689,-13.069152,-10.757445,-10.055541,1.011046207245742
0.221191,0.979736,-0.101807,-12.7182,-11.253356,-9.529114,1.0095408626826357
0.206787,0.980469,-0.095459,-13.397216,-9.620667,-7.598876,1.006574758282265
0.144775,0.999023,-0.124512,-15.319823,-0.099182,-2.815246,1.0171086438026176
0.070068,1.023193,-0.14502,-14.366149,19.317627,3.700256,1.035791600792843
0.068115,1.032227,-0.137939,-9.902954,44.670101,7.095336,1.043627999085402
0.112549,1.030029,-0.117188,-5.828857,72.235107,8.506775,1.042765575566244
0.170654,1.035156,-0.09082,-3.768921,94.718925,9.254456,1.0530522325373988
0.220947,1.040527,-0.057617,-2.944946,107.063286,9.338379,1.0652857519121337
0.265137,1.062988,-0.018555,-5.012512,109.725945,6.950378,1.0957122820056366
0.347412,1.085449,-0.026123,-9.185791,106.407158,-1.060486,1.1399899299879803
0.362549,1.084717,-0.028564,-6.04248,102.684013,-2.838135,1.1440579747486574
0.311279,1.051514,0.0271,4.814148,95.748894,-0.038147,1.0969552032954675
0.345947,1.009277,0.030029,11.741637,79.444885,-5.332946,1.0673430237646189
0.4375,0.973633,-0.033936,12.451171,48.301693,-10.70404,1.0679508981151709
0.529785,0.972656,-0.044922,9.727478,-2.349854,-9.765625,1.1084898856755527
0.549805,0.993164,-0.023438,1.831055,-64.125061,-13.21411,1.1354336655062682
0.41748,1.026855,0.00415,-4.241943,-121.177666,-20.736692,1.1084845348154388
0.226807,1.062988,0.001709,-9.925842,-159.0271,-32.798767,1.0869166592126556
0.096436,1.063477,-0.074463,-19.302368,-166.51152,-45.524593,1.0704335430067575
-0.019775,1.036377,-0.074951,-20.057678,-145.774841,-40.634151,1.0392718552693516
-0.05127,0.98584,-0.032227,-17.448425,-115.386955,-28.984068,0.9876981816471062
0.011475,0.94043,-0.031494,-21.423338,-88.394157,-22.201536,0.9410271688750543
0.063965,0.949219,-0.016846,-26.481627,-70.518494,-17.669678,0.9515208977747153
0.112061,0.976318,-0.013672,-30.807493,-62.58392,-17.39502,0.9828231928627854
0.124023,1.005859,-0.022461,-33.882141,-56.465145,-16.113281,1.0137250756151788
0.10376,1.024658,-0.00293,-32.859802,-48.454281,-10.223388,1.0299022960766715
0.068115,1.022705,0.028076,-27.633665,-37.414551,-2.845764,1.0253552711260618
0.066406,1.009766,0.023193,-23.193357,-24.597166,2.525329,1.0122129454027942
0.082764,0.998291,0.014648,-20.774839,-11.169433,6.912231,1.0018230204387402
0.102539,0.993408,0.017334,-18.714905,-0.656128,11.047362,0.9988364072965101
0.118408,0.991455,0.026855,-17.219543,4.745483,13.687133,0.9988616833746302
0.126221,0.998535,0.028809,-16.967773,5.897521,14.122008,1.0068931649122463
0.138184,1.015869,0.018066,-16.281128,2.868652,13.542174,1.0253833543475337
0.145752,1.032959,-0.000732,-14.167785,-2.471924,12.748717,1.0431914862617504
0.134033,1.040527,0.001709,-10.482787,-8.522034,13.565063,1.049125446979054
0.123291,1.03833,0.004883,-6.584167,-13.267516,14.739989,1.0456355499264551
0.108398,1.032959,0.01709,-2.441406,-14.678954,17.105103,1.0387716256160446
0.085205,1.028809,0.020508,1.686096,-12.825011,20.439146,1.0325349527110452
0.075684,1.024902,0.020752,3.929138,-8.163452,22.048948,1.0279021465898395
0.095215,1.0271,0.022949,5.653381,-2.540588,22.216795,1.0317591593128699
0.12915,1.04126,0.001465,5.172729,-0.144958,17.700195,1.049239846901079
0.150391,1.055908,-0.02832,4.196167,-2.227783,10.360717,1.066940101292008
0.140625,1.048096,-0.019043,7.17926,-6.614685,6.690979,1.0576593268581336
0.144043,1.023193,-0.022461,9.147644,-12.306212,4.104614,1.0335263894158677
0.14209,1.013184,-0.032959,8.483887,-16.700745,3.036499,1.0236296603933477
0.116699,1.014404,-0.033203,6.896972,-18.844604,1.197815,1.0216342648061487
0.076904,1.021729,-0.030518,4.699707,-18.081665,-2.075195,1.0250735207686328
0.049805,1.017578,-0.022461,3.669739,-14.61029,-3.784179,1.0190436794514748
0.071777,1.008301,-0.019287,2.227783,-9.82666,-4.53949,1.0110365140285487
0.105957,1.012451,-0.030273,-0.572205,-4.676819,-4.096985,1.0184303450796228
0.117188,1.029053,-0.035645,-1.472473,-2.082825,-4.829407,1.0363173597783644
0.121338,1.031494,-0.038086,-0.50354,-1.800537,-7.995605,1.0393042507735644
0.11499,1.023438,-0.040771,0.50354,-1.365662,-10.185241,1.0306843912590313
0.108154,1.007568,-0.029297,1.64032,-1.083374,-9.666443,1.013779500951267
0.10791,0.992432,-0.028564,1.358032,-2.02179,-8.544922,0.9986900143788362
0.111816,0.988525,-0.026855,-0.473022,-3.730774,-8.079529,0.9951912803607155
0.111084,0.992432,-0.031982,-2.319336,-6.156921,-8.552551,0.9991415205084813
0.101807,0.998779,-0.027588,-2.822876,-7.629394,-8.651733,1.004333238439314
0.093262,1.005859,-0.020264,-2.326965,-8.247375,-7.888793,1.01037654279036
0.098877,1.019775,-0.032959,-3.257751,-8.712769,-8.338928,1.0250873169808512
0.104004,1.041504,-0.037598,-3.097534,-7.293701,-8.865356,1.04735907101433
0.112061,1.054443,-0.043457,-2.677917,-3.967285,-12.039184,1.0612710392821432
0.123779,1.050537,-0.050049,-0.289917,-2.677917,-15.472411,1.0589873141879462
0.146729,1.033691,-0.05249,2.433777,-7.339477,-17.074585,1.045371552617537
0.140137,1.022217,-0.036377,3.14331,-13.298034,-16.319275,1.0324191299985679
0.105469,1.018311,-0.02417,1.88446,-15.632628,-15.472411,1.0240435496510878
0.079102,1.030029,-0.017578,0.663757,-13.153075,-15.045165,1.0332114272156498
0.067139,1.034668,0.001709,0.648498,-6.935119,-14.122008,1.036845425425603
0.074219,1.031494,0.010498,1.235962,-0.022888,-12.641906,1.0342139720584904
0.082275,1.023193,0.017334,3.105163,4.760742,-10.025024,1.0266418842176661
0.093506,1.021484,0.014404,3.89862,7.057189,-8.499146,1.025855939938937
0.115723,1.044434,-0.033936,-0.648498,7.667541,-11.863708,1.0513733138999677
0.135254,1.065918,-0.053467,-2.052307,7.064819,-14.625548,1.0757943796697396
0.147461,1.059326,-0.048828,-0.076294,4.898071,-14.183043,1.0706542366146972
0.132324,1.044434,-0.036621,0.12207,3.349304,-11.611938,1.0534197259274198
0.115723,1.026367,-0.017822,-0.213623,4.234314,-10.780334,1.033024034135702
0.105469,1.009521,-0.001953,0.083923,7.225036,-10.002136,1.0150173267540805
0.107666,0.998779,0.005127,-0.579834,9.155273,-9.529114,1.0045783914289614
0.116943,1.004883,0.002197,-2.578735,9.521484,-9.468079,1.0116671071785421
0.118652,1.019531,0.004395,-3.479004,9.07135,-8.979797,1.0264214890043952
0.121582,1.020996,0.010742,-1.945495,7.759094,-7.331848,1.0282657269908397
0.12085,1.016357,0.012939,0.50354,5.821228,-4.852295,1.023598403510869
0.117676,1.014404,0.012695,1.739502,3.479004,-3.234863,1.0212856011992923
0.129395,1.039551,-0.009766,-1.609802,1.701355,-5.218505,1.0476185958553808
0.166992,1.077637,-0.052734,-6.080627,0.335693,-9.132385,1.0917731937490498
0.176514,1.080322,-0.043213,-2.944946,-0.900268,-8.964539,1.095499967708352
0.155762,1.051758,-0.027832,0.961304,-4.653931,-8.262634,1.0635935837677848
0.125488,1.023438,-0.016846,1.678467,-9.544373,-8.255005,1.0312402075675677
0.096436,1.009277,-0.000977,0.434875,-12.908935,-8.049011,1.0138742127867737
0.082764,1.007568,0.009033,-1.579285,-13.282775,-7.125854,1.011001854305421
0.079346,1.013184,0.01416,-2.502441,-11.291503,-5.134582,1.0163848243514855
0.079346,1.023193,0.005615,-2.441406,-8.468628,-3.341675,1.0262802888051588
0.086182,1.028564,-0.003174,-1.045227,-5.264282,-1.495361,1.032173102486206
0.092041,1.034424,-0.006836,0.785828,-1.678467,0.167847,1.038533238925457
0.109131,1.035156,-0.019531,-0.068665,0.610352,-0.63324,1.0410758759370038
0.131836,1.042725,-0.037598,-1.693725,1.022339,-2.708435,1.0516985148439641
0.132813,1.040283,-0.033936,-0.488281,-0.366211,-3.112793,1.049275781267251
0.117432,1.024414,-0.019287,0.511169,-2.815246,-2.449036,1.0313032077856636
0.099365,1.013184,-0.015381,-0.396728,-4.478455,-1.548767,1.018160987389519
0.084473,1.00293,-0.008789,-1.869202,-4.226685,-0.37384,1.0065195075854219
0.078857,1.00293,-0.001709,-3.616333,-2.822876,0.87738,1.00602680482679
0.083252,1.010742,-0.004639,-6.256103,-0.991821,2.380371,1.014175431761685
0.080566,1.025635,-0.002686,-7.492065,1.296997,4.974365,1.0287979627589665
0.086914,1.029053,0.001221,-6.080627,4.768372,7.659912,1.0327175853281476
0.100342,1.028076,0.002441,-3.784179,9.971619,10.261535,1.0329640541766203
0.111816,1.023193,0.001221,-1.403808,14.579772,12.062072,1.0292852976439526
0.12793,1.015625,-0.006592,0.526428,16.372681,12.916564,1.0236716661063743
0.146729,1.016357,-0.015381,0.785828,14.73236,12.7182,1.0270090194594204
0.14624,1.022217,-0.019775,-0.190735,10.665893,11.70349,1.0328140119663365
0.132813,1.02832,-0.021484,-1.13678,5.172729,9.841919,1.037083833460439
0.12085,1.029541,-0.023438,-1.586914,-0.770569,8.094788,1.0368745020613632
0.12085,1.026367,-0.027588,-2.548218,-5.737304,7.225036,1.0338254392947583
0.119873,1.024658,-0.027588,-2.89154,-7.484436,8.216858,1.032014850104881
0.113037,1.020264,-0.020264,-2.746582,-6.629943,9.109497,1.026706687794036
0.114258,1.024414,-0.030518,-3.677368,-5.645751,7.728576,1.0312178636369718
0.125977,1.029297,-0.032227,-4.615784,-5.867004,5.340576,1.037478239900481
0.133301,1.023438,-0.026855,-4.692078,-7.209777,4.264832,1.0324319287342871
0.128662,1.019287,-0.026855,-5.66101,-9.94873,3.799438,1.0277261744443411
0.120605,1.016602,-0.029297,-7.034301,-13.175963,2.960205,1.0241501387189282
0.111328,1.018066,-0.03125,-8.026123,-15.144347,2.479553,1.024611568566352
0.105713,1.018799,-0.039551,-8.712769,-15.846251,2.418518,1.0250321567497285
0.096191,1.022705,-0.041748,-8.293152,-15.60974,2.708435,1.02806669093498
0.089355,1.018311,-0.045654,-8.132935,-15.243529,1.945495,1.0232428335747092
0.095459,1.011719,-0.041992,-8.506775,-15.571593,0.923157,1.0170796840493865
0.102295,1.014404,-0.035889,-9.529114,-15.525817,0.686645,1.0201802598374465
0.097656,1.030762,-0.030273,-10.215758,-13.404845,1.13678,1.0358201820340247
0.107666,1.049561,-0.040771,-10.719298,-11.19995,-0.091553,1.055856304010162
0.122314,1.062256,-0.053223,-9.95636,-11.100768,-2.746582,1.0705985297304494
0.126465,1.056152,-0.053223,-7.461547,-13.786315,-4.516602,1.0650272912268492
0.106934,1.036621,-0.049072,-5.722045,-17.532349,-5.439758,1.0432765880537147
0.073975,1.017578,-0.043457,-6.347656,-19.821167,-6.286621,1.021188424120642
0.065186,1.01416,-0.045166,-9.628296,-19.805908,-7.888793,1.0172559598016617
0.068359,1.022705,-0.04248,-13.763427,-17.021179,-7.850646,1.0258669603345258
0.052002,1.034912,-0.047852,-15.785216,-12.100219,-5.989074,1.03732197009993
0.029785,1.043457,-0.042236,-15.426635,-5.607605,-3.509521,1.0447361086752962
0.034668,1.051025,-0.043213,-15.769958,2.052307,-2.151489,1.0524841016461959
0.066406,1.059814,-0.057373,-16.76178,11.657714,-2.128601,1.0634411749415198
0.084229,1.059326,-0.051514,-15.151977,21.224974,-0.686645,1.0639171917555426
0.088135,1.05127,-0.034912,-13.183593,27.32086,0.694275,1.0555355223150948
0.096436,1.039551,-0.01709,-11.749267,29.449461,0.831604,1.0441543237457764
0.096436,1.032715,0.001465,-10.330199,29.151915,0.854492,1.0372089083429625
0.084717,1.024658,0.018066,-8.56781,28.182981,0.808716,1.0283128742795162
0.083252,1.024902,0.019775,-7.583618,27.778624,-0.091553,1.0284678194931525
0.0896,1.0271,0.015625,-8.033752,29.533384,-1.800537,1.0311191544263931
0.109131,1.034668,0.011719,-8.369446,30.639647,-2.281189,1.0404733443707244
0.123047,1.039551,0.015381,-7.690429,28.968809,-2.311707,1.0469209239340858
0.111084,1.038574,0.023926,-6.431579,24.780272,-2.983093,1.0447717750820034
0.103271,1.035889,0.033447,-4.699707,19.844055,-4.28009,1.0415611463428347
0.096191,1.025391,0.047119,-3.494262,16.448975,-4.249573,1.0309702282427946
0.088623,1.02124,0.064697,-3.39508,15.129088,-2.731323,1.027117751544583
0.091797,1.019287,0.073242,-4.356384,14.686584,-2.388,1.0260297598715156
0.106445,1.029053,0.066162,-6.034851,13.862609,-3.036499,1.036657139597273
0.112549,1.044189,0.053467,-6.965637,11.894225,-4.333496,1.051597197224774
0.112793,1.053711,0.053223,-5.523681,8.506775,-5.332946,1.0610663598941397
0.105225,1.049316,0.05957,-2.761841,5.836486,-4.669189,1.0562598891281443
0.100098,1.037109,0.065674,-0.823975,5.310058,-3.623962,1.043996054475782
0.099365,1.0271,0.071777,-0.144958,5.41687,-3.334045,1.0343885879851922
0.093994,1.033203,0.064941,-0.862122,5.004883,-4.226685,1.0395001898633787
0.102051,1.056396,0.05127,-1.770019,2.967834,-5.210876,1.0625514238459235
0.097168,1.068848,0.061523,-0.396728,1.052856,-4.196167,1.0750175565343107
0.077881,1.072998,0.056152,1.693725,3.425598,-3.166198,1.0772851086267738
0.075195,1.055664,0.060547,4.943848,5.744934,-1.480102,1.0600691996893408
0.070801,1.033936,0.07251,7.026672,8.514404,-0.556946,1.0388908189973574
0.07251,1.023682,0.082764,6.530761,10.505675,0.106812,1.029578757026387
0.072266,1.018066,0.089111,5.340576,12.321471,1.121521,1.0245103832724196
0.080078,1.01709,0.075195,4.081726,12.542724,1.38855,1.0230048104525218
0.082764,1.019043,0.070557,2.937317,11.19995,0.808716,1.0248301350926405
0.078125,1.017578,0.066162,2.807617,9.208679,0.152588,1.0227149710222296
0.071533,1.01001,0.071533,3.028869,7.942199,0.167847,1.01506361390703
0.060547,1.006348,0.082275,3.448486,7.514953,0.923157,1.011519358162759
0.059082,1.004639,0.087158,3.471374,7.484436,0.823975,1.0101419306260877
0.071045,1.007568,0.076416,2.563476,8.232117,-1.029968,1.0129561055174108
0.091797,1.012695,0.062012,1.960754,8.491516,-1.907349,1.0187361485576134
0.101074,1.012695,0.056396,1.861572,7.621765,-2.342224,1.0192878029864774
0.092529,1.012207,0.061523,1.89209,5.958557,-3.059387,1.0182876343248994
0.078369,1.004883,0.071289,1.876831,4.631042,-4.074097,1.0104522083557441
0.065918,1.009766,0.068848,1.045227,4.226685,-4.905701,1.0142547039989511
0.070801,1.031738,0.057129,-0.335693,4.623413,-5.828857,1.035741186245869
0.101563,1.045166,0.054688,-0.793457,3.105163,-5.561828,1.051512143471962
0.106934,1.052246,0.049072,-0.022888,1.251221,-4.959106,1.058803374596058
0.08374,1.044434,0.059814,1.998901,2.525329,-5.645751,1.0494915352455207
0.069824,1.026611,0.069092,3.463745,7.141113,-5.096435,1.0312997821976886
0.074707,1.01416,0.074219,2.494812,12.794494,-3.715515,1.019612721286862
0.095215,1.026855,0.065918,-0.274658,16.38031,-3.562927,1.033364538763548
0.118896,1.049316,0.059814,-2.02179,16.143799,-3.761291,1.0577230456352928
0.127197,1.056396,0.048584,-1.541138,13.267516,-3.715515,1.065134728886914
0.110596,1.049561,0.053467,0.587463,11.795043,-2.983093,1.0567253607375948
0.0979,1.030273,0.062744,1.976013,13.46588,-1.777649,1.0368141945715248
0.092041,1.014404,0.067871,1.525879,16.403198,-0.205994,1.0208298063526555
0.094727,1.016113,0.06543,-0.335693,18.257141,0.892639,1.0226142567938314
0.110352,1.034424,0.058594,-2.487183,17.814636,1.319885,1.0419423364639715
0.121826,1.056641,0.051758,-3.379822,15.342711,1.350403,1.064899369762702
0.118896,1.071289,0.043945,-2.708435,13.198852,1.487732,1.0787620420472719
0.108887,1.062256,0.051758,0.198364,14.22119,2.700805,1.0690758059506353
0.106201,1.039795,0.057373,2.250671,16.799927,3.746032,1.0467778921791384
0.105469,1.020264,0.061768,3.105163,17.822266,4.257202,1.0275590617969363
0.115479,1.014404,0.063721,2.113342,16.700745,4.020691,1.022942442416972
0.12085,1.022705,0.055908,0.144958,13.893126,3.501892,1.0313369691759333
0.124756,1.036377,0.04126,-1.12915,8.964539,2.449036,1.0446739842003343
0.117188,1.04248,0.041748,-0.785828,4.135132,2.296448,1.0498764085586456
0.09082,1.04248,0.052979,0.595093,2.166748,3.158569,1.047768866325489
0.092285,1.03418,0.059814,1.579285,3.105163,4.219055,1.0400108212037988
0.10083,1.0271,0.056885,1.625061,4.684448,6.553649,1.0336038903395246
0.102051,1.01416,0.058838,2.388,5.577087,7.591247,1.0209783653168172
0.095703,1.011475,0.05127,2.6474,6.652832,7.690429,1.0172852858141612
0.0979,1.025879,0.027344,1.029968,8.346558,7.492065,1.0309024332966723
0.112061,1.04126,0.016113,0.297546,9.643555,7.957458,1.0473966221494129
0.118896,1.048096,0.026123,0.366211,9.788513,8.94165,1.0551416469654677
0.107422,1.046143,0.045898,0.785828,9.651184,8.995056,1.0526449016344495
0.097168,1.029785,0.05957,1.861572,9.590149,8.346558,1.036073043442884
0.091553,1.017578,0.069336,2.380371,9.910583,8.392334,1.0240382897084463
0.091797,1.021484,0.061523,1.335144,10.833739,8.720398,1.027444076820729
0.101318,1.038574,0.039795,0.427246,11.657714,7.507324,1.044262865673677
0.120605,1.052002,0.026123,1.419067,11.184691,6.965637,1.0592148909253496
0.130615,1.04834,0.0271,2.990722,8.796692,7.43103,1.0567929995155154
0.117188,1.036377,0.041992,3.974914,5.645751,6.637573,1.043826442248423
0.096436,1.026855,0.050781,4.081726,3.959656,5.241394,1.0326227786960736
0.09082,1.027832,0.046143,3.189087,4.447937,4.768372,1.032867885585083
0.092285,1.0354,0.03833,3.494262,6.004333,5.569458,1.0402109738533816
0.106689,1.044678,0.029053,3.387451,6.599426,6.385803,1.0505135616516332
0.097656,1.046875,0.030273,4.249573,7.186889,5.874633,1.0518557004123712
0.095703,1.032959,0.039063,5.943298,7.774353,5.058288,1.0381181425343649
0.082275,1.019531,0.044678,6.576538,8.544922,5.401611,1.0238206675341144
0.074951,1.009033,0.048828,5.737304,9.979248,6.004333,1.0129903361207353
0.082275,1.014893,0.051514,4.180908,12.397765,6.561279,1.0195247271498618
0.091309,1.022949,0.057861,3.372192,14.167785,7.728576,1.028644683747989
0.092773,1.02417,0.057373,3.684997,15.388488,8.270264,1.0299624651209383
0.096191,1.030029,0.040039,4.348755,16.876221,7.43103,1.0352852606132283
0.099365,1.038086,0.024658,5.279541,18.432617,6.072998,1.0431222189106126
0.102539,1.028076,0.029053,7.186889,18.096924,4.875183,1.0335853061581322
0.102539,1.006592,0.052246,8.460999,16.983032,5.027771,1.0131492217343898
0.091064,0.985352,0.070557,7.850646,16.288757,5.401611,0.9920632571812142
0.085205,0.979736,0.077637,5.905151,16.899109,5.119323,0.9864938040808975
0.077881,0.985596,0.076172,3.479004,18.768311,4.40979,0.9915982548194606
0.101318,1.004639,0.070313,1.51062,21.125792,3.936767,1.0121802089618233
0.108154,1.032227,0.062256,0.328064,22.163389,3.189087,1.039743082102978
0.097656,1.044922,0.062012,1.281738,21.232603,0.900268,1.0513059348087024
0.091797,1.037109,0.068848,3.684997,21.301268,-0.213623,1.0434374989399222
0.09668,1.025391,0.071777,5.584716,22.392271,-0.228882,1.0324367598114665
0.106201,1.010254,0.083252,5.805969,22.430418,-1.068115,1.01922651673757
0.10498,1.006104,0.087646,3.77655,21.65222,-2.525329,1.015356036339963
0.112061,1.016113,0.090088,1.167297,20.210264,-3.807068,1.0262354233966007
0.115479,1.029053,0.083008,-0.686645,18.432617,-4.463196,1.0388338675235804
0.11084,1.044922,0.073242,-1.167297,17.63916,-5.767822,1.0533336993792612
0.11792,1.044434,0.07666,-0.350952,17.982483,-6.324768,1.0538615954460056
0.123047,1.034912,0.085449,1.167297,18.188477,-6.362915,1.0456983042704047
0.134766,1.024902,0.083252,2.082825,16.25061,-7.057189,1.037071299315529
0.138428,1.02002,0.072998,2.677917,11.665343,-8.117676,1.031955337981252
0.134277,1.019043,0.064453,2.563476,7.949829,-8.544922,1.029870447088856
0.128662,1.02124,0.067627,1.434326,5.928039,-8.575439,1.031532093040735
0.117432,1.02002,0.081055,0.236511,5.332946,-8.918762,1.0299519348246304
0.106201,1.025635,0.083008,-1.13678,7.263183,-8.506775,1.034454510208158
0.111816,1.041748,0.072998,-2.113342,9.498596,-7.263183,1.0502715940955463
0.114014,1.050049,0.065918,-1.068115,9.979248,-6.42395,1.0582756150082075
0.106689,1.040039,0.072998,0.572205,10.177611,-5.821228,1.0480421614830195
0.100098,1.018311,0.084473,1.274109,11.558532,-4.203796,1.0266998539271348
0.0979,1.013184,0.081543,0.297546,13.984679,-2.799988,1.0211637913209615
0.105469,1.025391,0.072266,-0.999451,16.326904,-2.746582,1.0333309187273938
0.111572,1.035156,0.068848,-0.564575,16.387939,-3.105163,1.0434252740968084
0.109863,1.029541,0.069092,0.709534,14.030456,-2.89154,1.037688900352124
0.107422,1.019775,0.072998,0.968933,12.672423,-2.044678,1.0280122784835792
0.111572,1.026855,0.069824,-0.144958,13.313293,-2.037048,1.0352559553970215
0.107422,1.042969,0.065918,-0.221252,14.030456,-3.295898,1.05055652097781
0.113281,1.038086,0.065918,1.113892,14.297484,-3.799438,1.0463270574160835
0.114502,1.018311,0.072754,1.625061,14.236449,-4.02832,1.0273077169188403
0.120361,1.01001,0.077148,0.961304,14.335631,-4.272461,1.0200778324838748
0.124268,1.017822,0.068848,-0.099182,14.10675,-4.974365,1.0276887693324277
0.126221,1.024902,0.054688,0.0,12.756347,-5.477905,1.034092175673426
0.130127,1.020508,0.054199,0.419617,11.131286,-5.050659,1.0301976246303426
0.128662,1.010254,0.06543,0.274658,10.223388,-5.187988,1.0205136646120914
0.123779,1.00293,0.078125,-0.831604,10.261535,-5.187988,1.0135548043228841
0.116211,1.009277,0.08374,-2.105713,11.489867,-4.966736,1.0193907233490012
0.130371,1.023438,0.064697,-2.410889,13.542174,-4.486084,1.0337348012396603
0.143555,1.030029,0.053711,-2.13623,14.877318,-3.257751,1.0413705634340737
0.142578,1.020996,0.059082,-1.342773,15.174865,-3.738403,1.0325947902367125
0.136475,1.011719,0.064697,-1.312256,15.228271,-4.470825,1.022930331154082
0.13623,1.017334,0.067139,-1.976013,14.976501,-4.699707,1.0286081497718167
0.149902,1.026367,0.062012,-2.220154,13.97705,-4.53186,1.0391079426301195
0.157715,1.027832,0.063232,-1.63269,11.611938,-3.890991,1.0417825719760339
0.153809,1.017578,0.071533,-1.38092,9.208679,-3.64685,1.0316196802378288
0.135254,1.016602,0.072266,-2.380371,8.392334,-3.479004,1.0281029353503472
0.126953,1.039307,0.060059,-3.288269,8.499146,-3.265381,1.04875315872659
0.141602,1.050537,0.058594,-2.120972,7.499694,-1.747131,1.0616554863085295
0.137939,1.034912,0.064941,0.144958,6.04248,0.190735,1.0460819035553575
0.125488,1.016846,0.069824,0.75531,6.637573,1.167297,1.0269364229766125
0.119385,1.014648,0.072021,-0.793457,9.422302,2.372742,1.024182779864024
0.124023,1.020508,0.072266,-2.349854,12.138366,3.39508,1.030553568403409
0.140869,1.028809,0.069824,-2.693176,13.244628,4.699707,1.0407532967125304
0.144775,1.029785,0.07373,-2.677917,12.825011,5.317688,1.0425224504776862
0.139648,1.04248,0.064697,-3.40271,12.321471,4.814148,1.0537797759081353
0.133545,1.068359,0.054199,-3.639221,11.405944,3.753662,1.0780365260541964
0.135742,1.067383,0.054443,-1.045227,9.963989,4.302979,1.0773562082718975
0.126953,1.043457,0.063477,1.449585,8.506775,5.386352,1.053066429332452
0.114014,1.026855,0.070557,1.708984,8.522034,5.66101,1.035571665057518
0.112305,1.035156,0.061035,0.480652,9.040833,5.966186,1.0430175590976405
0.11792,1.038086,0.053955,0.663757,9.384155,7.781982,1.0461542963736277
0.117188,1.030029,0.058594,1.075745,9.727478,9.513855,1.0383284764567522
0.112793,1.019531,0.071289,1.243591,10.32257,10.32257,1.028225579496542
0.109863,1.02002,0.072754,0.389099,11.749267,10.993957,1.028495903582022
0.124512,1.031738,0.06543,-0.183105,13.137816,11.611938,1.0412817215758663
0.12793,1.035645,0.061768,-0.038147,12.786864,11.940001,1.0453429756539239
0.119385,1.03418,0.060059,0.610352,11.795043,10.95581,1.04277904376047
0.113281,1.032715,0.05127,0.617981,11.123656,9.841919,1.040173768697327
0.112061,1.033203,0.043945,0.732422,10.543822,8.811951,1.040190977635838
0.109863,1.031738,0.049072,1.25885,9.483337,8.18634,1.038730590960428
0.108887,1.022949,0.059814,1.88446,7.659912,7.67517,1.0304653075023926
0.100586,1.017334,0.065186,2.441406,6.561279,6.935119,1.0243706485193727
0.100342,1.018799,0.062744,3.227234,6.66809,6.111145,1.0256494181254139
0.113281,1.025146,0.050781,3.799438,6.591796,5.187988,1.0326352774518213
0.125244,1.031738,0.043213,4.402161,5.508422,4.425049,1.0402099420544875
0.119385,1.032715,0.050049,4.989624,3.677368,3.799438,1.0407967870103174
0.099609,1.026611,0.061768,4.936218,3.02124,1.815796,1.0332799156211252
0.094727,1.024902,0.064697,4.463196,4.257202,0.541687,1.0313016124984968
0.102783,1.025146,0.064453,4.333496,6.141662,0.671387,1.0322997896028072
0.109863,1.02417,0.065674,4.814148,7.415771,1.037598,1.03213717205854
0.115723,1.024658,0.063965,5.226135,7.67517,0.953674,1.0331540789824138
0.119141,1.024902,0.066406,5.371093,7.499694,0.549316,1.0339383174643446
0.113525,1.021973,0.069824,5.340576,7.667541,0.640869,1.030627056373934
0.103027,1.018311,0.074219,4.737854,8.117676,0.465393,1.0261970158848641
0.110107,1.023193,0.071777,4.333496,8.430481,-0.137329,1.031600409280163
0.124023,1.027832,0.07373,4.714966,8.346558,0.511169,1.0379096481163474
0.116943,1.023682,0.078369,5.393981,7.690429,0.75531,1.033316119362318
0.11499,1.017822,0.080566,6.248474,7.102966,0.457764,1.0274605608683964
0.132813,1.014404,0.07251,7.56073,6.225585,1.327515,1.0256278410247062
0.136475,1.01123,0.072021,7.865905,4.219055,2.334595,1.0229362457973616
0.126709,1.013184,0.070801,7.469177,3.341675,1.174927,1.02352809933973
0.12207,1.017822,0.063965,6.820678,4.257202,-0.694275,1.0271096483866753
0.123291,1.022705,0.057617,6.41632,5.783081,-1.38855,1.0317198778714112
0.128906,1.018799,0.062012,6.446838,6.088256,-1.190186,1.0287923247094137
0.126709,1.00708,0.076416,6.515502,5.92041,-1.342773,1.0178922841524047
0.128418,0.99585,0.082764,6.179809,6.134033,-1.823425,1.00750100988535
0.130859,0.987793,0.083496,5.050659,7.530212,-2.029419,0.999915331788647
0.128418,0.990723,0.088867,3.601074,9.269714,-2.243042,1.0029559258222667
0.129883,0.999023,0.085205,2.723694,9.132385,-2.838135,1.0110274181460164
0.144043,1.00415,0.087891,2.700805,5.065917,-2.876281,1.018229068643201
0.142578,1.001953,0.088867,4.241943,-0.274658,-1.63269,1.0159407679495889
0.13208,0.993408,0.094238,6.67572,-3.784179,0.427246,1.006571101069368
0.122559,0.985596,0.111816,8.522034,-5.53894,3.189087,0.9994613557076631
0.138428,1.00293,0.079102,4.364014,-8.514404,2.311707,1.0155235213858909
0.17627,1.038086,0.01709,-1.13678,-13.900756,-2.39563,1.0530839113745876
0.172852,1.070313,0.001221,-0.549316,-16.448975,-4.005432,1.084181360619154
0.156494,1.068848,0.023682,2.708435,-14.526366,-3.082275,1.080503242134886
0.147949,1.047607,0.052734,5.050659,-10.047912,-0.495911,1.0593159150159126
0.144287,1.021729,0.068848,5.088806,-4.470825,1.411438,1.0341609811407508
0.139404,1.011963,0.077637,2.876281,1.457214,2.777099,1.024465759483449
0.125488,1.017822,0.085449,-0.244141,7.545471,3.90625,1.029082306440549
0.119141,1.036621,0.086182,-2.365112,14.060973,4.66156,1.0469980958177527
0.122314,1.059082,0.069824,-2.212524,21.835325,5.41687,1.068405722699013
0.137207,1.061279,0.067383,0.350952,29.090879,6.484985,1.0722310130652817
0.158447,1.046143,0.072266,3.479004,32.051086,7.385253,1.060539015319097
0.168457,1.024658,0.076904,5.249023,31.044004,7.568359,1.041256934204522
0.167725,1.01001,0.081299,4.959106,28.877256,7.225036,1.0270644590900808
0.163574,1.012451,0.081787,3.540039,26.603697,6.904602,1.0288355525767954
0.164795,1.028076,0.077148,1.625061,23.620604,6.111145,1.04405434135633
0.173096,1.04248,0.062012,0.579834,20.294188,5.195617,1.058570859111472
0.177734,1.044922,0.056396,1.998901,18.035889,5.340576,1.0614291637485753
0.166992,1.031738,0.063965,3.562927,16.342163,4.989624,1.047120408517091
0.153076,1.016602,0.069092,3.90625,14.991759,3.280639,1.0303812850804308
0.148926,1.015137,0.060547,2.243042,13.908385,1.815796,1.0277879263028924
0.156738,1.025391,0.050781,0.816345,13.618468,0.816345,1.038543313245047
0.166504,1.022949,0.052246,1.022339,13.366698,0.694275,1.0377272681841796
0.169434,1.015625,0.055908,1.472473,12.496947,0.793457,1.03117783405434
0.16626,1.000977,0.064209,1.655578,11.093139,0.442505,1.0167202849407502
0.164063,1.001465,0.057861,0.518799,9.20105,-0.350952,1.016462842171321
0.163574,1.012451,0.048096,-0.518799,6.835937,-1.197815,1.0267067283762195
0.159912,1.017578,0.039795,-0.061035,5.004883,-0.930786,1.0308348441205313
0.155518,1.019043,0.036621,0.869751,4.852295,-0.137329,1.031491920382317
0.15332,1.018311,0.039551,1.457214,5.638122,0.518799,1.0305477168583703
0.155273,1.026123,0.044678,1.64032,6.866455,1.121521,1.0387657288060672
0.16626,1.045166,0.031738,1.327515,8.422852,1.167297,1.0587831013951818
0.17627,1.058594,0.023926,2.76947,8.880615,1.281738,1.0734359893407712
0.176025,1.051514,0.027344,5.653381,7.820129,1.342773,1.0664962199450123
0.167969,1.033447,0.033936,8.178711,6.17218,0.915527,1.047558083767196
0.155762,1.016357,0.03418,8.94165,5.813598,0.793457,1.0287913415717493
0.155518,1.007813,0.031738,8.361816,7.591247,1.12915,1.0202353610500863
0.159424,1.012695,0.033203,7.156372,9.552002,1.25885,1.0257044476894892
0.165283,1.017578,0.038086,6.774902,10.490417,1.625061,1.0316171768485634
0.165283,1.016113,0.035645,7.225036,9.857178,2.159119,1.0300847852885704
0.160889,1.015137,0.032715,7.93457,9.178162,2.342224,1.0283280946833067
0.158447,1.014893,0.033447,7.583618,9.559631,2.89154,1.0277314605805352
0.1604,1.015625,0.036865,7.4234,11.054992,3.982544,1.0288738158054174
0.165527,1.012695,0.043701,7.827758,12.321471,4.875183,1.0270638384029493
0.165283,1.009033,0.048096,7.957458,12.916564,5.210876,1.023610907715427
0.170166,1.009521,0.047607,7.255554,13.175963,5.142211,1.0248685493496226
0.171143,1.015625,0.049316,6.889343,13.839721,5.340576,1.0311237243561027
0.172363,1.018555,0.053711,7.614135,14.35089,5.523681,1.0344313236339087
0.175049,1.012207,0.057617,8.239746,13.85498,5.653381,1.0288463840335933
0.184326,1.007568,0.055908,8.789063,11.528014,5.393981,1.0258143366925616
0.185791,1.009033,0.043701,8.537292,8.68988,4.402161,1.0269253469318012
0.185791,1.004883,0.04541,9.017944,6.67572,3.967285,1.0229223858485061
0.188721,0.993164,0.050781,9.811401,4.753113,4.066467,1.0122099864642713
0.185791,0.980713,0.054443,9.857178,2.525329,4.020691,0.9996400973845536
0.18457,0.971191,0.052246,9.109497,0.045776,3.456115,0.9899533766279097
0.181152,0.969727,0.050293,8.277893,-2.01416,3.494262,0.9877833201071984
0.174072,0.970703,0.047852,7.362365,-3.135681,3.837585,0.9873475524337921
0.174561,0.974609,0.043457,7.408142,-3.242492,4.394531,0.9910715193420704
0.178467,0.970215,0.040039,8.903503,-3.295898,5.401611,0.9873047846713799
0.176758,0.954834,0.039551,10.940551,-3.90625,6.538391,0.9718619447848547
0.171143,0.939453,0.034668,12.130736,-5.210876,7.93457,0.9555436860144072
0.158936,0.927734,0.028809,12.825011,-5.653381,9.735107,0.9416904933856983
0.14502,0.924561,0.026611,12.611388,-3.746032,11.924743,0.9362435518827352
0.140381,0.924316,0.024902,11.497497,0.221252,13.771056,0.9352470275927104
0.143799,0.93042,0.028564,10.0708,4.974365,15.716552,0.9418999049246157
0.144775,0.940186,0.031494,9.017944,9.506226,17.860413,0.9517885202380831
0.149414,0.949951,0.040039,9.025574,13.381957,19.996643,0.962462761522751
0.153809,0.956787,0.054688,9.429932,16.281128,22.071836,0.9706128729797477
0.156006,0.96582,0.066162,9.017944,18.569946,24.215696,0.9805730746252418
0.158203,0.986572,0.069824,7.240295,20.301817,25.93231,1.0016126453719523
0.169189,1.018066,0.055664,4.798889,22.125242,26.298521,1.0335287992954043
0.174316,1.05249,0.047363,3.829956,24.192808,26.329039,1.0678785144973186
0.17334,1.079102,0.038818,5.073547,27.275084,26.992796,1.0936245786959984
0.158691,1.090576,0.028809,8.232117,32.829285,29.602049,1.1024376643320928
0.139648,1.087891,0.030762,11.665343,40.283199,33.416748,1.097248692151875
0.130859,1.072998,0.043701,13.97705,48.71368,37.704468,1.0818311158799232
0.131592,1.062744,0.05957,14.282226,57.319637,41.854855,1.0725156637084607
0.143799,1.060059,0.068604,12.298583,64.14032,44.517513,1.0719653654377086
0.161865,1.069336,0.080566,9.742737,67.741394,45.715328,1.084514010733379
0.186035,1.080566,0.081543,7.270813,68.138123,45.005795,1.0994913198520486
0.19043,1.091309,0.075439,5.859375,66.513062,43.243404,1.11036478740187
0.181885,1.102539,0.071777,4.951477,63.499447,41.130062,1.1197438713719312
0.165039,1.109863,0.06543,4.814148,61.988827,39.810181,1.1239727911253012
0.147217,1.109863,0.062012,5.310058,63.507076,38.963318,1.1213002327664077
0.14502,1.105469,0.062256,5.943298,67.29126,38.993835,1.1166773571166382
0.154053,1.092529,0.061523,6.950378,71.83075,39.245605,1.1050506876062294
0.179443,1.083252,0.052734,7.278442,75.668335,38.18512,1.0992795643097348
0.216064,1.071289,0.04248,7.011413,77.339172,36.048889,1.0936856605153968
0.249756,1.054443,0.042725,7.270813,75.256348,33.485413,1.0844600155884034
0.268311,1.033447,0.042725,7.972717,69.854736,30.227659,1.0685639523000017
0.277588,1.009033,0.047852,8.796692,64.476013,27.130125,1.0476127656424392
0.28125,0.989502,0.057129,8.857727,61.119076,24.093626,1.0302812689479508
0.290283,0.974365,0.065918,8.590698,59.745785,21.430967,1.018821159987365
0.311279,0.966553,0.064941,6.980896,57.365414,18.333435,1.0175149390210445
0.321533,0.963135,0.064209,5.477905,52.215572,13.809203,1.0174159886668774
0.331299,0.961426,0.055908,4.066467,45.57037,7.453918,1.0184422837554419
0.337891,0.961914,0.047852,3.723144,39.787292,2.052307,1.0206560072722837
0.339844,0.95752,0.046631,4.66156,35.491943,-1.052856,1.0171100947768634
0.335938,0.947998,0.035645,5.050659,33.26416,-3.005981,1.0063921272908487
0.333984,0.943848,0.024658,4.676819,32.737732,-5.40924,1.001500063067397
0.330322,0.935547,0.027832,4.928589,33.287048,-7.141113,0.9925398899374271
0.34082,0.919189,0.030518,5.210876,32.478333,-8.575439,0.9808149868578682
0.350098,0.902588,0.039551,4.951477,30.22003,-9.559631,0.9689158833195995
0.349609,0.891357,0.049072,3.890991,26.748655,-10.459899,0.9587240559796129
0.353516,0.884521,0.054932,2.01416,22.514341,-11.734008,0.9541323211803486
0.366455,0.886963,0.052979,-0.068665,18.1427,-13.992309,0.9611448407160077
0.37793,0.898438,0.058105,-1.457214,13.542174,-16.136169,0.9764210750332051
0.389893,0.908691,0.062256,-2.090454,7.30133,-18.096924,0.9907631878839666
0.396484,0.911621,0.070068,-2.059937,-2.204895,-20.492552,0.9965751022983667
0.388916,0.912842,0.070068,-2.731323,-13.732909,-23.269651,0.9947088501888379
0.366455,0.924561,0.068604,-4.264832,-24.864195,-24.932859,0.9968996030503773
0.343506,0.940674,0.070068,-6.195068,-34.507751,-26.504515,1.0038792113277373
0.322266,0.960205,0.065918,-8.262634,-42.083736,-28.488157,1.014984827228959
0.303955,0.981934,0.067139,-9.712219,-47.729488,-29.594419,1.0300925529786147
0.286621,1.001953,0.068115,-10.116576,-51.223751,-29.861448,1.044366346199934
0.264648,1.020752,0.065186,-9.101868,-52.658077,-30.120848,1.0565142800757594
0.25415,1.0271,0.062256,-7.415771,-52.482601,-30.525206,1.0599068081845686
0.248047,1.028809,0.066162,-5.363464,-51.139828,-30.250547,1.0603549796808616
0.240479,1.025146,0.065918,-2.89917,-49.659725,-29.808043,1.0550353802034318
0.231201,1.020264,0.05957,-1.213074,-49.011227,-29.983519,1.0478268544931457
0.20752,1.022461,0.048584,-0.244141,-48.110958,-29.731749,1.0444383428316868
0.189697,1.020508,0.040283,0.480652,-46.203609,-28.846739,1.0387705473115803
0.180664,1.01709,0.03418,0.823975,-42.045589,-26.962278,1.0335762291171369
0.163086,1.01416,0.031494,0.999451,-35.934448,-25.184629,1.027671845012794
0.155762,1.012207,0.033203,1.205444,-28.32794,-23.03314,1.0246595779584555
0.15918,1.01416,0.040527,0.892639,-19.256592,-20.400999,1.0273758882361412
0.172607,1.018311,0.041016,0.152588,-9.895325,-18.882751,1.0336502219929138
0.188232,1.024902,0.053223,0.061035,-2.456665,-18.234253,1.0434021675063743
0.200684,1.027588,0.065186,0.450134,1.670837,-18.043518,1.0490283028574587
0.216309,1.023193,0.068604,0.976562,2.182007,-19.172668,1.048055345650219
0.232178,1.015381,0.072266,1.167297,-1.106262,-21.095274,1.0440917457776402
0.240234,1.012695,0.075684,1.205444,-6.79779,-23.628233,1.0435476058316648
0.240234,1.007568,0.079346,1.358032,-13.244628,-25.901793,1.0388462047367744
0.234863,1.001709,0.088379,1.029968,-19.424438,-27.626036,1.032662770264814
0.229004,0.999023,0.098877,-0.190735,-25.886534,-29.762266,1.0296924043975464
0.228516,1.001709,0.111328,-2.532959,-32.814026,-33.096313,1.0334575010715243
0.223633,1.015137,0.106689,-6.774902,-38.421631,-36.552429,1.0449389408855427
0.218018,1.045898,0.101074,-11.009215,-42.098995,-37.643433,1.0731497696985262
0.218994,1.080811,0.098877,-14.244079,-44.723507,-37.948608,1.1071980179200105
0.214111,1.118896,0.099854,-15.800475,-46.661373,-38.314819,1.1435657394540113
0.195801,1.154541,0.102051,-16.372681,-48.332211,-38.764954,1.1754647416588044
0.176758,1.190186,0.086914,-16.555786,-50.193783,-38.963318,1.206374796054692
0.174072,1.225586,0.068359,-15.624999,-51.048275,-37.055969,1.239772179660844
0.175049,1.250732,0.05835,-12.5885,-49.316402,-31.532286,1.2642695166478546
0.172363,1.260254,0.029297,-8.628845,-45.097347,-26.145933,1.2723236469130015
0.172119,1.237061,0.000488,-0.617981,-38.505554,-21.430967,1.248977624309579
0.186523,1.174072,-0.01001,10.360717,-28.678892,-15.220641,1.1888381264129275
0.186523,1.086426,-0.004883,19.775391,-16.365051,-6.431579,1.1023321308453273
0.169678,0.998779,0.004639,25.703428,-4.669189,2.281189,1.013100012262363
0.158936,0.919189,0.021729,28.556822,3.913879,8.178711,0.9330815715991825
0.157227,0.849854,0.037598,28.625486,9.376526,12.886046,0.8650929201241911
0.157715,0.800293,0.039551,26.275633,13.565063,18.2724,0.8166438566933569
0.148926,0.771973,0.038818,21.286009,16.921997,23.452757,0.7871645973549624
0.141113,0.762451,0.04541,14.274596,19.264221,27.420042,0.7767280568319905
0.141846,0.77417,0.026123,6.034851,21.675108,30.632017,0.7874908810551396
0.151611,0.803955,0.020752,-0.556946,24.963377,34.744263,0.8183887724364258
0.180908,0.830566,0.016602,-5.004883,27.175901,38.68103,0.8502018649850164
0.186523,0.856201,0.011475,-7.904052,27.778624,40.809628,0.876357608259893
0.17627,0.884033,0.006104,-9.437561,26.19171,39.833069,0.9014558873317097
0.172852,0.910156,0.015625,-9.338379,23.689268,38.124084,0.9265559340185566
0.175049,0.933838,0.037109,-8.796692,20.881651,36.773682,0.9508273452767332
0.169678,0.958252,0.059814,-9.628296,17.349243,34.057617,0.9749949916712393
0.164551,0.995117,0.075195,-12.161254,13.22174,28.877256,1.011429267578806
0.159424,1.038086,0.084229,-14.122008,9.765625,23.262022,1.0536285301817714
0.164795,1.074707,0.089355,-13.542174,7.911682,18.226624,1.0909339319587599
0.168213,1.099854,0.095703,-11.032104,7.598876,14.122008,1.1167513147043975
0.173096,1.11084,0.09375,-8.018494,7.537841,9.498596,1.1281475051233327
0.187988,1.102295,0.090088,-4.455566,5.867004,4.638672,1.1218331439715088
0.198975,1.079102,0.087402,-1.167297,3.387451,0.663757,1.1007684982015973
0.197266,1.048828,0.077881,0.0,2.548218,-3.265381,1.0700558389640236
0.186768,1.015381,0.064453,-0.358582,3.555298,-7.514953,1.0344249852908622
0.193115,0.979004,0.063477,-0.869751,3.753662,-10.620116,0.999885775861423
0.201904,0.943604,0.065186,-2.578735,2.357483,-12.573241,0.9671623176220215
0.200195,0.921387,0.068115,-5.836486,0.343323,-14.22882,0.9453421047530888
0.199463,0.915283,0.069824,-10.223388,-1.800537,-15.541076,0.9393635342262333
0.208984,0.926025,0.070801,-13.786315,-4.508972,-15.876769,0.9519503109311956
0.223145,0.940918,0.064453,-15.441894,-8.232117,-16.075134,0.9691617836862946
0.227783,0.95166,0.053467,-15.2359,-12.924193,-16.685486,0.980000291213222
0.223633,0.960938,0.046875,-13.740539,-18.1427,-17.601013,0.9877301373138313
0.211426,0.972656,0.040283,-12.672423,-22.697447,-18.074036,0.9961844045662429
0.206787,0.990967,0.031738,-12.664794,-25.993345,-18.2724,1.0128098336321583
0.216064,1.011719,0.027588,-11.817931,-28.236387,-18.1427,1.03490100241569
0.212158,1.028076,0.033936,-10.108947,-29.71649,-17.723083,1.0502870706792502
0.200195,1.037109,0.04126,-8.049011,-31.074522,-18.013,1.057059839132109
0.196533,1.045166,0.04541,-6.530761,-31.135557,-19.363403,1.064452561528695
0.187256,1.05957,0.051025,-5.302429,-26.222227,-19.462585,1.0771986562658717
0.162842,1.074951,0.064209,-2.532959,-17.63916,-17.723083,1.089109712125459
0.156006,1.079102,0.070313,1.38855,-8.354187,-15.99121,1.0925854275108193
0.162842,1.07373,0.072754,4.966736,0.259399,-14.305114,1.0884423615332142
0.169922,1.065186,0.077393,7.858276,8.239746,-11.802672,1.0814270096169227
0.170654,1.051025,0.087402,10.406493,15.99121,-8.361816,1.0683704638115938
0.164307,1.032227,0.103516,11.444091,23.910521,-5.653381,1.050335628279837
0.161621,1.024902,0.10791,10.238647,31.188963,-3.463745,1.0431634700970889
0.176025,1.023438,0.110352,8.712769,37.528992,-0.732422,1.0443120723102841
0.199707,1.022705,0.109619,7.568359,42.976376,2.044678,1.0477713147605252
0.221191,1.016846,0.109619,7.164001,45.974728,3.837585,1.0463830901529323
0.229492,1.008789,0.107666,6.17218,45.783993,4.417419,1.040150850665902
0.234375,1.007324,0.095703,3.822326,42.587276,3.669739,1.0386492891298778
0.242188,1.005615,0.093018,1.838684,37.338257,3.448486,1.0385417198615565
0.24707,1.0,0.097656,0.312805,31.318663,4.371643,1.0346884938163756
0.252441,0.986328,0.109619,-1.251221,24.948118,4.455566,1.0240047398454755
0.255127,0.970215,0.113037,-2.685547,17.913818,3.753662,1.0095465792735867
0.255859,0.964355,0.113281,-4.707336,11.100768,2.822876,1.0041299611439745
0.255127,0.963623,0.116211,-6.874084,4.936218,1.89209,1.003575641782422
0.257568,0.967285,0.107422,-8.087158,-1.373291,1.426697,1.0067378168783567
0.261963,0.97583,0.101074,-9.132385,-8.544922,-0.099182,1.0154234366730954
0.258545,0.984131,0.093262,-9.399414,-16.830444,-2.876281,1.0217911444272747
0.251465,0.980957,0.088135,-8.56781,-25.55084,-4.753113,1.0165033498710174
0.239746,0.976807,0.098389,-8.377075,-32.363892,-5.477905,1.0105990575327093
0.223145,0.973633,0.105225,-9.063721,-36.170959,-6.256103,1.00440390796681
0.212891,0.974121,0.107666,-10.162353,-37.452698,-7.080078,1.0029089031801441
0.204346,0.984375,0.10498,-10.910033,-37.322998,-7.507324,1.0108274970245912
0.192871,0.993408,0.102539,-11.001586,-37.284851,-7.263183,1.017139579224995
0.185791,0.991455,0.097656,-10.475158,-37.887573,-6.027221,1.0134288366935293
0.191162,0.98877,0.090088,-9.613037,-38.078308,-3.570556,1.0111008213269337
0.195068,0.991455,0.084717,-8.750916,-36.193848,-0.610352,1.014007648757148
0.195801,0.996094,0.085693,-7.339477,-33.02002,2.326965,1.018766204134197
0.198975,0.996338,0.092529,-3.509521,-29.243467,5.607605,1.0202166812545264
0.204834,0.993164,0.100098,1.983642,-25.581358,10.498046,1.0189952443735937
0.218994,0.993164,0.090332,9.498596,-23.925779,17.059326,1.021025451766997
0.235596,0.99585,0.089844,18.432617,-24.612425,23.452757,1.0272753487025763
0.24585,1.005371,0.084229,26.344297,-26.962278,27.168272,1.0384159063602598
0.251465,1.023926,0.06665,34.042358,-30.624388,28.053282,1.0564569665637118
0.258545,1.037842,0.057129,42.205807,-36.705017,25.238035,1.0710860173814238
0.253174,1.050537,0.029053,47.271725,-41.763302,20.668028,1.0810037647732778
0.251953,1.070557,0.009521,49.34692,-44.05212,16.136169,1.0998469229392789
0.243652,1.085449,-0.00708,49.163815,-43.182369,14.625548,1.112481889787425
0.207031,1.099365,-0.021484,48.202511,-39.428711,14.869689,1.1188953482975965
0.168457,1.101563,-0.025635,50.193783,-34.461975,15.35797,1.1146640556880805
0.160156,1.079834,-0.037354,53.474422,-26.649473,17.440796,1.0922850970364835
0.166992,1.048096,-0.036865,53.825375,-16.136169,22.422789,1.0619560167469273
0.167236,1.010986,-0.026367,48.934933,-3.723144,27.511595,1.02506379829794
0.16333,0.970703,-0.02002,39.451599,9.567261,30.441282,0.9845515748344522
0.183594,0.946533,-0.015625,28.45764,20.988462,31.463621,0.9643005846467169
0.194824,0.936768,-0.004883,18.539429,27.778624,30.685423,0.9568252298560067
0.210693,0.956543,-0.022949,11.322021,28.182981,28.564451,0.9797411432102869
0.242676,0.994141,-0.039795,7.331848,24.80316,26.657103,1.0241052733396114
0.258057,1.012695,-0.016602,4.920959,19.287109,25.344847,1.0451890760422249
0.249023,1.00708,0.004883,2.937317,12.794494,25.604246,1.037422972860154
0.243896,1.006104,-0.003906,2.426147,7.026672,26.252745,1.0352515512994898
0.250244,1.003906,-0.008545,4.066467,1.831055,24.330137,1.0346604918508293
0.255615,0.99585,-0.009277,5.561828,-3.570556,21.553038,1.0281742622016952
0.254883,0.996338,-0.01416,6.54602,-9.292603,19.462585,1.0285209086513507
0.254395,1.001709,-0.01416,7.247924,-14.869689,16.586304,1.0336044902698518
0.249268,0.989746,-0.012695,7.797241,-20.614622,12.908935,1.0207315236461545
0.219971,0.975098,-0.00293,7.492065,-26.107786,10.520934,0.9996058900111584
0.189941,0.99585,-0.021484,6.553649,-29.670713,8.705139,1.014029766938328
0.195313,1.027344,-0.042969,7.339477,-32.073975,5.477905,1.0466275351174361
0.186035,1.022217,-0.005859,10.154723,-34.27124,2.624511,1.0390240344645545
0.16333,0.999268,0.026611,12.435912,-36.300659,2.76947,1.0128777665863735
0.156738,0.995605,-0.009033,14.953612,-36.567688,5.760192,1.0079075908822197
0.179932,1.00415,-0.039063,18.341064,-35.926819,6.622314,1.0208911132402907
0.209717,1.002441,-0.044189,20.13397,-35.705566,5.180358,1.025096018083672
0.217285,1.010498,-0.046875,17.868042,-35.018921,5.592346,1.0346575495563737
0.145264,1.027832,-0.021973,13.648986,-32.043457,5.088806,1.0382788944445516
0.039063,1.032227,0.023682,12.329101,-29.289244,0.038147,1.0332373079897956
0.05542,1.025879,0.006592,16.197205,-30.136106,-4.211426,1.027396006175321
0.266357,1.026367,-0.086182,23.651121,-32.875061,4.821777,1.063862118538864
0.390137,1.031982,-0.139648,30.082701,-28.663633,20.469664,1.1120680244467962
0.284668,1.026611,-0.137451,34.225464,-22.621153,19.622803,1.0741781942238446
0.132813,0.993652,-0.070801,36.224365,-24.459837,-0.205994,1.0049857569508136
0.193848,0.964111,-0.045654,33.554077,-38.337708,-17.76123,0.9844650096072486
0.348633,0.963867,-0.102783,19.836426,-55.221554,-18.325806,1.0301208217811153
0.349121,0.998291,-0.099609,17.051697,-64.086914,-8.148193,1.062258135390358
0.260742,1.009521,-0.171875,34.484863,-76.23291,-5.91278,1.0567213708589411
0.179443,0.959473,-0.186035,48.21777,-87.005608,-19.607544,0.9936786448359449
0.109863,0.897461,-0.133057,46.31805,-88.264458,-32.371521,0.9138984027445282
0.064209,0.869873,-0.104736,32.981873,-76.36261,-32.844543,0.8785052427310835
0.060059,0.893311,-0.144043,17.021179,-55.557247,-25.566099,0.9068406762221245
0.115967,0.935791,-0.198975,7.621765,-38.124084,-19.66095,0.9637137497177262
0.170898,0.961914,-0.197266,5.027771,-25.909422,-17.684937,0.9966938068213327
0.183105,0.973389,-0.179932,4.310608,-15.602111,-17.860413,1.006672295719913
0.173096,0.980713,-0.188965,3.456115,-6.088256,-17.524719,1.0136409545840184
0.189941,0.985596,-0.189453,3.631592,2.27356,-16.807556,1.021454599042953
0.221924,0.995361,-0.203613,4.142761,10.56671,-16.555786,1.0399288609640565
0.234131,1.004639,-0.221436,4.981995,15.853881,-18.592834,1.0550595943253633
0.24585,1.002197,-0.2229,6.16455,16.067505,-21.102903,1.055710878654284
0.243164,0.994873,-0.212402,7.476806,15.075683,-20.690916,1.0459520192766971
0.233643,0.987061,-0.230713,8.796692,14.953612,-19.004822,1.04024370103308
0.22998,0.967529,-0.250732,9.353638,16.929626,-18.211365,1.025606992012535
0.215332,0.949219,-0.220703,6.828308,22.590635,-18.096924,0.9980452867450454
0.204102,0.948975,-0.172852,1.792908,29.785154,-18.180847,0.9859457342739508
0.206543,0.959229,-0.155518,-1.815796,35.041809,-17.944336,0.9934616920717174
0.234619,0.969727,-0.16333,-1.419067,35.202026,-16.052246,1.0109862603369049
0.244141,0.9729,-0.163574,0.396728,32.554626,-13.061522,1.016314759981867
0.245605,0.970215,-0.170898,0.686645,28.945921,-11.566161,1.015305416440787
0.250732,0.965576,-0.186768,0.534058,25.993345,-11.07788,1.014931442721133
0.257324,0.960693,-0.18457,0.396728,23.963926,-11.466979,1.01153979957538
0.254883,0.961914,-0.186035,-0.335693,23.010252,-14.007567,1.0123501905516687
0.247314,0.964844,-0.194092,-0.62561,19.889832,-17.578125,1.0147708427994964
0.24707,0.960205,-0.185791,-0.411987,15.121459,-19.538879,1.0087395712501814
0.248291,0.958496,-0.181152,-0.404358,11.894225,-19.081116,1.0065679558782905
0.236816,0.960938,-0.186523,-0.38147,11.840819,-18.417358,1.0071119536719837
0.216797,0.967041,-0.200928,-0.061035,14.251708,-19.493103,1.0112078401960698
0.204346,0.969482,-0.209961,0.144958,17.845154,-20.332335,1.012786382985573
0.21875,0.968262,-0.191406,-0.816345,20.523069,-19.126892,1.010949612977818
0.237061,0.970459,-0.185547,-2.044678,23.399351,-16.304016,1.0160788737155202
0.253174,0.971924,-0.183594,-1.876831,24.734495,-14.328002,1.0209995557726752
0.261963,0.969971,-0.181152,-0.991821,24.757383,-13.633727,1.0209233082430824
0.246826,0.969238,-0.192139,0.511169,25.650023,-13.603209,1.0184609812069387
0.228516,0.968018,-0.192627,2.494812,26.786802,-13.130187,1.0131059035012087
0.243408,0.964844,-0.19458,4.470825,26.870726,-11.322021,1.013919511203922
0.27832,0.968018,-0.197998,5.516052,25.070189,-7.93457,1.0265106325450313
0.282227,0.974121,-0.19873,6.088256,21.781919,-5.584716,1.0334686328428164
0.274414,0.973389,-0.192627,7.072448,17.539978,-5.279541,1.0295117045696955
0.266846,0.969971,-0.189697,7.202148,14.511107,-5.294799,1.0237360403766198
0.258301,0.973633,-0.18457,5.989074,12.954711,-5.798339,1.0240833511926655
0.247559,0.979492,-0.178711,5.256652,10.353087,-6.080627,1.0259764412821575
0.237549,0.979248,-0.172119,5.363464,6.271362,-4.798889,1.0222431819611222
0.2229,0.984131,-0.174561,6.29425,4.806519,-1.144409,1.0240457889577008
0.221191,0.986572,-0.181641,9.368896,7.438659,3.02124,1.027250321268385
0.227051,0.986572,-0.212402,12.268065,12.161254,4.776001,1.034403730363053
0.219971,0.972656,-0.2229,12.451171,14.839171,3.425598,1.0218274537205387
0.220215,0.957764,-0.189453,8.392334,13.107299,1.457214,1.0008491220608629
0.220459,0.958008,-0.17749,2.89917,9.941101,2.075195,0.9989415392529235
0.211426,0.971436,-0.185547,0.160217,8.544922,4.730225,1.0113439300163916
0.213135,0.981934,-0.189697,0.015259,8.926392,5.424499,1.0225487080770286
0.222656,0.982178,-0.196289,0.747681,9.475708,4.470825,1.0260500424155734
0.213135,0.980469,-0.194824,1.487732,9.010315,3.868103,1.022106833536495
0.205322,0.983887,-0.203613,2.098083,6.896972,3.219604,1.0254993935746621
0.214844,0.982666,-0.219238,2.861023,3.791809,4.211426,1.0294929395270276
0.222656,0.979004,-0.210938,2.182007,0.534058,4.768372,1.0259236648971501
0.202148,0.975342,-0.198242,-0.50354,-1.617432,3.837585,1.0156060857596316
0.172119,0.970947,-0.189697,-3.105163,-1.777649,3.234863,1.0041653144671947
0.166016,0.97583,-0.177734,-4.676819,-1.373291,3.845215,1.0056812993747075
0.189697,0.988525,-0.179199,-4.478455,-0.549316,5.477905,1.0223888247799855
0.214111,0.999023,-0.197998,-2.304077,0.869751,7.270813,1.0407178689990866
0.212402,1.000732,-0.206299,0.404358,0.953674,5.0354,1.0436179486905157
0.194824,0.992676,-0.207764,1.770019,-2.006531,0.022888,1.0327283823193782
0.177979,0.986328,-0.205566,1.594543,-6.378173,-2.975464,1.0231211210707165
0.16333,0.987793,-0.208252,0.358582,-9.94873,-2.204895,1.0226341453584464
0.163574,0.992188,-0.203613,-1.647949,-11.375426,0.213623,1.0259881746828274
0.174316,0.998779,-0.195068,-3.662109,-10.185241,1.785278,1.0324713474576426
0.168213,1.000488,-0.189697,-4.631042,-6.820678,1.647949,1.0321127861440338
0.161865,0.997803,-0.202881,-4.15802,-3.448486,0.366211,1.0310052401394476
0.163818,0.995605,-0.216553,-2.655029,0.350952,0.534058,1.0319694060184148
0.16748,0.999023,-0.210693,-1.419067,4.981995,2.304077,1.0346439219257995
0.187012,1.009033,-0.196533,-0.869751,7.896423,3.181457,1.0448666437981453
0.199463,1.023193,-0.189941,0.175476,7.957458,3.295898,1.0596164339509841
0.19873,1.020752,-0.190186,2.532959,4.745483,2.052307,1.0571655371794904
0.183105,1.008545,-0.194092,5.332946,1.449585,1.739502,1.0432459741182805
0.169189,0.995605,-0.196777,6.835937,0.63324,2.128601,1.0288709450047657
0.161865,0.98584,-0.195068,6.507873,2.853393,1.701355,1.0179058445892726
0.15918,0.985107,-0.192139,5.203247,6.17218,0.87738,1.016214283096828
0.171875,0.985596,-0.194092,4.142761,8.94165,1.144409,1.0191232483389827
0.176025,0.983887,-0.186768,3.715515,11.177062,2.26593,1.0168090849407276
0.181152,0.986572,-0.182129,4.020691,12.237548,2.700805,1.019466199012503
0.19458,0.991211,-0.19751,6.256103,12.985229,3.768921,1.0292574133913246
0.198486,0.984619,-0.208252,9.689331,13.145446,3.982544,1.0257875817443882
0.205078,0.97583,-0.210693,10.82611,11.138915,1.976013,1.0191627520828064
0.202881,0.96875,-0.215088,8.804321,7.949829,0.511169,1.0128672718599412
0.201416,0.967041,-0.205078,5.622863,4.737854,0.434875,1.0088576147410497
0.191162,0.971924,-0.182617,2.868652,3.074646,0.144958,1.0072378769233215
0.183594,0.983398,-0.173096,1.609802,2.105713,-0.808716,1.015253962541393
0.198975,0.993408,-0.168457,2.166748,-0.274658,-1.342773,1.0270483269729813
0.22583,0.998291,-0.198975,4.592896,-3.959656,-0.091553,1.0426769203382225
0.225098,0.992676,-0.229248,7.354736,-7.881164,1.25885,1.0433740441874142
0.20459,0.970947,-0.223145,7.911682,-10.848998,0.091553,1.0170490823623017
0.185303,0.956299,-0.215088,6.210327,-10.169982,-1.274109,0.9975509144670262
0.18335,0.953857,-0.214111,4.592896,-7.545471,-1.518249,0.9946375818709043
0.188965,0.952637,-0.204346,3.14331,-4.66156,-2.098083,0.9924627512959869
0.187744,0.95459,-0.191895,0.862122,-1.586914,-3.028869,0.9916216862599366
0.195801,0.96167,-0.177979,-1.747131,0.297546,-3.64685,0.9974085145726399
0.215576,0.974121,-0.17041,-2.883911,0.457764,-3.677368,1.0121384799112223
0.236084,0.985596,-0.188721,-1.342773,-1.846313,-3.64685,1.0308980289597027
0.248535,0.984375,-0.19751,1.251221,-6.683349,-4.096985,1.0342987899780216
0.237305,0.98291,-0.20874,2.39563,-10.673522,-5.294799,1.032471848877731
0.193115,0.985107,-0.237305,3.234863,-10.787963,-6.484985,1.0315245356747458
0.180176,0.975586,-0.219482,4.173279,-8.430481,-6.690979,1.0160727251018993
0.206299,0.968262,-0.19751,3.311157,-5.180358,-4.936218,1.0095052145209553
0.228516,0.976074,-0.20166,2.166748,-2.418518,-2.616882,1.0225491535041238
0.230713,0.985352,-0.201172,2.914428,-1.182556,-2.159119,1.0318029006825868
0.222412,0.985107,-0.183594,4.79126,-0.595093,-2.952575,1.0264548972210128
0.226807,0.990479,-0.193359,7.17926,-0.221252,-2.525329,1.0343489583167762
0.227295,0.993896,-0.216797,10.223388,-0.350952,-0.762939,1.042349852520736
0.226807,0.984863,-0.217285,11.764525,-0.50354,0.480652,1.0337356118674639
0.225586,0.977295,-0.209961,10.879516,0.984192,2.464294,1.024733224767305
0.227295,0.9729,-0.199707,9.605408,2.960205,4.341125,1.0188622639365932
0.230957,0.968994,-0.188965,9.536743,4.03595,5.363464,1.0139024998045916
0.222412,0.966064,-0.188232,9.750366,4.318237,5.859375,1.0090480839206821
0.227295,0.966553,-0.191406,9.567261,3.250122,6.774902,1.0111992759441633
0.234375,0.973633,-0.187256,8.964539,1.571655,8.010864,1.018802075405228
0.228027,0.976807,-0.190674,8.575439,-0.518799,8.094788,1.0210312445043002
0.223877,0.977295,-0.19458,9.19342,-2.754211,7.774353,1.0213167013977593
0.221436,0.96875,-0.200439,10.223388,-3.959656,8.041382,1.0137486164316083
0.212646,0.961426,-0.197754,10.147094,-3.982544,8.255005,1.0043231149923812
0.205566,0.954102,-0.179688,8.827209,-3.768921,7.766723,0.992399004485595
0.201416,0.955811,-0.169678,7.759094,-2.738952,7.499694,0.9914301268677486
0.198975,0.958496,-0.178711,8.056641,-1.724243,7.293701,0.9951096694143817
0.204346,0.961426,-0.188965,8.995056,-0.88501,7.263183,1.000902099316911
0.206787,0.95874,-0.18457,8.483887,0.648498,7.385253,0.9980026732774817
0.206055,0.957275,-0.177246,7.011413,2.464294,7.080078,0.9951131760588843
0.206787,0.958496,-0.186768,6.378173,3.77655,6.591796,0.9981772043124407
0.218018,0.956055,-0.185547,5.699157,3.517151,6.16455,0.9979983469715769
0.224854,0.951172,-0.173828,3.509521,2.494812,6.141662,0.9927253741513813
0.222412,0.953857,-0.170166,1.51062,1.205444,5.905151,0.9941160605024948
0.217773,0.96582,-0.178223,1.068115,-0.785828,4.585266,1.0059805115696825
0.223145,0.970459,-0.191162,1.25885,-2.967834,3.746032,1.013966109862652
0.224854,0.96582,-0.187988,0.37384,-4.234314,4.524231,1.0093102010085897
0.22168,0.965088,-0.17627,-1.518249,-4.562378,4.814148,1.0057872454172403
0.21582,0.968994,-0.177002,-2.449036,-4.516602,4.02832,1.008393451208406
0.209961,0.96875,-0.200195,-1.525879,-4.936218,3.631592,1.011255764901244
0.2229,0.961426,-0.213623,-0.808716,-5.516052,4.692078,1.00978173364594
0.227295,0.957764,-0.189209,-3.318786,-5.0354,5.729675,1.0023846279757087
0.224609,0.960938,-0.182373,-6.256103,-3.936767,4.844666,1.0035491785926587
0.227295,0.974121,-0.195801,-6.16455,-4.890442,3.684997,1.0192707055865975
0.233398,0.981934,-0.214355,-5.134582,-7.278442,3.112793,1.0318028265056265
0.234863,0.984619,-0.228271,-5.805969,-9.765625,3.227234,1.0376622058121805
0.234863,0.985596,-0.208252,-7.820129,-11.779784,3.601074,1.0343737233171577
0.231934,0.97998,-0.204102,-8.300781,-12.779235,3.616333,1.0275270347586967
0.226563,0.976318,-0.209961,-7.041931,-13.809203,3.219604,1.0240172125574842
0.222168,0.973877,-0.222412,-6.156921,-14.556884,2.708435,1.0233582603844071
0.217773,0.972412,-0.245117,-6.752014,-14.045714,3.028869,1.0262029628499423
0.203125,0.971191,-0.235596,-9.338379,-11.550902,3.166198,1.0197927237051654
0.204346,0.977295,-0.207275,-12.21466,-8.277893,2.990722,1.019718456421183
0.226074,0.993164,-0.216797,-12.100219,-7.232666,4.005432,1.04138615488252
0.237305,1.001709,-0.25,-8.972168,-8.522034,5.073547,1.0593557399221472
0.224609,0.999268,-0.270752,-6.721496,-10.06317,5.1651,1.0593830205402577
0.212158,0.98877,-0.265625,-6.378173,-9.941101,4.837036,1.0455781991266841
0.20874,0.983643,-0.261963,-6.050109,-7.835388,4.241943,1.0391104620866831
0.208984,0.984863,-0.267334,-4.844666,-6.16455,3.372192,1.0416798493687973
0.209717,0.984131,-0.270996,-3.723144,-6.706237,2.738952,1.0420815118146949
0.206055,0.979492,-0.262939,-3.883362,-7.911682,3.211975,1.0348913753674827
0.204102,0.981934,-0.263672,-4.135132,-8.903503,3.730774,1.0370028593711784
0.199707,0.987305,-0.260498,-3.578186,-9.712219,4.089355,1.0404389731637314
0.197266,0.990967,-0.260742,-2.563476,-11.085509,3.883362,1.0435113130239653
0.19751,0.991943,-0.265137,-1.113892,-12.893676,3.761291,1.0455901415554758
0.196533,0.987061,-0.266113,0.617981,-14.846801,3.761291,1.0410239029815789
0.188721,0.97876,-0.271484,2.39563,-16.395569,3.860473,1.0330974376587136
0.177979,0.970947,-0.268066,3.440857,-17.150879,3.753662,1.0228753499845424
0.173828,0.963135,-0.251221,2.845764,-16.777039,3.601074,1.0104242636882785
0.18042,0.963135,-0.238525,2.14386,-15.251159,3.326416,1.0085011553042467
0.18457,0.971191,-0.234131,2.487183,-14.160155,2.532959,1.0159209460100722
0.176514,0.973389,-0.232422,3.517151,-13.481139,1.13678,1.0162004347573366
0.173828,0.975342,-0.230713,4.432678,-12.596129,0.343323,1.0172200739844846
0.17749,0.975098,-0.229736,5.592346,-10.368346,0.595093,1.0173973851942024
0.177979,0.975098,-0.22876,6.599426,-6.988525,0.198364,1.01726288227036
0.186768,0.974609,-0.230469,7.202148,-4.318237,-0.663757,1.0187546066968238
0.193359,0.971436,-0.218994,6.477355,-2.14386,-1.121521,1.0144131194996444
0.197021,0.976807,-0.209961,4.844666,0.114441,-1.785278,1.0183578993708449
0.209717,0.98291,-0.208008,4.371643,0.953674,-1.76239,1.0263335794238635
0.214844,0.981934,-0.202881,4.455566,0.236511,-1.228333,1.0254330913584757
0.211914,0.979736,-0.197754,4.577637,-0.259399,-1.060486,1.0217126883855363
0.2146,0.977539,-0.200439,5.40924,-1.167297,-1.525879,1.0206916523818543
0.214111,0.966797,-0.213623,6.767272,-2.792358,-2.052307,1.0130028359580243
0.20166,0.955322,-0.208496,6.79779,-3.677368,-2.502441,0.9983874304597389
0.195068,0.947754,-0.196777,5.325317,-2.807617,-2.27356,0.987426127297126
0.197754,0.950439,-0.197998,4.043579,-0.564575,-1.960754,0.990779564404212
0.195801,0.953125,-0.193848,3.372192,1.785278,-2.14386,0.9921503637705326
0.189941,0.94751,-0.181152,2.334595,3.280639,-2.76947,0.9831931807559489
0.19873,0.950439,-0.175049,1.174927,3.601074,-2.586365,0.9866458625170431
0.220947,0.961426,-0.186523,1.548767,3.005981,-1.106262,1.0039663140832964
0.223389,0.963379,-0.200439,2.586365,1.319885,-0.907898,1.009047836171804
0.211182,0.952881,-0.197266,1.861572,-0.495911,-2.410889,0.9957378731578909
0.208008,0.946289,-0.187744,-0.976562,-0.953674,-3.120422,0.9869032420257825
0.203125,0.951416,-0.19043,-3.700256,0.762939,-3.303528,0.991320208399385
0.194336,0.964355,-0.19458,-4.501343,2.990722,-3.883362,1.0028002908460887
0.206543,0.970947,-0.192627,-4.78363,4.325867,-4.203796,1.0111890272283417
0.208008,0.9729,-0.195801,-5.66101,5.218505,-3.448486,1.0139722726312588
0.199219,0.970703,-0.194092,-6.538391,6.103515,-2.746582,1.0097644421517327
0.191895,0.958984,-0.194336,-6.91986,8.033752,-1.594543,0.9971160836016035
0.190674,0.953369,-0.193115,-7.232666,11.314391,0.236511,0.9912428701695665
0.200684,0.945801,-0.192139,-8.926392,14.678954,1.38855,0.985764167931661
0.210938,0.943115,-0.191895,-11.230468,19.309998,2.63977,0.985283935773846
0.211182,0.945068,-0.189209,-12.557982,24.978636,4.196167,0.9866870868867191
0.217773,0.946777,-0.182617,-12.329101,30.174253,5.020141,0.9885144085682313
0.230713,0.947754,-0.166748,-11.505126,34.545898,5.073547,0.9895812389031029
0.25,0.957031,-0.144043,-9.963989,38.192749,5.851745,0.9995782714775265
0.26416,0.977051,-0.155029,-7.019042,41.641232,7.461547,1.0239351312666247
0.253418,0.997559,-0.207275,-0.915527,46.775814,8.026123,1.049908361158249
0.227295,1.001709,-0.253418,7.896423,54.206844,4.737854,1.0579719374491934
0.220459,0.995117,-0.262939,14.160155,60.348507,0.244141,1.0526143320756183
0.234375,0.981689,-0.269043,15.121459,63.278194,-1.266479,1.0445233693867266
0.242676,0.97168,-0.287109,13.21411,64.735413,-0.137329,1.041866230020438
0.239502,0.967041,-0.303467,12.695312,63.621517,0.518799,1.0414517385716922
0.241211,0.958984,-0.298584,14.541625,59.028622,0.366211,1.0329498844731044
0.234131,0.956299,-0.295898,16.067505,55.52673,0.526428,1.028047046085927
0.226318,0.955078,-0.308594,16.746521,55.191036,0.488281,1.028894591318275
0.212891,0.955078,-0.318115,18.043518,58.639523,-0.282288,1.0289284315198992
0.197754,0.947754,-0.31543,20.408628,63.972469,-2.754211,1.0182535901886132
0.217529,0.942871,-0.317139,21.865843,67.871094,-4.829407,1.0182837196984935
0.247314,0.937256,-0.327881,22.438047,69.572449,-5.523681,1.0232883143537796
0.28125,0.931641,-0.323975,21.842955,66.703796,-6.721496,1.0256784661900629
0.307617,0.922852,-0.30542,19.294739,58.998104,-8.743286,1.0195908046824471
0.314453,0.915771,-0.289795,15.197753,47.897335,-10.711669,1.0106920182107901
0.307617,0.908447,-0.274658,11.543273,35.354614,-11.596679,0.9976678743259201
0.289307,0.913574,-0.27124,8.003235,24.436949,-11.550902,0.9959353047889206
0.284424,0.918213,-0.269287,5.599975,15.197753,-10.82611,0.9982622969510568
0.289307,0.909668,-0.259277,4.623413,6.774902,-9.422302,0.9891506322102818
0.288086,0.896973,-0.251465,3.883362,-1.426697,-7.614135,0.9750839719480574
0.276611,0.882324,-0.247314,3.303528,-7.93457,-5.630493,0.9571695256813184
0.266357,0.869873,-0.245361,3.189087,-11.734008,-3.90625,0.9422457789234187
0.258545,0.855225,-0.237793,3.52478,-13.313293,-2.220154,0.9245543945593466
0.26123,0.847656,-0.226318,3.227234,-13.381957,-0.63324,0.9154133734876283
0.263428,0.849609,-0.226318,2.250671,-11.978148,0.976562,0.9178505331419707
0.255615,0.850586,-0.218262,1.51062,-9.567261,1.449585,0.9145894555837607
0.260742,0.851563,-0.212402,0.846863,-7.606506,0.411987,0.9155656956969281
0.271484,0.858154,-0.205811,-0.25177,-6.370544,0.061035,0.9233038598928307
