ax,ay,az,gx,gy,gz,acc_mag
0.052246,0.830322,0.394531,18.951416,-28.816221,-19.813538,0.9207708608340079
-0.030518,0.809814,0.412842,17.478943,-52.818295,-26.130674,0.909488086719117
-0.109863,0.774902,0.472656,15.678405,-72.761536,-33.256531,0.9143011991182118
-0.145508,0.762695,0.487305,9.521484,-86.036674,-37.666321,0.9167019167177518
-0.167236,0.801514,0.476318,1.708984,-94.604485,-38.459778,0.9472441126847926
-0.217285,0.876709,0.454346,-3.868103,-101.936333,-38.68866,1.0110695968240762
-0.272949,0.945801,0.407959,-3.303528,-106.63604,-41.091915,1.065584925701842
-0.34375,0.98999,0.321533,1.731872,-107.070915,-43.724056,1.0961878181630191
-0.454834,0.999512,0.23999,7.987976,-102.081291,-44.387814,1.1240522255660543
-0.572754,0.985596,0.207275,11.611938,-86.151115,-40.855404,1.1586239879085016
-0.639404,0.993164,0.237549,7.369995,-54.51965,-31.433104,1.2048409577670407
-0.558838,1.040771,0.275635,-3.456115,-14.083861,-19.744873,1.2130452744683522
-0.372559,1.107422,0.306885,-7.965087,20.790098,-10.757445,1.2080406027075414
-0.247559,1.125,0.328857,1.76239,41.839596,-5.264282,1.1979388068386465
-0.221191,1.068604,0.334473,16.639709,50.73547,-3.494262,1.1413641640712224
-0.161621,0.995117,0.325684,26.611326,53.947445,-4.318237,1.0594570586795862
-0.001221,0.934326,0.334229,29.96826,51.033016,-6.011962,0.99230821298526
0.134766,0.903809,0.319824,27.70233,37.055969,-6.79779,0.9681528671718118
0.149658,0.899902,0.279297,24.383543,14.160155,-7.659912,0.9540586673664256
0.100098,0.902344,0.252441,22.003172,-8.293152,-9.124756,0.9423220056970971
0.040527,0.890869,0.245361,19.706726,-25.878904,-11.062621,0.9249281232674245
0.020996,0.871338,0.249023,16.960144,-41.130062,-12.771605,0.9064674273182682
-0.013428,0.851807,0.287598,12.992858,-53.970333,-12.054442,0.8991485339125009
-0.0625,0.844727,0.394043,6.584167,-64.376831,-11.032104,0.9342054594028019
-0.08252,0.852295,0.4729,2.098083,-68.443298,-11.283874,0.978187470490703
-0.103516,0.860107,0.483643,2.326965,-66.15448,-8.682251,0.9921744630628224
-0.108643,0.87085,0.450928,1.51062,-63.224789,-4.425049,0.9866707075478627
-0.130127,0.896973,0.385742,-2.906799,-62.95013,-2.250671,0.985033242800465
-0.258301,0.939209,0.378418,-9.162903,-67.962646,-1.396179,1.0450038923401195
-0.428223,1.000732,0.375,-16.418457,-69.587708,-3.64685,1.1512881800630979
-0.473145,1.054932,0.338135,-19.271851,-58.79974,-6.378173,1.2046090626730317
-0.377686,1.0896,0.27002,-15.075683,-39.474487,-3.364563,1.18439253416931
-0.328369,1.102295,0.219727,-6.843566,-21.52252,1.525879,1.1709655937366392
-0.339111,1.098633,0.208496,1.121521,-7.400512,1.823425,1.1685295550502777
-0.365723,0.99585,0.211426,6.942749,9.086609,-0.076294,1.0817446504166313
-0.291748,0.992432,0.199463,3.372192,28.480528,1.480102,1.0534816839874341
-0.213867,1.021729,0.218018,7.514953,44.471737,5.798339,1.0663963106903551
-0.127197,0.984375,0.266357,17.677307,53.581234,6.439209,1.027676636341899
-0.057129,0.945801,0.332031,23.269651,58.41827,7.186889,1.0040158560515866
-0.058594,0.929932,0.362305,24.070738,58.891293,9.82666,0.9997358123449415
-0.076416,0.921631,0.349609,21.888731,57.929989,13.946532,0.9886706014128265
-0.022949,0.918701,0.309326,18.936157,57.929989,17.807007,0.969649812188916
0.074219,0.907715,0.257813,16.708374,56.686398,20.614622,0.9465318400112065
0.089844,0.909912,0.233398,10.589599,48.988338,21.217344,0.943655879271676
0.025879,0.94165,0.280029,3.173828,35.423279,17.700195,0.9827465013837495
-0.03125,0.965332,0.342773,0.358582,25.566099,14.579772,1.0248588987041094
-0.032715,0.950439,0.344238,1.228333,20.545958,14.22882,1.0113873464652403
-0.01709,0.939209,0.316406,0.205994,14.73236,14.686584,0.9912206467870814
-0.035645,0.943604,0.263184,-3.173828,5.050659,13.732909,0.9802677658155449
-0.054932,0.961182,0.211182,-4.669189,-6.370544,11.337279,0.9856399945578507
-0.097412,0.972656,0.154297,-3.692627,-13.786315,10.017395,0.9896243510994461
-0.169678,0.993652,0.123779,-3.074646,-16.769409,8.422852,1.0156063024760136
-0.19043,1.029541,0.141113,-3.044128,-17.776489,6.561279,1.056471075964695
-0.186035,1.059326,0.158447,-1.373291,-18.379211,4.226685,1.087145826147532
-0.211182,1.064453,0.210449,2.998352,-20.317076,0.518799,1.1054170289687058
-0.237793,1.03125,0.260498,8.605957,-20.332335,-2.883911,1.0898996657275384
-0.252441,0.976807,0.276123,12.344359,-15.808105,-3.807068,1.0460030042303894
-0.232422,0.936035,0.277588,11.901855,-8.895874,-2.609253,1.003611780048939
-0.206543,0.929443,0.294678,8.216858,-3.036499,-0.770569,0.9966741818578426
-0.188721,0.955078,0.294678,3.860473,2.388,1.663208,1.0171650434462443
-0.1604,0.976074,0.281494,2.5177,7.186889,4.257202,1.0284393445954896
-0.137695,0.978027,0.294922,5.638122,10.353087,5.096435,1.0307646248479814
-0.106689,0.952881,0.317627,7.743835,12.092589,4.79126,1.0100750734529587
-0.11792,0.927002,0.312256,6.401062,13.275146,5.264282,0.9852622209036537
-0.131348,0.935791,0.274658,1.785278,14.144897,6.103515,0.9840701752156703
-0.11499,0.960205,0.232178,-1.701355,14.465331,6.904602,0.9945466131906538
-0.100342,0.975586,0.213135,-2.044678,12.626647,7.164001,1.0036249740739815
-0.101074,0.979248,0.214111,-1.663208,8.270264,5.386352,1.007465195081696
-0.099365,0.98291,0.226807,-2.037048,3.372192,3.128052,1.0136206818006428
-0.094727,0.993164,0.22583,-2.593994,-0.427246,1.815796,1.022911102845697
-0.100586,1.007568,0.218506,-2.388,-2.731323,0.648498,1.0358840138046344
-0.109131,1.007324,0.229736,-0.114441,-3.227234,-0.63324,1.038936882506825
-0.115234,1.003174,0.232422,1.831055,-1.693725,-0.442505,1.03617418184203
-0.115967,1.012939,0.20752,0.747681,0.236511,1.998901,1.0404606254971882
-0.107666,1.029541,0.20459,0.434875,0.862122,3.517151,1.0551794664117569
-0.091797,1.026611,0.219971,3.547668,0.091553,2.830505,1.0539184386711336
-0.093262,0.994141,0.22998,8.026123,-1.808166,1.106262,1.0246486856113173
-0.096436,0.963867,0.237061,9.857178,-4.058838,-0.686645,0.997264966549011
-0.105469,0.950928,0.226807,8.781433,-5.706787,-0.556946,0.9832747257984413
-0.125732,0.94751,0.217285,7.102966,-6.958007,-0.457764,0.980202278689965
-0.137207,0.949707,0.227783,4.905701,-7.209777,-0.648498,0.9862323467555705
-0.10791,0.956543,0.236084,2.632141,-7.087707,-0.213623,0.9911381003699737
-0.093994,0.95874,0.231934,1.937866,-8.537292,-0.320435,0.9908635829376312
-0.111572,0.959717,0.227539,1.945495,-11.413573,-1.091003,0.9926122242819702
-0.137451,0.960693,0.217529,1.670837,-13.679503,-1.754761,0.9945565260411297
-0.151367,0.957764,0.207031,1.274109,-15.205382,-2.555847,0.9915067742310185
-0.162354,0.951172,0.213867,0.022888,-16.990662,-3.822326,0.9883451262534763
-0.160889,0.954346,0.229492,-2.792358,-18.39447,-4.676819,0.9946497554923542
-0.117432,0.974121,0.24292,-6.408691,-19.859314,-5.073547,1.0107977659576617
-0.067871,0.995605,0.246094,-7.316589,-23.986814,-7.057189,1.027812261797844
-0.065186,0.996094,0.248535,-4.272461,-31.005857,-10.810851,1.0286992357618432
-0.086914,0.973633,0.252686,-1.220703,-37.857056,-14.808654,1.0096363091138312
-0.101074,0.944336,0.255615,-0.587463,-42.259212,-17.593384,0.9835270522954617
-0.106934,0.918945,0.250732,-2.288818,-44.715878,-19.569397,0.9585203853883338
-0.119141,0.900391,0.239746,-6.095886,-47.019955,-21.263121,0.9393490699830388
-0.151611,0.892822,0.222412,-10.82611,-49.72839,-23.521421,0.9325149418368588
-0.217041,0.889893,0.181396,-15.731811,-53.0014,-26.092527,0.9337670244477474
-0.300537,0.889648,0.135742,-21.301268,-57.334896,-30.914305,0.9488002649857346
-0.356934,0.847168,0.1521,-28.686522,-57.167049,-40.351864,0.9317885546517515
-0.402344,0.834961,0.253906,-40.771481,-46.180721,-50.041195,0.9609936642314557
-0.436035,0.879639,0.29541,-57.113644,-30.693052,-53.466793,1.025260142425326
-0.442139,0.922607,0.249756,-61.027523,-16.784668,-62.171932,1.053123274505886
-0.463135,1.054688,0.166504,-59.837337,-8.117676,-82.130424,1.1638661381726854
-0.576416,1.312256,0.099854,-53.932186,-2.952575,-109.291069,1.4367470326776388
-0.840332,1.633789,-0.018066,-25.962828,-3.417969,-156.181335,1.837321623206182
-1.069336,1.938477,-0.209961,32.302856,-20.927427,-229.026779,2.223793196757738
-0.99292,2.098389,-0.287109,117.950432,-60.134884,-249.992355,2.339136186630013
-0.97583,1.98999,-0.222412,209.686264,-111.869804,-249.855026,2.227503420141931
-1.055664,1.795898,-0.10498,249.992355,-165.977463,-249.404892,2.085832425603744
-1.379395,1.525879,-0.04541,249.992355,-212.348923,-249.992355,2.0574497215645393
-1.570801,1.347656,-0.093506,249.038681,-249.992355,-249.992355,2.071795319999782
-1.777588,1.329346,-0.0896,247.955307,-247.009262,-249.984726,2.2214877999800042
-1.980469,1.356689,-0.139404,212.173447,-204.132065,-249.992355,2.4046405090778125
-2.0,1.341309,-0.263916,173.263535,-146.499634,-249.992355,2.422552680239792
-1.915039,1.243652,-0.331299,161.903366,-80.352776,-249.992355,2.30733692728782
-1.80249,1.10791,-0.300537,161.163315,-12.489318,-249.992355,2.136997252354106
-1.660156,1.031494,-0.236816,161.407455,35.446167,-249.992355,1.9688015730966897
-1.573486,0.991699,-0.205078,159.584045,54.969784,-249.992355,1.8711980346507955
-1.444336,0.956299,-0.163574,153.770447,50.109859,-249.992355,1.7399341113309437
-1.29834,0.907959,-0.058838,141.838074,39.154053,-249.992355,1.5854142081881946
-1.184326,0.86084,0.034912,126.91497,28.442381,-249.992355,1.4645451265222251
-1.094482,0.797363,0.081299,120.674126,18.287659,-249.992355,1.356572198408179
-1.073242,0.70459,0.119141,126.403801,10.093688,-249.992355,1.2893758321548454
-1.092773,0.631836,0.147949,133.453369,2.845764,-249.992355,1.2709281911366983
-1.094482,0.592529,0.17334,135.528564,-1.861572,-249.992355,1.2565938961195855
-1.050293,0.587402,0.186035,131.599426,-2.090454,-249.992355,1.2176885959382227
-0.947998,0.577881,0.196045,124.313347,0.350952,-249.992355,1.127421970776692
-0.862061,0.544678,0.228271,117.607109,1.121521,-249.992355,1.0449549946509658
-0.809326,0.501221,0.314941,113.044731,-7.186889,-249.992355,1.002705788652883
-0.73999,0.462891,0.39624,108.360283,-24.765013,-249.992355,0.9585715495366008
-0.746826,0.439209,0.428223,103.347771,-37.467957,-249.992355,0.9664515288859551
-0.831543,0.407471,0.391846,97.129814,-37.93335,-249.992355,1.0055046814440995
-0.84668,0.357422,0.355713,89.378349,-28.427122,-249.992355,0.9854690491603478
-0.794189,0.313965,0.369141,81.520073,-15.312194,-249.992355,0.9303629758470615
-0.715088,0.27124,0.42334,75.218201,-9.140015,-249.992355,0.8741502965417332
-0.692871,0.233643,0.502686,70.556641,-13.099669,-249.992355,0.8873288503627051
-0.694092,0.203613,0.58667,65.032959,-27.412413,-249.992355,0.9313450741443797
-0.631836,0.160645,0.596924,60.241695,-46.585079,-249.992355,0.8839354097992681
-0.568359,0.091553,0.568359,58.1665,-61.958309,-249.420151,0.808978280036615
-0.588623,0.004395,0.571289,56.137081,-68.740845,-243.568405,0.820284995397941
-0.601074,-0.07666,0.589355,50.712582,-66.879272,-237.07579,0.8452845823159204
-0.553223,-0.139893,0.614746,45.028683,-56.983944,-231.552109,0.8387719497539246
-0.538574,-0.17749,0.660645,42.175289,-44.975277,-225.006088,0.8706414127532645
-0.560547,-0.195801,0.709717,37.986755,-44.158932,-216.827377,0.9253373389737389
-0.589844,-0.234619,0.775146,26.893614,-63.08746,-205.406174,1.0019048561679897
-0.578857,-0.270508,0.773682,8.750916,-101.127617,-193.679794,1.003411103006639
-0.383789,-0.333008,0.754883,-5.043029,-141.967773,-184.79155,0.9099652016830093
-0.223877,-0.438477,0.778809,-10.795592,-156.845093,-176.162704,0.9213720470792459
-0.151123,-0.519775,0.786865,-19.973755,-154.212952,-166.595444,0.9550710654077004
-0.172852,-0.540527,0.80542,-37.93335,-148.574829,-156.234741,0.9852657651786141
-0.234619,-0.50708,0.797363,-60.8139,-147.81189,-142.189026,0.9736344053750361
-0.312988,-0.464111,0.760254,-83.984367,-150.863647,-118.881218,0.944111568079218
-0.450928,-0.448242,0.793213,-107.353203,-154.830933,-92.567436,1.01658438661874
-0.45459,-0.44873,0.852539,-128.234863,-163.719162,-76.858521,1.0652856084266793
-0.313721,-0.462158,0.979736,-141.853333,-166.26738,-69.885254,1.1277825643717854
-0.175781,-0.513916,1.060059,-155.761719,-164.337143,-63.674923,1.1911060819666737
-0.084229,-0.554443,0.984619,-180.526718,-172.386154,-54.901119,1.1331267095303155
-0.105225,-0.52832,0.884033,-211.860641,-191.680893,-40.534969,1.035233629725194
-0.231934,-0.46875,0.805908,-239.608749,-217.643723,-21.492002,0.960732869907135
-0.423828,-0.412109,0.780029,-249.992355,-242.263779,-0.686645,0.9787283802495971
-0.651367,-0.358154,0.850342,-249.992355,-249.992355,19.760132,1.1294400264595725
-0.824707,-0.317627,0.898438,-249.748215,-249.992355,35.209656,1.2602457644531084
-0.842773,-0.266113,0.875977,-249.992355,-249.80162,40.725704,1.2443545165373895
-0.753662,-0.175781,0.893311,-249.992355,-249.992355,39.306641,1.1819094351624408
-0.648193,-0.080322,0.828857,-249.992355,-249.992355,42.427059,1.0552770799093478
-0.695313,0.009521,0.617188,-249.992355,-249.992355,58.349606,0.9297697805123588
-0.874512,0.134766,0.34082,-249.992355,-249.992355,84.83123,0.9482042951284285
-0.86792,0.305664,0.032471,-249.992355,-249.992355,112.205498,0.9207442495812831
-0.643311,0.470215,-0.156494,-249.992355,-245.65123,135.292053,0.812060072274213
-0.45459,0.531982,-0.174316,-249.992355,-214.759811,154.190063,0.7211400587125916
-2.491455,2.182129,-2.279297,-249.992355,-167.65593,143.936157,4.020476315547078
-3.014404,5.566406,-6.892822,33.279419,-199.035629,-174.560532,9.358552364320884
0.151367,-0.770996,-1.505615,249.992355,-249.992355,33.828735,1.69830012922628
-1.461182,-1.478516,0.20752,81.146233,-151.123047,249.992355,2.0890492932863025
-2.276611,-0.643311,-0.858887,-188.842758,70.922852,249.992355,2.516841982884702
-1.875732,-1.560303,-1.505127,-53.665157,158.683777,236.663803,2.8667618097362046
-0.800049,-2.335938,-0.43335,161.117538,179.87059,116.020195,2.50688590979825
-0.236816,-2.295166,-0.078125,201.362595,185.707077,-87.684624,2.308673277238899
0.021973,-1.636963,-0.233398,60.989376,148.292542,-206.054672,1.6536642048801806
0.352783,-0.955811,-0.184326,-91.690056,87.509148,-160.789474,1.0353775094553677
0.431885,-0.533447,-0.400879,-168.800339,12.725829,-42.579647,0.7948549098263153
0.059814,-0.269287,-0.859131,-185.501083,-54.756161,72.463989,0.9023299164529568
-0.433594,-0.101563,-0.994141,-146.232605,-88.951103,130.073547,1.0893278329713236
-0.780518,-0.146484,-0.895508,-57.479855,-93.91021,127.891533,1.1969128993556717
-0.894775,-0.447021,-0.745605,36.888123,-88.23394,86.09008,1.247548352205637
-0.84375,-0.840332,-0.536377,94.024651,-91.041557,35.224915,1.3060521501276279
-0.830078,-1.146729,-0.330811,107.803337,-102.584831,-2.944946,1.453771922705209
-0.89502,-1.237793,-0.158447,88.447563,-117.286674,-20.858763,1.5356750186995944
-0.949951,-1.093262,-0.043945,48.271175,-123.39782,-22.6593,1.4489858060277885
-1.00708,-0.858154,-0.069824,9.925842,-108.27636,-20.195005,1.3249580389929334
-1.062988,-0.611816,-0.230469,-11.589049,-74.256897,-19.790649,1.2479496247689648
-1.064453,-0.401123,-0.448242,-10.437011,-26.107786,-23.872374,1.2226531564192684
-1.04248,-0.234375,-0.708008,10.2005,28.221128,-28.747557,1.2817845057142014
-1.06665,-0.097168,-1.054443,43.846127,76.118469,-30.4718,1.503008277746001
-1.101318,-0.0354,-1.299072,88.577263,96.443169,-36.178589,1.7034501924940455
-1.002197,-0.12793,-1.24292,139.656067,86.982719,-44.921871,1.6017537382846965
-0.863525,-0.265137,-1.126221,181.663498,72.471619,-48.942562,1.4437267037895363
-0.817627,-0.356934,-1.119141,201.583847,68.664551,-50.2243,1.4312205872492192
-0.867188,-0.354492,-1.099121,202.529892,79.467773,-48.316952,1.4442114035171583
-0.934326,-0.239258,-1.043457,198.822006,105.148308,-42.282101,1.4209194121022488
-0.942383,-0.081055,-0.986816,203.582748,137.908936,-39.382935,1.366916767608767
-0.834473,0.022949,-0.890869,221.397385,166.358932,-40.603634,1.220868305547736
-0.685547,0.051514,-0.734863,245.498642,185.134872,-37.216187,1.0063061215027962
-0.576416,0.005615,-0.607666,249.992355,193.664536,-26.206968,0.8375827725287812
-0.527588,-0.073975,-0.556152,249.832138,192.924484,-10.505675,0.7701470284776796
-0.519775,-0.13208,-0.480225,249.855026,185.424789,5.935668,0.7198800092029226
-0.579346,-0.150391,-0.407471,249.992355,175.994858,19.599915,0.7240800069315545
-0.662109,-0.14209,-0.310059,249.992355,166.160568,29.411314,0.7447915677973267
-0.719482,-0.149902,-0.161133,249.992355,159.622192,35.095215,0.7523887303894178
-0.735107,-0.207275,-0.013672,249.992355,155.647278,37.246704,0.7638927612289568
-0.754395,-0.299316,0.083496,249.992355,152.023315,39.909363,0.815888145456839
-0.799561,-0.398438,0.170898,249.992355,146.934509,46.279903,0.9095365627444562
-0.842285,-0.483643,0.218018,249.992355,140.24353,54.435726,0.9954327807531757
-0.864014,-0.533936,0.236572,249.992355,138.671875,60.852047,1.0428682349539657
-0.90625,-0.524902,0.320313,249.992355,153.465271,64.76593,1.0951765109209566
-0.988037,-0.459717,0.518066,249.992355,180.717453,68.534851,1.20662720581545
-1.074219,-0.409912,0.785156,249.992355,209.899887,70.632935,1.3922802347376049
-1.172852,-0.394043,1.095215,249.992355,229.309067,71.395874,1.6523763481658773
-1.268311,-0.399414,1.39624,249.610886,232.437119,70.320129,1.9281157832757345
-1.247803,-0.445068,1.626953,244.880661,225.143417,64.163208,2.098111988346189
-1.141113,-0.53418,1.743164,234.458908,219.06279,53.321835,2.150838878685477
-1.015869,-0.66333,1.749756,222.297653,208.251938,39.558411,2.129235208612942
-0.908203,-0.795166,1.786621,208.97673,185.691818,21.232603,2.1561855797695153
-0.853516,-0.875977,1.830566,192.573532,148.284912,2.677917,2.201544264179351
-0.796875,-0.982178,1.875977,176.856979,99.365227,-10.772704,2.262514772070671
-0.752441,-1.139648,1.966309,152.168274,44.502254,-21.476744,2.3940209075665986
-0.709229,-1.220703,1.908203,101.730339,-11.184691,-29.58679,2.373680744720949
-0.656738,-1.17627,1.799561,34.484863,-54.824825,-31.814573,2.2479625678077917
-0.615479,-1.049805,1.705811,-24.475096,-82.389824,-27.381895,2.0953987938306637
-0.558594,-0.919922,1.542969,-64.628601,-101.638786,-23.437498,1.8812328611527602
-0.484131,-0.838867,1.423096,-91.316216,-115.982048,-24.887083,1.7214188607268133
-0.414795,-0.814941,1.367188,-112.289421,-126.090996,-26.649473,1.6448059924653728
-0.427979,-0.812744,1.322754,-132.43103,-132.873535,-20.523069,1.6104027379798507
-0.528564,-0.794434,1.306641,-154.289246,-136.917114,-8.575439,1.6179666205867784
-0.622314,-0.748535,1.239014,-178.61174,-141.975403,0.061035,1.5756697157136073
-0.647217,-0.674561,1.110596,-202.995285,-149.291992,3.509521,1.4516700255312842
-0.614014,-0.584229,0.97168,-225.135788,-159.408569,6.713867,1.2893792068421919
-0.580078,-0.494385,0.894531,-243.560776,-172.56926,11.985778,1.1751990147502678
-0.613281,-0.417725,0.89624,-249.992355,-186.027512,19.493103,1.1635522756567493
-0.727539,-0.362793,0.906982,-249.992355,-199.676498,27.923582,1.2180098955648924
-0.875,-0.324707,0.926514,-249.839767,-210.754379,35.346985,1.3150999308208482
-0.974854,-0.27832,0.914795,-249.992355,-213.272079,40.252682,1.3655226968970526
-0.993164,-0.209229,0.907471,-249.992355,-206.71843,40.977474,1.3614900371203604
-0.949219,-0.133545,0.905762,-249.992355,-198.982224,37.628174,1.318808468895313
-0.959473,-0.055908,0.913818,-249.992355,-196.594223,33.317566,1.3261890812840378
-1.003906,0.005859,0.864502,-249.992355,-209.060654,30.09796,1.3248491584784283
-0.998535,0.060791,0.807373,-249.992355,-229.01915,30.044554,1.2855422408598638
-0.973633,0.091553,0.790527,-249.992355,-238.990768,37.567139,1.2574880151424903
-0.973633,0.094482,0.695068,-249.992355,-234.085068,52.680965,1.2000031631779142
-0.942871,0.097412,0.527344,-249.992355,-219.764694,68.618774,1.0847057272463347
-0.857666,0.112549,0.332764,-249.992355,-203.102097,80.406181,0.9268172013148008
-0.773193,0.158203,0.169189,-249.992355,-184.524521,90.950005,0.8071434334608688
-0.748779,0.235107,0.044189,-249.992355,-160.942062,104.766838,0.7860648573820102
-0.911865,0.318359,-0.066895,-249.992355,-130.1651,121.276848,0.96815555161916
-1.330078,0.600098,0.507813,-249.992355,-102.165215,131.919861,1.5450239929065828
-5.217773,6.056885,-5.718018,-210.105881,-115.82946,-47.660824,9.828872815896949
-1.387451,3.820557,-3.832764,209.617599,-220.977768,-238.456711,5.586748244493034
-0.545898,-0.801025,-0.024414,249.992355,-230.964645,71.159363,0.9696606212613772
-1.529297,-0.170166,0.07959,120.765678,-84.106438,182.334885,1.5407921176670785
-1.556641,-0.276611,-0.111816,133.728027,83.305351,199.806198,1.5849756042469547
-1.23584,-2.032227,0.302979,249.992355,159.561157,183.883652,2.3977162800402385
-0.825928,-3.950439,0.915527,249.992355,193.923935,42.266842,4.1383952254024745
-0.27417,-3.117188,0.54248,55.068966,174.209579,-131.858826,3.175895899843696
-0.020996,-1.110107,-0.184326,-205.062851,139.671326,-141.548157,1.1255018692747694
-0.156006,-0.243896,-0.450439,-249.992355,78.804016,-27.488707,0.535460944955839
-0.271484,0.144775,-0.620605,-236.19841,-8.712769,65.979004,0.6926860247659108
-0.487061,0.250488,-0.885254,-157.50885,-78.964233,115.45562,1.0409838136978884
-0.830322,0.059082,-0.856201,-50.514217,-99.014275,122.917168,1.1941547047217125
-1.063477,-0.278076,-0.599121,46.783443,-82.496635,94.345085,1.2519007803919606
-1.10498,-0.673828,-0.375488,96.794121,-54.046627,44.120785,1.347596457448594
-1.021973,-0.989258,-0.196777,84.556572,-29.174803,1.144409,1.4358904523054674
-1.001465,-1.060303,-0.128906,40.084839,-9.735107,-12.626647,1.464169168801884
-1.106445,-0.906738,-0.161377,1.838684,3.723144,-3.242492,1.4395960804329804
-1.187988,-0.722168,-0.243408,-16.052246,9.506226,5.882263,1.4114140295575923
-1.19873,-0.554199,-0.373535,-16.75415,16.075134,2.311707,1.3724498317701816
-1.210938,-0.376465,-0.531738,-1.960754,33.676147,-6.912231,1.3750789201762204
-1.165771,-0.196777,-0.720459,28.648375,64.979553,-12.054442,1.3844870468339527
-1.050537,-0.089111,-0.940918,72.990417,104.339592,-14.778136,1.4131155088717977
-0.96875,-0.064941,-1.10083,118.72863,122.093193,-23.368834,1.4678285270701752
-0.886719,-0.11377,-1.109863,160.385132,96.885674,-37.033081,1.425135108202026
-0.804199,-0.183838,-1.046387,194.038376,45.547482,-46.745296,1.3324632061013917
-0.723877,-0.220947,-0.945801,216.194138,-11.306762,-49.34692,1.2113443026402526
-0.751953,-0.248535,-0.885254,225.349411,-52.391048,-44.265743,1.1878036895674302
-0.865967,-0.226563,-0.848145,224.342331,-66.040039,-34.65271,1.2331178285480264
-0.936035,-0.143555,-0.775635,222.84697,-52.665707,-28.259275,1.2240830088172123
-0.949463,-0.056396,-0.697266,228.363022,-19.943237,-29.525755,1.1793389554920162
-0.928467,-0.001465,-0.63916,239.791855,20.835875,-33.485413,1.1271994596849308
-0.854248,0.021729,-0.600586,249.93895,59.906002,-33.859253,1.044468926460237
-0.803223,0.0271,-0.516113,249.992355,92.338554,-28.892515,0.9551304761643825
-0.824951,0.023682,-0.388428,249.847397,112.022392,-20.156858,0.9121300897947617
-0.850342,-0.004395,-0.231201,249.977097,116.271965,-10.482787,0.8812234310264339
-0.83252,-0.017334,-0.064941,249.992355,114.372246,-3.364563,0.8352289215759953
-0.79834,-0.013916,0.018311,249.992355,113.594048,2.365112,0.7986712110605966
-0.806396,-0.035645,0.053955,249.992355,113.708488,10.963439,0.8089846827140795
-0.856689,-0.054688,0.066895,249.992355,114.341728,21.972654,0.8610352844628378
-0.903076,-0.070557,0.079346,249.992355,115.890495,30.456541,0.9092966181290899
-0.922119,-0.096191,0.153076,249.992355,118.629448,34.484863,0.939674635402063
-0.973145,-0.123535,0.287354,249.992355,119.400017,36.125183,1.022176309922119
-1.107178,-0.157715,0.423584,249.992355,116.615288,39.413452,1.1958848397588289
-1.266113,-0.175537,0.585449,249.992355,113.983147,46.241756,1.4059181692897351
-1.377686,-0.172363,0.791748,249.992355,121.360771,53.25317,1.5983092985617646
-1.458252,-0.171143,0.999268,249.992355,144.325256,56.465145,1.7760420484259376
-1.472168,-0.190186,1.175293,249.656662,171.707138,51.033016,1.8933470285895821
-1.354248,-0.239258,1.317871,248.428329,191.825851,34.164429,1.9047351544792257
-1.244385,-0.338867,1.464844,245.361313,198.173508,12.268065,1.9516897336026546
-1.134277,-0.400635,1.604248,230.590805,183.197006,-6.965637,2.005169409665428
-1.03418,-0.462158,1.681152,209.686264,154.006958,-16.059875,2.027163125273346
-0.984375,-0.572266,1.6875,191.452011,125.419609,-13.954162,2.035715786985256
-0.965576,-0.718262,1.67334,177.505478,104.331963,-12.832641,2.0611414478438883
-0.954346,-0.886963,1.693359,162.498459,91.552727,-20.202635,2.1365730396983857
-0.928955,-1.042236,1.765381,137.779236,82.618706,-33.218384,2.250729514375728
-0.834961,-1.143555,1.815674,98.144524,67.7948,-48.164364,2.3025094970101643
-0.699707,-1.151611,1.793457,44.090267,42.91534,-60.081478,2.243275683463582
-0.588379,-1.046143,1.677734,-15.327453,5.645751,-63.026424,2.062861216574203
-0.54126,-0.901855,1.527588,-63.224789,-35.049438,-54.595943,1.8546778497542369
-0.575928,-0.813232,1.381592,-93.765251,-66.383362,-42.015072,1.7034775611882886
-0.633789,-0.780029,1.232666,-118.370049,-85.418694,-34.835815,1.5904713782140187
-0.647705,-0.755127,1.093018,-145.141602,-95.558159,-31.692503,1.4779806837296623
-0.633545,-0.709717,0.994141,-172.225937,-98.159782,-25.657652,1.3760064734567932
-0.611816,-0.636719,0.906738,-197.921738,-97.496025,-17.51709,1.2656633452308714
-0.5625,-0.550537,0.812744,-219.108566,-97.328178,-10.261535,1.1313929679404058
-0.514893,-0.466064,0.743408,-233.879074,-98.007195,-4.150391,1.0173425716094848
-0.50293,-0.388184,0.700684,-244.552597,-100.936882,2.349854,0.9458242281798452
-0.546875,-0.308105,0.659424,-249.992355,-106.857292,9.788513,0.9104070344774364
-0.651855,-0.230225,0.647217,-249.992355,-114.128105,17.494202,0.9469996498093334
-0.746826,-0.15625,0.628418,-249.885544,-121.25396,24.772642,0.9884696856757924
-0.781006,-0.087646,0.559326,-249.992355,-123.702995,31.486509,0.9646231220678883
-0.773682,-0.015137,0.525879,-249.992355,-118.614189,38.757324,0.9356076573724694
-0.81543,0.048828,0.567627,-249.992355,-111.259453,46.401974,0.9947415089423985
-0.967285,0.081299,0.606445,-249.992355,-111.145012,51.300045,1.1445633825398225
-1.090088,0.098145,0.5896,-249.992355,-120.941154,51.383968,1.2432024970892714
-1.067383,0.115723,0.558838,-249.992355,-128.379822,51.437374,1.2103710966732475
-1.006104,0.136963,0.569336,-249.992355,-121.070854,58.486935,1.164108071907845
-1.042236,0.155762,0.631104,-249.992355,-100.898735,69.747925,1.2283362484092049
-1.169434,0.158691,0.688965,-249.992355,-85.433952,72.692871,1.3665399683368213
-1.290039,0.145508,0.712158,-249.992355,-89.584343,60.249325,1.4807235449431468
-1.363525,0.14502,0.671875,-249.992355,-113.410942,39.459229,1.526973228858319
-1.337646,0.186768,0.605713,-249.992355,-146.339417,24.955748,1.4802254373942503
-1.266846,0.243408,0.564941,-249.992355,-170.112595,23.811338,1.4082984682449242
-1.257813,0.279541,0.492188,-249.992355,-180.824265,35.400391,1.3793062535180505
-1.290771,0.301758,0.363281,-249.992355,-181.869492,51.818844,1.3744528911410532
-1.269775,0.343262,0.218994,-249.992355,-174.026474,65.948486,1.3334600568839698
-1.177246,0.386963,0.068359,-249.992355,-158.64563,77.606201,1.241096878074391
-1.040039,0.451172,0.193604,-249.992355,-137.237549,86.624138,1.1500955629516183
-1.587646,1.765137,-0.850342,-249.992355,-106.88018,81.527702,2.521787058228549
-5.72998,6.841064,-6.861572,-108.940117,53.024288,-38.375854,11.256731220193542
-1.243164,0.694092,-1.22168,249.992355,249.992355,48.698421,1.876092337215842
1.007568,-1.539063,-0.012207,234.329208,144.569397,232.810959,1.8395807140329559
-0.020752,-0.555176,-0.979492,35.53009,120.628349,181.472763,1.1260797549658728
-0.416992,-1.197266,-1.310791,-45.845028,81.329338,78.834534,1.8235956921700052
0.069092,-1.682617,-1.216064,-92.613213,-55.671688,-43.060299,2.0772061345107278
0.081299,-1.464844,-0.81958,-138.35144,-161.499008,-70.648193,1.6805025582060267
-0.360107,-0.982666,-0.76709,-113.05999,-218.208298,-11.993407,1.2975887588542836
-0.880859,-0.48999,-0.587402,-52.925106,-235.084518,66.177368,1.1666378562283155
-1.186279,-0.247314,-0.0896,-21.667479,-245.117172,109.146111,1.2150926880024422
-1.359863,-0.219971,0.146973,-18.325806,-249.992355,109.840385,1.385357600888305
-1.601318,-0.322754,-0.023438,-30.372618,-246.208176,85.144035,1.63368871621371
-1.775391,-0.408691,-0.021973,-37.010193,-201.347336,56.961056,1.8219561874784476
-1.617676,-0.493652,0.278564,-11.749267,-126.647942,35.324097,1.71410788463737
-1.411377,-0.60376,0.450195,28.96118,-56.762691,20.530699,1.5997458272344391
-1.407959,-0.612061,0.456299,42.518612,-9.620667,6.401062,1.6016166803586307
-1.413574,-0.529785,0.458984,30.96771,14.274596,-7.30133,1.5778244236786931
-1.300293,-0.437012,0.439453,13.923644,22.087095,-15.502929,1.4404375422773457
-1.215332,-0.341553,0.255127,-2.525329,22.727964,-16.777039,1.2879363758206381
-1.236816,-0.218506,0.011963,-14.373778,30.944822,-15.197753,1.2560261952925185
-1.234619,-0.079346,-0.114746,-12.474059,54.115292,-13.870238,1.2424759584768632
-1.124756,-0.000732,-0.118408,7.766723,81.80999,-14.503478,1.130971728127631
-0.943359,-0.039307,-0.11377,35.728455,99.189751,-18.867493,0.951007284951067
-0.761963,-0.137695,-0.092773,56.999203,100.494377,-22.65167,0.7798425199506628
-0.638672,-0.242188,-0.063477,64.186096,86.379997,-23.109434,0.6859929157484063
-0.599121,-0.335205,-0.107178,55.52673,59.799191,-18.188477,0.6948348640864245
-0.612793,-0.36377,-0.226563,32.714844,26.420591,-10.856627,0.747779825027394
-0.630859,-0.318848,-0.348633,5.477905,-2.861023,-5.798339,0.7881574041230597
-0.651611,-0.248047,-0.432861,-12.237548,-19.493103,-2.632141,0.8206661043634007
-0.691406,-0.196777,-0.439697,-13.923644,-23.03314,1.686096,0.8426724727757516
-0.716309,-0.181152,-0.379883,-2.166748,-18.547058,7.263183,0.8307982452280457
-0.708496,-0.203369,-0.298828,14.663695,-12.771605,15.373229,0.7953764553725488
-0.704834,-0.241699,-0.227295,27.565001,-8.811951,26.519773,0.7790201481232689
-0.726318,-0.269043,-0.17627,32.485962,-6.011962,39.054871,0.7943507322795139
-0.756836,-0.277344,-0.140869,31.196592,-3.967285,50.254818,0.8182692102193506
-0.824463,-0.266357,-0.144043,26.077269,-1.113892,58.578487,0.878312971364422
-0.938965,-0.218262,-0.134766,21.156309,4.417419,63.96484,0.9733732308960423
-1.109619,-0.145264,-0.128662,20.355223,13.923644,66.574097,1.1264589939722616
-1.228516,-0.05542,-0.153076,24.162291,24.871824,65.612793,1.239255905950018
-1.202393,0.035889,-0.158936,34.889221,42.175289,62.355038,1.2133827091507445
-1.14624,0.070068,-0.164307,49.636837,66.848755,61.408993,1.1600743305810193
-1.009033,0.064453,-0.210205,63.484188,80.93261,67.329407,1.0327090230665172
-0.883545,0.045654,-0.30249,76.095581,83.808891,74.569702,0.9350060186121799
-0.881348,0.06958,-0.35083,82.595818,79.025269,75.881958,0.9511558034328551
-0.897705,0.114014,-0.343018,86.021416,63.117977,72.135925,0.9677472849587334
-0.876221,0.146973,-0.327393,93.200676,39.0625,68.962097,0.9468634959797532
-0.882813,0.162109,-0.31958,101.234428,12.802123,67.649841,0.9527693830355801
-0.897461,0.164307,-0.315918,104.911797,-11.970519,66.856384,0.9655243236159303
-0.915527,0.161133,-0.287842,104.568474,-29.678343,66.818237,0.9731426146161722
-0.946289,0.158447,-0.256348,103.065483,-37.475586,68.237305,0.993117626685782
-0.96582,0.157715,-0.214844,103.210442,-35.301208,72.227478,1.0019182790831795
-0.986328,0.156738,-0.181152,104.103081,-26.016233,78.330994,1.0150003799664313
-1.0,0.153564,-0.161133,104.789726,-14.518737,83.778374,1.024473399256906
-0.966064,0.154785,-0.154297,106.071465,-2.983093,87.059013,0.9904774669471285
-0.888428,0.158203,-0.127197,108.909599,7.705688,88.928215,0.9113240791299217
-0.828369,0.156494,-0.090576,111.701958,16.044617,91.773979,0.8478735660303369
-0.802979,0.158936,-0.062988,111.816399,19.538879,96.076958,0.8209771097180482
-0.829834,0.167969,-0.037598,108.757011,18.165588,101.234428,0.8474972932824033
-0.885254,0.191895,0.000488,104.019157,12.786864,105.995171,0.905813763245514
-0.916504,0.227539,0.044189,99.243156,6.637573,110.061638,0.9453603790396549
-0.913086,0.255859,0.067139,94.825737,4.005432,114.418022,0.9506300629571947
-0.888672,0.275879,0.075439,90.911858,5.393981,121.063225,0.9335620969951597
-0.862061,0.287354,0.066895,87.379448,8.300781,129.91333,0.911151156538804
-0.820313,0.291992,0.053467,84.655754,10.848998,138.778687,0.8723711745134636
-0.794922,0.288818,0.055908,82.374565,13.511657,146.461487,0.847609891207034
-0.883301,0.292236,0.065918,77.690125,16.357422,153.503418,0.9327206007272488
-0.979736,0.318848,0.064697,68.740845,15.716552,158.180237,1.0323431496401767
-0.968018,0.358643,0.055908,59.143063,16.624451,160.247803,1.033832362734404
-0.893555,0.39502,0.052246,52.459713,22.02606,164.428696,0.978371597574766
-0.81958,0.419922,0.072266,47.996517,28.045652,173.019394,0.923725195737347
-0.779541,0.424072,0.096191,43.846127,30.273436,183.067307,0.8926219470447723
-0.765137,0.417236,0.101563,38.711548,27.534483,190.879807,0.8774027304687397
-0.770264,0.413574,0.077637,32.714844,21.232603,195.198044,0.8777115624970426
-0.794678,0.431641,0.051025,26.473997,13.46588,197.525009,0.9057762566936716
-0.81543,0.470215,0.054932,20.027161,7.522583,199.737534,0.9428922291274862
-0.818604,0.515381,0.06665,13.076781,4.669189,202.80455,0.9696248276921338
-0.784668,0.564697,0.076904,5.889892,2.151489,207.389816,0.9697942035550636
-0.711182,0.606445,0.088623,-0.686645,-0.808716,213.073715,0.9388340701519092
-0.644287,0.634766,0.112549,-6.385803,-5.325317,220.19957,0.9114279403913401
-0.599854,0.658691,0.12915,-12.168883,-12.573241,228.813156,0.9002101850662434
-0.55835,0.68457,0.127441,-16.204834,-21.286009,237.533554,0.8925424448624278
-0.513916,0.710938,0.132813,-18.539429,-29.739378,245.346054,0.8872326571249505
-0.449219,0.739502,0.145752,-22.880552,-37.406921,249.992355,0.8774420570436546
-0.359863,0.771484,0.15625,-26.527403,-47.554012,249.992355,0.8655073676896112
-0.287109,0.833496,0.161377,-30.235289,-59.722897,249.908432,0.896208511467058
-0.260498,0.923096,0.167236,-36.972046,-71.174622,249.992355,0.9736186691492723
-0.326172,1.034424,0.171387,-46.82922,-80.741875,249.992355,1.0980868313248273
-0.492676,1.192627,0.14917,-58.059689,-85.456841,249.992355,1.2989767091849647
-0.698975,1.39624,0.136475,-66.604614,-83.06884,249.992355,1.5673792182653181
-0.843262,1.650146,0.100098,-71.983337,-75.942993,249.992355,1.855826562899669
-0.94165,1.925049,0.034912,-73.883057,-62.141415,249.992355,2.1433005441713022
-1.092041,2.254883,-0.070068,-72.303772,-35.308838,249.992355,2.506383931881546
-1.295166,2.398438,-0.128174,-58.158871,3.684997,249.992355,2.728807135302164
-1.380615,2.199463,-0.087158,-35.728455,48.423763,249.992355,2.59833250057763
-1.308105,1.791992,0.019287,-18.943787,94.863884,249.992355,2.218726212820771
-1.125977,1.451416,0.127197,-13.732909,131.813049,249.992355,1.8413613676826177
-0.892578,1.221436,0.251709,-13.359069,149.810791,246.574387,1.5336097316009052
-0.630371,1.009766,0.366455,-12.832641,144.889832,211.166367,1.2455056159736895
-0.373535,0.896729,0.429688,-22.010801,118.080132,162.6129,1.0622066997576318
-0.226074,0.905029,0.401367,-39.138794,73.020935,127.258293,1.0155207595150382
-0.188232,0.958252,0.308594,-54.000851,16.937256,101.951591,1.02416231045865
-0.195313,1.026855,0.168945,-67.7948,-44.113155,82.321159,1.0588299070289808
-0.291992,1.119385,0.052246,-78.544617,-93.383781,67.184448,1.1580206176079078
-0.452393,1.225098,-0.052246,-81.657402,-127.80761,43.281551,1.307001981853509
-0.561279,1.276611,-0.078125,-76.675415,-148.05603,7.644653,1.3967366526253258
-0.55127,1.226074,-0.04126,-71.136475,-155.059814,-13.381957,1.3449380855548705
-0.534912,1.137939,-0.006104,-71.563721,-154.067993,-12.397765,1.257407362107046
-0.526123,1.061523,0.049561,-74.310303,-154.556274,-6.965637,1.1857878323625184
-0.50708,1.012939,0.088379,-73.280334,-153.213501,-5.065917,1.1362158209433628
-0.526367,0.992188,0.114502,-69.198608,-146.217346,-3.059387,1.128986250596968
-0.561768,0.984619,0.150146,-63.644405,-135.20813,1.930237,1.1435041243043245
-0.557861,0.968506,0.200195,-57.014462,-120.216362,8.201599,1.1354694207163838
-0.541748,0.943115,0.23291,-50.170895,-99.937431,14.427184,1.1122966631384814
-0.54126,0.916748,0.241455,-44.067379,-76.042175,20.660398,1.0916454553237511
-0.492676,0.901611,0.218262,-39.833069,-52.215572,27.435301,1.0503667630599323
-0.402588,0.88208,0.196045,-36.170959,-28.259275,36.552429,0.9892299359446215
-0.363281,0.850586,0.26123,-30.158995,1.342773,47.050472,0.9610987156671265
-0.483154,0.813477,0.278564,-22.125242,45.600887,59.68475,0.9862963648625093
-0.676025,0.802246,0.257568,-15.792846,107.780449,73.707581,1.0802544699120664
-0.753174,0.806396,0.230225,-17.944336,178.298935,83.152763,1.1271863793166594
-0.537354,0.844727,0.131592,-30.075071,235.122665,84.983818,1.0097670425939838
-0.185303,0.935547,0.051025,-41.999813,249.992355,86.318962,0.9550858294640331
0.081787,1.034424,0.025146,-45.364376,249.992355,91.430656,1.0379568615607297
0.212646,1.100098,0.071289,-33.790588,240.798935,98.480217,1.1227270605276245
0.12207,1.121582,0.166992,-9.605408,225.555405,99.57122,1.1404970827178824
-0.172119,1.094482,0.257568,16.296387,238.0905,90.736382,1.1374783835787825
-0.439697,1.056396,0.254395,37.956238,249.992355,84.495537,1.1721871764569
-0.412109,1.07251,0.183594,53.657528,249.992355,80.01709,1.1635369718307194
-0.12085,1.120361,0.123779,68.328857,249.702438,77.804565,1.133637831788442
0.165527,1.143066,0.156494,90.385429,249.992355,83.816521,1.1655425518276885
0.244385,1.125244,0.212891,115.844719,249.992355,91.224663,1.1709913174921494
0.135986,1.07666,0.281982,134.361267,249.992355,94.734184,1.1212505501091181
0.017822,1.031738,0.302979,143.379211,249.992355,95.336906,1.0754520904108187
0.037109,1.01001,0.305908,148.246765,249.992355,90.042107,1.0559720557121766
0.175781,0.982178,0.330811,151.794434,249.992355,81.672661,1.0511938457610945
0.323242,0.876221,0.376709,152.603149,249.992355,74.607849,1.0070542696826223
0.415771,0.77124,0.430664,130.050659,249.992355,69.67926,0.976293062014168
0.474365,0.743896,0.407471,82.44323,249.992355,73.310852,0.9718209855122496
0.5,0.921875,0.247803,40.473934,245.788559,80.00946,1.0776176698783293
0.477783,1.119385,0.122803,34.515381,161.338791,69.320679,1.2232660994742723
0.467773,1.160889,0.141602,56.900021,19.844055,37.788391,1.259573727994515
0.487549,1.061035,0.238037,73.394775,-119.514458,-1.731872,1.1917050440419392
0.401611,0.945068,0.344482,70.81604,-242.683395,-29.20532,1.083103304523165
0.152588,0.874268,0.41333,53.260799,-249.992355,-35.606384,0.979014464892118
-0.052246,0.894287,0.413818,25.741575,-248.397812,-36.964417,0.9867746551310488
-0.130615,0.962891,0.4375,-0.564575,-249.610886,-43.289181,1.0656573586786704
-0.190186,1.006104,0.463623,-10.139464,-249.992355,-52.009579,1.123993887679555
-0.310303,1.062256,0.347412,2.281189,-249.984726,-55.313107,1.1599012281608294
-0.444092,1.015137,0.184326,28.938292,-249.984726,-48.637386,1.1232528243939561
-0.548584,0.839355,0.117676,33.01239,-233.108505,-41.976925,1.0096082715870547
-0.434814,0.770264,0.054199,-3.929138,-85.983269,-31.471251,0.8861757026081226
-0.180664,0.860596,-0.010742,-58.052059,72.402954,-8.926392,0.8794204606876054
0.031982,0.96875,-0.083984,-99.95269,149.81842,13.916015,0.9729094115486806
0.166016,1.024902,-0.001465,-109.573357,169.334396,12.741088,1.0382618013222868
0.299316,1.029541,0.060059,-103.523247,151.596069,-4.722595,1.0738490685464137
0.394287,1.027832,0.0625,-97.236626,113.960258,-9.277344,1.1026364353643499
0.381836,1.076416,0.012207,-94.28405,65.2771,-5.523681,1.1421992587990066
0.342285,1.165527,-0.088379,-87.882988,14.129638,-7.743835,1.2179585611156891
0.275879,1.2229,-0.090576,-70.1828,-26.626585,-6.385803,1.2569000136912245
0.248535,1.22876,-0.004639,-48.683163,-56.083675,1.716614,1.2536515880203718
0.273926,1.192871,0.073486,-25.840757,-79.086304,20.759581,1.226122697087449
0.306641,1.143555,0.026611,-9.780884,-100.173943,34.049988,1.184252881029639
0.227539,1.077637,0.000488,0.984192,-119.346611,32.737732,1.1013971756065113
0.088623,1.015625,0.048828,6.41632,-131.721497,24.536131,1.0206529039482521
-0.036377,0.979248,0.090088,4.150391,-132.69043,19.462585,0.9840557806227247
-0.124023,0.965576,0.091309,-2.288818,-124.90844,18.768311,0.9777811870689679
-0.181885,0.980469,0.110107,-9.017944,-113.372795,18.577576,1.0032572773895039
-0.199219,0.996582,0.119141,-12.100219,-102.188103,17.913818,1.0232587505445532
-0.166992,1.005371,0.148682,-10.414123,-90.286247,19.142151,1.0299337419606176
-0.160156,0.996826,0.133545,-10.185241,-73.96698,27.595518,1.0184037930197432
-0.186523,0.959229,0.108887,-11.169433,-55.7785,35.675049,0.9832433486879024
-0.131836,0.907471,0.165771,-12.420653,-37.101746,31.906126,0.9318607037417127
-0.058594,0.878662,0.232178,-18.844604,-19.309998,24.116514,0.9107067534415236
-0.05127,0.891846,0.243164,-29.136656,-11.749267,16.044617,0.9258221381626172
-0.070068,0.947754,0.209473,-36.956787,-16.204834,8.071899,0.9731526637013331
-0.036133,1.004883,0.142822,-39.054871,-25.535582,-1.052856,1.0156247146766368
0.047119,1.029053,0.115967,-35.316467,-34.141541,-11.047362,1.0366381345768638
0.100586,1.023193,0.119141,-30.616758,-43.16711,-17.448425,1.03500533164134
0.094727,1.012207,0.110107,-29.449461,-53.871151,-20.362852,1.022575066597558
0.075684,1.012207,0.090088,-31.22711,-65.826416,-22.186277,1.0190225348092163
0.068604,1.029053,0.053467,-36.842346,-74.028015,-24.848936,1.0327222790828132
0.086426,1.052979,0.047607,-42.434689,-78.445435,-28.976439,1.057591912963597
0.135498,1.067627,0.05249,-44.960018,-83.259575,-36.682129,1.0774703333424083
0.167969,1.061035,0.062012,-43.144222,-86.174004,-41.870113,1.0760364047419584
0.113037,1.043213,0.07373,-38.520813,-82.809441,-41.053768,1.051906288429725
0.053711,1.019531,0.120605,-31.249998,-73.71521,-37.033081,1.0280437235385467
0.090576,1.004639,0.167725,-23.54431,-60.607906,-28.053282,1.0225630580663474
0.117432,0.996826,0.156006,-16.693115,-47.500607,-13.916015,1.0157707521562136
0.093506,0.989502,0.136963,-10.002136,-38.30719,-4.875183,1.0033027675676969
0.057373,0.986572,0.141357,-4.653931,-30.960081,-2.418518,0.9982974375215034
0.074219,0.979492,0.135742,-0.846863,-24.078367,-1.930237,0.9916344732758134
0.065186,0.97168,0.158936,2.227783,-16.548157,-0.930786,0.9867481386311302
0.023926,0.955078,0.187988,4.402161,-9.391785,-0.961304,0.9736970410266225
0.028809,0.936035,0.223877,5.027771,-2.311707,-2.601623,0.9628667565322836
0.013672,0.924072,0.255859,3.364563,3.89862,-2.944946,0.9589368136895152
-0.016602,0.927979,0.27124,0.37384,6.507873,-4.249573,0.9669497341873569
-0.041504,0.948975,0.261719,-2.540588,7.377624,-5.081176,0.985278116879696
-0.064697,0.971436,0.247559,-2.89917,7.369995,-6.912231,1.00456909288809
-0.050049,0.990479,0.233887,-2.006531,6.332397,-11.070251,1.0189488115754393
-0.048828,1.005615,0.226563,-1.731872,5.699157,-13.267516,1.0319769836474066
-0.053955,1.008057,0.232422,-0.511169,6.240844,-14.747619,1.0359102486982161
-0.024902,0.999756,0.237549,1.785278,9.513855,-16.967773,1.0278918700627027
-0.004395,0.993408,0.219971,2.677917,15.144347,-17.875671,1.0174802265056555
0.002686,1.005127,0.1875,1.556396,21.865843,-17.845154,1.0224694375505803
0.016846,1.03418,0.164551,1.022339,29.113768,-17.654419,1.047324730786493
0.0271,1.063965,0.132324,1.899719,35.881042,-15.686034,1.072504346005647
0.035156,1.078613,0.099854,5.249023,41.870113,-11.787414,1.083795538568507
0.0625,1.076416,0.112793,11.276244,46.333309,-9.521484,1.0841125014983455
0.10376,1.056641,0.147949,17.196655,48.362728,-8.19397,1.0719819247925777
0.119873,1.028564,0.17041,22.14813,47.149654,-7.545471,1.0494536704042727
0.112793,0.999268,0.181152,25.672911,43.876644,-7.781982,1.0217998061151705
0.088867,0.983887,0.177246,26.084898,40.367123,-8.720398,1.0036668356451754
0.067627,0.97876,0.169434,24.131773,37.467957,-11.314391,0.9956166074774968
0.040283,0.977783,0.173584,22.415159,35.728455,-13.290404,0.9938881829632547
0.003418,0.980469,0.182373,22.224424,35.385132,-13.572692,0.9972918598955874
-0.036377,0.991455,0.196777,21.781919,36.468506,-11.749267,1.0114482146323656
-0.070068,1.013916,0.19458,21.385191,39.276123,-8.346558,1.034793001561182
-0.085205,1.034424,0.166992,22.834776,43.312069,-6.492614,1.0512750505291182
-0.090332,1.04248,0.143555,26.924131,48.286434,-7.43103,1.0561877004817846
-0.095459,1.031738,0.134033,31.86035,53.573605,-10.086059,1.044777759341191
-0.090332,1.013672,0.124268,34.103394,58.029171,-10.887145,1.0252479356877535
-0.099609,0.996826,0.111572,33.554077,62.088009,-9.529114,1.0079842946896544
-0.088135,0.990723,0.124756,31.242369,64.346313,-8.43811,1.002429000223956
-0.068115,0.999268,0.153076,27.923582,64.399719,-7.583618,1.0132168824220211
-0.055908,1.01001,0.155273,26.199339,62.32452,-7.621765,1.02340393251785
-0.051514,1.019043,0.144775,27.206419,58.914181,-8.483887,1.0305639857233515
-0.050537,1.019531,0.138672,29.441832,54.687496,-9.849548,1.0301589061470078
-0.050293,1.010254,0.126709,32.081604,51.033016,-10.848998,1.0194104674006443
-0.046387,0.988525,0.117676,33.554077,47.813412,-12.008666,0.9965847030584004
-0.04126,0.960449,0.11377,33.927917,45.783993,-14.297484,0.9680435331641857
-0.041748,0.939941,0.117188,31.661985,44.448849,-15.464782,0.9481376515722809
-0.043457,0.933838,0.129639,29.090879,42.373653,-16.365051,0.9437945705575975
-0.041992,0.947998,0.139893,25.657652,40.168758,-16.433716,0.9591838132063114
-0.047607,0.966309,0.129395,20.454405,38.322449,-14.259337,0.9760955772643374
-0.054932,0.982178,0.11499,17.913818,35.140991,-12.306212,0.9904109492569233
-0.060059,0.982666,0.117188,19.287109,31.402586,-12.611388,0.9914497356805336
-0.076172,0.974609,0.115234,20.721434,29.098509,-13.71765,0.9843494050493452
-0.092041,0.963623,0.107178,20.057678,29.144285,-14.198302,0.9739239988284506
-0.101563,0.95752,0.102783,17.745972,29.609678,-13.778686,0.9683614709693896
-0.106201,0.961426,0.093506,15.876769,31.143187,-13.916015,0.971782886200925
-0.108643,0.970459,0.086914,14.09912,32.279968,-13.954162,0.9803815662924308
-0.111816,0.985107,0.078857,12.908935,33.958435,-13.618468,0.9945637464506737
-0.106201,0.994385,0.061279,12.580871,36.529541,-13.084411,1.0019158130636525
-0.094482,1.002197,0.033936,12.062072,38.345337,-12.504577,1.007212652436912
-0.085205,1.010254,0.008789,12.008666,39.94751,-13.046264,1.013878830562114
-0.082764,1.01709,-0.010986,12.245177,41.725155,-13.961791,1.020510970049808
-0.082031,1.022217,-0.018799,12.847899,43.258663,-14.709472,1.025675427438427
-0.071777,1.028076,0.003662,13.664245,43.701168,-13.85498,1.030585081276165
-0.076172,1.036865,0.040527,13.397216,42.579647,-10.482787,1.0404487683389316
-0.090088,1.060547,0.030029,11.70349,39.253235,-6.950378,1.064789898427854
-0.113525,1.090576,0.006104,12.596129,37.132263,-5.775451,1.0964858394967991
-0.130371,1.099854,-0.002197,17.997742,36.605835,-6.118774,1.1075559786150766
-0.132813,1.089111,0.01001,24.322508,36.575317,-7.476806,1.097224800754157
-0.132324,1.065674,0.017334,29.08325,36.514282,-8.674622,1.0739977573570627
-0.122803,1.040527,0.014893,31.639097,35.247803,-9.57489,1.0478543868243337
-0.114746,1.011963,0.01123,32.051086,32.936096,-10.360717,1.0185096321513114
-0.110107,1.000732,0.015137,30.685423,29.518126,-11.749267,1.006884907048467
-0.106445,1.000977,0.007813,29.273985,26.496885,-14.167785,1.006651148870849
-0.098389,1.007568,0.000732,28.488157,23.452757,-15.792846,1.0123607093170892
-0.097656,1.002441,0.00293,28.594969,20.256041,-16.517639,1.0071907653056593
-0.100098,0.993408,0.008301,27.679441,15.983581,-17.372131,0.9984728191938926
-0.099365,0.996094,0.010254,25.688169,12.634276,-18.501282,1.0010903079028386
-0.100342,1.003418,0.013916,23.91815,10.414123,-18.829346,1.00851864372653
-0.102051,1.02124,0.025391,22.064207,9.803772,-19.599915,1.02664027150799
-0.089844,1.031494,0.014404,20.400999,9.498596,-18.852234,1.0354995372224942
-0.080566,1.039307,0.01001,19.584656,6.729125,-16.50238,1.042473079127226
-0.084717,1.037354,0.010742,21.102903,4.394531,-16.311646,1.0408629506178997
-0.083984,1.021484,-0.000244,23.223875,2.723694,-17.219543,1.0249306971927419
-0.07251,0.999756,-0.005859,23.15521,1.220703,-16.456604,1.0023991657603273
-0.067627,0.984375,-0.011963,20.797728,0.053406,-13.572692,0.9867677868287958
-0.071777,0.974609,-0.014648,17.662048,-1.754761,-10.177611,0.9773582784803124
-0.06958,0.976563,-0.019287,13.786315,-5.485534,-8.422852,0.9792286034108685
-0.072754,0.98999,-0.032471,9.742737,-10.620116,-8.338928,0.9931906717529118
-0.077881,1.000732,-0.045166,6.469726,-17.211914,-8.735657,1.0047735832221107
-0.086182,1.002686,-0.047852,4.051208,-25.199888,-8.918762,1.0075199083015678
-0.103271,1.000488,-0.055908,1.823425,-33.149719,-9.353638,1.007356362986307
-0.123779,0.990479,-0.054688,0.061035,-39.367676,-10.765075,0.9996802827034251
-0.13623,0.983154,-0.056396,-2.189636,-43.54858,-12.161254,0.9941483337168553
-0.150635,0.981934,-0.031494,-4.623413,-46.249386,-11.550902,0.9939200951872338
-0.178955,0.987549,-0.00293,-6.774902,-47.904964,-9.239197,1.0036366395892489
-0.204834,1.000488,-0.011475,-7.736206,-47.744747,-7.217407,1.0213054789459421
-0.224854,1.010498,-0.028564,-7.148742,-45.112606,-6.538391,1.0356067938247604
-0.245605,1.005615,-0.033203,-5.058288,-39.367676,-6.683349,1.0357054520755407
-0.260254,0.986572,-0.02832,-1.831055,-29.609678,-6.54602,1.0207146898619615
-0.263184,0.96875,-0.028076,-1.037598,-17.89856,-5.729675,1.0042562631778802
-0.262207,0.959229,-0.030029,-1.922607,-5.966186,-4.447937,0.9948741257722004
-0.259277,0.957764,-0.026611,-2.937317,5.485534,-2.868652,0.9925948759418416
-0.242432,0.963867,-0.014404,-3.707886,14.86206,-1.899719,0.9939921244803703
-0.218506,0.973389,-0.007813,-3.677368,21.240232,-1.533508,0.9976432530348711
-0.197754,0.978271,-0.010254,-2.494812,24.131773,-1.602173,0.998111185426253
-0.190186,0.976563,-0.009766,-1.022339,24.215696,-1.907349,0.99495798017856
-0.191162,0.974854,-0.002197,-0.282288,22.811888,-2.296448,0.9934223967522576
-0.184814,0.970703,-0.006836,-0.869751,20.706175,-2.906799,0.9881635794244797
-0.185303,0.983398,-0.018555,-2.868652,18.371582,-3.303528,1.000876174278317
-0.191406,1.002197,-0.029541,-4.417419,16.906738,-3.700256,1.0207388276763063
-0.198486,1.024902,-0.029297,-6.17218,17.250061,-4.203796,1.0443558378297122
-0.198242,1.046387,-0.022461,-7.194519,19.439697,-5.195617,1.0652371289313942
-0.188965,1.056641,-0.02002,-7.225036,21.507261,-5.523681,1.0735915305673756
-0.181396,1.056641,-0.015137,-6.904602,21.972654,-4.127502,1.072205129845031
-0.178711,1.049805,-0.004883,-6.355285,20.88928,-3.677368,1.0649187777642952
-0.187744,1.043213,0.002686,-5.256652,20.217894,-4.859924,1.0599756542020198
-0.185791,1.031006,0.003662,-4.737854,20.591734,-5.516052,1.0476187655635996
-0.183838,1.023926,0.001709,-5.126953,21.675108,-5.264282,1.0402998531197627
-0.18042,1.013428,-0.002441,-4.966736,23.345945,-5.577087,1.0293656522659962
-0.177002,1.003174,-0.002197,-4.760742,25.138853,-6.523132,1.0186719830686422
-0.170654,0.994629,0.005859,-4.722595,27.206419,-7.659912,1.0091798468251336
-0.160645,0.985107,0.009766,-5.264282,28.411863,-8.201599,0.9981673167510544
-0.153564,0.983643,0.003418,-6.057739,29.090879,-8.522034,0.9955637278793358
-0.152588,0.976074,-0.001221,-5.996704,29.273985,-9.063721,0.987929674653515
-0.145752,0.965332,0.003174,-5.744934,28.694151,-10.108947,0.976278438768367
-0.133057,0.949463,0.006104,-5.989074,27.725218,-10.45227,0.9587603519305541
-0.122559,0.949219,0.002441,-7.522583,26.222227,-9.69696,0.9571015499532952
-0.121094,0.956787,-0.013184,-9.284973,25.451658,-8.056641,0.9645096879041704
-0.121826,0.968994,-0.027344,-10.345458,25.505064,-6.225585,0.9770049337889752
-0.111816,0.978027,-0.039307,-10.055541,26.321409,-4.371643,0.9851825571101023
-0.098633,0.98584,-0.045166,-10.017395,26.229856,-1.63269,0.9917907752368944
-0.091553,0.996338,-0.047119,-9.45282,24.490355,0.801086,1.0016444290335766
-0.085205,0.998535,-0.052734,-8.041382,20.88928,2.220154,1.0035501547037897
-0.084717,0.996826,-0.063232,-6.401062,15.380858,3.784179,1.0024157471772877
-0.0896,0.996582,-0.061523,-5.119323,8.81958,4.867554,1.002491357694918
-0.092285,0.994629,-0.056396,-3.738403,1.960754,5.226135,1.0004918178985773
-0.093506,0.990723,-0.057861,-2.716064,-5.66101,6.599426,0.9968065660327484
-0.105713,0.997314,-0.049805,-2.540588,-14.198302,7.507324,1.0041369383654801
-0.123291,1.003418,-0.04541,-1.853943,-21.919249,6.835937,1.011983409698499
-0.133545,1.003906,-0.048828,-0.434875,-28.923033,6.866455,1.0139258836054044
-0.152588,1.005127,-0.041016,0.007629,-34.835815,6.584167,1.0174702433629201
-0.174316,1.01001,-0.048584,-0.915527,-39.169312,5.119323,1.0260929163638155
-0.182861,1.014893,-0.057129,-2.082825,-43.266293,3.440857,1.0328163773929033
-0.188477,1.021484,-0.044922,-2.120972,-48.33984,1.594543,1.0396976136689937
-0.202393,1.022949,-0.044189,-1.731872,-53.138729,-0.587463,1.0437146404889606
-0.21875,1.021729,-0.042969,-1.068115,-56.259151,-2.090454,1.0457667268095694
-0.232422,1.019287,-0.038574,-0.556946,-56.991573,-2.944946,1.0461615209560138
-0.241943,1.02002,-0.030518,-0.564575,-55.320736,-3.601074,1.0487652568487382
-0.248779,1.013916,-0.024658,-0.442505,-51.841732,-3.616333,1.0442818886014447
-0.254883,1.008789,-0.022217,0.144958,-46.257015,-3.128052,1.0407277190980357
-0.259766,1.00293,-0.015625,0.549316,-38.673401,-3.005981,1.0361424131271724
-0.258789,0.99707,-0.007568,0.686645,-30.448912,-2.845764,1.0301347514014854
-0.251465,1.000244,-0.009521,0.404358,-23.178099,-2.14386,1.0314132805049583
-0.246338,1.002441,-0.017822,0.457764,-18.211365,-1.350403,1.0324185161110777
-0.240479,1.003662,-0.0271,1.38092,-15.457152,-0.839233,1.032425285279763
-0.234131,0.998779,-0.034668,2.426147,-14.305114,-1.083374,1.0264398113021533
-0.22998,0.989502,-0.034912,2.700805,-14.495849,-1.747131,1.0164761955638706
-0.226318,0.983398,-0.04126,2.296448,-14.900207,-2.281189,1.0099474496863685
-0.227783,0.97998,-0.041016,1.564026,-15.037536,-2.937317,1.0069400219203724
-0.233154,0.984619,-0.040283,0.968933,-14.396667,-4.089355,1.0126490423468537
-0.238281,0.991699,-0.035889,0.724792,-12.321471,-5.378723,1.0205551243725153
-0.23999,0.997314,-0.033447,1.060486,-8.926392,-5.599975,1.0263279770643494
-0.23999,0.999268,-0.034912,1.655578,-4.989624,-4.852295,1.0282755387871483
-0.239502,0.996582,-0.033203,1.998901,-1.365662,-3.570556,1.0254946757233798
-0.242676,0.993896,-0.031982,1.747131,2.120972,-2.449036,1.0235935463434693
-0.245605,0.992676,-0.028809,1.533508,6.095886,-1.792908,1.0230138882156
-0.241455,0.986084,-0.02832,1.281738,10.246276,-0.823975,1.0156102571759502
-0.240723,0.982666,-0.025879,0.549316,14.389037,0.244141,1.0120522481206196
-0.241699,0.98291,-0.026123,-0.114441,18.669128,0.976562,1.0125279679248371
-0.241943,0.982178,-0.024414,-0.579834,22.956846,1.441955,1.0118330308548935
-0.236816,0.987061,-0.021973,-1.022339,26.374815,2.052307,1.0153098287252025
-0.230957,0.991211,-0.023926,-1.823425,28.419493,2.616882,1.0180436316023003
-0.227539,0.990479,-0.031006,-2.311707,28.465269,2.708435,1.0167516992845402
-0.228027,0.989258,-0.032227,-2.189636,26.931761,2.166748,1.0157097433922744
-0.229004,0.982422,-0.027832,-2.059937,24.986265,0.968933,1.0091434181145909
-0.222656,0.979248,-0.025146,-1.89209,22.598265,-0.495911,1.0045569476918668
-0.221924,0.977783,-0.024902,-1.518249,20.26367,-1.960754,1.0029606006563767
-0.224365,0.980469,-0.024658,-1.548767,18.028259,-3.456115,1.0061148692619546
-0.224609,0.991943,-0.019775,-1.609802,16.014099,-4.760742,1.017246857333558
-0.223633,1.006104,-0.019287,-1.12915,14.404296,-6.141662,1.0308389621439424
-0.225586,1.020508,-0.018555,-0.473022,12.878417,-7.255554,1.0453085235876536
-0.226563,1.035889,-0.012207,0.602722,11.383056,-8.522034,1.0604460496126147
-0.227783,1.038574,-0.015381,2.571106,10.025024,-10.169982,1.0633708777872375
-0.22876,1.031738,-0.015381,4.875183,8.842468,-11.642455,1.056906340885984
-0.226318,1.020996,-0.008789,6.622314,7.80487,-13.099669,1.0458154309728844
-0.225342,1.010986,-0.00293,6.958007,6.958007,-14.411925,1.0357993502894274
-0.224854,1.013428,-0.000244,6.782531,6.446838,-15.434264,1.0380730668098463
-0.218018,1.019287,0.004639,7.011413,5.584716,-16.677856,1.0423527987269954
-0.216309,1.020264,0.007324,7.850646,4.631042,-18.104553,1.0429678106983935
-0.210205,1.015625,0.006104,8.781433,3.479004,-19.729614,1.0371680391653033
-0.20874,1.011475,0.007324,9.277344,1.922607,-21.446226,1.0328154260084421
-0.211182,1.005371,0.005859,9.307861,1.060486,-22.857664,1.02732809396317
-0.210938,0.996094,0.004639,9.132385,0.831604,-23.834227,1.0181942923632012
-0.208252,0.991943,0.006104,8.544922,1.098633,-24.482725,1.0135862418013575
-0.205078,0.98999,0.005371,7.919311,1.518249,-24.810789,1.0110222716760497
-0.198242,0.986816,0.006592,7.484436,1.64032,-24.864195,1.0065531098178577
-0.193604,0.985107,0.012207,7.202148,1.457214,-24.635313,1.0040255579984008
-0.190674,0.984131,0.01416,7.225036,1.045227,-24.215696,1.0025322463826287
-0.188232,0.987549,0.015869,6.767272,0.549316,-23.574827,1.0054532004951797
-0.189453,0.995605,0.01416,6.225585,0.167847,-22.392271,1.0135690705788136
-0.19043,1.000488,0.014893,5.943298,-0.015259,-20.89691,1.0185586014034735
-0.188232,1.006104,0.013184,5.630493,-0.1297,-19.554138,1.0236456234928182
-0.183105,1.011719,0.008057,5.691528,-0.587463,-18.600464,1.0281866033143012
-0.182617,1.009033,0.010254,5.91278,-1.571655,-17.463684,1.025476332390953
-0.181641,1.006348,0.01416,5.905151,-2.693176,-16.159058,1.0227073166771616
-0.178955,0.999268,0.015381,5.508422,-3.692627,-15.037536,1.0152822282547844
-0.177979,0.997314,0.015381,4.859924,-4.737854,-13.931273,1.013187205899285
-0.177734,0.997803,0.014893,4.165649,-5.821228,-12.802123,1.0136182728295697
-0.180176,0.997314,0.013672,3.738403,-6.790161,-11.787414,1.0135509504489648
-0.181885,0.995361,0.014893,3.082275,-7.324218,-11.177062,1.0119523086563913
-0.178711,0.997559,0.012695,2.510071,-7.545471,-10.375976,1.0135199766294694
-0.176514,0.992432,0.012939,2.082825,-7.263183,-9.544373,1.0080902164692405
-0.176758,0.986084,0.011963,1.518249,-7.118225,-8.628845,1.0018723266908813
-0.174316,0.980957,0.012695,0.831604,-7.118225,-7.598876,0.9964054730530136
-0.171631,0.973633,0.009033,0.091553,-7.324218,-6.576538,0.9886860037135147
-0.167725,0.968262,0.009766,-0.785828,-7.6828,-5.279541,0.9827300499246983
-0.165527,0.963379,0.003418,-1.945495,-8.247375,-3.890991,0.977501901836513
-0.16626,0.962158,-0.000244,-3.128052,-8.880615,-2.128601,0.9764171568033818
-0.165771,0.966309,-0.003418,-4.631042,-9.765625,0.045776,0.9804309208944809
-0.167969,0.9729,-0.011963,-6.134033,-10.917663,2.326965,0.9873657419264656
-0.176514,0.981201,-0.019043,-6.828308,-12.260436,4.798889,0.9971335068314573
-0.181152,0.981934,-0.022949,-6.820678,-13.59558,7.240295,0.9987677828509488
-0.182129,0.981689,-0.021973,-6.896972,-15.304564,9.69696,0.9986826713681378
-0.182373,0.983398,-0.022705,-6.858825,-17.242432,12.481688,1.000423437629287
-0.184326,0.983887,-0.02417,-6.523132,-19.058228,14.98413,1.0012961060270833
-0.191895,0.984131,-0.03125,-6.072998,-20.774839,16.555786,1.0031520715654232
-0.202393,0.989746,-0.033691,-5.729675,-22.209166,18.028259,1.010789371949468
-0.205811,0.995361,-0.032715,-5.218505,-23.132322,19.615173,1.0169424562220815
-0.207764,1.005615,-0.028076,-4.478455,-23.941038,21.133421,1.0272369102096166
-0.213623,1.009521,-0.027832,-3.471374,-24.742125,22.384642,1.0322509655088727
-0.222412,1.01001,-0.03125,-1.945495,-25.878904,23.16284,1.0346805595660913
-0.227295,1.006104,-0.033691,-0.343323,-26.618956,23.277281,1.0320093794738496
-0.236816,0.999512,-0.026123,0.846863,-27.160643,23.200987,1.0275156773154364
-0.241943,0.992676,-0.022217,1.106262,-27.06909,23.239134,1.0219763457702924
-0.249268,0.99707,-0.020752,0.63324,-26.229856,23.582457,1.0279658390374653
-0.258545,1.003418,-0.016602,-0.1297,-24.520872,23.818968,1.0363246721722879
-0.264648,1.012939,-0.014404,-0.801086,-22.293089,23.910521,1.0470393769295403
-0.270508,1.017578,-0.01709,-0.572205,-19.592285,23.506163,1.05305822832738
-0.274658,1.016846,-0.016846,0.030518,-16.571045,22.598265,1.0534213745676513
-0.275635,1.012451,-0.012695,0.457764,-13.458251,21.453856,1.0493773599859109
-0.278809,1.012695,-0.010742,0.434875,-10.31494,20.39337,1.0504289657420913
-0.275391,1.011475,-0.013428,0.488281,-7.743835,19.302368,1.0483807465277106
-0.27417,1.010254,-0.016113,0.961304,-5.935668,18.02063,1.0469202272308047
-0.27124,1.007324,-0.017822,1.747131,-5.210876,16.334534,1.0433553576131191
-0.267822,1.000977,-0.017578,2.510071,-5.172729,14.587401,1.036336125152935
-0.262695,0.995361,-0.016846,3.250122,-5.928039,12.771605,1.0295804830424866
-0.253174,0.99292,-0.017578,3.974914,-7.896423,10.543822,1.0248395907457908
-0.250488,0.98999,-0.016602,4.585266,-10.459899,8.262634,1.021322703482107
-0.249023,0.991943,-0.012939,4.867554,-13.961791,5.966186,1.0228053517160536
-0.245117,0.99292,-0.013428,5.233764,-18.234253,3.723144,1.0228161033504508
-0.236572,0.993652,-0.010986,6.034851,-22.964476,1.304626,1.0214848508343135
-0.234619,0.992188,-0.008545,7.080078,-27.915953,-0.907898,1.019586249186404
-0.237793,0.986328,-0.003174,8.026123,-32.25708,-2.975464,1.0145927797441692
-0.23999,0.986328,-0.002686,8.056641,-35.331726,-4.707336,1.0151085352217268
-0.240479,0.992676,-0.004395,7.80487,-37.010193,-5.53894,1.0213986031133977
-0.250732,0.993896,-0.004883,7.637023,-37.30011,-6.004333,1.0250461639989685
-0.26001,0.988281,-0.003662,7.781982,-36.071777,-6.683349,1.0219187567047587
-0.262207,0.981445,-0.003906,7.965087,-33.363342,-6.904602,1.0158750197292972
-0.266602,0.977539,-0.003906,7.6828,-29.060362,-6.149292,1.013249416363513
-0.274658,0.976563,-0.01001,6.41632,-23.254393,-4.91333,1.0145011138648394
-0.280518,0.97876,-0.016357,4.776001,-16.319275,-3.784179,1.0182971262716005
-0.280762,0.986084,-0.020264,3.303528,-8.857727,-2.792358,1.0254752973114467
-0.262695,0.986084,-0.011719,2.204895,-1.602173,-2.14386,1.020542822737978
-0.233643,0.980957,-0.013672,0.793457,4.096985,-1.281738,1.0084902631567645
-0.21582,0.97876,-0.014648,-0.007629,7.476806,0.152588,1.0023791567585592
-0.224365,0.978271,-0.02002,-0.274658,10.292052,1.00708,1.0038698138035629
-0.230225,0.98999,-0.027588,-0.747681,13.252257,1.144409,1.0167816129676028
-0.227295,1.001465,-0.030029,-1.205444,16.00647,1.197815,1.0273737898598543
-0.2229,1.009033,-0.030762,-0.930786,17.921448,1.029968,1.0338173464074785
-0.219482,1.016602,-0.033936,-0.030518,18.440247,0.480652,1.0405785058437447
-0.223389,1.026611,-0.033691,1.205444,18.157959,-0.38147,1.0511745212489694
-0.218262,1.025146,-0.026123,2.571106,16.88385,-1.716614,1.048448870040404
-0.204346,1.016113,-0.030762,4.631042,14.762877,-3.463745,1.0369133122537293
-0.200684,1.009766,-0.035156,7.110595,13.015746,-5.180358,1.030115229936923
-0.202881,1.004639,-0.033691,9.864807,12.939452,-6.881713,1.0254732097734196
-0.204102,1.002441,-0.03833,11.772155,13.702392,-7.93457,1.0237259270844907
-0.198975,1.003906,-0.042236,13.732909,13.252257,-8.987427,1.0243057098137254
-0.182861,1.003906,-0.044922,15.426635,10.528563,-10.185241,1.0214124476630386
-0.168701,1.008545,-0.048584,16.090393,5.241394,-10.520934,1.023710627805534
-0.166504,1.01416,-0.05249,15.99121,-1.838684,-10.635375,1.0290769104960036
-0.164795,1.009277,-0.055176,16.448975,-9.468079,-11.70349,1.0241297992588634
-0.163086,0.994385,-0.040283,16.517639,-16.830444,-13.252257,1.0084747352859167
-0.162842,0.980469,-0.037354,14.999389,-24.063108,-13.923644,0.9946015776385034
-0.171631,0.978027,-0.040771,12.634276,-30.166624,-13.603209,0.9938089792968263
-0.184082,0.982666,-0.035645,10.414123,-33.653259,-12.901305,1.0003945303254111
-0.195557,0.986084,-0.033447,8.331299,-34.339905,-11.96289,1.0058443702253346
-0.207031,0.988037,-0.0354,7.347106,-32.150269,-10.673522,1.0101148985783746
-0.212402,0.986572,-0.041992,6.385803,-28.053282,-8.682251,1.0100506169752088
-0.208984,0.980225,-0.03833,5.371093,-23.071287,-6.41632,1.0029878123790936
-0.201416,0.970703,-0.033447,3.890991,-18.737793,-3.90625,0.9919432549667344
-0.199707,0.9646,-0.031494,2.250671,-15.624999,-1.647949,0.985559697778374
-0.199707,0.956299,-0.025635,0.62561,-13.732909,-0.068665,0.9772654790152981
-0.20459,0.955811,-0.025146,-1.38092,-13.130187,1.426697,0.9777852817142422
-0.210449,0.967529,-0.022949,-3.364563,-13.351439,2.883911,0.9904179946078323
-0.208984,0.977295,-0.012939,-4.554749,-13.359069,4.371643,0.9994734848919206
-0.206055,0.976807,-0.015137,-4.745483,-13.633727,5.958557,0.9984186031134437
-0.217285,0.979248,-0.022949,-3.807068,-13.34381,7.514953,1.0033275005350943
-0.233643,0.984619,-0.029785,-2.365112,-10.749816,8.621216,1.0123985247100076
-0.238525,0.983887,-0.031006,-1.487732,-6.149292,9.681702,1.0128618743096218
-0.232666,0.990723,-0.030029,-1.38092,-1.747131,10.82611,1.0181194778246805
-0.221191,0.996582,-0.031494,-0.862122,0.75531,11.505126,1.0213192513807814
-0.211182,1.000977,-0.03125,-0.236511,0.457764,10.963439,1.0234888148646277
-0.20459,1.003662,-0.022949,0.030518,-3.173828,10.025024,1.0245589953462904
-0.199463,1.001465,-0.02124,0.358582,-8.682251,9.155273,1.0213563394790284
-0.20752,0.997803,-0.033203,0.579834,-14.320373,8.537292,1.019694962436316
-0.226074,0.998535,-0.035889,1.159668,-17.906189,7.781982,1.0244362449767188
-0.244385,1.0,-0.037842,1.571655,-17.539978,7.369995,1.0301242862824855
-0.251709,1.003906,-0.041748,1.716614,-14.167785,7.621765,1.0358221724895638
-0.24707,1.000488,-0.044922,1.960754,-9.895325,7.942199,1.0315220836841061
-0.236084,0.999023,-0.045654,2.105713,-7.209777,8.010864,1.027553841558193
-0.22876,0.997314,-0.048828,2.410889,-6.408691,7.659912,1.0243781166053871
-0.223633,0.998291,-0.042725,2.815246,-7.583618,6.965637,1.0239248336645617
-0.218262,0.998535,-0.042236,3.501892,-10.589599,6.217956,1.0229830529216992
-0.2146,0.996826,-0.049072,4.646301,-14.038085,5.943298,1.0208444031584833
-0.224365,0.994141,-0.052246,5.66864,-13.999938,5.973815,1.0204830354405703
-0.248291,0.989258,-0.052246,5.607605,-8.728027,6.301879,1.0212783439205004
-0.260986,0.984131,-0.057617,4.600525,-0.335693,6.828308,1.0197780327335944
-0.252441,0.986816,-0.054932,3.868103,8.178711,8.285522,1.020073429200565
-0.236572,0.986816,-0.056152,3.341675,14.633178,9.895325,1.0163292656142497
-0.227051,0.989502,-0.061523,2.792358,17.990112,10.368346,1.0170798612370613
-0.21582,0.988281,-0.061768,2.761841,18.577576,10.086059,1.013455915758056
-0.210205,0.987305,-0.05957,2.601623,17.51709,9.407043,1.011190333196476
-0.209473,0.984375,-0.062256,2.128601,14.98413,8.468628,1.008339668906267
-0.202637,0.987549,-0.055176,1.480102,11.520385,6.950378,1.009633186927807
-0.188721,0.993408,-0.042236,0.617981,7.316589,4.928589,1.0120567918852181
-0.19751,0.994873,-0.02832,0.709534,2.983093,3.417969,1.014684437955466
-0.231201,0.99585,-0.02832,1.541138,1.037598,3.074646,1.0227282861547342
-0.256348,0.998535,-0.0354,2.433777,4.585266,4.150391,1.031522953369919
-0.259521,0.997314,-0.045166,2.937317,12.596129,5.432128,1.0315165202714884
-0.249512,0.992676,-0.053467,3.65448,20.774839,5.561828,1.0249490715196536
-0.237305,0.988281,-0.047607,4.722595,26.672361,5.187988,1.0174868178187861
-0.217529,0.984863,-0.041504,5.203247,30.059813,4.981995,1.009453603008083
-0.202148,0.98877,-0.046143,5.149841,31.311033,5.264282,1.0102767458736244
-0.196045,0.998535,-0.056152,4.959106,32.051086,5.401611,1.0191461305200546
-0.212646,1.004395,-0.046875,4.798889,34.805298,4.943848,1.0277280296683553
-0.227051,1.004395,-0.042969,4.402161,40.023804,4.150391,1.0306346625196534
-0.210693,1.006104,-0.056885,4.608154,45.761105,4.371643,1.0295011910095104
-0.186768,0.999268,-0.05957,5.271911,50.514217,5.691528,1.0183159659693057
-0.1604,0.995117,-0.06665,4.905701,53.138729,5.989074,1.0101624751439742
-0.135498,0.999756,-0.072021,4.371643,52.909847,4.547119,1.0114636879201349
-0.107666,1.001221,-0.075195,3.013611,49.377438,1.25885,1.009796883745439
-0.101563,0.998779,-0.067627,0.205994,43.075558,-3.868103,1.0062047231746627
-0.110596,0.996826,-0.054688,-2.197266,33.39386,-7.240295,1.0044323405964188
-0.134033,0.992676,-0.044922,-3.936767,22.605894,-8.605957,1.0026906163662848
-0.167236,0.997314,-0.062012,-5.683898,11.726378,-10.665893,1.0131379878555535
-0.18042,1.014404,-0.077148,-4.226685,3.074646,-12.96234,1.0332079488273405
-0.183594,1.021973,-0.07373,0.473022,-1.190186,-13.389586,1.0409474926551292
-0.185547,1.020996,-0.078369,4.814148,-1.472473,-13.145446,1.0406739265427958
-0.168701,1.013916,-0.079834,7.347106,1.068115,-13.885497,1.0309506050306194
-0.1604,1.011475,-0.083496,8.270264,5.218505,-15.274047,1.0275122469542637
-0.145508,1.022217,-0.098145,7.705688,7.080078,-16.181946,1.0371753054223765
-0.122559,1.037354,-0.080322,3.219604,7.125854,-12.96997,1.0476524488020826
-0.17041,1.042725,-0.097656,-4.981995,5.195617,-1.25885,1.0610615854232968
-0.223877,0.994629,-0.129395,-6.912231,1.014709,6.393432,1.0276919892628336
-0.212158,0.942871,-0.098389,-1.663208,0.50354,-0.663757,0.9714407521439483
-0.158447,0.956055,-0.053711,-5.203247,1.89209,-1.960754,0.9705830651495008
-0.168945,1.009521,-0.112305,-24.42169,0.473022,17.845154,1.0297026150743718
-0.196533,1.012451,-0.18457,-39.535522,-5.783081,30.067442,1.0477348578671992
-0.184814,0.97168,-0.11499,-39.764404,-10.32257,20.217894,0.9957614860477383
-0.158936,0.929932,-0.03833,-35.919189,-17.059326,11.627196,0.9441945591984736
-0.109619,0.923096,-0.038818,-32.646179,-26.206968,13.633727,0.9303920611768999
-0.078613,0.95166,-0.07251,-28.274534,-31.555174,18.447876,0.9576504892020887
-0.063232,0.990479,-0.076416,-24.330137,-34.126282,20.118711,0.9954327402295948
-0.056152,1.01416,-0.047852,-21.278379,-33.462524,18.203735,1.0168398923173696
-0.07373,1.022461,-0.028809,-17.356873,-28.366087,15.159606,1.0255206326066775
-0.107666,1.01709,-0.026855,-10.887145,-21.705626,14.587401,1.0231252253175074
-0.138672,1.021973,-0.039551,-5.821228,-16.777039,16.242981,1.0320964189037767
-0.18042,1.049072,-0.082031,-6.256103,-13.84735,20.202635,1.0676293938183794
-0.22583,1.075195,-0.11377,-9.147644,-14.656066,24.337767,1.1045302575416391
-0.200684,1.065674,-0.090332,-7.652282,-20.500181,24.688719,1.0881612988688765
-0.149902,1.025635,-0.031006,-2.799988,-25.062559,23.513792,1.0369952434148384
-0.142334,0.988037,-0.004639,-0.976562,-26.374815,22.918699,0.9982472645822777
-0.12207,0.983887,-0.000732,-2.220154,-25.779722,22.087095,0.9914309100956051
-0.122803,0.999268,-0.001953,-5.317688,-22.300718,20.698545,1.0067874288259662
-0.135742,1.020508,-0.000488,-8.255005,-19.714355,16.822815,1.0294963364538992
-0.131348,1.034912,0.011719,-7.957458,-20.446775,12.4588,1.0432796747799702
-0.11792,1.027832,0.026123,-5.332946,-24.009703,9.20105,1.0349039364854113
-0.121094,1.026855,0.03418,-3.822326,-27.969358,7.278442,1.0345352677705095
-0.1604,1.035889,-0.002197,-3.852844,-31.326292,7.461547,1.0482361409195926
-0.189209,1.035156,-0.016602,-0.915527,-31.219481,9.338379,1.0524369892877197
-0.186523,1.019775,0.002686,4.28772,-23.399351,11.726378,1.0366962403471907
-0.165283,1.002441,0.004395,7.698059,-14.038085,13.023376,1.0159851104199311
-0.131104,0.987793,0.008545,8.392334,-9.727478,12.397765,0.9964919902788983
-0.113037,0.98291,0.0271,7.30133,-9.010315,11.970519,0.9897594866779504
-0.115723,0.986084,0.024658,4.379272,-8.720398,12.657165,0.9931573313171483
-0.10083,0.986084,0.030273,1.197815,-9.483337,12.016295,0.9916878533515473
-0.084961,0.974121,0.049316,-0.595093,-11.482238,10.19287,0.9790618785439458
-0.082275,0.962891,0.059814,-1.365662,-14.633178,8.926392,0.96824891846157
-0.106689,0.965332,0.045654,-1.76239,-16.433716,8.285522,0.9722822124573708
-0.13208,0.989014,0.006836,-1.556396,-16.815186,7.087707,0.9978178939525989
-0.122803,1.013916,-0.007324,-0.160217,-16.525269,4.333496,1.0213519828350068
-0.11499,1.028076,-0.024902,0.198364,-16.532898,3.089905,1.0347864859380411
-0.125732,1.0271,-0.037109,-0.930786,-18.432617,3.860473,1.0354322883245433
-0.131836,1.014404,-0.01416,-2.082825,-20.317076,5.302429,1.0230330941430976
-0.1521,1.00415,0.011475,-4.40979,-17.707825,8.834839,1.0156688968975076
-0.151855,0.998291,0.032959,-6.614685,-11.726378,11.917113,1.0103124058364323
-0.137207,1.008057,0.0271,-6.645202,-4.585266,12.191772,1.0177126736451698
-0.112793,1.025879,0.004639,-4.547119,-0.267029,11.322021,1.032071462550438
-0.071289,1.031738,-0.009521,-1.678467,0.244141,9.605408,1.0342417858537722
-0.057373,1.019775,-0.033447,0.411987,-1.487732,6.492614,1.0219351317784315
-0.068115,1.004395,-0.036377,0.999451,-5.317688,3.356933,1.0073590498819176
-0.062256,0.98999,-0.014893,-0.007629,-8.674622,2.388,0.9920573627996518
-0.074951,0.986084,0.000244,-2.624511,-9.643555,3.341675,0.9889283932585816
-0.101807,0.998047,-0.005615,-5.065917,-10.223388,3.707886,1.0032417493720045
-0.11084,1.02002,-0.016846,-5.638122,-10.375976,4.127502,1.0261628007855284
-0.092773,1.026123,-0.011475,-3.65448,-10.612487,3.486633,1.0303722222007927
-0.06665,1.018555,-0.00415,-1.045227,-12.069701,1.403808,1.0207417562855945
-0.073242,1.013184,-0.002197,-0.717163,-13.534545,0.793457,1.0158302196868334
-0.116455,1.014648,0.001465,-1.983642,-11.337279,3.128052,1.021310176760224
-0.137207,1.019043,0.007568,-2.304077,-5.783081,5.683898,1.0282663425990368
-0.130615,1.025879,0.011719,-1.525879,1.777649,6.752014,1.0342269266592319
-0.114014,1.0271,0.016602,1.045227,7.240295,5.546569,1.0335420787757021
-0.090576,1.017822,0.021484,3.967285,7.972717,2.784729,1.0220700551899562
-0.084473,1.004639,0.025879,4.257202,4.554749,0.724792,1.0085162024930487
-0.098877,1.000244,0.019043,1.243591,-0.366211,-0.076294,1.0052996351904242
-0.111572,1.005615,0.030273,-1.899719,-2.372742,-0.473022,1.0122382594715533
-0.107178,1.006592,0.051514,-2.26593,-0.762939,-0.999451,1.0135917671054753
-0.096924,0.997559,0.056396,-0.778198,2.105713,-0.457764,1.003841984115528
-0.082275,0.982666,0.057861,1.708984,4.600525,0.198364,0.9878003535644235
-0.058838,0.968994,0.056641,4.02832,5.889892,0.75531,0.9724296813451346
-0.040527,0.962158,0.050781,4.325867,4.91333,0.87738,0.9643490885846265
-0.047607,0.966553,0.040283,2.113342,2.723694,-0.198364,0.9685627746031745
-0.054932,0.986572,0.040527,-1.296997,-0.450134,-1.464844,0.988930873993223
-0.083984,1.008301,0.032715,-4.936218,-2.571106,-0.045776,1.0123213373637838
-0.098389,1.022949,0.043457,-6.355285,-4.638672,0.534058,1.0285881404969632
-0.088379,1.02002,0.054443,-4.486084,-5.073547,0.671387,1.0252881001406384
-0.087646,1.010986,0.050781,-0.930786,-2.807617,1.876831,1.0160478450707917
-0.08374,1.007324,0.033936,0.213623,0.724792,3.440857,1.0113682220991522
-0.079346,1.009277,0.019775,-0.648498,5.0354,5.310058,1.0125842686265671
-0.074951,1.005371,0.016846,-1.602173,7.339477,5.546569,1.008301684892969
-0.060791,1.000488,0.029297,-2.830505,6.500244,4.394531,1.00276123680266
-0.045654,0.999756,0.038574,-4.951477,3.77655,4.005432,1.0015409630803924
-0.036377,1.003906,0.044189,-7.080078,0.305176,3.013611,1.005536280144083
-0.049072,1.014893,0.032959,-8.789063,-2.952575,1.800537,1.0166130819116979
-0.05957,1.023682,0.025146,-8.743286,-5.241394,0.450134,1.0257220594976009
-0.040527,1.021484,0.034912,-6.591796,-5.66864,-1.159668,1.0228835944177619
-0.023193,1.007324,0.034668,-4.264832,-5.203247,-1.075745,1.0081871981179884
-0.029541,1.000244,0.036865,-4.150391,-5.104064,0.091553,1.0013589558405116
-0.043701,1.005371,0.036377,-5.783081,-4.829407,0.396728,1.006977612050536
-0.05249,1.016846,0.038086,-5.966186,-3.250122,1.342773,1.0189119349639593
-0.052246,1.01709,0.037109,-4.737854,-1.075745,2.182007,1.0191068592139885
-0.0354,1.008789,0.03833,-2.754211,-0.427246,1.487732,1.0101374141278996
-0.039795,1.000244,0.041504,-1.960754,-0.968933,0.37384,1.0018953456209885
-0.044189,1.000244,0.0354,-3.158569,-3.059387,-0.595093,1.0018452411710104
-0.063721,1.004395,0.019775,-5.142211,-5.294799,-0.663757,1.006608529911703
-0.061279,0.996338,0.029541,-4.928589,-6.752014,-1.419067,0.9986576974949924
-0.052734,0.980225,0.038818,-4.226685,-7.225036,-1.64032,0.9824096714227726
-0.070313,0.973389,0.041748,-5.455017,-7.781982,0.038147,0.976817771538786
-0.078613,0.977539,0.040283,-7.446289,-7.690429,2.204895,0.9815218899133121
-0.072754,0.984375,0.039063,-8.972168,-5.363464,3.379822,0.9878325784817993
-0.068848,0.983887,0.0354,-9.735107,-3.39508,2.89154,0.9869279790709147
-0.051514,0.976563,0.048096,-9.750366,-3.570556,1.457214,0.9791027578252447
-0.051514,0.972168,0.056396,-10.635375,-5.40924,1.51062,0.975163997097924
-0.065186,0.975586,0.054932,-12.916564,-8.255005,1.38092,0.9793032128079637
-0.083008,0.986084,0.052002,-15.533446,-10.368346,1.174927,0.9909370268205745
-0.101807,1.003906,0.047119,-17.211914,-9.70459,2.418518,1.0101545041457767
-0.11084,1.016113,0.046875,-17.112732,-6.935119,4.226685,1.0232147379675491
-0.113525,1.020996,0.050293,-15.533446,-3.479004,5.325317,1.0285184215608392
-0.115479,1.019287,0.049072,-13.870238,0.350952,7.064819,1.0269807442177288
-0.104492,1.014404,0.047119,-12.321471,3.471374,8.163452,1.0208595659741844
-0.078857,1.010498,0.046875,-10.833739,5.653381,7.858276,1.0146535862440933
-0.072266,1.011475,0.043457,-10.437011,6.484985,6.54602,1.0149840201845544
-0.086426,1.024658,0.037842,-11.428832,5.638122,5.378723,1.0289924622678244
-0.094727,1.036133,0.044189,-11.398314,5.676269,4.707336,1.0413920807933006
-0.109863,1.041504,0.049072,-9.841919,9.017944,4.364014,1.0484314579260774
-0.125,1.046143,0.046143,-7.6828,14.381408,4.837036,1.0545944020797757
-0.104004,1.048096,0.040771,-4.966736,19.699097,5.867004,1.054032414906202
-0.06665,1.03833,0.047852,-1.083374,22.987364,5.683898,1.0415667166840539
-0.05249,1.018311,0.050293,1.548767,23.712156,4.882813,1.02090248244874
-0.053467,1.018311,0.049316,1.533508,22.636412,3.883362,1.0209055199507935
-0.061035,1.026367,0.048584,1.106262,21.034239,2.609253,1.02932739930986
-0.068359,1.030518,0.052979,2.13623,20.622252,1.304626,1.0341407426680376
-0.07373,1.037109,0.050781,2.922058,21.667479,0.328064,1.0409658499403331
-0.067627,1.03833,0.046631,3.173828,23.475645,-0.610352,1.0415743133305466
-0.050537,1.020508,0.057617,4.325867,25.001524,-2.159119,1.0233817885432592
-0.016357,0.991455,0.072754,5.615234,23.674009,-3.585815,0.9942553560278165
0.002441,0.975098,0.078613,4.211426,19.393921,-3.852844,0.9782648270555372
-0.011719,0.984619,0.083252,0.022888,14.404296,-2.807617,0.9882018040997497
-0.025879,1.005615,0.086914,-3.540039,11.70349,-2.059937,1.0096956443711145
-0.033447,1.020752,0.083008,-4.005432,11.520385,-2.090454,1.0246675926255304
-0.025879,1.025391,0.07959,-2.426147,11.405944,-2.174377,1.0288007550648472
-0.029785,1.018311,0.073242,-0.732422,10.69641,-2.151489,1.0213759491538852
-0.017822,1.002686,0.08667,0.869751,9.284973,-3.555298,1.0065825982898768
-0.009766,0.976807,0.095459,2.189636,7.972717,-4.188538,0.9815088948583197
-0.024414,0.969971,0.094727,1.373291,6.256103,-3.555298,0.9748912702276085
-0.028564,0.983887,0.092041,-0.854492,4.03595,-2.220154,0.9885955070431991
-0.041016,0.999756,0.088623,-1.930237,3.356933,0.0,1.0045140157912182
-0.052002,1.008789,0.07959,-1.13678,5.554199,1.022339,1.0132591093224872
-0.052734,1.013672,0.064941,-0.358582,8.842468,1.281738,1.0171180520573804
-0.035156,1.008789,0.065918,0.259399,9.82666,0.793457,1.011551468577353
-0.02002,0.993896,0.076416,0.221252,8.270264,-0.610352,0.9970303226442012
-0.01416,0.98291,0.082275,-0.946045,5.126953,-1.319885,0.9864490606843315
-0.01709,0.983643,0.081299,-3.295898,1.327515,-1.586914,0.9871449472848454
-0.031006,0.999512,0.074707,-5.91278,-2.304077,-1.571655,1.0027795101760903
-0.049561,1.02124,0.069336,-7.453918,-5.020141,-0.984192,1.024790179118145
-0.067383,1.034424,0.069824,-7.873535,-6.156921,-0.236511,1.0389652888528087
-0.077148,1.038574,0.069092,-6.622314,-5.851745,0.198364,1.043724806567325
-0.072266,1.029541,0.064697,-4.486084,-4.165649,0.648498,1.034099969657673
-0.056641,1.006104,0.069824,-1.983642,-1.808166,0.480652,1.0101132870490321
-0.044189,0.982178,0.075439,-1.190186,-0.656128,-0.518799,0.9860615265418279
-0.041992,0.974365,0.078125,-2.6474,-1.419067,-0.991821,0.9783935797591888
-0.054199,0.98291,0.072754,-5.836486,-3.173828,-0.183105,0.9870880123965643
-0.071045,1.002197,0.068848,-8.972168,-4.379272,0.770569,1.0070681535715447
-0.08374,1.016113,0.072021,-9.384155,-3.807068,0.946045,1.0220983518282376
-0.089111,1.016846,0.075684,-8.537292,-3.059387,1.022339,1.023545126456572
-0.095703,1.015625,0.07251,-7.461547,-2.418518,1.167297,1.0226978561305387
-0.094971,1.011963,0.075439,-6.095886,-1.167297,0.87738,1.0192053997752366
-0.083252,0.999512,0.075439,-3.997802,0.587463,0.671387,1.0058062320193686
-0.088379,0.989258,0.075439,-3.074646,2.311707,0.114441,0.9960588742268199
-0.097168,0.997803,0.072266,-4.241943,3.547668,-0.793457,1.0051242817627082
-0.100098,1.021973,0.069824,-5.546569,5.462646,-1.045227,1.0292345764251218
-0.115479,1.032959,0.065186,-4.425049,8.293152,-0.984192,1.0414359844551175
-0.109375,1.022949,0.077881,-1.38092,10.047912,-1.480102,1.0317233143566158
-0.101807,1.005127,0.085205,0.198364,10.719298,-0.770569,1.0138564214932013
-0.096436,0.99292,0.085938,0.679016,10.803222,0.076294,1.001286856170598
-0.083252,0.993652,0.088135,0.091553,11.375426,1.098633,1.001020964232518
-0.075439,1.00708,0.080322,-1.213074,11.940001,1.876831,1.0130907130188291
-0.073975,1.026855,0.07666,-1.647949,12.382506,1.235962,1.0323663338418199
-0.066406,1.034424,0.074707,0.0,13.252257,-0.656128,1.0392419855168478
-0.051514,1.029541,0.082764,2.075195,13.839721,-3.02124,1.0341461417870301
-0.044678,1.017334,0.084229,3.364563,13.061522,-4.394531,1.0217921098153968
-0.046875,1.004639,0.07959,3.601074,11.428832,-4.78363,1.0088762828246087
-0.05127,1.000977,0.08252,2.89917,10.337829,-4.28009,1.0056804252987128
-0.056152,1.009033,0.085205,1.800537,10.498046,-2.410889,1.0141797346713255
-0.058105,1.01709,0.089844,1.304626,11.268615,-0.50354,1.0227024021977265
-0.062744,1.023926,0.087402,1.472473,12.069701,0.511169,1.0295631950570105
-0.061035,1.0271,0.081543,2.120972,12.96997,0.740051,1.0321380440977843
-0.042236,1.013672,0.084717,3.669739,13.618468,-0.869751,1.0180824000880282
-0.036133,0.994629,0.084229,4.096985,12.870788,-2.777099,0.9988428133450227
-0.04248,0.983887,0.091064,2.967834,10.787963,-4.074097,0.9890049702933752
-0.05249,0.981445,0.094238,1.197815,9.315491,-4.234314,0.9873551988869051
-0.061523,0.986572,0.095947,-0.38147,9.117126,-3.479004,0.9931340380442107
-0.06958,1.004395,0.089355,-1.930237,9.162903,-2.548218,1.0107596195189041
-0.074219,1.02417,0.07666,-2.738952,8.293152,-1.365662,1.0297132632247679
-0.06543,1.017334,0.079346,-0.854492,7.217407,-1.663208,1.022519114819865
-0.06665,0.996826,0.087158,0.869751,7.598876,-2.326965,1.0028463559987641
-0.061768,0.990723,0.084229,0.694275,8.377075,-1.869202,0.99621376872336
-0.05249,0.991699,0.078613,0.297546,8.888245,-1.167297,0.9961938117003136
-0.053223,0.995361,0.073486,-0.015259,8.255005,-1.182556,0.9994880690863699
-0.059326,1.006592,0.070801,-0.411987,6.965637,-1.449585,1.0108213543158848
-0.078369,1.012695,0.065674,-0.663757,5.867004,-1.785278,1.0178437686904607
-0.087158,1.020264,0.070313,-0.808716,5.584716,-2.220154,1.0263912824205983
-0.083496,1.029053,0.071777,-1.251221,6.362915,-2.204895,1.03492685565406
-0.07959,1.024902,0.075684,-0.175476,6.996154,-2.586365,1.0307699770365841
-0.076904,1.005371,0.080078,1.617432,7.408142,-2.708435,1.01148285153086
-0.07666,0.991699,0.08252,1.663208,8.544922,-2.01416,0.9980747530125186
-0.078613,0.993164,0.078857,0.099182,10.009766,-1.228333,0.9993863922997952
-0.086426,1.005127,0.076172,-1.480102,11.001586,-0.717163,1.0117074246979707
-0.092529,1.018066,0.077881,-1.899719,12.199401,-0.717163,1.0252245833757596
-0.09375,1.024414,0.075195,-1.296997,13.412475,-1.930237,1.0314394766155695
-0.100098,1.022949,0.074951,-0.518799,14.48059,-3.700256,1.0305638838063365
-0.102783,1.019287,0.078613,0.335693,15.373229,-5.516052,1.0274679251572774
-0.095459,1.004639,0.079102,1.548767,15.892028,-7.736206,1.0122593874131274
-0.080078,0.993652,0.088135,2.120972,15.434264,-10.398864,1.0007619903918215
-0.05835,1.001465,0.104004,0.236511,13.519286,-12.008666,1.0085403813140057
-0.072266,0.99707,0.104004,-1.091003,11.871337,-11.169433,1.0050809876184108
-0.09668,0.98999,0.10083,-0.62561,10.986327,-11.421203,0.9997969350823197
-0.109619,0.988037,0.089355,-0.12207,13.046264,-11.169433,0.9981070857152554
-0.106689,1.003174,0.079346,0.045776,16.418457,-10.475158,1.0119468388769244
-0.09082,1.02417,0.064697,-0.289917,17.951965,-9.170532,1.030222385268831
-0.086914,1.030518,0.050293,0.114441,16.25061,-7.4234,1.035398849511144
-0.080078,1.015869,0.051758,1.670837,12.550353,-7.087707,1.020333867814354
-0.076904,1.002441,0.059814,0.564575,9.902954,-6.820678,1.007164285652048
-0.078369,1.000244,0.065674,-2.296448,8.079529,-6.446838,1.005456530125992
-0.076904,0.994385,0.076416,-3.509521,5.752563,-6.507873,1.0002775407340705
-0.087891,0.980713,0.087891,-3.509521,4.348755,-5.195617,0.9885583665778161
-0.101563,0.982422,0.079834,-4.142761,4.806519,-3.036499,0.9908791533829945
-0.108887,0.998291,0.06958,-4.127502,6.378173,-1.937866,1.0066194295015372
-0.118408,1.005859,0.064697,-2.479553,9.933472,-1.304626,1.0148687029138301
-0.121582,1.009521,0.051514,-1.00708,13.610839,-0.617981,1.0181200932900794
-0.11084,1.005371,0.040039,0.175476,15.853881,-0.770569,1.0122546491678859
-0.105469,0.996826,0.042969,0.320435,16.532898,-1.205444,1.003310579630256
-0.091064,0.993652,0.050049,-0.671387,15.197753,-1.167297,0.999070493809621
-0.084473,1.000488,0.056885,-2.349854,11.71112,-0.419617,1.0056579085842263
-0.099854,1.011719,0.056641,-3.753662,6.454467,0.030518,1.018211352891923
-0.120605,1.019287,0.05957,-3.280639,2.410889,-0.015259,1.028124573820702
-0.137695,1.022705,0.060059,-2.059937,2.510071,-0.274658,1.0336791153597908
-0.128906,1.024902,0.059082,-0.831604,6.462097,-0.762939,1.0346649453634738
-0.121826,1.02832,0.055908,1.029968,12.802123,-1.091003,1.0370194314187173
-0.124756,1.022705,0.057861,2.799988,17.14325,-1.945495,1.031909623892519
-0.126953,1.012207,0.068359,3.875732,19.378662,-2.586365,1.0224250720414676
-0.128662,1.010986,0.070557,4.081726,21.080015,-3.14331,1.0215796066332765
-0.108643,1.018066,0.077637,4.135132,21.438597,-4.219055,1.0267858518571435
-0.094971,1.0271,0.068848,4.241943,20.339964,-3.692627,1.033776546428192
-0.102539,1.026367,0.068115,4.974365,17.51709,-4.325867,1.0337229408477882
-0.103516,1.026123,0.077881,5.218505,14.793395,-5.462646,1.034267578311338
-0.098633,1.023193,0.071533,5.279541,15.190124,-5.28717,1.0304219300980544
-0.088623,1.009521,0.073242,6.462097,17.074585,-6.637573,1.0160467883586857
-0.079346,0.995361,0.085693,7.293701,17.417908,-8.216858,1.0021889034937477
-0.085205,0.992188,0.092285,6.103515,15.670775,-8.415222,1.0001067146029967
-0.087158,0.998779,0.09375,3.997802,13.740539,-7.736206,1.0069483950555758
-0.087646,1.001221,0.095215,4.005432,13.366698,-7.026672,1.009550002913179
-0.093994,0.998291,0.099121,4.600525,14.022826,-6.347656,1.0075935516655514
-0.09082,1.000977,0.101074,4.234314,15.1062,-5.699157,1.0101579977434223
-0.088623,1.005615,0.106689,4.165649,16.212463,-5.065917,1.015134526589949
-0.080322,1.009277,0.10083,4.53949,17.227173,-5.264282,1.0174764740833078
-0.080322,1.017822,0.093262,5.004883,18.013,-5.607605,1.0252370691757102
-0.07666,1.022949,0.08252,5.584716,18.051147,-5.889892,1.0291311688025975
-0.05249,1.015869,0.083984,6.858825,16.357422,-6.309509,1.0206852294008175
-0.045166,0.999512,0.083252,6.958007,12.901305,-6.523132,1.003989592179122
-0.054932,0.994385,0.086914,5.355834,7.949829,-6.896972,0.9996864989810554
-0.058838,0.995605,0.082031,3.173828,4.371643,-6.813049,1.0007099036334157
-0.069092,0.998291,0.078125,2.128601,3.067016,-6.805419,1.003724135791304
-0.075928,0.994629,0.079834,2.738952,1.800537,-7.545471,1.0007124344091063
-0.075195,0.985352,0.081787,3.814697,0.335693,-7.766723,0.9915956662359916
-0.082031,0.984619,0.072266,3.875732,-0.183105,-6.851196,0.9906694882139048
-0.080811,0.984131,0.060059,4.386902,-0.442505,-6.523132,0.9892680760860526
-0.079346,0.976318,0.061768,5.981445,-0.87738,-6.736755,0.9814825065501678
-0.081543,0.972168,0.058594,6.843566,-2.02179,-6.622314,0.9773398272397376
-0.073975,0.977783,0.050781,6.408691,-3.852844,-6.576538,0.9818913410734408
-0.083252,0.981201,0.048828,6.370544,-5.66864,-7.232666,0.985936342513552
-0.091064,0.971924,0.050537,7.492065,-8.049011,-8.552551,0.9774880573393212
-0.094727,0.9646,0.057129,8.247375,-10.177611,-9.483337,0.9709222868850008
-0.095459,0.959229,0.05957,8.918762,-11.878966,-10.643004,0.9658060260849484
-0.094482,0.954834,0.052246,10.032654,-13.916015,-12.771605,0.9609185503444088
-0.106445,0.942383,0.055664,12.016295,-15.899657,-15.3656,0.9500077566051763
-0.104004,0.924561,0.069092,14.404296,-17.784119,-17.532349,0.9329542213854868
-0.090332,0.9104,0.080078,15.571593,-19.271851,-19.035339,0.9183683990142517
-0.100586,0.908691,0.075684,14.10675,-20.622252,-19.53125,0.9173684890669616
-0.116943,0.913086,0.086182,12.443542,-21.942137,-19.485474,0.9245696543630446
-0.122803,0.921387,0.113525,11.123656,-22.750853,-18.356323,0.9364414056431933
-0.121826,0.92627,0.127441,9.620667,-24.246214,-16.334534,0.9428991969754773
-0.116699,0.929443,0.153809,8.125305,-26.93939,-16.525269,0.949284022477467
-0.124756,0.940674,0.165771,6.179809,-27.870176,-15.678405,0.9632817128197753
-0.144043,0.962402,0.171143,3.929138,-25.901793,-13.008117,0.9880566390151932
-0.14209,0.979736,0.177002,2.929687,-23.735044,-11.405944,1.0056847944559966
-0.135742,0.985596,0.178955,3.158569,-22.727964,-10.154723,1.0108660929148825
-0.141357,0.984863,0.179688,2.700805,-23.078917,-9.872437,1.0110512882945157
-0.150146,0.989502,0.182129,1.38855,-24.131773,-9.643555,1.0172654530460572
-0.152832,0.99707,0.179688,-0.160217,-25.535582,-7.522583,1.024594545402229
-0.155029,1.000244,0.179443,-1.480102,-27.557371,-5.653381,1.0279697663968528
-0.156982,1.006836,0.184814,-3.14331,-29.510496,-4.066467,1.0356245911603297
-0.164307,1.021973,0.184326,-6.439209,-30.410765,-1.617432,1.0513808431077676
-0.173828,1.042236,0.182129,-9.231567,-30.120848,0.091553,1.0722140765355583
-0.162598,1.061768,0.184814,-10.482787,-29.739378,0.343323,1.089929176609196
-0.143799,1.076904,0.189453,-12.237548,-30.693052,0.366211,1.102856661958389
-0.157959,1.097656,0.178223,-14.98413,-32.989502,-0.205994,1.1231932949167742
-0.172607,1.125488,0.169189,-17.539978,-36.422729,-1.411438,1.1511478325193512
-0.181152,1.141602,0.154785,-18.943787,-39.054871,-2.754211,1.16620305681858
-0.186768,1.147705,0.133301,-19.523621,-41.580196,-5.531311,1.1704179635711338
-0.192139,1.146729,0.116211,-19.378662,-44.265743,-8.506775,1.1685075058736252
-0.203613,1.139893,0.099365,-18.783569,-47.622677,-10.154723,1.162190908776609
-0.222168,1.119141,0.0896,-16.51001,-50.674435,-11.520385,1.144492620380315
-0.242432,1.092529,0.07666,-14.22119,-51.635738,-13.427733,1.121726190326766
-0.249023,1.075439,0.074951,-12.100219,-50.2243,-14.10675,1.106435334599813
-0.255371,1.057617,0.077148,-10.604857,-46.676632,-12.779235,1.0907428112227007
-0.265625,1.05127,0.07666,-9.796143,-42.274471,-11.657714,1.0870151834841129
-0.27417,1.05835,0.071289,-8.94165,-36.010742,-10.246276,1.0956076090101783
-0.285889,1.055908,0.066895,-6.698608,-27.641294,-8.270264,1.0959695095256985
-0.279053,1.043457,0.066406,-2.975464,-18.798828,-7.80487,1.082165811922554
-0.259766,1.018066,0.065186,0.946045,-11.512755,-7.965087,1.052704122585259
-0.242676,0.987549,0.066406,4.692078,-7.667541,-8.125305,1.019094904909744
-0.224365,0.957275,0.076416,6.980896,-7.156372,-7.781982,0.9861817702158158
-0.230469,0.932373,0.077393,7.507324,-7.896423,-7.034301,0.9635481552776696
-0.242676,0.915283,0.077148,6.912231,-7.759094,-6.065368,0.9500454857368672
-0.24585,0.904297,0.074707,6.362915,-5.882263,-4.684448,0.9400938371024459
-0.23877,0.895264,0.082275,6.378173,-4.600525,-3.372192,0.9302031596490091
-0.230957,0.889648,0.087402,6.004333,-3.936767,-2.27356,0.9232842516565525
-0.230957,0.889404,0.089355,4.989624,-3.005981,-1.403808,0.9232361166516396
-0.226563,0.887207,0.098389,4.463196,-1.564026,-1.51062,0.9209492109443386
-0.219238,0.886719,0.106201,4.142761,0.175476,-1.449585,0.9195730193986773
-0.210693,0.887207,0.116455,3.181457,1.159668,-0.976562,0.9192875328878336
-0.216309,0.901855,0.12085,1.106262,1.747131,0.358582,0.9352736214637939
-0.225098,0.931152,0.118164,-1.480102,3.456115,2.845764,0.9652335922480112
-0.228271,0.956055,0.118408,-3.02124,7.041931,5.15747,0.9900349826799051
-0.224365,0.97876,0.121826,-3.211975,11.627196,5.889892,1.0115099431547867
-0.22168,0.986328,0.119385,-2.494812,15.647887,6.874084,1.0179576239750847
-0.217529,0.986328,0.116699,-2.311707,18.348694,9.300232,1.016749942722398
-0.20752,0.980225,0.122559,-3.082275,19.546509,11.276244,1.0094187978762827
-0.19043,0.982422,0.12793,-4.768372,19.805908,12.725829,1.0088521476827017
-0.179199,0.991455,0.129639,-6.759643,18.363953,14.152526,1.0158255602941875
-0.182861,0.999756,0.130615,-7.5531,15.686034,15.228271,1.0247001918034369
-0.19165,1.009277,0.122314,-7.606506,13.389586,15.182494,1.0345677840649206
-0.186523,1.020508,0.11792,-7.453918,12.863158,14.541625,1.0440941212328514
-0.186035,1.020996,0.109131,-6.561279,13.816833,13.923644,1.0435283553416268
-0.181396,1.017578,0.101318,-6.378173,13.72528,13.244628,1.0385734600999585
-0.181885,1.010498,0.102295,-7.034301,12.08496,12.603759,1.0318200561406043
-0.183594,1.004883,0.105713,-8.270264,9.460449,12.191772,1.0269721704574084
-0.188721,1.005127,0.113037,-9.490967,7.583618,12.7182,1.0289184930493767
-0.189941,1.00708,0.118652,-10.513305,6.706237,13.610839,1.0316811556798933
-0.184082,1.006592,0.119141,-10.81848,6.41632,14.335631,1.0301981435961725
-0.184082,1.005859,0.125977,-10.307311,6.16455,15.266418,1.0302954504092503
-0.187012,1.004883,0.133545,-10.45227,6.149292,15.899657,1.0308237477173292
-0.190674,1.011475,0.13623,-11.138915,6.805419,16.75415,1.0382662774071976
-0.200195,1.024658,0.136475,-11.795043,7.499694,17.14325,1.052913804930869
-0.203369,1.041504,0.13501,-12.275695,7.095336,16.25061,1.069727643971586
-0.209229,1.054688,0.134766,-12.130736,5.928039,15.121459,1.0836537392271575
-0.214111,1.062012,0.128418,-10.82611,3.952026,13.72528,1.0909647983271504
-0.212646,1.05542,0.130615,-8.644104,0.785828,11.230468,1.08452292550273
-0.211914,1.046631,0.143799,-8.171082,-2.883911,8.872986,1.0775073762893692
-0.213623,1.058105,0.147217,-10.589599,-5.722045,7.797241,1.0894465669517712
-0.218506,1.089844,0.141602,-13.801574,-6.118774,7.17163,1.1205159270514633
-0.229004,1.116943,0.138672,-13.862609,-4.707336,5.760192,1.148579305424314
-0.229004,1.138428,0.145508,-12.863158,-3.547668,4.928589,1.1703135140909893
-0.237549,1.170898,0.146973,-14.022826,-2.319336,6.29425,1.20375774827579
-0.240967,1.213623,0.141602,-16.235352,-0.602722,7.881164,1.2453903033274347
-0.226563,1.251709,0.143555,-16.777039,1.480102,8.68988,1.2801227486749072
-0.213867,1.266602,0.144287,-13.21411,2.777099,8.621216,1.29260916694181
-0.20166,1.23584,0.139404,-5.493164,2.89154,6.271362,1.2599209246678937
-0.194092,1.163818,0.131836,3.578186,2.281189,2.067566,1.1872340849571326
-0.181641,1.073975,0.116699,10.475158,1.327515,-2.39563,1.095460820890916
-0.164795,0.986572,0.099854,13.46588,0.289917,-5.622863,1.005212676265575
-0.170654,0.907959,0.084961,14.35089,0.450134,-7.720947,0.9277557355888456
-0.17334,0.843506,0.072021,13.450622,1.449585,-10.055541,0.864138965720792
-0.174805,0.799561,0.0625,10.742187,2.212524,-12.725829,0.8208293554363172
-0.171631,0.76709,0.058838,7.736206,2.441406,-14.617919,0.7882551480992688
-0.156006,0.73877,0.062744,6.309509,3.387451,-15.99121,0.757664697918545
-0.144043,0.717285,0.071777,5.706787,5.012512,-17.379761,0.7351177421359112
-0.140137,0.717285,0.088379,3.822326,6.16455,-18.341064,0.7361704949500489
-0.133301,0.739502,0.102295,0.480652,7.690429,-17.50946,0.7583512587383238
-0.14209,0.793457,0.092041,-3.868103,11.062621,-14.755248,0.8113169076446022
-0.150879,0.860107,0.080078,-5.073547,15.655517,-12.603759,0.8769042194983441
-0.141113,0.895264,0.099121,-0.114441,21.064756,-12.977599,0.9117211641209169
-0.109619,0.904053,0.128418,6.736755,26.214598,-13.47351,0.9196843668857267
-0.086426,0.915527,0.145996,10.681151,29.861448,-12.992858,0.9311143717186412
-0.067139,0.935791,0.166748,12.481688,30.311583,-13.236999,0.9528994367224698
-0.034424,0.957275,0.203857,13.839721,26.420591,-13.458251,0.9793457580701517
-0.019043,0.987061,0.228271,13.366698,19.126892,-11.20758,1.0132915192633363
-0.03125,1.025879,0.237305,10.780334,9.101868,-7.537841,1.0534315109042447
-0.045166,1.064453,0.252686,9.025574,-0.724792,-5.279541,1.0949659224656263
-0.049561,1.090088,0.26709,8.140564,-9.292603,-4.516602,1.123425657782926
-0.05835,1.106689,0.267578,7.637023,-17.318726,-3.410339,1.1400715992011203
-0.06958,1.103516,0.266846,7.369995,-24.955748,-3.845215,1.1374514171480028
-0.081055,1.081055,0.252441,7.247924,-32.096863,-6.240844,1.11309311584027
-0.088867,1.043945,0.239502,6.462097,-37.780762,-8.338928,1.0747463490135707
-0.103516,1.002441,0.224854,3.959656,-40.512081,-9.651184,1.032551617137371
-0.125244,0.973145,0.206055,-1.12915,-39.604187,-10.391234,1.002574642401253
-0.151855,0.956299,0.180664,-6.92749,-35.224915,-10.116576,0.984990964081397
-0.16333,0.946533,0.1604,-12.229918,-28.785704,-8.422852,0.9738221444334688
-0.155518,0.948486,0.136475,-16.769409,-20.820616,-5.126953,0.9707919273175896
-0.154297,0.949219,0.118896,-19.66095,-12.7182,-2.01416,0.9689997590226739
-0.158447,0.953369,0.09668,-21.690367,-4.577637,0.900268,0.9712697485096506
-0.172119,0.968994,0.080811,-23.811338,4.53949,3.90625,0.9874739186013979
-0.186768,0.989746,0.077637,-25.100706,14.671325,7.4234,1.0102014324425599
-0.198242,1.005127,0.074219,-24.772642,25.482176,13.076781,1.0271750759505414
-0.19873,1.030029,0.05542,-24.009703,35.606384,18.470764,1.0504878534000288
-0.174072,1.057617,0.056885,-22.003172,43.327328,22.689817,1.073354872862652
-0.137695,1.064453,0.058105,-17.311096,48.530575,25.886534,1.074893619507996
-0.118408,1.046875,0.064697,-11.45935,50.567623,26.718138,1.0555346616279353
-0.113525,1.031982,0.068115,-7.728576,48.767086,26.077269,1.0404395355685019
-0.111328,1.025879,0.071045,-5.996704,43.80035,24.909971,1.0343447385905726
-0.092529,1.025635,0.066895,-4.859924,36.209106,23.79608,1.0319707893593695
-0.065186,1.023438,0.064209,-3.562927,25.978086,21.77429,1.0275199998642361
-0.043701,1.018311,0.062988,-3.158569,11.756896,17.501831,1.0211927135785879
-0.05957,1.018555,0.0625,-4.379272,-3.982544,12.977599,1.0222079646163007
-0.081543,1.031006,0.077148,-5.531311,-16.975403,9.925842,1.037099053508873
-0.109131,1.035889,0.093506,-4.974365,-24.032591,9.040833,1.0458101966982345
-0.146729,1.043945,0.101563,-5.0354,-25.535582,9.254456,1.0590871566755022
-0.177002,1.064697,0.10083,-6.111145,-22.293089,10.162353,1.0840092705844355
-0.197021,1.073975,0.100586,-4.875183,-15.281676,11.474608,1.0965204596641138
-0.192871,1.062744,0.102295,-1.13678,-6.446838,12.420653,1.0849370024116607
-0.177246,1.025879,0.116699,4.173279,2.281189,12.763976,1.0475984554007323
-0.17627,0.98877,0.132324,6.912231,9.658813,13.290404,1.0130384330201891
-0.187012,0.980225,0.13208,5.996704,14.526366,14.144897,1.0066079997541248
-0.184326,0.988037,0.136719,4.753113,16.990662,13.450622,1.0143398210688566
-0.180176,0.996094,0.141357,4.905701,17.723083,11.45172,1.0220804514621147
-0.16626,0.994385,0.143555,5.805969,16.807556,8.384705,1.0183574784180651
-0.148926,0.991455,0.151611,7.324218,14.717101,4.737854,1.013976264920437
-0.137451,0.985596,0.154541,7.965087,10.95581,1.693725,1.007062646163584
-0.131592,0.976563,0.165527,7.6828,6.782531,0.160217,0.9991951436841553
-0.138428,0.97998,0.171387,6.500244,3.288269,-0.610352,1.0044384577230205
-0.143311,0.989258,0.173828,4.837036,0.88501,-1.434326,1.014586421587141
-0.140137,0.995117,0.178711,4.402161,-0.244141,-2.128601,1.0207026226962486
-0.131348,0.991211,0.183105,5.264282,-1.052856,-2.63977,1.016503312660613
-0.129639,0.978516,0.190186,5.981445,-2.029419,-2.914428,1.0052216408200731
-0.128906,0.967529,0.196045,5.15747,-3.463745,-3.410339,0.9955715768853588
-0.128662,0.965576,0.193848,3.410339,-4.829407,-3.631592,0.9932109388865993
-0.14209,0.973633,0.191895,1.533508,-4.806519,-3.448486,1.0024841533979476
-0.159424,0.986328,0.185547,0.267029,-2.876281,-3.089905,1.0162118994427294
-0.154541,0.987305,0.181396,0.610352,0.274658,-2.655029,1.0156567296690353
-0.140137,0.979736,0.181152,2.426147,2.914428,-2.624511,1.0061496188783257
-0.147461,0.971191,0.178711,3.982544,3.471374,-2.14386,0.9984459557347107
-0.162354,0.973877,0.171387,4.341125,2.578735,-0.709534,1.0020822003278973
-0.166504,0.985352,0.16333,4.615784,2.883911,2.967834,1.0125802856168986
-0.174805,0.995361,0.144775,5.760192,6.553649,7.919311,1.0209114109319184
-0.148682,0.998535,0.126953,7.4234,12.527465,10.475158,1.0174947408011503
-0.106689,0.994873,0.125977,8.804321,20.729063,11.245727,1.0084765903971198
-0.093262,0.986084,0.133057,9.025574,29.396055,10.124206,0.9993816192771408
-0.082031,0.970947,0.137939,7.6828,32.142639,6.683349,0.9841210949324275
-0.071533,0.959229,0.139404,5.126953,28.213499,2.700805,0.9719417265175933
-0.073242,0.959229,0.135498,1.678467,20.935057,-0.244141,0.9715165325453808
-0.084473,0.967285,0.131836,-0.137329,14.305114,-2.113342,0.9798758543050237
-0.094727,0.972656,0.12793,0.694275,9.857178,-4.165649,0.9855957506833113
-0.10083,0.976318,0.125488,3.265381,7.209777,-6.79779,0.9895002598119922
-0.105225,0.981689,0.12207,6.530761,5.470275,-9.597778,0.9948299745413786
-0.113281,0.986084,0.113281,9.735107,4.211426,-11.550902,0.9990129253307987
-0.127686,0.994629,0.111328,12.252807,3.494262,-13.09204,1.0089521722168004
-0.139648,1.000244,0.110107,14.305114,2.845764,-14.923095,1.0159297096202078
-0.13916,1.002441,0.107422,16.227722,2.159119,-16.654968,1.0177391365988633
-0.126465,1.005859,0.101563,18.096924,1.266479,-17.532349,1.0188526719182711
-0.117676,1.006592,0.103271,20.187376,-0.175476,-18.257141,1.0186952414147226
-0.128662,1.001709,0.101807,21.560667,-2.113342,-19.630432,1.015056400489155
-0.135498,0.997803,0.096191,22.15576,-4.737854,-21.659849,1.0115449783840558
-0.146484,0.996826,0.091553,21.697996,-6.340026,-22.28546,1.0116825531464897
-0.164307,1.008057,0.091309,20.355223,-5.53894,-22.033689,1.0254330982462971
-0.175293,1.012695,0.091553,19.798279,-3.067016,-22.178648,1.031823992104758
-0.174805,1.016113,0.080322,20.439146,0.602722,-22.041319,1.0341634495948888
-0.172607,1.016602,0.077393,21.347044,3.608703,-21.675108,1.034051487742269
-0.172607,1.009766,0.079346,21.362303,5.004883,-21.438597,1.0274805783668126
-0.172363,0.998779,0.083008,20.080564,5.043029,-20.614622,1.0169359973341487
-0.168213,0.989746,0.083252,17.417908,3.944397,-19.599915,1.0073845608252094
-0.158447,0.989014,0.082764,13.832091,2.311707,-18.264771,1.0050393145051588
-0.159668,0.990234,0.078857,10.749816,1.075745,-16.487122,1.006119113936814
-0.177002,0.996338,0.069336,8.537292,0.076294,-14.793395,1.0143108986617464
-0.189941,1.003418,0.061768,7.492065,-0.114441,-13.290404,1.023103392638789
-0.206543,1.011475,0.057617,7.041931,1.327515,-11.611938,1.0339542568039457
-0.217041,1.012939,0.059326,6.324768,3.929138,-9.727478,1.037627962074076
-0.212158,1.015137,0.060547,5.340576,6.645202,-7.492065,1.0388359278259487
-0.200684,1.014404,0.062012,4.005432,8.903503,-5.180358,1.035922309449893
-0.19458,1.013184,0.063232,3.097534,10.223388,-3.40271,1.0336350807127244
-0.195557,1.011475,0.058594,2.365112,10.459899,-2.5177,1.031870860481097
-0.196777,1.004639,0.054199,2.067566,10.32257,-2.113342,1.0251625430393954
-0.208984,1.001709,0.05127,1.518249,11.138915,-1.678467,1.0245603183009773
-0.222656,0.997803,0.032227,0.259399,12.779235,-0.831604,1.0228514558204431
-0.218018,1.009277,0.000488,0.1297,16.654968,0.358582,1.0325561239937517
-0.205322,1.036621,-0.001709,2.433777,22.247313,1.831055,1.0567606834122851
-0.175537,1.035645,0.047852,3.761291,26.05438,3.059387,1.0515054057388389
-0.112061,0.984131,0.087158,2.578735,25.138853,3.662109,0.9943178615744565
-0.041992,0.925781,0.080322,1.304626,19.233704,4.188538,0.9302071875173831
-0.026855,0.901123,0.055908,-0.915527,12.374877,5.187988,0.9032549787396691
-0.093018,0.944824,0.034424,-5.432128,7.270813,4.600525,0.9500156583320087
-0.174072,1.044678,0.039063,-10.047912,2.624511,2.159119,1.0598014450060917
-0.241455,1.119629,0.066162,-10.963439,2.037048,0.389099,1.1472780939728606
-0.256836,1.12793,0.088135,-6.805419,5.584716,0.213623,1.160154556091989
-0.253662,1.074219,0.106445,1.358032,11.085509,2.037048,1.1088829551535184
-0.253906,1.014404,0.098633,9.82666,18.951416,4.493713,1.0503390884571515
-0.242676,1.002686,0.055664,18.096924,29.914854,7.67517,1.0331356815384898
-0.254395,1.036621,0.02832,25.497435,44.395443,11.901855,1.0677555600726227
-0.261475,1.058594,0.038574,31.646727,61.790462,15.556334,1.0910904572660325
-0.249268,1.068848,0.039063,35.194397,82.092278,15.533446,1.098224248911396
-0.219482,1.054688,0.03418,35.522461,96.702568,9.101868,1.0778253096248946
-0.145996,1.025635,0.006104,36.720276,94.215385,2.822876,1.0359919131233604
-0.101807,0.984863,-0.003906,38.917542,79.627991,3.14331,0.9901187054358686
-0.131104,0.962646,-0.013428,34.118652,64.102173,1.838684,0.9716253863068831
-0.166016,0.971436,-0.03125,23.54431,48.660275,-2.006531,0.9860150997079101
-0.179932,0.986084,-0.036377,14.053344,33.439636,-1.174927,1.0030256556085693
-0.144775,0.974365,-0.024902,6.614685,18.791199,3.028869,0.9853766099588523
-0.09375,0.946533,-0.009521,0.63324,5.363464,3.944397,0.9512120857253654
-0.106201,0.935303,0.002686,-5.805969,-4.943848,0.953674,0.9413169332408718
-0.145508,0.944336,0.026123,-12.489318,-9.979248,-1.38855,0.9558375751606545
-0.176025,0.965576,0.056885,-19.386292,-6.942749,-1.12915,0.983136671895622
-0.222412,1.002686,0.037109,-20.706175,3.372192,-1.930237,1.0277272937024684
-0.274414,1.022461,0.006592,-14.595031,15.762328,-5.523681,1.0586656669510919
-0.264404,1.019287,-0.00415,-7.133483,21.171568,-7.102966,1.0530302398720561
-0.212158,1.005615,-0.003906,-2.632141,18.77594,-1.419067,1.0277586302362047
-0.172852,0.990479,-0.003418,-0.976562,14.114379,7.598876,1.0054541988917247
-0.1875,0.986328,-0.003418,-3.341675,13.206481,13.481139,1.0039974383971306
-0.212158,0.988037,0.005615,-8.247375,18.39447,16.387939,1.0105739253305521
-0.210693,0.979004,0.040283,-13.389586,30.4718,19.096375,1.0022290618187042
-0.178223,0.981201,0.057129,-17.974854,42.884823,20.408628,0.998890666074621
-0.152832,0.99292,0.061523,-17.166138,48.278805,18.379211,1.006495318495322
-0.147949,0.997314,0.060791,-10.894774,45.204159,12.046813,1.0100592392914387
-0.142822,0.995361,0.053467,-2.571106,34.889221,5.378723,1.0069758507998094
-0.1604,1.002686,0.013428,4.318237,23.460386,0.572205,1.0155233556053744
-0.174072,1.018311,-0.013672,6.790161,14.839171,-2.471924,1.0331724335700212
-0.165527,1.013184,-0.010986,4.295349,9.590149,-3.379822,1.026675069231254
-0.169189,0.99292,0.005615,-1.739502,5.722045,-3.517151,1.0072470264766236
-0.182129,0.979248,0.02002,-9.117126,2.906799,-3.990173,0.996242148548735
-0.175537,0.970947,0.044434,-15.335082,0.900268,-3.517151,0.987687043315847
-0.155762,0.970947,0.071777,-17.929077,0.312805,-2.433777,0.985977593651093
-0.174316,0.986084,0.070801,-17.39502,2.456665,-3.013611,1.0038727531480272
-0.190674,1.006104,0.052246,-13.832091,4.608154,-4.516602,1.0253445653086577
-0.193848,1.015869,0.029541,-8.331299,6.317138,-3.921509,1.0346204825664336
-0.192871,1.012451,0.002686,-4.600525,7.858276,-2.433777,1.030661663514269
-0.173828,0.993408,0.010254,-5.134582,9.536743,-0.465393,1.0085538025132819
-0.162354,0.967773,0.042725,-9.674072,11.749267,2.281189,0.9822264639430155
-0.153076,0.953857,0.05542,-15.800475,12.191772,3.509521,0.967650150945578
-0.147217,0.957031,0.070313,-20.866392,10.673522,3.845215,0.9708373179987468
-0.153564,0.970459,0.085205,-23.567198,10.131835,4.53949,0.986221306199577
-0.179688,0.986572,0.081787,-23.429869,13.076781,4.844666,1.0061318014539646
-0.178955,1.003906,0.064209,-20.103453,17.799377,4.051208,1.0217509209890636
-0.165283,1.005127,0.063477,-15.1062,20.065308,3.585815,1.0206018252712465
-0.158691,0.996094,0.064453,-10.82611,19.638062,3.890991,1.0107127581692041
-0.145996,0.992432,0.051025,-7.202148,18.211365,4.844666,1.0044101041233107
-0.140625,0.988037,0.035889,-5.340576,15.830993,5.966186,0.9986393364548585
-0.133545,0.986328,0.033447,-7.217407,12.847899,6.240844,0.9958894980960488
-0.136475,0.985107,0.049316,-11.543273,10.82611,7.011413,0.9957375632816108
-0.14624,0.993896,0.060059,-16.036987,9.864807,7.759094,1.0063908186668835
-0.15918,1.003662,0.060059,-18.516541,9.666443,7.400512,1.0179797474041417
-0.159668,1.010986,0.066406,-18.569946,10.162353,6.278991,1.025668718083963
-0.145508,1.009766,0.071533,-17.211914,11.093139,5.302429,1.0227007983320437
-0.135986,1.010986,0.068848,-14.122008,11.222838,4.470825,1.0224113318503467
-0.142822,1.014648,0.05249,-10.70404,10.177611,3.089905,1.0259940972968606
-0.137695,1.014404,0.04126,-8.277893,8.06427,2.319336,1.0245378352413346
-0.138184,1.013184,0.048828,-8.430481,6.340026,3.265381,1.023728874896083
-0.157227,1.011475,0.057861,-10.482787,6.729125,3.936767,1.0252560170391587
-0.157959,1.018555,0.060547,-12.367248,8.544922,3.616333,1.0325072749937407
-0.141113,1.030273,0.063477,-11.810302,10.06317,4.013062,1.0418275590648387
-0.127686,1.030518,0.068604,-9.19342,9.292603,4.653931,1.0406620833565525
-0.124756,1.023682,0.066895,-6.225585,7.43103,4.127502,1.0334233583991606
-0.130615,1.02002,0.067139,-3.822326,6.027221,2.182007,1.0305380749618134
-0.136719,1.026367,0.055176,-2.197266,4.837036,0.480652,1.0369019696316524
-0.135498,1.028076,0.056152,-1.64032,3.707886,-0.1297,1.038485925221907
-0.151123,1.027832,0.053467,-2.26593,3.837585,0.076294,1.0402574207579585
-0.139893,1.029297,0.052734,-3.295898,4.554749,0.396728,1.0400977071477466
-0.116211,1.014404,0.059814,-2.952575,5.470275,0.62561,1.0227894144607677
-0.114746,1.001953,0.056396,-1.037598,4.463196,-0.37384,1.0100777037144222
-0.115967,1.002686,0.049072,1.121521,-0.045776,-1.617432,1.0105620321726914
-0.131592,1.008301,0.043701,1.991272,-3.921509,-2.120972,1.017790321464102
-0.153076,1.021484,0.040039,2.13623,-4.798889,-2.464294,1.0336657803918055
-0.153076,1.027832,0.04541,2.815246,-4.669189,-2.380371,1.0401600598465606
-0.14917,1.017578,0.064697,3.715515,-4.814148,-1.846313,1.0304864757933507
-0.136963,1.010498,0.071045,4.15802,-5.0354,-2.082825,1.0222095985647952
-0.125732,1.005371,0.077881,5.500793,-5.966186,-3.013611,1.0161913371142268
-0.140625,1.010742,0.074951,6.835937,-7.156372,-5.393981,1.0232264820605457
-0.149658,1.022461,0.072266,8.117676,-8.491516,-8.255005,1.0358795239992922
-0.150391,1.026123,0.073242,10.482787,-9.773254,-9.475708,1.039668338737888
-0.158691,1.0271,0.066406,12.107848,-11.108397,-9.864807,1.0414062609361439
-0.166016,1.025635,0.069824,11.680602,-11.367797,-10.398864,1.0413279293560698
-0.175049,1.032471,0.066895,10.910033,-10.093688,-10.56671,1.0493395347870011
-0.162109,1.0271,0.07373,9.803772,-9.32312,-9.918213,1.042424985685301
-0.147705,1.012939,0.084229,8.781433,-9.69696,-8.460999,1.0271108553544743
-0.138428,0.999023,0.080322,7.904052,-10.002136,-7.202148,1.0117612808350593
-0.133545,0.98877,0.084717,8.201599,-8.033752,-6.736755,1.0013377801790961
-0.135254,0.989014,0.077637,9.117126,-6.538391,-7.545471,1.0012341586666926
-0.124268,0.999512,0.069824,10.414123,-8.964539,-7.385253,1.0096247644268637
-0.130615,1.006592,0.068359,11.260985,-11.657714,-6.011962,1.017330175297086
-0.155029,1.014404,0.065674,11.436461,-11.184691,-5.043029,1.0282813527109205
-0.145264,1.013428,0.062012,12.519835,-8.766174,-4.867554,1.0256624342462777
-0.125488,1.004639,0.059082,13.984679,-7.835388,-4.135132,1.0141683495302938
-0.130127,0.997314,0.058105,13.801574,-8.94928,-3.723144,1.0074445105066583
-0.146484,0.996826,0.052734,12.039184,-9.841919,-3.753662,1.008910556634234
-0.163818,1.008301,0.052246,11.093139,-8.758545,-3.349304,1.022857217915091
-0.174561,1.015625,0.052002,11.779784,-6.721496,-3.02124,1.0318284214684146
-0.173584,1.017822,0.045654,13.069152,-5.508422,-3.089905,1.0335266404191041
-0.144043,1.012451,0.044189,13.893126,-6.408691,-2.990722,1.0236005475628664
-0.111572,0.986816,0.054443,13.565063,-10.025024,-2.441406,0.9945944747931189
-0.122559,0.968994,0.058594,11.024474,-14.549254,-3.082275,0.9784698959870969
-0.142822,0.975342,0.058105,7.057189,-18.463135,-4.501343,0.9874544706835855
-0.148682,0.988525,0.066162,4.470825,-21.484373,-4.79126,1.0018310351516366
-0.145996,0.993408,0.075684,3.707886,-22.483824,-3.707886,1.0069271842273402
-0.142822,0.996826,0.073975,4.920959,-20.187376,-3.288269,1.0097190196213004
-0.150146,0.996826,0.068848,7.888793,-16.326904,-5.439758,1.0104186967272528
-0.143066,0.994873,0.061035,11.848449,-15.045165,-8.125305,1.0069585084351789
-0.141846,0.987305,0.049805,15.502929,-16.952515,-9.712219,0.9986851299413645
-0.152344,0.983887,0.047363,16.242981,-19.432068,-10.231017,0.9967374663741702
-0.172119,0.986816,0.040039,14.22119,-20.225523,-10.116576,1.0025137852109567
-0.189941,0.991699,0.040771,11.20758,-18.737793,-9.635925,1.0105477546969268
-0.185791,0.989502,0.043701,8.621216,-15.731811,-8.377075,1.00774117762747
-0.157471,0.97876,0.047119,7.461547,-13.504027,-6.515502,0.9924658450556372
-0.13916,0.961426,0.046143,6.637573,-13.96942,-5.500793,0.9725403002061148
-0.142822,0.955322,0.046631,5.020141,-16.532898,-5.294799,0.967063957310477
-0.15625,0.962158,0.047363,3.128052,-19.210815,-4.78363,0.9759125643381172
-0.171875,0.976807,0.044922,1.655578,-20.278929,-3.990173,0.9928297522526206
-0.182617,0.989258,0.04248,0.427246,-19.40155,-3.028869,1.0068688641789456
-0.179932,0.99292,0.043457,-0.061035,-16.716003,-1.678467,1.0100268124525211
-0.165771,0.98999,0.045654,0.137329,-14.076232,-0.37384,1.0048106847844525
-0.161621,0.98999,0.044922,0.740051,-13.381957,0.465393,1.004101356350543
-0.168213,0.991699,0.045654,0.656128,-14.282226,0.854492,1.0068996015919363
-0.17627,0.994141,0.046143,-0.335693,-14.297484,1.922607,1.010701052354256
-0.172119,0.99585,0.056152,-0.50354,-12.374877,3.204345,1.0121735126770508
-0.173096,0.999268,0.05957,0.152588,-10.231017,3.875732,1.015897310725843
-0.178711,1.001709,0.056641,0.785828,-9.483337,3.890991,1.0191009494073686
-0.184814,1.007324,0.056885,0.572205,-9.048462,3.890991,1.025716217477817
-0.18335,1.008789,0.057617,-0.038147,-7.888793,4.463196,1.0269333901037592
-0.17041,1.008789,0.061768,-0.205994,-6.637573,4.837036,1.0249439499040909
-0.160156,1.006836,0.05835,0.305176,-6.317138,4.394531,1.0211627675018318
-0.164551,1.00293,0.058105,1.068115,-7.789611,3.250122,1.017998923145796
-0.17041,1.002686,0.053223,1.533508,-10.429381,1.838684,1.0184554336960454
-0.173096,1.008789,0.046387,1.564026,-12.20703,1.289368,1.0245824639852077
-0.174805,1.016357,0.040771,2.243042,-12.779235,0.923157,1.0320855652100749
-0.174805,1.017822,0.038818,2.708435,-13.061522,0.045776,1.0334530704550642
-0.172363,1.009766,0.035889,2.754211,-13.236999,-0.900268,1.0249997067541043
-0.168457,0.997803,0.041504,2.655029,-14.022826,-1.686096,1.0127739973330674
-0.168213,0.987549,0.041504,2.349854,-15.472411,-2.6474,1.0026321472933133
-0.165771,0.983643,0.044189,2.105713,-17.150879,-3.952026,0.9984919847505037
-0.163086,0.984863,0.052979,2.27356,-18.829346,-4.646301,0.9996794219178466
-0.162598,0.992432,0.047363,2.929687,-20.271299,-5.104064,1.0067783460111763
-0.155518,0.996826,0.041992,3.974914,-21.476744,-6.408691,1.0097580158948973
-0.151123,0.993896,0.048828,4.66156,-23.635862,-7.835388,1.0065046415834356
-0.159424,0.990234,0.049316,5.294799,-26.428221,-8.255005,1.0041969201247332
-0.16748,0.987305,0.049316,5.439758,-28.861998,-8.773804,1.0026229507052988
-0.173584,0.991211,0.045166,4.844666,-30.143736,-9.307861,1.0073086017368262
-0.179932,0.99292,0.050049,4.653931,-30.639647,-9.002686,1.010331902606762
-0.188965,0.994873,0.044678,4.562378,-30.242918,-8.216858,1.0136449975400659
-0.196777,0.997803,0.04541,4.341125,-29.174803,-7.659912,1.018034421145965
-0.192383,0.995605,0.049805,3.738403,-27.923582,-6.469726,1.015244341397183
-0.19165,0.993896,0.057129,3.173828,-26.245115,-5.104064,1.013815912262675
-0.196533,0.993164,0.065918,2.89917,-24.620054,-3.990173,1.014566475746661
-0.201416,0.99707,0.062012,2.777099,-22.941587,-3.135681,1.0190988559016245
-0.198975,1.003174,0.054199,3.257751,-21.301268,-2.372742,1.024151676511834
-0.192871,0.997559,0.057861,3.822326,-20.545958,-1.396179,1.0176792601026121
-0.197998,0.993896,0.059326,3.433227,-20.530699,-0.50354,1.0151610912047406
-0.205811,0.991211,0.058105,2.494812,-20.721434,-0.205994,1.0140185428615198
-0.212646,0.987549,0.064453,1.121521,-20.492552,0.389099,1.0122378860356889
-0.212158,0.979004,0.069092,0.045776,-19.378662,1.152039,1.0041083375034787
-0.219727,0.975098,0.070801,-0.518799,-17.066956,1.533508,1.0020523168647435
-0.22168,0.982666,0.061035,-1.655578,-13.801574,1.068115,1.0092074916393556
-0.208496,0.984863,0.070557,-2.037048,-11.123656,1.304626,1.0091600472838786
-0.202881,0.982666,0.072266,-1.548767,-9.155273,2.357483,1.005989832191658
-0.206299,0.982422,0.06665,-1.571655,-7.67517,2.555847,1.0060588879310197
-0.207764,0.982666,0.070068,-1.815796,-5.828857,2.258301,1.0068306073396855
-0.197266,0.981445,0.069336,-1.579285,-4.692078,2.059937,1.0034717951576915
-0.187744,0.982422,0.064941,-1.091003,-5.226135,2.166748,1.0023064047989518
-0.190674,0.985596,0.050537,-0.930786,-6.553649,1.88446,1.0051417998775098
-0.192383,0.98877,0.057861,-1.655578,-7.637023,1.289368,1.008972361816715
-0.175293,0.984863,0.069092,-2.349854,-10.06317,1.342773,1.0027245230281345
-0.186523,0.979492,0.06665,-3.265381,-12.763976,1.548767,0.9993185828818556
-0.218506,0.989258,0.052734,-5.592346,-13.183593,0.953674,1.0144738229032821
-0.2229,1.000488,0.055664,-7.621765,-11.268615,0.75531,1.0265277049549126
-0.221436,0.999756,0.0625,-7.408142,-8.346558,1.930237,1.02589093554432
-0.209473,0.995117,0.053467,-5.905151,-5.813598,2.792358,1.0183297606900232
-0.190918,0.982422,0.058594,-4.104614,-4.91333,2.105713,1.0025148007106928
-0.186279,0.976074,0.063232,-2.944946,-5.363464,1.098633,0.9957000578191205
-0.187988,0.977783,0.058838,-2.220154,-6.515502,-0.053406,0.9974271870552757
-0.192627,0.992188,0.045898,-2.059937,-7.591247,-1.571655,1.0117553137379611
-0.193359,1.001709,0.049316,-2.555847,-8.537292,-3.158569,1.021391546576532
-0.189697,1.001465,0.054443,-2.906799,-9.735107,-3.913879,1.0207257899568327
-0.175781,0.997803,0.05542,-3.173828,-11.398314,-4.020691,1.014682789432244
-0.169922,0.995117,0.059814,-3.77655,-13.908385,-4.272461,1.011290781313169
-0.17749,1.000488,0.058105,-4.737854,-16.334534,-4.516602,1.017769683803266
-0.187256,1.010742,0.056641,-5.264282,-18.081665,-4.760742,1.029501045643471
-0.192139,1.026123,0.051758,-5.40924,-18.478394,-4.562378,1.045239062135548
-0.194092,1.031738,0.046143,-4.699707,-17.723083,-3.959656,1.050849266810897
-0.202148,1.034424,0.034668,-3.288269,-16.51001,-3.623962,1.0545609019416564
-0.20459,1.031738,0.034424,-1.922607,-15.426635,-3.204345,1.0523903175723348
-0.197754,1.02417,0.041504,-0.312805,-14.175414,-1.914978,1.0439125516210637
-0.190674,1.019775,0.043945,1.724243,-12.908935,-0.839233,1.0383779600540453
-0.18457,1.022217,0.043457,4.119873,-12.33673,-0.282288,1.039654842165418
-0.175537,1.025879,0.043213,7.659912,-12.878417,-0.045776,1.04168532886808
-0.177734,1.020508,0.04834,12.390136,-14.297484,-0.442505,1.0369969664468648
-0.186523,1.015869,0.05542,17.425537,-16.319275,-2.044678,1.0343365173336962
-0.192139,1.012451,0.059814,22.628782,-18.218994,-4.814148,1.0322558487690927
-0.196045,1.017334,0.062256,28.900145,-19.416809,-7.507324,1.0379199964915409
-0.200195,1.025635,0.059326,36.582947,-20.370481,-9.910583,1.0466731894560022
-0.216064,1.033447,0.040283,45.074459,-20.828245,-12.077331,1.0565600191158095
-0.231201,1.041016,0.012451,54.855343,-20.668028,-15.098571,1.0664535817643446
-0.243652,1.038818,-0.005615,63.957211,-20.072937,-18.241882,1.06702420893483
-0.246826,1.023438,-0.009521,69.923401,-19.248962,-20.561216,1.0528243270180453
