ax,ay,az,gx,gy,gz,acc_mag
0.047363,1.031982,0.04248,-4.219055,12.5885,-1.434326,1.033941319656488
0.045166,1.03418,0.044434,-5.004883,12.275695,-2.212524,1.03611901841053
0.043213,1.037109,0.04126,-5.401611,12.641906,-2.494812,1.038828584921497
0.043701,1.039795,0.038574,-5.66864,13.404845,-2.502441,1.0414275648848554
0.046143,1.039795,0.041748,-5.897521,14.213561,-2.441406,1.0416552759804945
0.050049,1.034668,0.043213,-6.217956,15.312194,-2.502441,1.0367787304888154
0.051758,1.040527,0.041504,-6.591796,16.304016,-2.693176,1.0426398756564992
0.051758,1.044922,0.04126,-6.774902,17.349243,-3.204345,1.0470163629323086
0.053711,1.047363,0.045166,-6.973266,18.287659,-3.700256,1.0497114331310295
0.057617,1.047119,0.042969,-6.629943,19.142151,-3.768921,1.0495828951593102
0.061035,1.040527,0.039795,-5.767822,19.508362,-4.135132,1.043074949837738
0.059814,1.032471,0.041992,-5.386352,19.737244,-4.570007,1.0350543021991647
0.059814,1.031738,0.044922,-5.432128,19.90509,-5.111694,1.0344462293053225
0.061768,1.029297,0.045166,-5.729675,19.584656,-5.622863,1.03213737825398
0.065186,1.030273,0.045654,-6.271362,19.226074,-5.767822,1.033342129616808
0.063477,1.037354,0.041992,-7.064819,18.997192,-5.531311,1.0401422878188349
0.056641,1.040039,0.043457,-7.469177,19.950867,-5.744934,1.0424863717339425
0.060059,1.042969,0.049561,-6.988525,20.469664,-6.813049,1.0458717469952996
0.077393,1.041748,0.048828,-5.973815,19.325256,-7.30133,1.0457594109244246
0.077881,1.040527,0.045654,-4.829407,16.937256,-7.316589,1.0444358168915886
0.069092,1.037598,0.050781,-3.433227,14.656066,-8.537292,1.041134969170184
0.061768,1.038818,0.055176,-2.311707,13.313293,-10.269164,1.0421144437747707
0.058838,1.040283,0.049316,-1.350403,12.733459,-11.352538,1.0431120257139213
0.068115,1.048828,0.041992,0.144958,12.092589,-11.405944,1.0518760168731864
0.075195,1.050781,0.045654,2.006531,10.673522,-10.902404,1.054456867634708
0.066162,1.054688,0.055664,3.097534,9.925842,-11.306762,1.0582261896607927
0.055176,1.063232,0.03125,4.127502,11.413573,-11.779784,1.0651212322078647
0.052734,1.07959,-0.02832,6.713867,16.708374,-9.19342,1.0812481053190337
0.029785,1.089111,-0.058105,9.681702,28.343199,-2.883911,1.0910665000681672
-0.000732,1.097412,-0.054688,9.597778,48.522945,4.859924,1.0987740490710547
0.032715,1.130371,-0.109619,9.773254,75.057983,13.946532,1.1361448824982665
0.107422,1.201904,-0.290771,16.357422,105.003349,29.937742,1.2412334533604064
0.087891,1.278564,-0.43335,30.738829,139.503479,56.594845,1.3528647206860707
0.04248,1.30957,-0.439453,43.533321,181.228622,88.928215,1.3819902584710935
0.089355,1.317627,-0.411865,57.250973,233.29924,125.770561,1.3833864266281495
0.276123,1.288574,-0.338379,77.545166,249.992355,166.748032,1.3605760589713463
0.557373,1.284424,-0.25,103.309624,249.992355,209.3582,1.4222902913628428
0.769287,1.325195,-0.179932,135.009766,249.542221,246.147141,1.5428285066779133
0.875244,1.375,-0.15918,171.264633,249.992355,249.992355,1.6376859686569951
0.984863,1.356201,-0.138184,206.932053,249.992355,249.618515,1.6817642816476988
1.150635,1.273438,-0.134277,233.360275,249.984726,249.847397,1.7215212911253814
1.315918,1.233154,-0.19873,248.031601,249.992355,249.992355,1.8143325448605059
1.398193,1.226807,-0.169189,248.16893,249.992355,249.992355,1.8677858544862684
1.531006,1.14917,-0.096924,224.945053,249.992355,249.992355,1.9167590674657053
1.713379,1.049561,-0.075439,178.466782,249.992355,249.992355,2.0107055809051206
1.742188,1.016113,-0.068359,129.150391,241.561874,249.992355,2.0180132826604487
1.63501,1.012695,-0.033203,89.233391,157.241821,249.992355,1.9235153501685398
1.578369,1.03125,0.056885,59.761044,56.266781,249.992355,1.8862558590726761
1.548096,1.083496,0.146729,43.075558,-1.869202,249.992355,1.8952820915824113
1.457764,1.11499,0.240967,36.201477,-27.992247,249.992355,1.851038539546111
1.29541,1.074951,0.312012,31.913755,-29.792784,249.992355,1.7120041497160572
1.187256,1.004639,0.311768,30.693052,-11.863708,249.992355,1.5862142401583086
1.209961,0.940186,0.279053,33.096313,12.939452,249.992355,1.557506312323003
1.283691,0.899414,0.26001,32.516479,34.843445,249.992355,1.588840245895414
1.276611,0.854004,0.242432,25.848387,48.645016,249.992355,1.5549378611253248
1.312988,0.797607,0.254883,16.967773,46.943661,249.992355,1.5572667588701687
1.409912,0.790039,0.277832,7.575988,35.346985,249.992355,1.6398792911336493
1.398682,0.808838,0.299072,-2.052307,24.986265,249.992355,1.643159854838232
1.246094,0.800537,0.250488,-8.155823,20.1416,249.992355,1.502116501257143
0.989746,0.727783,0.173584,-8.68988,20.210264,249.992355,1.240724241989734
0.833984,0.608887,0.080811,-4.722595,12.847899,249.992355,1.0357620908036747
0.870605,0.503906,0.085205,2.479553,-6.347656,249.992355,1.0095217753401855
1.01709,0.452637,0.16333,5.088806,-31.555174,249.992355,1.125179546014324
0.990479,0.4646,0.191162,0.984192,-49.461361,249.992355,1.1106055644039428
0.808838,0.488037,0.184326,-0.350952,-58.708187,249.992355,0.9624838169491474
0.635986,0.473145,0.128662,7.637023,-62.461849,249.992355,0.8030555979911976
0.490479,0.383789,0.085449,22.003172,-62.690731,249.992355,0.628621648977348
0.400879,0.249268,0.104736,35.125732,-65.872192,249.992355,0.48353711146198486
0.321289,0.126465,0.134277,43.357845,-70.655823,249.992355,0.3704731170746401
0.286133,0.030518,0.147217,48.950191,-75.370789,249.992355,0.3232279181970518
0.343994,-0.035645,0.18457,54.611202,-77.255249,249.992355,0.3920057690404569
0.336182,-0.094482,0.22583,58.631893,-69.114685,249.992355,0.41586581291084745
0.25,-0.150879,0.230713,61.424252,-57.28912,249.992355,0.372146424153182
0.203857,-0.205566,0.199219,62.83569,-47.760006,248.229965,0.3514303156615832
0.177246,-0.280518,0.202148,62.83569,-39.94751,232.208237,0.38854897599144433
0.187256,-0.35376,0.240723,60.317989,-32.295227,219.223007,0.4670744157679802
0.176758,-0.397217,0.276367,51.460262,-18.539429,216.377243,0.5151732275089612
0.130859,-0.411133,0.313477,45.478817,3.807068,206.741318,0.5333125266661192
0.134766,-0.430664,0.338623,46.70715,25.588987,189.895615,0.5641798399278372
0.21167,-0.437988,0.368652,48.660275,40.740963,175.170883,0.6103621663799289
0.279297,-0.429199,0.41333,49.804684,48.96545,161.842331,0.6580731606060226
0.292725,-0.464111,0.426514,50.872799,50.460812,148.506165,0.6949828329836644
0.232178,-0.528809,0.443848,47.698971,48.377987,137.512207,0.728386318699768
0.106934,-0.549805,0.465088,42.335506,47.256466,132.827759,0.7280297151387435
0.017578,-0.574219,0.478027,40.718075,50.193783,132.606506,0.7473595244418847
0.008301,-0.604492,0.524902,35.766602,60.165401,127.593987,0.8006257516898891
0.01416,-0.589355,0.576416,24.79553,81.100456,121.360771,0.8244969537123833
-0.007813,-0.560059,0.595215,16.448975,101.890556,117.996208,0.8173175776128885
0.041748,-0.545654,0.60498,13.282775,113.983147,111.282341,0.8157707911049524
0.075684,-0.574463,0.637451,12.023925,122.413628,99.143974,0.861440412115661
0.092773,-0.658203,0.673584,7.194519,129.40979,90.469353,0.9463368447830824
0.067383,-0.708984,0.747314,-3.517151,138.252258,84.228508,1.0323163253291114
-0.006348,-0.708984,0.805908,-15.563964,150.375366,74.295044,1.0733994195191274
-0.015869,-0.701416,0.848633,-27.526854,156.62384,57.838436,1.1010968163181656
0.012939,-0.687012,0.891602,-44.18182,159.179688,36.949158,1.1256584882942962
0.029297,-0.648438,0.879883,-67.260742,162.246689,21.781919,1.0934003144969366
0.004639,-0.581543,0.838379,-91.903679,169.830307,12.878417,1.0203397124541416
-0.005371,-0.537354,0.843018,-108.947746,178.398117,0.679016,0.9997287218445813
0.027832,-0.544678,0.895264,-118.820183,184.982285,-14.122008,1.048306431156463
0.046387,-0.567383,0.938232,-129.379272,191.169724,-29.365538,1.0974308671993875
0.013672,-0.568359,0.966797,-150.161743,197.883591,-44.792171,1.1215682394192517
0.00293,-0.519043,0.956787,-181.88475,202.438339,-63.4613,1.0885107184212748
0.035645,-0.418213,0.899658,-216.476425,209.220871,-82.954399,0.9927523338466648
0.073486,-0.309326,0.785156,-247.91716,220.82518,-102.004997,0.8470848309396173
0.169922,-0.239746,0.760742,-249.992355,234.649643,-120.979301,0.81552438416273
0.34668,-0.227539,0.816406,-249.595627,248.275742,-133.171082,0.9156854130961135
0.503662,-0.177734,0.737061,-249.893173,249.992355,-142.440796,0.9102327739215942
0.532227,-0.083984,0.698975,-249.992355,249.862656,-150.901794,0.8825445838086594
0.516113,0.035645,0.592041,-249.992355,249.93895,-153.114319,0.7862288092374891
0.448486,0.244873,0.150391,-249.992355,249.992355,-147.476196,0.5326536691002888
0.362793,0.58252,-0.782715,-249.992355,249.992355,-142.753601,1.040956811051256
2.133789,5.918945,-3.418701,-242.965683,193.061813,-221.031174,7.160620220130865
7.71582,-0.291992,0.615479,161.277756,121.559135,-76.934814,7.745834493449043
1.103516,-3.795166,1.504883,208.297714,232.383713,160.270691,4.229149485830573
-3.443359,-1.504395,1.116211,-10.925292,-20.233152,249.992355,3.919930167162038
-1.566162,-0.943848,-0.118408,93.490593,-133.964539,93.681328,1.832411774632547
1.320557,-0.8396,-1.30835,142.486572,8.377075,34.606934,2.039749659332978
1.464111,-1.206299,-0.239014,179.885849,96.038811,100.46386,1.9120423609109711
1.097656,-1.716797,0.281494,142.852783,-102.210991,86.105339,2.0570560287899307
0.888672,-1.682617,-0.702148,36.781311,-249.992355,27.679441,2.028287382541488
0.341797,-1.074463,-0.677002,-39.878845,-244.567856,-11.550902,1.3151530844665953
0.29834,-0.674072,-0.592041,-42.8009,-247.444138,-31.639097,0.9454588105597198
0.206787,-0.744629,-0.609863,-10.017395,-244.64415,-57.815548,0.9844623353785558
-0.27417,-0.900879,-0.534424,-6.629943,-175.422653,-50.285336,1.0827562852816879
-0.35498,-0.997314,-0.498779,-21.591185,-81.481926,0.480652,1.170224980863509
-0.094482,-0.941162,-0.694336,-11.58142,24.475096,44.776913,1.1733777053719745
0.295166,-0.811279,-0.697021,21.171568,124.458305,70.205688,1.1095651661069754
0.706055,-0.822021,-0.519043,53.596493,183.02916,61.935421,1.2015148036187486
0.937256,-0.800537,-0.438721,70.091248,200.675949,51.86462,1.3083517928087995
1.080322,-0.709473,-0.492432,80.13916,171.913132,69.190979,1.3830895979787425
1.171631,-0.60791,-0.611328,100.288383,111.427299,95.458977,1.4546462428525364
1.111816,-0.550537,-0.673584,132.446289,32.432556,108.497612,1.411715697752561
0.988037,-0.541016,-0.66626,161.949142,-57.388302,104.48455,1.3087466573882816
0.840332,-0.545654,-0.605469,177.429184,-135.353088,91.209404,1.1706788064627291
0.740479,-0.553223,-0.519531,185.211166,-192.916855,80.253601,1.0603194316483122
0.702881,-0.559814,-0.436768,192.481979,-231.468185,76.599121,0.9990994447906575
0.650146,-0.563721,-0.337158,201.377853,-249.992355,77.529907,0.9242005756982626
0.547119,-0.572021,-0.202393,210.342392,-249.992355,78.598022,0.8170129442371156
0.419189,-0.584717,-0.115234,215.507492,-249.671921,77.125549,0.7286235396732663
0.345459,-0.582031,-0.061523,216.567978,-249.992355,74.897766,0.6796227520992805
0.344727,-0.568115,0.017578,217.369064,-249.992355,73.722839,0.6647558528046218
0.321289,-0.566406,0.082031,221.046432,-249.992355,72.029114,0.6563318240935754
0.335693,-0.586426,0.124756,224.845871,-249.55748,67.703247,0.6871312125504123
0.354492,-0.609375,0.21875,223.464951,-242.950424,59.196468,0.738142283837608
0.365723,-0.609375,0.340576,216.949448,-238.296494,49.72076,0.7880883295227763
0.374268,-0.586914,0.437256,207.946762,-239.47142,42.221066,0.8220324742709378
0.333984,-0.565918,0.522705,200.378403,-238.807663,35.438538,0.8396600574071629
0.241455,-0.576416,0.625,199.935898,-232.307419,31.318663,0.8838443992474014
0.144287,-0.637939,0.780273,205.062851,-218.765244,32.12738,1.0181408844649154
0.085938,-0.710449,0.945801,205.108627,-196.960434,35.186768,1.1860280996021975
0.064453,-0.759521,1.060791,194.282516,-170.745834,36.254883,1.3062556734158133
0.06665,-0.772217,1.112793,178.901657,-147.987366,34.77478,1.3561229953208522
0.059326,-0.769287,1.167725,165.138229,-132.820129,32.592773,1.3996084231920012
0.029541,-0.777588,1.237549,152.816772,-125.022881,29.006956,1.4618629538455374
0.006104,-0.79834,1.314697,138.595581,-120.948784,22.613523,1.538119701526835
-0.013428,-0.821533,1.411377,123.870842,-115.547173,18.859863,1.6331202703420225
-0.035889,-0.824951,1.479736,106.529228,-104.980461,17.860413,1.6945355713050108
-0.086914,-0.810791,1.52417,86.013786,-89.904778,12.908935,1.7285919929170677
-0.133545,-0.803711,1.557129,64.880371,-76.248169,4.66156,1.7573947653236595
-0.150146,-0.801025,1.557617,45.211788,-64.170837,-0.411987,1.7579407244358383
-0.15918,-0.810059,1.551514,27.19879,-48.789974,-0.068665,1.7574781785493099
-0.164795,-0.821289,1.570313,7.354736,-26.016233,1.251221,1.7797628863180062
-0.169189,-0.829346,1.640137,-16.944885,3.242492,-2.716064,1.84566765269536
-0.175781,-0.811768,1.683838,-46.012875,38.223267,-12.100219,1.87754538055116
-0.140625,-0.750977,1.611084,-77.857971,75.454712,-26.016233,1.7830685629582503
-0.087646,-0.68457,1.513916,-107.192986,109.016411,-40.084839,1.663808751411051
-0.035156,-0.646729,1.445313,-131.370544,136.222839,-50.636288,1.5838004961945176
-0.000732,-0.641357,1.42749,-153.282166,161.483749,-59.631344,1.5649495318932811
-0.020752,-0.643311,1.436768,-177.452072,192.329391,-70.571899,1.5743512867365403
-0.024902,-0.624756,1.460693,-204.689011,228.370651,-82.778923,1.5888877271188797
0.021973,-0.574463,1.480469,-237.388596,249.992355,-94.65789,1.588168445429829
0.085938,-0.494629,1.469482,-249.992355,249.992355,-107.231133,1.552874926003057
0.12085,-0.395996,1.448975,-249.992355,249.54985,-122.390739,1.5069658606421712
0.162109,-0.297363,1.467773,-249.67955,249.992355,-139.839172,1.5063404864701073
0.241455,-0.203369,1.476318,-249.992355,249.992355,-156.288147,1.509693447130907
0.320068,-0.088135,1.429688,-249.992355,249.992355,-169.830307,1.4677258191477727
0.369873,0.064941,1.311279,-249.992355,249.992355,-180.305466,1.3639926632687582
0.46875,0.242676,1.163086,-249.992355,249.992355,-192.184433,1.2772577057399186
0.594238,0.387695,1.128418,-249.992355,249.992355,-208.702072,1.3329491349608955
0.710205,0.510986,1.134766,-249.992355,249.992355,-225.120529,1.4328962659512376
0.783691,0.64917,1.11377,-249.992355,249.992355,-237.068161,1.5086672546592241
0.908691,0.806152,1.018066,-249.992355,249.992355,-238.578781,1.5849475577889003
-0.130127,1.814941,0.231445,-249.992355,249.992355,-234.580978,1.8342602480659607
3.791504,5.56958,-4.47168,-187.499985,159.759521,-212.089523,8.086510123707013
5.389893,-2.694336,-0.060303,240.219101,190.772995,204.009995,6.026112302650358
-2.076172,-3.546143,2.091797,210.678085,201.538071,249.992355,4.610990678719921
-2.27832,-1.811279,1.446045,182.77739,-35.980225,155.082703,3.2500030431164215
0.237061,-1.533691,-0.507324,137.893677,-77.583313,-39.703369,1.6327227695411122
0.98291,-0.931396,-1.128418,38.05542,-15.2359,31.875608,1.7626507764273671
0.838867,-1.012695,-0.36084,17.311096,-82.786552,117.439262,1.3636181695452727
0.950195,-1.038818,-0.251221,6.248474,-211.37236,105.300896,1.4300787971262283
0.925781,-0.950195,-0.646484,7.568359,-249.992355,42.243954,1.475765076237407
0.574707,-0.890625,-0.506348,9.757996,-249.992355,15.61737,1.1746869044890216
0.344482,-0.836914,-0.565186,12.893676,-249.191269,41.53442,1.0670183252015872
0.419922,-0.82373,-0.684814,12.992858,-249.862656,53.916927,1.1505806419282396
0.344727,-0.993164,-0.779785,18.371582,-215.812668,15.838622,1.3089217247986986
-0.099121,-0.990234,-0.648193,46.554562,-123.199455,40.27557,1.1876626257679408
-0.06958,-0.901367,-0.462891,61.546322,2.89917,39.421082,1.015663292124905
0.411377,-0.805664,-0.585205,58.715816,121.185295,21.820066,1.077399837131044
0.911133,-0.723633,-0.577881,83.038322,178.199753,36.399841,1.2991360639051632
1.344971,-0.723389,-0.468506,114.128105,164.62706,52.894588,1.5974155715398544
1.525146,-0.751709,-0.503418,135.475159,108.093254,69.335938,1.7732925378292776
1.414795,-0.717041,-0.686279,145.126343,27.214048,84.373466,1.7282278650533907
1.190674,-0.624268,-0.719238,150.764465,-62.980648,91.049187,1.5247027286471289
1.000488,-0.57959,-0.619873,162.780746,-147.422791,97.030632,1.3119235276390924
0.837402,-0.616211,-0.501465,179.130539,-206.298813,102.72979,1.154307260806238
0.710449,-0.664307,-0.355469,188.995346,-234.17662,106.575005,1.0355673719324108
0.66748,-0.668457,-0.186523,188.560471,-242.195114,108.009331,0.9628889555800295
0.662598,-0.614502,-0.035889,182.792648,-240.066513,105.758659,0.9043986056651127
0.626465,-0.563965,0.063232,182.533249,-237.129196,103.546135,0.8452888283149139
0.566162,-0.553223,0.112549,196.014389,-237.655624,103.897087,0.7995388516976522
0.507813,-0.569824,0.15625,211.769089,-238.96788,103.256218,0.7790940228528261
0.48999,-0.592285,0.212646,209.526047,-240.776047,95.397942,0.7975650711014117
0.501953,-0.579346,0.295654,190.513596,-243.576035,85.189812,0.8215898548795499
0.516846,-0.530518,0.376709,173.126205,-246.612534,79.162598,0.8309565612720078
0.509277,-0.490967,0.484863,169.822678,-246.932968,73.539734,0.8576151739486656
0.477295,-0.470215,0.593262,176.513657,-242.195114,65.757751,0.8949147802411132
0.368408,-0.465576,0.695068,181.861862,-231.140121,57.53326,0.914114320456692
0.235596,-0.477539,0.83667,181.045517,-217.80394,52.87933,0.9917487890776575
0.112305,-0.499023,0.958984,175.285324,-200.798019,55.938717,1.086870130148952
0.023682,-0.521484,0.999512,169.082626,-180.023178,61.958309,1.1276216730464166
0.008545,-0.563965,1.029053,167.625412,-158.927917,64.590454,1.173490355758836
0.030518,-0.621338,1.109375,168.090805,-139.755249,62.805172,1.2718903841105962
0.03125,-0.680908,1.22876,162.696823,-124.298088,56.961056,1.4051560071977773
-0.004639,-0.726074,1.335938,150.550842,-112.617485,48.675533,1.5205049535075512
-0.074707,-0.767822,1.418701,136.375427,-100.952141,41.824337,1.614882127876211
-0.15918,-0.799316,1.493408,121.856682,-86.235039,37.849426,1.701326480931864
-0.239502,-0.821289,1.557129,104.850761,-68.374634,32.829285,1.7766619127357912
-0.28833,-0.826904,1.596191,85.533134,-48.759457,26.43585,1.820640031032219
-0.285889,-0.818604,1.622803,64.865112,-29.563902,19.371033,1.8399278806371733
-0.279053,-0.801514,1.609375,39.146423,-12.08496,9.208679,1.8194458386085581
-0.281738,-0.7854,1.587891,10.231017,0.663757,-3.074646,1.7937745924516268
-0.280518,-0.767334,1.547363,-17.944336,11.375426,-14.205932,1.749806866385259
-0.282715,-0.756836,1.498779,-43.914791,27.046202,-23.078917,1.7026646742567957
-0.286377,-0.75293,1.471924,-69.374084,51.23901,-30.838011,1.6779379108909245
-0.263428,-0.73877,1.451904,-97.724907,83.557121,-40.885921,1.6502123043111756
-0.21875,-0.707764,1.445068,-127.944939,121.017448,-52.726742,1.623885145821588
-0.145996,-0.656006,1.424316,-158.38623,158.180237,-65.391541,1.5749078614026917
-0.033203,-0.592773,1.386475,-187.026962,190.551743,-78.712463,1.508242418964206
0.084473,-0.528809,1.351807,-211.997971,217.628464,-92.64373,1.4540140341341277
0.161621,-0.473633,1.39624,-234.611496,240.928635,-108.871452,1.4832180230599952
0.174316,-0.42041,1.505859,-249.992355,249.992355,-126.358025,1.573131260841574
0.123047,-0.33667,1.55835,-249.992355,249.992355,-143.684387,1.5990440818216989
0.083984,-0.204102,1.512451,-249.702438,249.778732,-161.933884,1.5284694848314768
0.264404,-0.060791,1.451172,-249.992355,249.992355,-180.595383,1.4763147342220084
0.524414,0.084473,1.38501,-249.992355,249.992355,-196.121201,1.4833740024771231
0.749756,0.219238,1.294434,-249.992355,249.992355,-212.25737,1.511872594015779
0.828857,0.33667,1.166016,-249.992355,249.992355,-226.661667,1.4696747693299357
0.746094,0.418701,1.076904,-249.992355,249.992355,-235.237106,1.3753868581068385
0.628906,0.4729,0.964355,-249.992355,249.992355,-233.360275,1.2446436168080404
0.573975,0.520752,0.828125,-249.992355,249.992355,-221.221909,1.1342049910637848
0.39624,0.926025,0.574219,-249.992355,249.992355,-207.748398,1.1594205010202294
2.981201,6.115479,-3.90332,-201.339706,137.580872,-240.158066,7.843631163194888
7.321777,-0.528076,0.296143,222.511276,138.786316,71.586609,7.346766865496278
0.367188,-3.84375,2.121094,249.992355,136.680603,235.916122,4.405483043512936
-2.876953,-1.560791,1.782227,162.818893,-152.915955,249.992355,3.726829777360243
-2.080811,-1.689697,0.345703,193.008408,-149.169922,88.058464,2.702658123725419
0.16626,-1.409912,-1.637451,76.087952,-68.000793,26.779173,2.167196348452304
0.606934,-1.010742,-0.523193,129.562378,66.261292,83.145134,1.2898446364461884
1.742432,-1.456787,0.702393,106.620781,-54.679867,47.424313,2.3773206692497335
1.342529,-1.460693,-0.61792,16.410828,-192.275986,69.160461,2.0779396724857055
0.146729,-1.13208,-0.128906,-24.16992,-210.48735,57.090755,1.1488042838869466
-0.242432,-0.831299,-0.116699,-37.879944,-197.669968,50.941463,0.8737562352429882
-0.18335,-0.765137,-0.311523,-13.97705,-150.115967,31.906126,0.8462259927454368
-0.11084,-0.829102,-0.26123,12.351989,-81.535332,9.223938,0.8763200014287018
-0.061523,-0.9021,-0.166504,29.258726,-29.45709,7.026672,0.919398211628128
0.062012,-0.908691,-0.134766,31.341551,12.519835,-1.625061,0.9207207483167739
0.169434,-0.874512,-0.184082,38.078308,74.523926,-18.112183,0.9095962297767071
0.432129,-0.840332,-0.25708,46.730038,109.161369,-30.372618,0.9792770135487711
0.677246,-0.793213,-0.208984,46.836849,119.99511,-42.79327,1.063730849482612
0.747559,-0.790771,0.005371,30.532835,124.626152,-49.011227,1.0882058998934898
0.674072,-0.6521,-0.148682,-31.051634,162.818893,-37.185669,0.9495861247448807
0.865967,-0.493652,-0.200928,-20.76721,156.486511,-26.44348,1.0168398120535014
0.935303,-0.598389,-0.150391,33.485413,131.858826,-23.239134,1.1204813920860086
0.836426,-0.718018,-0.105469,94.467155,77.064514,-7.019042,1.107376183490055
0.693359,-0.833496,-0.010742,93.811028,20.904539,4.852295,1.0842405985116956
0.604004,-0.849121,0.015137,54.63409,-8.224487,11.611938,1.0421403136938903
0.558838,-0.783203,-0.027588,39.718628,-18.791199,21.705626,0.9625320499583377
0.593994,-0.730713,-0.101074,47.012325,-36.689758,31.951902,0.9470936141063353
0.590332,-0.699707,-0.166504,55.496212,-50.148006,32.691956,0.9304866136001096
0.517822,-0.681396,-0.20166,57.800289,-54.367062,26.43585,0.879264970358765
0.496094,-0.655762,-0.249268,58.586117,-57.479855,18.730164,0.8592249957397654
0.507813,-0.615967,-0.282227,59.616085,-59.013363,10.536193,0.8467239618594716
0.534668,-0.571777,-0.277588,59.265133,-64.727783,1.564026,0.830574443200006
0.570068,-0.531982,-0.226563,59.547421,-80.062866,-5.882263,0.8119810132737095
0.593018,-0.499023,-0.166748,62.45422,-102.394096,-9.536743,0.7927794134291077
0.582031,-0.467285,-0.133545,65.605164,-125.968925,-12.161254,0.7582543262065835
0.546143,-0.455078,-0.135742,69.297791,-145.133972,-16.548157,0.7237361764462241
0.532959,-0.506104,-0.139404,85.59417,-156.288147,-17.829895,0.748077555947911
0.510986,-0.606934,-0.135742,115.348808,-159.103394,-16.120911,0.8049232653588788
0.46582,-0.718018,-0.085938,135.696411,-157.363892,-20.156858,0.8601880379126415
0.423584,-0.784912,0.025146,134.300232,-154.022217,-29.579161,0.8922682187078055
0.383301,-0.769287,0.10498,122.550957,-147.064209,-39.024353,0.8658769805058916
0.34668,-0.689453,0.124512,113.571159,-135.848999,-48.652645,0.7816877252157667
0.316162,-0.592041,0.135986,110.931389,-123.977654,-59.143063,0.6848088405686655
0.292969,-0.515869,0.156738,113.822929,-114.036552,-68.17627,0.613611001177456
0.276855,-0.471924,0.140381,119.873039,-108.070366,-75.286865,0.5648608483175304
0.309082,-0.458496,0.06543,125.587456,-109.069817,-82.290642,0.556804588379083
0.380127,-0.480713,0.011719,130.729675,-115.097038,-87.371819,0.6129591009675931
0.403809,-0.519287,0.05835,137.611389,-121.200554,-88.218681,0.6603979250043114
0.338135,-0.54126,0.124268,141.448975,-127.777092,-90.110771,0.6501847442450491
0.251465,-0.538818,0.150879,137.084961,-135.093689,-98.31237,0.6134524887796935
0.181152,-0.501221,0.166504,127.243034,-138.076782,-110.000603,0.558356624354901
0.121582,-0.440186,0.177734,118.087761,-134.773254,-123.497002,0.49003599059252784
0.088379,-0.383057,0.179443,113.899223,-129.653931,-138.832092,0.43213806027587987
0.087891,-0.345703,0.176514,115.859978,-126.564018,-154.624939,0.3979856583923596
0.113525,-0.322021,0.164795,118.553154,-126.342766,-171.913132,0.37913433251421585
0.296387,-0.295166,0.150879,113.861076,-129.631042,-192.398056,0.4446714449635821
0.53125,-0.229004,0.153809,97.511284,-127.395622,-211.563095,0.5986038782007681
0.528809,-0.108887,0.149658,72.509766,-119.60601,-230.850204,0.5602614159604424
0.443359,0.010742,0.125977,54.489132,-125.564568,-248.329147,0.46103448675126246
0.400879,0.085693,0.110596,54.504391,-141.113281,-249.992355,0.4245924376457969
0.319824,0.112305,0.138672,65.292358,-150.856018,-249.80925,0.36623725586701306
0.227783,0.106445,0.177002,72.677612,-152.984619,-249.93132,0.3074822614688529
0.188721,0.097168,0.205811,69.328308,-150.283813,-249.992355,0.29566096087579774
0.257324,0.117432,0.233643,55.702206,-144.371033,-249.992355,0.3668718673447175
0.643555,0.194092,0.293457,32.676697,-136.444092,-249.992355,0.7334519434414227
1.095459,0.359375,0.318604,-3.730774,-110.839836,-249.992355,1.1961142588072429
1.020508,0.600098,0.298828,-52.467342,-69.55719,-249.992355,1.2210046524284828
0.766602,0.842041,0.28125,-91.873161,-52.635189,-249.992355,1.1729506530903167
0.64624,1.008057,0.26123,-96.641533,-54.046627,-249.992355,1.2255799303794919
0.518311,1.08252,0.283203,-67.28363,-45.951839,-249.992355,1.2331665671473582
0.437256,1.067871,0.317139,-28.808592,-32.997131,-249.992355,1.1967115055425848
0.524902,0.896484,0.337158,-5.371093,-24.360655,-249.992355,1.0921910038193867
0.556641,0.590332,0.443848,-14.129638,-20.431517,-249.992355,0.9248470793644753
0.604492,0.977783,0.536377,-76.004028,-29.754637,-249.992355,1.2685308270917188
0.82251,1.215576,0.406738,-137.229919,-16.212463,-249.992355,1.5230178963229553
0.751465,1.445557,0.373047,-158.920288,33.493042,-249.992355,1.6713763043321515
0.636475,1.575439,0.44751,-163.017258,80.581657,-249.992355,1.7570923904126385
1.0271,1.967529,0.543701,-174.118027,98.930351,-249.992355,2.2851073395449064
1.326172,2.041748,0.602539,-173.530563,76.286316,-249.992355,2.508090970361522
1.414795,1.934326,0.578857,-146.476746,19.973755,-249.992355,2.4654284399978033
1.493408,1.771973,0.575195,-111.495964,-55.862423,-249.992355,2.387677753638041
1.415771,1.585938,0.588379,-99.105827,-125.099174,-249.992355,2.205855097672102
1.242188,1.430664,0.617432,-110.572807,-177.787766,-249.992355,1.9927500552914308
1.131104,1.340088,0.628174,-132.392883,-213.844284,-249.992355,1.8627492265025907
1.046143,1.296143,0.595459,-152.481079,-230.819687,-249.992355,1.7688904074529321
1.048584,1.270264,0.450928,-168.983444,-240.386948,-247.344955,1.707757329346298
1.090088,1.299316,-0.042236,-179.588303,-235.458359,-216.850266,1.696554683850774
0.858398,1.441895,-0.492676,-183.128342,-199.935898,-169.090256,1.7488962114445212
0.549072,1.575928,-0.537598,-179.634079,-150.718689,-133.644104,1.7532942513942147
0.33374,1.537109,-0.225586,-161.003098,-92.369072,-102.935783,1.5890171518511058
0.255127,1.359131,0.094971,-137.382507,-22.331236,-63.995358,1.3861263838954225
0.318604,1.17334,0.205566,-108.154289,51.010128,-26.679991,1.233082578245269
0.394287,1.005859,0.212402,-75.248718,120.582573,-2.784729,1.101058207296054
0.443115,0.911133,0.177246,-55.160519,183.90654,9.712219,1.0285574322467363
0.463135,0.901123,-0.0979,-47.813412,236.206039,10.490417,1.0178905144238255
0.357178,0.989258,-0.756836,-51.185604,249.992355,-7.453918,1.2957655054615398
1.157715,1.263184,-0.610352,-124.092094,249.954208,-64.163208,1.8189192953468276
2.434082,1.509033,-0.573242,-141.799927,249.610886,-56.083675,2.9207091892855406
2.019287,1.687256,-0.702637,-57.983395,249.992355,55.000301,2.7236100219513806
1.378662,1.578369,-0.446045,30.960081,218.757614,118.629448,2.142641769505579
1.110352,1.181641,-0.063477,95.581047,124.793999,115.69976,1.6227095693049944
0.901611,0.809082,0.165771,107.170097,31.85272,80.169678,1.2227003322507115
0.702637,0.641357,0.324707,78.330994,-37.93335,37.391663,1.0052224584971228
0.537598,0.684326,0.377441,34.484863,-92.277519,-9.246826,0.9485649120439782
0.460693,0.818115,0.434082,-1.312256,-135.192871,-50.971981,1.0343971075935974
0.493408,0.941162,0.462646,-28.305052,-169.280991,-76.48468,1.1589990017355494
0.531738,1.042236,0.437012,-38.314819,-205.383286,-72.212219,1.2489918608557862
0.469238,1.080322,0.452148,-25.253294,-236.587509,-48.034664,1.26163296494345
0.341064,1.040527,0.475342,0.953674,-249.992355,-27.236937,1.1937215365356362
0.246094,0.931152,0.483887,27.770994,-249.992355,-18.081665,1.0778464328043211
0.189209,0.785645,0.476563,41.748043,-248.092636,-17.219543,0.9381633145007324
0.132813,0.677979,0.482422,37.742615,-228.996262,-19.424438,0.8426302887352198
0.092041,0.625732,0.455566,23.841856,-196.495041,-21.034239,0.7794565169789781
0.094238,0.616211,0.396729,6.843566,-163.772568,-19.165039,0.7389118327689711
0.076416,0.656006,0.359619,-9.277344,-127.655022,-15.99121,0.7520033924478
0.039795,0.730469,0.3396,-22.033689,-90.988152,-16.540527,0.8065337946955479
0.061523,0.814941,0.294434,-28.007505,-57.769772,-19.081116,0.8686802020110738
0.134277,0.877197,0.259521,-26.473997,-29.785154,-19.203186,0.9245842519635514
0.20874,0.900391,0.251953,-20.751951,-9.368896,-16.273499,0.957996166323227
0.264404,0.886475,0.265869,-14.47296,2.14386,-11.772155,0.9625142731419624
0.300781,0.863525,0.307861,-12.641906,5.53894,-9.20105,0.9648435266440876
0.342285,0.867432,0.334961,-18.52417,2.304077,-11.947631,0.9908562798761483
0.37085,0.912842,0.335449,-27.168272,-3.707886,-15.953063,1.040834410972754
0.361816,0.971924,0.338867,-32.440186,-8.834839,-17.791748,1.0910444185829467
0.317627,1.019287,0.314209,-33.462524,-11.184691,-16.487122,1.1129061933420086
0.276855,1.042969,0.303467,-29.075621,-10.276793,-13.359069,1.1209483690496187
0.296387,1.032227,0.309326,-22.804258,-4.966736,-9.765625,1.1175958158359398
0.314941,0.992432,0.337646,-15.899657,4.562378,-1.075745,1.094583906980639
0.30127,0.947754,0.391602,-10.223388,13.114928,8.68988,1.0688093299648913
0.281738,0.924805,0.430664,-11.032104,19.073486,13.229369,1.0583534709939775
0.234375,0.939209,0.423828,-20.614622,26.077269,11.70349,1.0567286122226462
0.192139,0.986816,0.376709,-36.170959,35.469055,6.072998,1.0736074160781492
0.201172,1.025146,0.330811,-49.46899,46.684261,3.059387,1.0958240792303298
0.225098,1.033936,0.310303,-55.183407,57.098385,10.032654,1.1027151552005623
0.230713,1.015381,0.335205,-56.304928,62.026974,22.270201,1.0938873139199488
0.253906,0.976807,0.400879,-60.577389,58.013912,29.624937,1.0859669169574182
0.299316,0.92334,0.439209,-68.351746,43.983456,30.540464,1.0653878960909027
0.316162,0.897949,0.455078,-80.291748,23.963926,26.840208,1.0551619794747156
0.340332,0.909424,0.404297,-100.71563,2.601623,16.906738,1.051824104215624
0.371094,0.960449,0.337646,-119.422905,-20.149229,5.889892,1.0835948780577547
0.380615,1.038086,0.306396,-129.104614,-45.776363,-3.692627,1.147331177314118
0.39502,1.129883,0.214355,-126.785271,-76.904297,-15.022277,1.2159870312277183
0.379883,1.177246,0.177002,-108.657829,-112.594597,-28.892515,1.2496195205777636
0.377441,1.181152,0.111572,-79.658508,-155.776978,-46.150204,1.245002034845325
0.370605,1.143799,0.10083,-48.942562,-189.674362,-60.531612,1.206561605275918
0.228516,1.112305,0.091064,-33.340454,-200.454697,-65.948486,1.1391815603217075
0.062012,1.122803,0.035645,-21.65222,-186.767563,-64.125061,1.1250789443314635
0.00415,1.134033,-0.001953,-8.468628,-155.860901,-57.548519,1.1340422751370427
0.026367,1.083984,0.075928,3.936767,-120.712273,-45.608517,1.086959793243982
0.058105,1.0,0.156006,14.167785,-88.844292,-29.693602,1.0137623306579309
0.096924,0.921631,0.223877,19.645691,-62.309261,-18.4021,0.953372368524492
0.14624,0.859619,0.28418,20.500181,-41.618343,-13.870238,0.9171091729783319
0.189697,0.830322,0.320801,16.914368,-26.93939,-12.145995,0.9101279344652596
0.216797,0.841309,0.325195,10.429381,-16.059875,-11.947631,0.9276602614723776
0.244385,0.859619,0.31958,5.455017,-8.796692,-11.596679,0.949104962470432
0.282959,0.880371,0.316895,3.700256,-5.516052,-11.184691,0.9775179457928126
0.310547,0.894531,0.327393,4.432678,-4.508972,-11.001586,1.0019038504861633
0.317139,0.907715,0.337646,5.584716,-4.547119,-11.83319,1.0190821791504354
0.330811,0.912842,0.337646,7.461547,-5.935668,-13.862609,1.0279694820377696
0.349365,0.905029,0.340332,10.154723,-8.842468,-15.304564,1.0280852417431152
0.366455,0.896973,0.357178,12.21466,-15.060424,-16.098022,1.0326790176226106
0.374268,0.892822,0.362305,12.268065,-24.757383,-17.036438,1.0336694696724869
0.364746,0.897461,0.372314,13.107299,-35.385132,-19.195557,1.037831202861525
0.349854,0.890137,0.392334,14.404296,-45.280453,-23.612974,1.0337638355257934
0.337646,0.878906,0.404541,12.977599,-52.536007,-25.253294,1.0247604592454764
0.320801,0.877686,0.40332,10.482787,-55.953976,-22.819517,1.0177981227124562
0.30957,0.885986,0.398193,7.789611,-56.426998,-19.775391,1.0194912664388058
0.305176,0.905518,0.373779,3.120422,-53.405758,-18.386841,1.026063341193418
0.306641,0.921143,0.357178,-1.815796,-45.890804,-15.563964,1.0344608513684797
0.313232,0.935059,0.353271,-5.401611,-35.881042,-9.681702,1.0474970256501925
0.316895,0.951416,0.328613,-6.774902,-25.466917,-1.968384,1.0552731162357925
0.307861,0.95752,0.310059,-4.592896,-15.3656,4.890442,1.0525015578145243
0.311279,0.950684,0.290039,-0.686645,-7.637023,9.803772,1.0415456328063595
0.316162,0.936523,0.267334,1.449585,-3.662109,12.382506,1.0239634794898693
0.310303,0.922607,0.245361,1.708984,-4.02832,12.08496,1.0038394535875745
0.294189,0.917725,0.235596,0.823975,-7.980346,9.147644,0.9921047417294204
0.28418,0.922607,0.227783,-1.617432,-13.84735,3.807068,0.9918906411182635
0.27832,0.936035,0.210205,-4.508972,-19.966125,-1.701355,0.9989042424827317
0.27124,0.956543,0.209473,-7.240295,-24.589537,-6.904602,1.0160829622516068
0.275391,0.963379,0.215088,-8.331299,-28.587339,-10.742187,1.0247937101026723
0.27832,0.956787,0.229492,-7.072448,-32.333374,-12.695312,1.0225311554339065
0.284668,0.943604,0.243652,-6.263732,-35.385132,-14.114379,1.015278619958088
0.286621,0.937256,0.254395,-6.324768,-37.117004,-15.174865,1.0125794898189473
0.281494,0.936523,0.267334,-7.30133,-37.582397,-16.38031,1.0137956742465417
0.28833,0.94043,0.269287,-8.766174,-37.696838,-17.64679,1.0198324676970232
0.299072,0.945068,0.270752,-9.315491,-37.658691,-17.936707,1.0275720078476251
0.302246,0.948975,0.270996,-9.132385,-37.445068,-16.983032,1.0321555246943166
0.300781,0.955322,0.266113,-8.613586,-37.155151,-15.708922,1.0363037500723424
0.304199,0.956787,0.258301,-7.652282,-36.575317,-14.35089,1.0366763243997617
0.29834,0.95166,0.261719,-6.393432,-35.598755,-12.359618,1.0310966715885568
0.283691,0.951904,0.275879,-5.851745,-33.973694,-11.596679,1.0308787665569603
0.279785,0.958008,0.276367,-6.79779,-32.188416,-12.413024,1.0355856763097875
0.284668,0.966797,0.269531,-7.530212,-30.22003,-13.198852,1.0432541729578655
0.284424,0.968262,0.270996,-7.278442,-28.625486,-12.725829,1.044924468292326
0.278564,0.959717,0.273438,-6.080627,-28.015135,-11.070251,1.036061273298544
0.272217,0.947266,0.278564,-4.78363,-28.549192,-9.353638,1.0242132941633788
0.265137,0.935059,0.274414,-4.547119,-28.434752,-8.255005,1.009918811413076
0.25415,0.92749,0.277588,-4.79126,-27.06909,-7.263183,1.0009420664274233
0.241455,0.92334,0.28125,-5.783081,-24.185179,-6.790161,0.994966750763562
0.238281,0.924072,0.273682,-6.591796,-20.980833,-6.355285,0.9927682172939462
0.237549,0.929199,0.263672,-6.67572,-17.562866,-5.073547,0.9946673979707992
0.231445,0.933594,0.25708,-6.813049,-13.687133,-3.807068,0.9956177335006644
0.231445,0.947754,0.234375,-7.881164,-9.750366,-3.326416,1.0033623837706893
0.236572,0.968262,0.221191,-8.81958,-6.095886,-3.921509,1.0209912195063187
0.242188,0.970215,0.251221,-8.651733,-2.510071,-4.867554,1.0310597288275787
0.253662,0.966064,0.262939,-8.468628,-0.137329,-4.79126,1.0328412172551016
0.263428,0.970215,0.255127,-8.026123,1.533508,-4.669189,1.037208389639228
0.265869,0.967773,0.257324,-6.805419,2.998352,-4.570007,1.036091958112792
0.265137,0.962402,0.26123,-5.783081,4.478455,-3.814697,1.031870317081076
0.272949,0.962891,0.259277,-5.264282,5.470275,-3.479004,1.0338688491346473
0.287598,0.962891,0.257568,-4.577637,5.493164,-3.013611,1.0374068450270608
0.293945,0.958008,0.257324,-3.555298,4.310608,-1.876831,1.0346007114172113
0.284668,0.961182,0.268066,-3.089905,2.601623,-2.288818,1.0376734012703612
0.2854,0.964844,0.276611,-3.982544,1.014709,-4.78363,1.0434992811003754
0.294922,0.964111,0.283691,-4.600525,-0.534058,-5.676269,1.0473631604586826
0.293213,0.963623,0.2854,-4.493713,-2.166748,-4.776001,1.0468984236772925
0.293945,0.962646,0.280029,-4.364014,-3.120422,-4.226685,1.0447522314797897
0.297607,0.95874,0.266602,-4.302979,-3.257751,-4.081726,1.0386669054384086
0.293457,0.954834,0.256592,-3.746032,-3.440857,-3.189087,1.0313410846412547
0.291992,0.94751,0.246826,-3.257751,-3.959656,-1.968384,1.0217424344911978
0.29126,0.945313,0.24707,-3.204345,-4.737854,-1.64032,1.0195551188969627
0.292969,0.947266,0.244629,-3.479004,-5.302429,-1.792908,1.0212673779955963
0.283936,0.952393,0.247803,-3.013611,-5.615234,-1.594543,1.0242452857367712
0.280029,0.957275,0.251221,-2.326965,-5.66864,-1.419067,1.0285444362335543
0.282471,0.957031,0.255371,-1.617432,-5.844116,-1.579285,1.030006091459172
0.282471,0.955566,0.259521,-0.709534,-6.324768,-1.533508,1.0296831530320383
0.276855,0.953125,0.260742,0.244141,-6.965637,-1.251221,1.0261980058516973
0.272217,0.949951,0.264404,0.762939,-7.713317,-1.182556,1.0229459774132748
0.269287,0.953369,0.265869,0.038147,-7.919311,-1.533508,1.0257262128321574
0.281006,0.954102,0.258545,-0.793457,-8.071899,-2.5177,1.0276772428467023
0.280518,0.954102,0.262695,-0.160217,-7.965087,-1.953125,1.0285959545676815
0.271729,0.953857,0.268066,0.198364,-7.415771,-1.350403,1.027394377172661
0.27417,0.95874,0.274902,-0.152588,-6.16455,-1.747131,1.034370671521578
0.281738,0.963867,0.279785,-0.25177,-4.745483,-1.541138,1.0424469005939823
0.286377,0.970459,0.272949,0.114441,-4.119873,-0.083923,1.047999815558667
0.286621,0.971924,0.266846,0.984192,-4.402161,1.098633,1.0478523975889926
0.288818,0.968262,0.26123,2.288818,-4.959106,1.846313,1.0436418210612297
0.284668,0.96167,0.257813,3.540039,-5.134582,2.593994,1.0355252783457292
0.277588,0.950195,0.254639,4.142761,-5.119323,3.631592,1.0221382764039315
0.273438,0.944336,0.250732,3.944397,-5.027771,4.364014,1.0145961544200726
0.269287,0.943115,0.256104,2.914428,-4.920959,4.447937,1.0136915953138805
0.27124,0.949707,0.260254,1.312256,-5.004883,3.64685,1.02139447226084
0.275146,0.958496,0.250977,0.572205,-5.142211,2.89917,1.0283041173996144
0.276123,0.962646,0.246826,1.419067,-5.043029,2.929687,1.0314331324526085
0.2771,0.963623,0.238281,2.380371,-4.798889,2.990722,1.0305976572309874
0.279053,0.95874,0.237305,3.509521,-4.53949,2.967834,1.026336507893001
0.281006,0.951904,0.238525,4.173279,-4.440308,3.40271,1.0207741047249386
0.281006,0.947754,0.240234,4.188538,-4.325867,3.753662,1.0173074222220144
0.28125,0.946045,0.251953,3.913879,-4.440308,2.998352,1.0186181908517047
0.284424,0.948486,0.259033,3.448486,-4.470825,1.89209,1.0235334870247286
0.286133,0.954102,0.261963,3.295898,-4.394531,1.701355,1.0299550152613464
0.286865,0.961426,0.260742,3.341675,-4.493713,1.678467,1.0366377729298697
0.29126,0.967285,0.254883,3.616333,-4.249573,1.564026,1.0418435595203341
0.293213,0.968506,0.248291,4.463196,-3.845215,1.937866,1.0419338539878622
0.296631,0.965088,0.253174,5.630493,-3.738403,2.89917,1.040904353041623
0.294434,0.957031,0.255859,6.019592,-3.288269,3.89862,1.0334715976735886
0.293701,0.956543,0.262939,5.264282,-2.426147,4.592896,1.0345876985403413
0.29834,0.963135,0.265625,4.447937,-1.411438,5.142211,1.0426851991133277
0.304443,0.968018,0.265381,4.66156,-0.610352,5.973815,1.048890587112879
0.305664,0.972412,0.267334,6.286621,-0.915527,6.828308,1.0537945939299558
0.302246,0.968018,0.266846,8.705139,-3.005981,7.438659,1.0486268547753297
0.29541,0.957275,0.26416,10.787963,-5.729675,7.942199,1.0360612912974791
0.278076,0.946289,0.261475,12.123107,-7.347106,8.705139,1.0203716523512403
0.263428,0.937012,0.258301,12.992858,-7.026672,10.215758,1.0070279072245216
0.256104,0.931152,0.26123,13.923644,-5.310058,12.687682,1.0004371138757298
0.25708,0.927979,0.267334,15.151977,-3.692627,15.510558,0.9993510986620268
0.256592,0.934082,0.264648,16.448975,-2.487183,18.257141,1.004184844085988
0.252686,0.938965,0.262695,18.447876,-1.289368,19.78302,1.0072309312397034
0.249756,0.9375,0.262695,20.622252,0.37384,20.690916,1.005133310840408
0.251465,0.935791,0.26416,23.117064,3.219604,22.293089,1.0043505102831383
0.240967,0.937988,0.264404,25.390623,7.720947,24.29962,1.003890461379627
0.243652,0.946777,0.248779,27.465818,11.680602,25.001524,1.0087834136592453
0.262695,0.955811,0.242676,28.625486,15.090941,24.658201,1.0205268108785774
0.291748,0.957275,0.249756,28.427122,17.288208,25.695799,1.0314409244668352
0.30957,0.956787,0.229492,28.800962,16.593933,27.732847,1.0314754123744299
0.312744,0.955078,0.219727,29.96826,13.191222,27.000425,1.028718985024093
0.307617,0.94751,0.227295,30.654905,9.712219,23.551939,1.0217956918161282
0.304443,0.946533,0.216553,28.541563,7.781982,16.838074,1.0175978882382766
0.329346,0.945557,0.190674,22.605894,8.094788,8.468628,1.0192661096303555
0.338379,0.937744,0.185303,18.234253,9.971619,5.012512,1.0140026424945845
0.31958,0.929688,0.188965,17.944336,10.543822,4.325867,1.001078880492941
0.311279,0.928711,0.187256,18.066406,10.108947,2.212524,0.9972279312664682
0.315186,0.94165,0.184814,16.639709,11.360168,0.144958,1.0100510639032068
0.309326,0.962891,0.172363,13.320922,16.654968,-0.480652,1.0259389143248248
0.300293,0.975586,0.165039,11.161803,24.80316,1.289368,1.0340124761171887
0.309814,0.9646,0.186768,11.917113,31.219481,5.058288,1.0302039411786386
0.334961,0.946289,0.206543,12.817382,35.736084,8.750916,1.0248520643931982
0.355225,0.930908,0.208252,12.664794,39.627075,12.023925,1.0179112930864849
0.352051,0.921387,0.209229,11.360168,42.755123,14.869689,1.0083008900179549
0.341797,0.923096,0.213623,8.987427,45.623775,15.945434,1.0072567699221486
0.358887,0.931641,0.206299,7.8125,47.142025,16.311646,1.0194675615491648
0.384033,0.938721,0.193604,8.804321,45.997616,17.14325,1.0325507104960996
0.395752,0.945557,0.190186,10.795592,40.550228,17.990112,1.0425298078947192
0.403564,0.956543,0.202148,10.581969,34.828186,17.402649,1.0576872065261071
0.412354,0.956787,0.221924,9.056091,31.433104,16.120911,1.0652358642389956
0.403564,0.94165,0.228516,10.414123,30.006407,18.104553,1.0496609866294928
0.371094,0.91626,0.216064,14.007567,30.71594,20.851133,1.011892680343128
0.351074,0.889893,0.196777,16.403198,33.226013,20.675657,0.9766696947556016
0.367432,0.881348,0.186523,15.541076,34.53064,19.241333,0.9729190106360344
0.394775,0.894775,0.172119,12.634276,33.195496,18.447876,0.993022935994431
0.405029,0.914307,0.167725,10.650634,30.372618,18.371582,1.0139711320915403
0.395996,0.928467,0.15918,10.238647,28.343199,18.089294,1.02186206236703
0.389893,0.932617,0.151367,10.986327,27.70233,17.463684,1.0221071317758232
0.387451,0.940674,0.168457,11.489867,28.57971,15.99121,1.031195234922078
0.397949,0.95874,0.154541,7.324218,30.883787,9.727478,1.0494897402461827
0.419189,0.957764,0.142578,6.729125,31.753538,4.013062,1.055158653237038
0.406006,0.931641,0.161865,10.292052,29.998777,2.731323,1.0290753631984395
0.383789,0.902832,0.192139,12.557982,26.046751,1.708984,0.9996584477040146
0.389648,0.88208,0.212158,11.474608,20.683287,-1.396179,0.9873711091924858
0.385498,0.890381,0.207275,7.102966,14.976501,-5.508422,0.9921441219853092
0.400879,0.929199,0.159668,-0.640869,9.407043,-13.85498,1.0245040870909203
0.427246,0.958008,0.151367,-5.027771,2.777099,-19.393921,1.0598256655077758
0.43457,0.954834,0.197266,-4.844666,-5.928039,-16.563416,1.0674609722195936
0.416504,0.939453,0.237793,-3.14331,-15.342711,-10.467528,1.0547952559971059
0.382568,0.921387,0.257813,-0.915527,-22.247313,-9.170532,1.0304270092354915
0.362305,0.912842,0.255615,-0.740051,-26.847837,-13.366698,1.0148322315604683
0.364258,0.910889,0.258789,-1.396179,-30.624388,-18.180847,1.0145809023463825
0.376221,0.913574,0.271729,-2.89154,-34.599304,-19.996643,1.0246932925309895
0.381836,0.922852,0.252686,-5.630493,-38.848877,-21.026609,1.030196466406287
0.356689,0.92749,0.23999,-6.019592,-42.457577,-22.193907,1.0222817336336398
0.316406,0.917236,0.245361,-4.768372,-44.395443,-24.963377,1.0008179938695148
0.290527,0.899658,0.237061,-3.318786,-45.989986,-27.336119,0.9746734696368831
0.269775,0.894531,0.220947,-3.921509,-44.296261,-27.267454,0.9600947023054548
0.250977,0.908203,0.1875,-7.04956,-38.734436,-27.854918,0.9607176451684438
0.257813,0.930176,0.161133,-9.086609,-32.264709,-27.847288,0.9786004177569106
0.259277,0.952881,0.157227,-10.337829,-24.581907,-23.803709,0.9999635455450364
0.263184,0.977051,0.147217,-12.397765,-15.510558,-19.882202,1.0225298624226091
0.288086,0.98291,0.156738,-12.687682,-7.369995,-17.456055,1.0361816501656456
0.296631,0.979248,0.176514,-9.70459,-1.304626,-14.595031,1.0383033217037303
0.293213,0.959961,0.189941,-6.54602,2.479553,-13.984679,1.0215559545962227
0.301514,0.935791,0.203613,-2.876281,3.479004,-13.069152,1.0040287553880118
0.304443,0.92041,0.206543,-0.87738,2.120972,-12.016295,0.9912114402073857
0.303223,0.924805,0.195557,-1.525879,-0.816345,-14.022826,0.992698854639714
0.297119,0.931396,0.203613,-2.677917,-4.592896,-17.562866,0.9986172754093532
0.28418,0.947266,0.196289,-5.378723,-7.164001,-19.760132,1.008266095173789
0.27832,0.958984,0.192627,-5.79071,-6.370544,-19.737244,1.0169648449110715
0.260498,0.966797,0.19751,-5.882263,-2.532959,-17.311096,1.0205713337699622
0.250488,0.968018,0.222168,-6.42395,1.525879,-14.526366,1.0242859496703056
0.257324,0.955811,0.245117,-6.317138,4.882813,-12.313842,1.0197414635023918
0.263916,0.951172,0.257324,-6.896972,7.362365,-10.864257,1.0200958139390632
0.261963,0.95459,0.267334,-7.247924,8.506775,-10.307311,1.0253458680001593
0.267578,0.952881,0.275635,-5.653381,9.040833,-9.902954,1.0274019853348542
0.263672,0.943359,0.297119,-3.379822,9.849548,-9.20105,1.0235862575406138
0.264893,0.93042,0.30542,-3.517151,10.055541,-9.155273,1.0144609673363487
0.272217,0.926514,0.282715,-4.936218,9.712219,-10.742187,1.006209748765137
0.272705,0.925781,0.274658,-6.431579,8.125305,-12.46643,1.0034318581498198
0.264893,0.921631,0.268799,-8.476257,6.622314,-12.878417,0.9959040636582421
0.254395,0.927979,0.248779,-11.177062,7.797241,-11.413573,0.9938575508124895
0.246338,0.942139,0.229492,-13.038634,11.489867,-9.32312,1.0004873230726115
0.244141,0.957275,0.219482,-13.084411,16.746521,-6.645202,1.012004249907084
0.240723,0.974609,0.21582,-11.444091,22.888182,-3.784179,1.026834231027579
0.251953,0.975342,0.216553,-8.31604,28.144835,-0.366211,1.030372521461049
0.256592,0.969971,0.215332,-6.813049,32.608032,2.487183,1.0261827641940788
0.27002,0.963867,0.20874,-7.93457,35.575867,2.311707,1.0225080839235454
0.280762,0.962158,0.21167,-8.407593,36.766052,2.13623,1.0243922620305173
0.28125,0.966309,0.203369,-8.270264,37.54425,2.39563,1.0267490424353947
0.286133,0.962646,0.199951,-6.851196,39.039612,3.471374,1.023982332565362
0.304199,0.963379,0.197021,-5.508422,40.64941,5.622863,1.0292975292319515
0.313721,0.969238,0.182373,-4.699707,40.893551,6.92749,1.034941098620593
0.331787,0.965088,0.181885,-3.372192,38.352966,5.943298,1.0366096730872234
0.335449,0.949707,0.200195,-1.304626,35.995483,7.461547,1.0269116103516407
0.316162,0.937012,0.226563,-0.236511,34.942627,9.460449,1.0145347166839584
0.323486,0.925537,0.251709,0.808716,32.501221,10.383605,1.0122348300893427
0.339844,0.926514,0.264893,0.770569,28.900145,10.32257,1.0218074368397403
0.360107,0.935303,0.266357,-0.198364,23.16284,8.598328,1.0370220849658893
0.380615,0.939941,0.273926,-0.213623,14.114379,6.774902,1.0504248260499178
0.381592,0.946045,0.287109,-0.808716,4.112244,5.065917,1.059738257481535
0.368408,0.953857,0.271484,-1.998901,-4.592896,1.838684,1.0579561395298958
0.345215,0.943604,0.274902,-0.053406,-10.665893,-0.778198,1.0416971799160253
0.32373,0.924805,0.288574,1.716614,-15.419005,-1.937866,1.0214403332554476
0.314697,0.910156,0.289795,1.281738,-19.332886,-2.662658,1.005683493038441
0.305176,0.911865,0.284668,-0.022888,-22.216795,-3.967285,1.002829018040962
0.292725,0.9104,0.285156,-1.63269,-24.612425,-5.714416,0.9979128368555041
0.283691,0.905273,0.293701,-3.227234,-25.062559,-5.592346,0.9931062709554299
0.264893,0.912354,0.293945,-5.432128,-22.445677,-4.318237,0.9944655779814604
0.260986,0.924561,0.277588,-6.713867,-17.807007,-3.684997,0.999990916289243
0.259277,0.918701,0.280273,-5.508422,-12.771605,-2.037048,0.9948814224112339
0.25293,0.901367,0.290771,-5.027771,-9.757996,-0.366211,0.9802978261885518
0.253174,0.891846,0.296387,-6.141662,-7.4234,0.343323,0.9733096196796783
0.249512,0.887695,0.299072,-7.659912,-5.607605,0.389099,0.9693826449617303
0.244629,0.896973,0.286621,-10.520934,-4.78363,-0.663757,0.9729108427862236
0.239014,0.906494,0.281982,-13.374328,-3.639221,-2.197266,0.9789652254069089
0.240479,0.914063,0.281982,-15.068053,-2.76947,-2.098083,0.986334205902847
0.239502,0.92334,0.275879,-15.846251,-2.906799,-1.159668,0.9929890161754057
0.23584,0.934082,0.280518,-15.815734,-3.410339,-1.876831,1.0034042239536367
0.231445,0.947754,0.287842,-16.532898,-2.929687,-4.508972,1.0171811291530137
0.227051,0.954346,0.290771,-15.907287,-1.747131,-6.484985,1.0231696920638336
0.23291,0.964844,0.295654,-15.373229,0.297546,-7.614135,1.035655492985964
0.247559,0.972412,0.290039,-15.792846,3.288269,-8.407593,1.044506188467067
0.253174,0.974609,0.293701,-14.648437,5.905151,-8.682251,1.0489137498183536
0.257324,0.968262,0.300293,-12.596129,7.339477,-7.827758,1.0459076572379609
0.266846,0.959229,0.30127,-10.57434,7.850646,-5.645751,1.0402358747212095
0.269287,0.949219,0.309082,-9.262085,7.8125,-3.555298,1.0339554540955815
0.260986,0.946533,0.321533,-9.223938,7.278442,-3.227234,1.03316111152811
0.253174,0.943604,0.332031,-9.849548,7.652282,-3.707886,1.0318576297401691
0.241699,0.940674,0.34375,-10.093688,9.254456,-2.723694,1.0302669767477748
0.235107,0.937744,0.348145,-10.398864,11.466979,-0.50354,1.0275427251506382
0.238281,0.941162,0.347412,-11.131286,13.702392,2.052307,1.0311444336022961
0.249023,0.956543,0.330078,-11.108397,14.770507,3.173828,1.0420837065524056
0.266846,0.963135,0.312988,-9.765625,14.72473,2.952575,1.0472809098255347
0.276855,0.956543,0.312988,-7.575988,14.541625,4.051208,1.043831734532918
0.271484,0.946289,0.323242,-6.248474,13.801574,5.66864,1.0361717156634802
0.266113,0.944336,0.331055,-5.844116,12.954711,6.126403,1.035463192339544
0.262207,0.947998,0.332764,-4.943848,12.001037,5.455017,1.0383566817568035
0.259521,0.952393,0.311279,-2.326965,9.490967,3.723144,1.0350353577202085
0.26123,0.960938,0.275146,1.838684,4.142761,0.007629,1.0331254880507015
0.269043,0.975098,0.252197,5.172729,-1.609802,-4.417419,1.0424987157123984
0.290527,0.98999,0.208252,6.576538,-4.043579,-4.760742,1.052546926903024
0.303223,1.009277,0.189941,7.17926,-2.220154,0.37384,1.0708229704012704
0.30542,1.015137,0.212891,7.316589,0.511169,5.989074,1.0812525528524777
0.29126,1.01416,0.240479,8.31604,2.418518,9.94873,1.0822121061238412
0.270264,1.007813,0.267334,10.780334,6.217956,12.313842,1.0771244775888256
0.2771,1.001465,0.282959,12.08496,14.129638,11.95526,1.076931916095906
0.295166,0.993652,0.289307,12.901305,24.055479,11.528014,1.0761811208662788
0.32251,0.994629,0.256348,12.908935,30.570982,9.620667,1.0765750530478588
0.37207,0.987549,0.210938,12.252807,28.869627,5.203247,1.0761895521445095
0.378906,0.971924,0.225342,11.95526,21.537779,3.234863,1.067232418724244
0.338135,0.958008,0.223633,10.864257,12.870788,3.944397,1.0402530100787981
0.285156,0.950928,0.245117,9.986877,8.964539,5.332946,1.0225753513599867
0.272949,0.933838,0.287354,10.391234,10.490417,7.369995,1.014458913983706
0.283203,0.917969,0.314941,11.283874,14.213561,11.45935,1.0109692664225753
0.29541,0.916016,0.313232,9.353638,17.471313,13.656615,1.0121594074946891
0.315918,0.916992,0.296875,6.828308,17.837524,12.168883,1.0143043312601006
0.33252,0.918945,0.295654,6.835937,14.297484,10.116576,1.0209998781297676
0.342773,0.916992,0.313232,6.843566,6.874084,8.354187,1.0278530748200347
0.348389,0.915039,0.318115,4.173279,-2.288818,6.996154,1.0294991112511949
0.321289,0.913818,0.322754,1.922607,-9.788513,5.126953,1.02100935508006
0.300781,0.90625,0.322998,1.289368,-14.869689,2.02179,1.008010902949467
0.288574,0.902832,0.302979,1.25885,-17.822266,0.808716,0.9950763026728151
0.265381,0.907471,0.292969,1.182556,-18.569946,1.693725,0.9898290387551781
0.251221,0.915771,0.294922,0.930786,-17.784119,3.02124,0.9943477768698435
0.262451,0.923096,0.296631,-0.099182,-15.663146,4.074097,1.0044783236974306
0.27417,0.933838,0.293701,-2.319336,-12.046813,5.317688,1.0166035985304203
0.263184,0.935791,0.312012,-3.509521,-7.942199,6.591796,1.0209417719346192
0.276123,0.929443,0.320801,-3.181457,-5.020141,9.040833,1.0212842322189253
0.280762,0.92334,0.327637,-1.480102,-2.456665,12.855529,1.0191810732215352
0.281494,0.91748,0.337891,0.137329,-0.366211,15.762328,1.0174373446640337
0.289551,0.931396,0.32373,-2.029419,2.723694,15.403747,1.027686432389277
0.314453,0.96167,0.281006,-7.980346,10.360717,11.45172,1.0500734498810071
0.309326,0.968994,0.289063,-9.742737,19.958496,12.016295,1.0574447334404762
0.291992,0.948242,0.328369,-7.522583,26.885984,16.166687,1.0451068934750167
0.291016,0.926758,0.340332,-5.363464,28.587339,17.13562,1.02926992234496
0.313721,0.91748,0.317139,-4.219055,24.154661,12.802123,1.0201801613254395
0.318359,0.925293,0.289063,-4.440308,12.954711,6.500244,1.0203318120587048
0.299805,0.948242,0.267822,-5.302429,-2.708435,-0.061035,1.029939101244826
0.272705,0.982178,0.245361,-6.904602,-16.319275,-6.79779,1.0484482157121544
0.23877,1.010986,0.222168,-9.597778,-20.454405,-14.511107,1.0622911207950483
0.21167,1.016113,0.22583,-7.568359,-16.738892,-20.019531,1.0622094927880281
0.23584,1.003662,0.247559,-3.379822,-10.978698,-21.446226,1.060303435024616
0.267822,0.980225,0.261475,-3.135681,-3.730774,-21.720884,1.0492563318531845
0.244873,0.956543,0.286377,-3.555298,2.433777,-21.781919,1.0280802902045152
0.225342,0.943115,0.305908,-2.6474,4.211426,-24.116514,1.016771667904353
0.258545,0.943848,0.290039,-2.006531,2.868652,-28.96118,1.0206944624372174
0.282959,0.946777,0.288086,-2.616882,0.457764,-31.326292,1.0292939457735093
0.291016,0.952148,0.281006,-3.807068,-4.364014,-30.09033,1.0345242859382278
0.275391,0.949951,0.27417,-2.532959,-8.773804,-27.481077,1.0263607037401616
0.254395,0.931885,0.290039,0.465393,-10.154723,-25.588987,1.0085876713360122
0.235352,0.905762,0.314941,2.593994,-9.33075,-22.956846,0.9874123748611823
0.217529,0.887207,0.327393,1.457214,-5.775451,-20.126341,0.9703820397858772
0.219482,0.880371,0.326904,-1.594543,-0.457764,-17.38739,0.9644126042213468
0.238525,0.891357,0.333984,-4.425049,4.188538,-13.389586,0.981303617302005
0.255371,0.907471,0.324219,-6.42395,6.080627,-10.963439,0.9969131975468075
0.259521,0.919189,0.308105,-5.714416,5.470275,-9.506226,1.0035876933218142
0.246338,0.922852,0.30835,-4.112244,5.729675,-8.308411,1.0037021204759906
0.239258,0.933105,0.321533,-4.325867,8.377075,-6.835937,1.0155357215174659
0.244629,0.961426,0.3396,-5.012512,13.267516,-3.631592,1.048575920530793
0.263184,0.986084,0.34668,-4.570007,18.844604,-0.656128,1.077874990577293
0.28418,0.98291,0.358398,-0.984192,23.094175,2.128601,1.084121518513492
0.274902,0.960449,0.380859,2.76947,24.200438,3.036499,1.0691524536220267
0.264893,0.93335,0.4021,2.76947,21.797178,-0.648498,1.050235656388127
0.255371,0.894775,0.432617,0.389099,17.425537,-6.706237,1.026155016045334
0.251709,0.85083,0.439453,-3.105163,13.298034,-9.239197,0.9901454684994523
0.268066,0.8479,0.403809,-10.69641,11.45935,-9.910583,0.9766552609989874
0.289063,0.883057,0.346436,-18.531799,11.016845,-10.292052,0.991647611459837
0.269043,0.935059,0.294189,-22.956846,12.817382,-9.178162,1.0164972390769194
0.241211,0.986572,0.262207,-23.872374,17.13562,-7.621765,1.048932585323766
0.24585,1.02417,0.250244,-20.187376,22.689817,-3.517151,1.0825841634422704
0.280518,1.038086,0.232422,-13.59558,27.45056,3.555298,1.1001512976877317
0.310059,1.0354,0.228516,-5.53894,27.786253,9.208679,1.1047213701820926
0.310059,1.00415,0.26123,0.671387,22.758482,8.323669,1.0829103928215853
0.262939,0.956787,0.310547,4.104614,17.967224,6.202697,1.0397200201491745
0.20166,0.924316,0.337891,3.532409,16.326904,5.332946,1.0045880505645086
0.193115,0.913574,0.349365,-0.007629,17.066956,3.761291,0.9969788161871846
0.232178,0.921143,0.332764,-4.318237,18.592834,3.219604,1.0065500135755798
0.259766,0.937988,0.316162,-6.126403,18.806458,5.0354,1.0233563764124403
0.272217,0.955322,0.307129,-5.958557,16.120911,6.248474,1.0397453733554192
0.274658,0.963623,0.314941,-4.142761,11.680602,6.393432,1.0503304892147043
0.249268,0.963867,0.318115,-2.044678,7.156372,6.362915,1.0451656723878755
0.215088,0.94043,0.340088,0.679016,4.447937,6.790161,1.022903358283665
0.196533,0.909912,0.36792,1.899719,4.203796,7.965087,1.0009646318591883
0.203369,0.891846,0.385986,0.312805,4.577637,9.590149,0.9928410900405966
0.219482,0.897461,0.384521,-2.563476,3.456115,11.627196,1.0007322290632994
0.225098,0.921875,0.374756,-5.66101,1.190186,13.076781,1.0202767687078835
0.226563,0.945313,0.362549,-7.507324,-1.701355,13.71765,1.0374918015767642
0.215088,0.946045,0.366699,-6.187438,-4.28772,15.2359,1.0371750799021349
0.198486,0.931641,0.381348,-4.196167,-5.027771,17.478943,1.0260496782227457
0.179932,0.909424,0.399414,-3.15094,-3.219604,19.828796,1.0094350300024266
0.162842,0.901611,0.403564,-4.165649,1.113892,20.446775,1.0011412559579194
0.181396,0.911865,0.395996,-6.805419,6.263732,19.065857,1.0105518883545763
0.211914,0.922119,0.399414,-7.789611,11.161803,19.14978,1.027006590510986
0.227051,0.924805,0.398193,-5.996704,14.465331,20.149229,1.032169612939172
0.237793,0.920166,0.391602,-2.731323,15.853881,20.88928,1.0279120121921916
0.216309,0.915771,0.378906,-0.930786,17.158508,21.369932,1.0143943339540102
0.206299,0.917969,0.377686,-0.778198,19.561768,21.324156,1.0138407552263817
0.202393,0.937744,0.376465,-1.869202,24.658201,20.858763,1.0305593783038414
0.21875,0.956055,0.361816,-3.463745,31.524656,16.731262,1.0453724424247082
0.254639,0.950195,0.366943,-2.433777,36.804199,13.687133,1.0499327233661213
0.268555,0.933838,0.376221,-0.434875,38.200378,14.389037,1.0419776576827355
0.277832,0.921387,0.376221,0.778198,36.5448,13.526916,1.0332893422628533
0.282959,0.915283,0.375488,0.694275,33.988953,10.56671,1.0289800794544082
0.293701,0.916504,0.371582,-0.030518,31.341551,7.308959,1.0316554861682266
0.313721,0.924561,0.368896,-0.732422,28.190611,4.493713,1.0437040612060489
0.332031,0.928223,0.367676,-0.694275,23.887632,2.13623,1.0521540589029725
0.338867,0.925049,0.374268,0.328064,18.875122,0.259399,1.0538610116680474
0.321045,0.914795,0.395508,1.541138,14.22882,-0.900268,1.047065595898366
0.302734,0.909424,0.400146,1.609802,10.536193,-2.13623,1.0386610168134742
0.284912,0.916504,0.386963,1.075745,7.598876,-2.39563,1.0348404674774756
0.281738,0.919922,0.380615,0.923157,4.989624,-1.998901,1.0346499721901123
0.290771,0.919922,0.386719,1.029968,2.532959,-0.900268,1.039401676680387
0.292236,0.911377,0.392822,1.13678,-0.328064,0.511169,1.0345622453525936
0.275391,0.896973,0.402832,1.51062,-3.547668,1.144409,1.0211142863724902
0.261719,0.886963,0.415283,1.304626,-6.54602,-0.12207,1.0137357488117897
0.25708,0.880615,0.420898,0.25177,-9.44519,-2.983093,1.009320578918809
0.253174,0.876953,0.427002,-1.060486,-12.390136,-5.638122,1.007707470692264
0.252197,0.883545,0.420166,-2.311707,-15.441894,-7.453918,1.0103437837637246
0.247803,0.893555,0.407715,-2.975464,-18.318176,-9.19342,1.0129552734741056
0.227295,0.905518,0.398193,-2.944946,-20.332335,-10.604857,1.014979571517575
0.229736,0.913086,0.382324,-3.623962,-20.469664,-12.275695,1.016206826422653
0.234375,0.916748,0.377441,-3.288269,-18.77594,-12.413024,1.0187346291404842
0.228516,0.914063,0.386719,-2.13623,-17.372131,-12.161254,1.0184705764949717
0.222168,0.907471,0.393799,-1.88446,-16.334534,-12.634276,1.0138737043961639
0.224365,0.907959,0.393555,-2.632141,-15.052794,-13.175963,1.0146993332662637
0.226807,0.916992,0.389404,-2.975464,-13.557433,-12.779235,1.0217393104549712
0.234375,0.92627,0.383545,-2.571106,-12.351989,-12.184142,1.0295700658770146
0.246582,0.934814,0.370605,-1.88446,-11.19995,-11.840819,1.0353878323338555
0.259033,0.942383,0.361328,-1.052856,-10.536193,-11.96289,1.041989317297447
0.269043,0.942139,0.359375,0.205994,-11.138915,-11.886596,1.0436284883975715
0.263916,0.935547,0.364502,1.197815,-13.130187,-11.45935,1.0381529522517383
0.246338,0.93457,0.375977,1.052856,-14.625548,-11.741637,1.0370449361879166
0.225098,0.940186,0.379639,0.846863,-13.587951,-12.145995,1.0386263016701436
0.218506,0.938965,0.380371,1.556396,-10.559081,-10.932921,1.0363793904270773
0.22876,0.9375,0.380859,1.922607,-6.66809,-8.056641,1.0374444397079778
0.234619,0.939941,0.375,1.365662,-3.082275,-5.531311,1.0388263370948967
0.242432,0.943604,0.361572,1.060486,-0.770569,-5.15747,1.039180491841528
0.244629,0.94165,0.36499,1.815796,0.434875,-4.837036,1.0391177845850776
0.238281,0.931641,0.376221,1.846313,0.907898,-3.875732,1.0326059406583907
0.233643,0.923584,0.386719,1.655578,0.968933,-2.807617,1.0281770477237857
0.232422,0.918945,0.386475,1.472473,1.213074,-2.14386,1.0236419416641738
0.243164,0.916992,0.388672,1.029968,1.266479,-1.716614,1.0252165539748175
0.248535,0.91626,0.387695,0.556946,0.671387,-1.052856,1.0254801055359386
0.248291,0.923096,0.381104,0.244141,-0.465393,-0.167847,1.0290747809139043
0.248291,0.929199,0.374756,0.778198,-1.617432,-0.068665,1.0322312056017295
0.249268,0.927979,0.369629,1.419067,-2.250671,0.061035,1.0295169536758488
0.234619,0.924561,0.369385,1.991272,-1.434326,0.701904,1.0228902170355332
0.21582,0.920654,0.37793,2.555847,1.472473,0.831604,1.0183384236176105
0.21167,0.912354,0.384277,2.357483,6.355285,0.823975,1.0123550873804112
0.223145,0.910156,0.381836,0.778198,11.871337,1.663208,1.0119171736150148
0.245117,0.922607,0.368164,-1.579285,15.747069,1.815796,1.0231474727691996
0.26416,0.933594,0.35376,-2.723694,16.906738,1.289368,1.032726682155545
0.271729,0.943359,0.3479,-2.075195,16.021729,1.190186,1.0415360110538665
0.276855,0.943604,0.345215,-0.808716,14.564513,0.335693,1.0422142755048023
0.277832,0.94043,0.347656,0.694275,13.023376,-0.213623,1.0404152533772273
0.27124,0.928711,0.361572,1.609802,11.108397,-0.015259,1.0328647395980752
0.271729,0.916016,0.378418,1.663208,8.453369,-0.610352,1.0276780353890025
0.27124,0.914795,0.384033,1.052856,5.66864,-1.556396,1.0285438127342947
0.27002,0.918457,0.379639,-0.305176,3.303528,-2.548218,1.0298542768615373
0.266602,0.925293,0.380615,-0.968933,1.754761,-2.494812,1.0354281918501158
0.270752,0.926514,0.37915,-0.770569,0.495911,-1.770019,1.0370581276861968
0.269287,0.919922,0.384521,-0.411987,-0.488281,-0.694275,1.0327770204134095
0.260742,0.917725,0.381348,-0.442505,-1.144409,-0.091553,1.0274394694058624
0.262695,0.921387,0.38208,-0.953674,-1.358032,-0.846863,1.0314784501840064
0.26001,0.921387,0.386475,-1.304626,-0.953674,-1.434326,1.0324350485594724
0.252686,0.911621,0.395264,-0.427246,-0.579834,-0.801086,1.0252495754366349
0.25293,0.901367,0.395752,0.083923,-0.228882,-0.679016,1.0163934765104508
0.259033,0.898682,0.390137,-0.617981,-0.236511,-0.640869,1.01337767440476
0.263184,0.905518,0.389404,-1.747131,-1.449585,-0.854492,1.0202274949225785
0.263916,0.913574,0.38208,-2.670288,-3.387451,-1.449585,1.0248191230319623
0.263672,0.917969,0.373779,-2.449036,-5.577087,-1.815796,1.025622127972091
0.255859,0.913086,0.381348,-2.029419,-7.392883,-2.197266,1.0220646595891083
0.249268,0.909668,0.379395,-1.983642,-8.407593,-2.334595,1.0166469259644668
0.244629,0.917236,0.375488,-3.005981,-8.666992,-2.510071,1.0208606493939318
0.252441,0.925293,0.37085,-4.112244,-8.31604,-3.044128,1.0283109047510874
0.255371,0.929932,0.371338,-4.020691,-8.018494,-2.937317,1.0333826892826297
0.255371,0.933105,0.375732,-3.341675,-8.636475,-3.051758,1.0378216727790954
0.256348,0.925293,0.378662,-2.738952,-9.735107,-3.40271,1.0321174076610664
0.256592,0.922119,0.380859,-3.265381,-10.82611,-3.738403,1.030143913492673
0.261475,0.929199,0.382324,-4.570007,-11.96289,-3.837585,1.0382444790134933
0.256104,0.937012,0.380127,-4.570007,-13.687133,-3.89862,1.043109430064267
0.250244,0.936279,0.379395,-3.234863,-15.73944,-4.272461,1.0407598144634524
0.249512,0.931152,0.382813,-2.372742,-17.036438,-4.051208,1.0372300025630767
0.248291,0.927734,0.389893,-2.13623,-17.280579,-3.509521,1.0365111417085684
0.24707,0.928955,0.386963,-2.334595,-17.120361,-3.746032,1.0362149102835763
0.24585,0.931641,0.384277,-2.26593,-16.746521,-4.425049,1.0373360054051919
0.248535,0.933105,0.384277,-2.113342,-16.494751,-5.088806,1.0392898536880844
0.244873,0.929932,0.387939,-2.044678,-16.540527,-5.256652,1.0369344137764933
0.240234,0.925537,0.39624,-1.76239,-17.036438,-6.195068,1.035054225982871
0.239258,0.921631,0.393311,-2.525329,-17.349243,-6.805419,1.0302143628614386
0.240723,0.921387,0.39209,-3.486633,-17.494202,-6.965637,1.029871902033452
0.237793,0.924561,0.393311,-3.501892,-17.76123,-6.912231,1.0324979885166847
0.232422,0.935059,0.390869,-3.684997,-17.501831,-7.537841,1.0397758867784923
0.23584,0.940674,0.38208,-3.669739,-16.403198,-8.888245,1.0423402545599014
0.231934,0.937012,0.384277,-2.410889,-14.98413,-8.44574,1.0389676035512367
0.22583,0.928711,0.387207,-1.266479,-14.129638,-7.156372,1.0312286706982112
0.224121,0.919189,0.391357,-0.778198,-13.71765,-6.652832,1.023864708743787
0.220459,0.917969,0.38501,-1.12915,-13.34381,-6.065368,1.019559687189524
0.219482,0.921143,0.377441,-2.01416,-12.702941,-5.805969,1.0193814218701458
0.227783,0.923584,0.373047,-2.304077,-11.604308,-5.371093,1.0217908613576459
0.230957,0.921875,0.376953,-2.14386,-10.177611,-4.501343,1.022393376192843
0.225586,0.922363,0.371094,-2.120972,-8.644104,-3.738403,1.019486784613219
0.228027,0.925293,0.368652,-2.410889,-6.874084,-3.471374,1.0217963327796789
0.238037,0.924316,0.36792,-2.380371,-5.363464,-2.883911,1.0229304998996755
0.244141,0.920898,0.371826,-2.258301,-4.417419,-1.937866,1.0226986499262625
0.245361,0.919678,0.383057,-2.090454,-4.28772,-1.686096,1.0260323139424021
0.250732,0.916748,0.38501,-2.082825,-4.852295,-1.88446,1.0254394820895087
0.256592,0.920166,0.380127,-2.929687,-5.393981,-2.845764,1.0281252152092175
0.262939,0.923828,0.374268,-3.318786,-5.561828,-3.768921,1.0308596544287685
0.266602,0.923584,0.376221,-2.975464,-5.805969,-3.616333,1.0322917573539954
0.265625,0.915283,0.378174,-2.655029,-6.874084,-2.868652,1.0253366203301235
0.264648,0.912598,0.375977,-2.418518,-8.743286,-2.471924,1.0218768898634512
0.265625,0.913818,0.376465,-3.059387,-10.513305,-3.044128,1.023399176262127
0.266113,0.919922,0.37207,-4.135132,-12.107848,-3.784179,1.0273795305304656
0.266357,0.925781,0.375977,-4.043579,-13.359069,-4.074097,1.0341059984058694
0.26416,0.927246,0.382813,-3.410339,-13.771056,-3.944397,1.0373579146490377
0.264893,0.923584,0.380127,-2.746582,-13.656615,-3.417969,1.0332822666793426
0.264893,0.926025,0.374268,-2.601623,-13.366698,-3.204345,1.0333281849915834
0.271729,0.929199,0.370117,-3.036499,-12.901305,-3.578186,1.0364526157673586
0.274414,0.933105,0.369629,-2.983093,-12.191772,-3.036499,1.040487184958085
0.273682,0.926758,0.375977,-2.14386,-12.321471,-2.258301,1.0368900289890919
0.274902,0.918213,0.380859,-1.731872,-13.809203,-2.410889,1.0313776228200804
0.273682,0.915527,0.383545,-2.502441,-15.602111,-3.135681,1.029659308644369
0.269775,0.91748,0.384033,-3.288269,-17.524719,-3.738403,1.030548128965358
0.264893,0.922363,0.382568,-3.562927,-19.332886,-4.074097,1.0330924836828501
0.260986,0.927979,0.379639,-3.601074,-21.209715,-4.79126,1.0360427051806311
0.256592,0.937012,0.375977,-3.501892,-22.964476,-5.676269,1.0417243623612726
0.257324,0.938232,0.367188,-3.379822,-24.223326,-6.484985,1.0398663155156052
0.255127,0.938477,0.361572,-2.792358,-25.535582,-7.148742,1.037575624637549
0.248535,0.927734,0.366943,-2.082825,-27.122496,-7.949829,1.028157179729831
0.239746,0.920166,0.37793,-1.823425,-28.511045,-8.422852,1.0232373610125853
0.232666,0.921143,0.379395,-2.540588,-28.755186,-8.682251,1.0230241737270924
0.231689,0.926025,0.376465,-3.639221,-28.266905,-8.766174,1.026122794586983
0.237305,0.9375,0.364014,-3.913879,-27.900694,-8.857727,1.033308330180784
0.240479,0.943115,0.355469,-3.242492,-27.374266,-8.979797,1.0361728922467524
0.235107,0.942383,0.351563,-2.227783,-26.405333,-8.354187,1.032936379021961
0.22876,0.939453,0.3479,-2.059937,-24.627684,-7.980346,1.0275881893098031
0.230469,0.939697,0.348877,-2.243042,-21.972654,-7.957458,1.0285239777948787
0.233398,0.939209,0.351563,-2.441406,-19.66095,-8.056641,1.0296527157512867
0.234375,0.936523,0.355713,-2.288818,-18.554688,-8.094788,1.0288531034715307
0.233643,0.93457,0.354492,-1.76239,-18.188477,-8.140564,1.026486587546569
0.233154,0.932617,0.351563,-2.220154,-17.791748,-8.308411,1.0235877096634172
0.235596,0.93457,0.344482,-2.700805,-16.891479,-8.560181,1.023520595024839
0.235596,0.932861,0.344238,-2.281189,-16.029358,-7.820129,1.0218781342121965
0.233398,0.929443,0.348389,-2.059937,-15.335082,-7.034301,1.01966357784026
0.234131,0.92334,0.358398,-2.029419,-14.938354,-6.439209,1.017754001301395
0.233643,0.919922,0.363525,-2.182007,-14.709472,-5.805969,1.0163640898605184
0.23877,0.916016,0.369873,-2.304077,-14.541625,-5.073547,1.0163180906020517
0.240967,0.915039,0.373535,-2.235413,-14.587401,-4.272461,1.0172953665651878
0.243652,0.917969,0.377197,-2.502441,-14.717101,-4.119873,1.0219153384082265
0.246826,0.921631,0.373535,-2.784729,-14.663695,-4.554749,1.024624404678124
0.24585,0.919189,0.374756,-2.700805,-14.022826,-4.646301,1.0226400636377395
0.245361,0.919434,0.374756,-2.967834,-13.305663,-4.28772,1.0227428612378577
0.246582,0.914307,0.376221,-3.227234,-12.657165,-4.386902,1.018971154554436
0.246582,0.912842,0.379395,-3.753662,-11.917113,-4.089355,1.0188345134088264
0.244385,0.915527,0.376221,-4.455566,-11.276244,-3.89862,1.019537128698607
0.246338,0.922119,0.372559,-5.119323,-11.154174,-4.264832,1.0245906835834493
0.250732,0.928711,0.369385,-5.432128,-11.749267,-4.478455,1.0304445329904952
0.250244,0.934326,0.363037,-5.241394,-12.580871,-4.753113,1.033142292804336
0.242676,0.943115,0.355225,-5.332946,-13.46588,-5.317688,1.036601343249178
0.246094,0.953857,0.348145,-4.875183,-14.35089,-5.928039,1.044801595667809
0.23999,0.951172,0.348389,-3.471374,-15.213012,-5.699157,1.041008294397792
0.233398,0.94458,0.349854,-2.89917,-16.181946,-5.386352,1.0339747695761246
0.232178,0.945068,0.350098,-3.219604,-16.906738,-5.691528,1.0342285810748029
0.233643,0.948486,0.343018,-3.280639,-16.88385,-6.568908,1.0353144894035822
0.230469,0.949951,0.336426,-2.670288,-16.25061,-6.530761,1.0337820446486774
0.226074,0.94873,0.340332,-2.189636,-15.495299,-6.240844,1.0329685070707626
0.224121,0.945801,0.346191,-1.579285,-14.427184,-6.04248,1.0318032577594431
0.223877,0.942383,0.35083,-1.312256,-13.107299,-5.363464,1.0301884869857554
0.223145,0.936523,0.354736,-1.266479,-11.787414,-4.852295,1.0260149366602809
0.223877,0.934326,0.358154,-1.098633,-10.757445,-4.646301,1.0253586070838825
0.223389,0.931396,0.360596,-1.228333,-10.253905,-4.455566,1.023440584183078
0.227783,0.932373,0.35791,-1.785278,-10.009766,-4.547119,1.0243554433486455
0.229492,0.937256,0.357178,-2.586365,-9.796143,-4.653931,1.028927359575981
0.226807,0.940918,0.358154,-2.792358,-9.613037,-4.859924,1.0320089077566144
0.218994,0.947021,0.355469,-2.662658,-9.132385,-5.218505,1.0349711862839468
0.219238,0.953857,0.346191,-2.128601,-7.949829,-6.088256,1.0381506083290613
0.219238,0.949463,0.345215,-0.648498,-6.050109,-6.080627,1.0337885108850842
0.218506,0.941406,0.347168,0.25177,-4.074097,-5.348205,1.026896172500414
0.220215,0.934326,0.349121,0.335693,-1.88446,-4.722595,1.0214427018399024
0.229004,0.934326,0.35376,-0.297546,0.160217,-4.219055,1.02496538667996
0.236328,0.936523,0.357178,-0.854492,1.441955,-3.517151,1.0298069609383111
0.244629,0.9375,0.356201,-0.686645,1.541138,-2.876281,1.032292957469923
0.248047,0.938232,0.353516,-0.099182,0.915527,-2.593994,1.0328505033590292
0.247559,0.935059,0.357422,0.305176,0.350952,-2.258301,1.0311989517285207
0.248535,0.93457,0.354492,0.38147,-0.274658,-1.861572,1.0299783052030758
0.24707,0.938721,0.346191,0.099182,-0.648498,-1.998901,1.0305769787948884
0.248779,0.938721,0.342773,0.427246,-0.808716,-2.151489,1.029845345773335
0.243896,0.934326,0.34668,0.88501,-0.63324,-1.571655,1.0259811672209194
0.239502,0.930176,0.351074,0.694275,-0.419617,-0.968933,1.0226639489372842
0.241455,0.931152,0.35498,0.411987,-0.366211,-1.106262,1.0253562134833922
0.244141,0.9375,0.358887,0.106812,-0.595093,-1.426697,1.0331074274488592
0.244873,0.943848,0.352295,0.1297,-1.045227,-1.556396,1.0367852237845598
0.244873,0.945801,0.343262,0.793457,-1.449585,-1.533508,1.0355342188329655
0.241943,0.943604,0.339111,1.411438,-1.701355,-1.289368,1.031465556567935
0.237793,0.939697,0.342041,1.579285,-1.853943,-0.984192,1.0278949403217237
0.236572,0.943115,0.344238,1.113892,-1.518249,-1.12915,1.0314708018422043
0.236572,0.943115,0.346191,1.121521,-1.083374,-1.586914,1.0321242284192345
0.23584,0.940186,0.35083,1.716614,-0.793457,-1.770019,1.030850090505889
0.232422,0.934082,0.352051,2.174377,-0.602722,-1.625061,1.0249239364016238
0.231445,0.933838,0.347412,1.808166,0.0,-1.625061,1.0228955450157164
0.233154,0.937012,0.340088,1.449585,0.946045,-1.495361,1.023724632703541
0.229736,0.936768,0.339355,1.983642,1.800537,-0.816345,1.0224845874364072
0.22998,0.929199,0.344482,2.082825,2.349854,-0.282288,1.0173344731822471
0.22998,0.928955,0.34668,1.541138,2.670288,-0.213623,1.0178581506403532
0.233154,0.93335,0.349121,0.717163,3.27301,-0.396728,1.0234199933834593
0.23999,0.937988,0.346924,0.617981,3.608703,-0.205994,1.0284808943388302
0.23877,0.94043,0.350342,1.182556,3.662109,0.160217,1.031580929817918
0.237061,0.935303,0.358398,1.548767,3.486633,0.045776,1.0292904089390904
0.239502,0.93457,0.354492,1.686096,3.410339,0.320435,1.0278360136558748
0.242676,0.935303,0.347168,1.853943,3.601074,0.984192,1.0267467862180042
0.243408,0.933838,0.341797,2.105713,3.601074,1.754761,1.0237802761906483
0.242676,0.931396,0.343506,2.174377,3.387451,2.174377,1.02195230897924
0.240723,0.932373,0.343018,1.998901,3.181457,2.204895,1.0222173556450702
0.240723,0.94043,0.338867,1.472473,3.295898,1.678467,1.0281959887677057
0.24585,0.943359,0.3396,1.411438,3.692627,1.098633,1.0323258135787363
0.245117,0.938477,0.347168,2.258301,3.753662,1.525879,1.0302169885232917
0.240234,0.93335,0.347168,2.700805,3.288269,1.609802,1.0243926090518225
0.233887,0.924561,0.345947,2.708435,2.967834,1.464844,1.0144927295446724
0.234375,0.922363,0.340576,2.250671,3.15094,1.579285,1.010780468830893
0.240967,0.927002,0.335205,1.327515,3.601074,1.976013,1.0147710062462367
0.23877,0.930664,0.342041,0.656128,3.959656,2.601623,1.0198718740493828
0.239258,0.932129,0.347168,0.289917,3.944397,2.632141,1.023051554629091
0.236816,0.938477,0.354736,-0.114441,3.982544,2.418518,1.030853300465687
0.23584,0.944824,0.355957,-0.671387,4.219055,1.678467,1.0368308841971288
0.237549,0.948975,0.355957,0.030518,4.53949,1.411438,1.041003584948198
0.233887,0.942383,0.353027,1.068115,4.936218,1.449585,1.0331587052273237
0.228516,0.93457,0.349365,1.548767,5.386352,1.602173,1.023570491163652
0.22998,0.931152,0.346436,1.060486,6.29425,1.853943,1.0197807360408413
0.231445,0.931641,0.344971,0.259399,7.034301,2.029419,1.0200621215136851
0.230713,0.936279,0.349121,-0.411987,7.286071,1.960754,1.0255400171865552
0.231445,0.940674,0.347168,-0.75531,7.270813,1.419067,1.0290578130139238
0.234375,0.94458,0.346924,-0.63324,7.331848,1.106262,1.0332082456121805
0.233643,0.951172,0.339844,0.053406,7.667541,1.220703,1.0367310014507138
0.231201,0.948975,0.340576,0.846863,8.514404,1.678467,1.03440778458111
0.234131,0.944824,0.337158,1.487732,9.567261,2.418518,1.0301384533648863
0.23584,0.942383,0.339111,1.63269,10.589599,3.250122,1.0289326968320134
0.23999,0.944092,0.339111,1.373291,11.344909,3.639221,1.0314558521260133
0.244385,0.946533,0.343018,1.205444,11.871337,3.669739,1.0360068033743794
0.246338,0.949219,0.349121,1.647949,11.993407,3.578186,1.0409536939009343
0.246826,0.942627,0.355713,2.471924,11.543273,3.65448,1.037304426759088
0.246826,0.942871,0.353271,2.716064,11.299132,3.952026,1.0366914663283382
0.252197,0.947998,0.354004,2.586365,11.07788,3.669739,1.0428913494842116
0.256348,0.942871,0.357422,2.799988,10.238647,3.65448,1.0404184282436562
0.252197,0.937012,0.360352,3.562927,8.674622,3.608703,1.0351079068662359
0.246582,0.928467,0.362305,3.768921,6.843566,3.158569,1.0267027641133533
0.243164,0.925537,0.364258,3.410339,5.401611,3.051758,1.0239293724808367
0.237793,0.928223,0.362549,2.655029,4.554749,2.716064,1.0244926676062645
0.239014,0.933838,0.358887,2.27356,4.615784,2.113342,1.0285820245410668
0.237061,0.93335,0.360596,2.914428,4.905701,2.166748,1.0282847929620471
0.234619,0.930176,0.365234,3.028869,4.600525,1.914978,1.0264839701101036
0.228271,0.934326,0.36084,2.616882,4.180908,1.579285,1.0272673601925644
0.224854,0.939453,0.357422,2.326965,4.516602,1.106262,1.029991139092468
0.231689,0.943359,0.35498,2.571106,5.348205,1.342773,1.0342227980478866
0.231934,0.947266,0.34668,2.967834,6.240844,1.861572,1.035032983779744
0.229736,0.949951,0.343018,3.410339,6.805419,1.502991,1.0357832207662951
0.227295,0.945068,0.345215,4.196167,7.362365,1.396179,1.0314988792403024
0.222168,0.942383,0.343994,4.348755,8.041382,1.785278,1.027509713311266
0.224121,0.946045,0.341309,3.578186,9.063721,1.731872,1.0303995332622196
0.227783,0.949951,0.344727,3.684997,10.246276,2.105713,1.0359192545845453
0.232422,0.947754,0.347168,4.432678,11.07788,2.76947,1.0357525046187432
0.233643,0.943604,0.348633,5.1651,11.497497,3.250122,1.0327257762610556
0.231445,0.9375,0.349854,5.172729,11.726378,3.52478,1.0270690625955978
0.230957,0.933838,0.34668,4.684448,11.817931,3.631592,1.0225368298956277
0.232666,0.934814,0.345703,4.333496,11.95526,3.578186,1.0234848539968728
0.237549,0.938477,0.346191,4.112244,12.290954,2.876281,1.0281132308316046
0.237793,0.940918,0.346436,4.295349,12.947082,2.563476,1.030480516879868
0.24292,0.937012,0.347168,4.615784,13.763427,2.708435,1.028361431972242
0.246826,0.931152,0.356445,4.753113,14.060973,3.02124,1.0271417426066376
0.252441,0.926025,0.358643,4.295349,13.710021,2.952575,1.0246333786067092
0.256348,0.928467,0.355713,3.883362,12.901305,2.540588,1.0267896598437287
0.254639,0.927734,0.358643,4.188538,11.871337,2.593994,1.0267210899392296
0.253662,0.921387,0.357178,4.310608,10.780334,2.563476,1.0202325899994569
0.251221,0.920654,0.359131,4.272461,9.819031,2.548218,1.019652320017956
0.248535,0.92627,0.353516,3.707886,9.20105,2.433777,1.0221151213933781
0.250977,0.931641,0.35083,3.181457,9.07135,2.479553,1.0266577308480174
0.256104,0.932373,0.351563,3.15094,8.720398,2.632141,1.0288368252128226
0.255371,0.931396,0.354004,3.387451,7.797241,3.112793,1.0286066733562444
0.250244,0.932617,0.352783,3.166198,6.683349,3.234863,1.0280332549650328
0.249756,0.934326,0.349365,2.655029,6.004333,3.257751,1.0282990990159429
0.246338,0.945801,0.346191,2.479553,5.554199,3.387451,1.036855896605695
0.245117,0.947998,0.34668,3.005981,5.203247,3.593445,1.0387346023373825
0.243652,0.943359,0.348633,4.188538,5.043029,3.723144,1.0348127698641914
0.236572,0.936279,0.348877,4.867554,5.065917,3.845215,1.0267910391866497
0.230957,0.932373,0.350342,4.669189,5.233764,4.165649,1.0224480739587707
0.22876,0.935791,0.349854,4.081726,5.66864,4.165649,1.0249067053137082
0.229736,0.942627,0.342529,3.318786,6.362915,3.684997,1.028907384882624
0.227539,0.94751,0.340332,3.334045,7.164001,3.471374,1.032170076511134
0.225586,0.949463,0.340576,3.868103,7.858276,3.616333,1.0336155201722736
0.223877,0.947266,0.342529,4.386902,8.430481,3.860473,1.0318720374765469
0.223145,0.947021,0.341797,4.463196,9.170532,3.967285,1.0312456810455013
0.223145,0.94873,0.343018,4.478455,10.345458,3.913879,1.0332200405765462
0.224365,0.947754,0.34375,5.004883,11.344909,4.03595,1.0328317192268062
0.225342,0.942139,0.342041,5.439758,12.245177,4.302979,1.0273251471496256
0.229004,0.937744,0.34082,5.569458,13.191222,4.447937,1.0237015746554265
0.231934,0.933594,0.343994,5.264282,13.900756,4.707336,1.0216276274788187
0.236572,0.937012,0.345459,4.402161,14.579772,4.478455,1.0263039121083968
0.245605,0.94458,0.338135,3.822326,15.304564,3.784179,1.0329029337987186
0.246582,0.944336,0.339355,4.547119,15.701293,4.119873,1.0333126243518949
0.247559,0.937256,0.342773,5.126953,15.884398,4.585266,1.0282157349243397
0.251953,0.934326,0.341797,5.004883,16.410828,4.989624,1.026289714307807
0.256104,0.940674,0.338379,4.814148,17.059326,5.187988,1.0319676258163335
0.267334,0.939453,0.337646,5.065917,17.105103,5.630493,1.0334622528573552
0.27124,0.934326,0.340088,5.401611,16.601563,6.16455,1.0306289631191237
0.273682,0.931641,0.338379,5.455017,15.510558,6.111145,1.0282787256605088
0.274902,0.932373,0.337646,5.218505,14.305114,6.004333,1.0290264049328375
0.280518,0.931396,0.3396,4.562378,12.886046,5.92041,1.03029947934569
0.284668,0.932617,0.345703,4.249573,11.230468,6.118774,1.0345631460292795
0.286865,0.935547,0.3479,4.135132,9.140015,6.179809,1.0385442347025955
0.285645,0.935303,0.352051,4.53186,6.866455,5.91278,1.039386681863396
0.28418,0.938965,0.345215,4.447937,4.890442,4.867554,1.0399937210627763
0.281006,0.940674,0.337646,4.905701,3.044128,4.203796,1.038189177186894
0.270752,0.932129,0.337646,5.40924,1.197815,4.318237,1.027704208155732
0.262207,0.928955,0.33667,5.302429,-0.267029,4.188538,1.0222800945797585
0.257324,0.932373,0.334473,4.600525,-1.075745,3.768921,1.0234291572131409
0.255371,0.934326,0.334473,3.883362,-1.76239,3.364563,1.0247202592151674
0.249023,0.939697,0.335449,3.623962,-2.410889,3.074646,1.0283817082868598
0.243408,0.940186,0.335693,3.791809,-2.967834,2.464294,1.0275636035345939
0.238037,0.939453,0.335205,4.295349,-2.944946,1.945495,1.0254735221364812
0.233887,0.937256,0.335449,4.470825,-2.349854,1.861572,1.022583967166511
0.229004,0.939453,0.333252,4.348755,-1.289368,1.800537,1.022776450026593
0.231445,0.943604,0.333252,3.890991,0.160217,1.541138,1.0271378643322424
0.234863,0.944092,0.332031,3.669739,1.38855,1.350403,1.0279663993506791
0.233887,0.937988,0.338867,3.990173,2.14386,1.464844,1.0243805252941895
0.233398,0.93335,0.343994,4.089355,2.738952,1.525879,1.0217380882300513
0.236572,0.931396,0.345947,3.601074,3.27301,1.480102,1.0213442841711113
0.239746,0.935303,0.346191,3.02124,3.990173,1.731872,1.0257280608455634
0.241455,0.9375,0.342529,2.845764,4.272461,2.090454,1.0269045149701115
0.242676,0.935303,0.343262,3.356933,4.302979,2.326965,1.0254326615770535
0.245605,0.936035,0.342773,3.669739,4.28772,2.456665,1.0266336575327148
0.244141,0.936768,0.340576,3.494262,4.570007,2.410889,1.0262217720751203
0.244629,0.931885,0.3396,3.669739,5.15747,2.380371,1.021558202387901
0.24585,0.92627,0.3396,3.700256,5.722045,2.571106,1.0167332469236954
0.245117,0.924561,0.340332,3.02124,5.905151,2.731323,1.0152444319640468
0.249268,0.929688,0.339355,1.89209,6.240844,2.372742,1.0205959676546836
0.256104,0.933838,0.341064,1.770019,6.271362,2.204895,1.026629105936511
0.256104,0.934082,0.338623,2.090454,5.989074,2.441406,1.0260428732119335
0.255859,0.928711,0.338867,2.738952,5.653381,2.433777,1.0211752019565496
0.257324,0.926514,0.338135,2.754211,5.210876,2.403259,1.019303248006696
0.26001,0.925537,0.340576,2.01416,4.722595,2.334595,1.0199097755414448
0.262939,0.93042,0.340088,0.991821,3.982544,2.288818,1.0249283593817666
0.262451,0.936768,0.336426,0.511169,3.280639,1.991272,1.0293674109379023
0.263672,0.939697,0.331543,0.480652,3.02124,0.930786,1.0307638605626412
0.262695,0.93335,0.336426,1.304626,2.685547,0.434875,1.0263202906505358
0.257324,0.925781,0.342773,1.449585,2.044678,0.404358,1.0201859783715908
0.254639,0.925049,0.342773,0.770569,1.533508,0.007629,1.0188473890877867
0.259277,0.928467,0.338379,0.099182,1.38855,-0.175476,1.021653503130587
0.261719,0.936035,0.335449,-0.244141,1.342773,0.099182,1.0281947226994506
0.262939,0.935303,0.33374,0.076294,0.984192,0.534058,1.0272833139548214
0.26001,0.93335,0.336914,0.213623,0.404358,0.694275,1.0257965032090917
0.258301,0.939941,0.330566,-0.488281,0.37384,0.030518,1.0293116002639824
0.26001,0.939697,0.331299,-0.549316,0.656128,-0.564575,1.0297546694771527
0.257813,0.931641,0.338867,-0.045776,0.610352,-0.038147,1.0243306788039692
0.257813,0.926025,0.33667,-0.267029,-0.022888,0.175476,1.0184971931694264
0.257324,0.929932,0.333252,-1.060486,-0.495911,-0.228882,1.0208065737954473
0.258545,0.935791,0.330566,-1.335144,-0.862122,-0.320435,1.0255848053973888
0.258789,0.938965,0.328125,-0.968933,-1.121521,0.0,1.0277611752596028
0.258301,0.938721,0.327881,-0.434875,-1.235962,0.213623,1.0273375650695344
0.258057,0.936523,0.32959,-0.343323,-1.12915,0.358582,1.025815925435943
0.257568,0.935547,0.330566,-0.907898,-0.854492,-0.030518,1.0251162588648177
0.261719,0.938477,0.333984,-1.091003,-0.862122,0.038147,1.0299423414667443
0.26001,0.939453,0.333984,-1.205444,-1.167297,-0.1297,1.0303991709842357
0.260498,0.942383,0.334473,-1.571655,-1.358032,-0.900268,1.0333523670181435
0.262939,0.943848,0.33374,-1.548767,-1.312256,-1.197815,1.035069250062526
0.264404,0.941895,0.334717,-1.167297,-1.777649,-0.87738,1.0339783055412721
0.261963,0.939941,0.336914,-0.564575,-2.380371,-0.915527,1.032291015288809
0.25708,0.936035,0.341553,0.030518,-2.883911,-0.900268,1.029033575464863
0.255615,0.932861,0.338867,0.007629,-2.929687,-1.174927,1.0248900025051468
0.256348,0.928711,0.338379,-0.267029,-2.784729,-1.304626,1.0211360175148068
0.253906,0.925781,0.336914,-0.534058,-2.593994,-1.235962,1.0173739529755026
0.251465,0.927979,0.337402,-0.968933,-2.166748,-1.220703,1.0189307043513802
0.254639,0.934326,0.335449,-1.579285,-1.625061,-1.228333,1.0248571247730096
0.260254,0.945068,0.33374,-2.151489,-1.106262,-1.396179,1.0355037695440805
0.265869,0.946533,0.338623,-1.487732,-1.167297,-1.350403,1.0398444986530437
0.26416,0.939697,0.34375,-0.320435,-1.831055,-1.098633,1.0348792296248872
0.260498,0.932373,0.343262,0.282288,-2.326965,-0.88501,1.0271355410932872
0.260498,0.927002,0.340576,0.091553,-2.212524,-0.747681,1.0213637587970312
0.261719,0.930908,0.337402,-0.671387,-1.770019,-0.526428,1.0241712010347683
0.266113,0.936523,0.330322,-1.091003,-1.525879,-0.160217,1.0281070381930084
0.267578,0.938477,0.328857,-0.88501,-1.358032,0.068665,1.0297980345980469
0.263916,0.936523,0.333008,-0.671387,-1.480102,0.007629,1.0284071725970216
0.267578,0.935547,0.328125,-1.113892,-1.831055,-0.160217,1.0268944400073456
0.267822,0.939697,0.33252,-1.319885,-2.479553,-0.137329,1.0321475795122517
0.268311,0.945557,0.335938,-1.350403,-3.379822,-0.595093,1.0387122666138107
0.26709,0.948486,0.332031,-0.488281,-4.325867,-0.991821,1.0398112065452074
0.263184,0.945313,0.333252,0.389099,-4.951477,-0.862122,1.0363104657046556
0.262207,0.938965,0.33374,0.656128,-5.15747,-0.488281,1.030432030593964
0.261963,0.937012,0.334717,0.50354,-5.096435,-0.343323,1.0289079509858985
0.259033,0.931641,0.336182,0.518799,-5.348205,-0.25177,1.0237535763522392
0.256592,0.92749,0.336914,0.328064,-5.653381,-0.312805,1.0196019801667708
0.259277,0.930664,0.342285,-0.480652,-5.867004,-0.88501,1.024948323014385
0.258545,0.932861,0.347168,-0.465393,-5.966186,-1.159668,1.0283971910550904
0.253418,0.927246,0.347168,-0.083923,-6.111145,-1.052856,1.0220232127813926
0.25293,0.923096,0.348633,0.030518,-6.286621,-1.235962,1.018638689037973
0.253906,0.924072,0.346924,-0.62561,-6.301879,-1.441955,1.0191827999902667
0.254395,0.929688,0.339844,-1.541138,-6.233215,-1.686096,1.0220227677038314
0.252686,0.936279,0.336914,-1.89209,-6.088256,-1.914978,1.0266350977017102
0.25,0.937256,0.335938,-1.441955,-6.019592,-2.052307,1.0265491461104042
0.247559,0.937012,0.333252,-1.13678,-5.722045,-2.487183,1.0248579619288714
0.24707,0.931885,0.335938,-0.999451,-5.134582,-2.593994,1.020934659010556
0.246094,0.927246,0.337891,-1.144409,-4.814148,-2.441406,1.017112446700462
0.248047,0.927246,0.342041,-1.678467,-4.78363,-2.540588,1.0189722785267519
0.250244,0.930176,0.343262,-2.174377,-4.692078,-2.693176,1.022584104685771
0.251465,0.934814,0.340088,-2.26593,-4.806519,-2.89154,1.02604664054077
0.251465,0.936523,0.333008,-2.227783,-4.920959,-3.02124,1.0252825482851056
0.249268,0.93042,0.335205,-1.831055,-5.027771,-2.723694,1.0198913198223623
0.249512,0.928467,0.333008,-1.899719,-5.172729,-2.380371,1.0174485423337143
0.243164,0.935791,0.337402,-2.929687,-4.608154,-2.441406,1.0240476728067889
0.246094,0.94165,0.337402,-3.303528,-4.112244,-3.280639,1.0301005237063032
0.248047,0.936523,0.338379,-2.578735,-4.058838,-3.440857,1.0262080643704765
0.244141,0.932861,0.335938,-2.372742,-4.402161,-3.326416,1.0211213507933325
0.243408,0.932373,0.334473,-2.731323,-4.623413,-3.517151,1.0200191436056483
0.23999,0.936035,0.330566,-2.89917,-4.104614,-3.341675,1.0212886965403072
0.240967,0.941406,0.329346,-2.578735,-3.166198,-2.89917,1.0260502617518306
0.240479,0.936279,0.332764,-1.968384,-1.861572,-2.27356,1.0223406452733843
0.241943,0.929932,0.340332,-1.594543,-0.289917,-1.876831,1.0193801107030682
0.246826,0.927734,0.348633,-2.037048,1.022339,-1.998901,1.0213512704848415
0.254883,0.932617,0.340332,-2.922058,2.14386,-2.479553,1.024971064275475
0.26123,0.938965,0.340576,-3.379822,2.616882,-2.708435,1.0324187115221228
0.269043,0.938965,0.344482,-2.998352,2.471924,-2.204895,1.0357158178757337
0.271729,0.935547,0.342529,-2.487183,1.937866,-1.617432,1.0326717554436162
0.27002,0.932373,0.34082,-2.26593,1.251221,-1.495361,1.0287800950295451
0.269043,0.931396,0.342041,-2.082825,0.480652,-1.327515,1.0280441091441554
0.271484,0.932129,0.343262,-2.235413,-0.38147,-1.426697,1.029755716440069
0.26709,0.936279,0.340576,-2.502441,-1.106262,-1.777649,1.0314782817476091
0.262939,0.943115,0.334717,-2.13623,-1.419067,-2.037048,1.0347165268975846
0.263916,0.944092,0.332275,-1.808166,-1.63269,-2.372742,1.035069096797407
0.26123,0.940918,0.334473,-1.319885,-1.800537,-2.349854,1.0322015226461354
0.257568,0.940918,0.333496,-1.403808,-2.220154,-2.220154,1.030964373469811
0.256592,0.937988,0.334961,-1.564026,-2.731323,-2.204895,1.0285231227974412
0.254639,0.941406,0.339355,-1.88446,-3.379822,-2.288818,1.0325928980881092
0.256104,0.943359,0.335938,-1.861572,-4.02832,-2.548218,1.033619756748583
0.253174,0.944092,0.337891,-1.281738,-4.707336,-2.532959,1.0342036098472098
0.250244,0.939453,0.3396,-0.717163,-4.966736,-2.586365,1.0298165655809777
0.246094,0.939453,0.336914,-0.823975,-4.844666,-2.563476,1.0279325072401397
0.243408,0.943848,0.333252,-1.205444,-3.974914,-2.479553,1.0301230009430913
0.248779,0.945068,0.328369,-1.266479,-2.883911,-2.586365,1.0309562142137754
0.251465,0.943359,0.331299,-0.686645,-2.120972,-2.204895,1.030980056309044
0.246582,0.940674,0.339111,-0.450134,-1.823425,-2.182007,1.0298866575118837
0.252441,0.9375,0.344727,-0.839233,-1.914978,-2.708435,1.0302763770027923
0.255371,0.939941,0.344727,-1.144409,-2.471924,-2.929687,1.033218338808889
0.255127,0.940186,0.339844,-0.976562,-3.120422,-2.853393,1.0317623006589258
0.252197,0.941162,0.339844,-0.549316,-3.456115,-2.716064,1.031931771673399
0.248779,0.942627,0.336426,-0.648498,-3.112793,-2.815246,1.0313191094157037
0.252197,0.946777,0.332275,-0.762939,-2.418518,-2.952575,1.0345997729378253
0.25293,0.943848,0.330078,0.022888,-1.838684,-2.571106,1.0313942592859435
0.248535,0.934326,0.334961,0.831604,-1.647949,-2.075195,1.023197728702522
0.248535,0.928467,0.34082,0.740051,-1.548767,-2.204895,1.0197935520064834
0.252686,0.930908,0.339355,-0.099182,-1.411438,-2.380371,1.0225466909070704
0.252441,0.932129,0.339111,-0.099182,-1.274109,-2.098083,1.023517074329002
0.253418,0.935547,0.33667,0.099182,-1.319885,-1.930237,1.026068009847788
0.252441,0.931641,0.343018,0.244141,-1.419067,-1.594543,1.024374325959998
0.249268,0.930908,0.342041,0.320435,-1.243591,-1.182556,1.022602701917514
0.249023,0.926514,0.344238,0.25177,-1.060486,-0.801086,1.0192842819199166
0.25,0.925293,0.347168,0.106812,-0.984192,-0.564575,1.0194080419895657
0.245605,0.925293,0.352539,-0.411987,-1.12915,-0.656128,1.0201826789330428
0.246338,0.931641,0.347656,-1.251221,-1.38092,-1.403808,1.0244520767029563
0.248291,0.933594,0.345459,-1.266479,-1.655578,-1.953125,1.0259571619702257
0.243408,0.93042,0.34668,-0.854492,-1.945495,-1.777649,1.022309079126269
0.242188,0.928223,0.352051,-1.190186,-2.098083,-1.930237,1.0218575593858472
0.241699,0.928223,0.352051,-1.487732,-2.082825,-2.105713,1.021741773116378
0.237061,0.925049,0.353027,-1.419067,-1.861572,-1.602173,1.0181068867515826
0.239258,0.921875,0.355957,-1.358032,-1.960754,-0.953674,1.0167611774836802
0.240234,0.923828,0.355713,-1.960754,-2.212524,-1.121521,1.0186767331734832
0.236328,0.933105,0.35498,-3.120422,-2.532959,-1.716614,1.0259369693158542
0.238037,0.947266,0.34082,-3.852844,-2.746582,-2.632141,1.0344722135103486
0.23877,0.949219,0.341064,-2.960205,-2.548218,-2.876281,1.0365097563250432
0.235596,0.943604,0.343018,-2.082825,-2.304077,-2.342224,1.0312881907381661
0.233643,0.939941,0.342285,-1.899719,-1.899719,-1.861572,1.0272473685315529
0.233643,0.942871,0.3396,-2.113342,-1.312256,-1.831055,1.0290398117128414
0.235107,0.947021,0.335693,-1.800537,-0.839233,-2.311707,1.0318981859364809
0.230225,0.945557,0.333496,-0.976562,-0.50354,-2.632141,1.0287376598968272
0.22168,0.941162,0.333252,-0.198364,0.526428,-2.693176,1.0227339967694435
0.21875,0.939941,0.332031,-0.480652,2.792358,-2.693176,1.020580830185439
0.227295,0.94165,0.334961,-1.396179,5.302429,-1.968384,1.0249715171876728
0.231201,0.944092,0.340332,-1.731872,6.828308,-1.190186,1.029849249690944
0.237061,0.949463,0.338867,-1.64032,7.17926,-1.358032,1.0356199832848918
0.241211,0.946045,0.34375,-0.541687,6.92749,-1.38855,1.0350593949363485
0.241455,0.940186,0.350586,0.259399,6.385803,-0.999451,1.0320662648381644
0.248291,0.931152,0.355713,-0.038147,6.126403,-1.113892,1.0272410652587833
0.252197,0.92749,0.357422,-0.785828,6.278991,-1.083374,1.0254713613714428
0.254883,0.93042,0.359131,-1.548767,6.469726,-0.564575,1.029379325248958
0.255371,0.931396,0.359619,-1.602173,6.477355,-0.221252,1.0305526098254276
0.257324,0.934082,0.356934,-1.342773,6.530761,-0.358582,1.0325341176232385
0.266357,0.93335,0.359619,-1.266479,6.782531,-0.411987,1.0350913481958972
0.272705,0.932617,0.361084,-1.312256,6.568908,-0.12207,1.0365925625673764
0.2771,0.937012,0.357422,-1.861572,5.973815,-0.343323,1.0404452817077887
0.277588,0.938721,0.355957,-2.029419,5.111694,-0.785828,1.0416129796781528
0.27832,0.934326,0.358887,-1.525879,3.990173,-0.602722,1.0388584963530885
0.280273,0.930908,0.359131,-1.075745,2.532959,-0.343323,1.036396513962682
0.283203,0.930908,0.358154,-1.022339,0.862122,-0.259399,1.0368548265736144
0.280762,0.932129,0.35791,-1.457214,-0.709534,-0.427246,1.0372036161646372
0.280518,0.937744,0.357178,-1.747131,-2.845764,-0.785828,1.0419358336980258
0.281494,0.94043,0.350098,-1.602173,-5.424499,-1.533508,1.042216899949334
0.273193,0.941406,0.348633,-1.091003,-7.987976,-2.120972,1.0403963863710792
0.262695,0.940918,0.343018,-0.846863,-10.360717,-2.723694,1.0353727319535704
0.253174,0.936768,0.338379,-0.62561,-12.062072,-3.189087,1.0276826882559615
0.242188,0.933105,0.338867,-0.534058,-13.015746,-3.463745,1.0218467654487142
0.237549,0.929688,0.337646,-0.854492,-13.351439,-4.081726,1.0172286498427972
0.235596,0.929932,0.335693,-1.312256,-13.481139,-4.53186,1.0163507219897077
0.22998,0.931396,0.337646,-1.663208,-13.374328,-4.714966,1.0170516852805467
0.226318,0.935547,0.341064,-1.899719,-13.404845,-5.081176,1.0211722080183145
0.225342,0.942871,0.34375,-2.113342,-13.450622,-5.439758,1.0285663819632644
0.222168,0.944092,0.342529,-2.090454,-13.282775,-5.615234,1.0285885671778585
0.219971,0.943604,0.338867,-1.930237,-12.901305,-5.722045,1.0264534053458052
0.219482,0.941162,0.339111,-1.693725,-12.237548,-5.691528,1.0241848118816252
0.219727,0.939941,0.340088,-1.800537,-11.444091,-5.699157,1.0234397323506648
0.218994,0.942139,0.345215,-2.26593,-10.498046,-5.783081,1.0270139549110322
0.220703,0.944824,0.351563,-2.27356,-9.429932,-5.66864,1.0319877655059675
0.223389,0.942871,0.352783,-1.617432,-8.384705,-5.050659,1.0311955261011365
0.22583,0.941406,0.355957,-1.274109,-7.324218,-4.371643,1.0314794382754315
0.22583,0.943604,0.35376,-1.731872,-6.378173,-4.104614,1.0327312502853778
0.228271,0.946777,0.349609,-1.785278,-5.813598,-4.234314,1.034756391645396
0.230957,0.946777,0.348145,-1.38855,-4.821777,-4.501343,1.0348588138499861
0.230957,0.934326,0.349854,-0.305176,-3.341675,-3.921509,1.0240625134438817
0.231445,0.924316,0.351807,-0.213623,-2.01416,-3.051758,1.0157238902034351
0.235596,0.92041,0.354492,-1.159668,-1.335144,-2.555847,1.0140634207878716
0.23999,0.922607,0.350098,-2.01416,-1.365662,-2.380371,1.0155626451150122
0.241943,0.927734,0.343994,-2.418518,-1.457214,-2.13623,1.018606235029513
0.244385,0.931885,0.345215,-2.304077,-1.487732,-2.151489,1.0233802214597465
0.244873,0.934082,0.344482,-2.281189,-1.541138,-2.27356,1.0252510995736606
0.248047,0.934814,0.343262,-2.113342,-1.533508,-2.204895,1.026271567105413
0.248779,0.931152,0.3479,-1.808166,-1.625061,-1.945495,1.0246801686111622
0.250732,0.931152,0.346191,-1.976013,-1.953125,-2.082825,1.0245773720949531
0.251709,0.931885,0.344238,-2.105713,-2.494812,-2.426147,1.0248252897689438
0.254395,0.931152,0.341797,-2.13623,-3.379822,-2.746582,1.0240049083564005
0.251953,0.930908,0.342773,-2.342224,-4.653931,-3.005981,1.0235054216768957
0.249268,0.931885,0.348633,-2.716064,-5.737304,-3.311157,1.0257139746235302
0.249023,0.939697,0.343994,-3.39508,-6.622314,-3.738403,1.0312006489398655
0.249756,0.939941,0.343018,-3.166198,-7.347106,-4.272461,1.0312751773125348
0.243896,0.932129,0.346191,-2.14386,-8.430481,-4.104614,1.023815383718178
0.235596,0.921875,0.347412,-1.846313,-9.384155,-4.119873,1.0129432800433595
0.23291,0.917969,0.347412,-2.5177,-9.674072,-4.692078,1.0087662022515427
0.231445,0.922607,0.348145,-4.02832,-9.353638,-5.043029,1.0129044404577363
0.234863,0.928955,0.353516,-5.065917,-8.743286,-5.088806,1.0213185512121083
0.236084,0.935791,0.356689,-5.493164,-8.575439,-5.210876,1.0289156882164836
0.233154,0.937988,0.356445,-5.500793,-8.750916,-5.256652,1.0301627608708248
0.233154,0.939209,0.356934,-5.081176,-8.712769,-5.088806,1.0314437521033322
0.231445,0.938477,0.357666,-4.493713,-8.300781,-4.486084,1.0306458339846913
0.237061,0.933838,0.354736,-4.486084,-7.67517,-3.875732,1.026688344952352
0.23877,0.933838,0.357422,-4.79126,-7.064819,-3.334045,1.0280150821987
0.243408,0.939941,0.352051,-5.302429,-6.698608,-3.456115,1.0328002926732738
0.241943,0.942139,0.354492,-5.065917,-7.011413,-3.288269,1.035290726624169
0.237305,0.940674,0.359375,-4.768372,-7.720947,-2.914428,1.0345683292687826
0.237793,0.94043,0.365479,-4.631042,-8.499146,-2.784729,1.0365949040922398
0.239502,0.940674,0.360352,-4.608154,-8.880615,-2.677917,1.0354140940628538
0.236084,0.942871,0.35498,-4.28009,-9.017944,-2.227783,1.034771558411324
0.234375,0.94458,0.349609,-3.555298,-9.277344,-1.594543,1.0341128903103374
0.230469,0.938965,0.348145,-2.693176,-9.429932,-1.197815,1.0276070125349477
0.226318,0.934082,0.35376,-2.838135,-9.178162,-1.052856,1.024146062555532
0.223633,0.938477,0.358643,-3.623962,-8.56781,-0.946045,1.0292597338218377
0.221191,0.944092,0.358887,-4.28772,-7.362365,-1.457214,1.033941507878468
0.220947,0.946289,0.361572,-3.631592,-5.943298,-1.754761,1.0368291853116405
0.22168,0.94165,0.364258,-2.723694,-4.79126,-1.319885,1.0336975551214196
0.224365,0.933105,0.367432,-2.578735,-4.051208,-1.373291,1.0276336257995842
0.225342,0.931641,0.367676,-2.998352,-3.326416,-1.342773,1.0266058692706759
0.226807,0.935547,0.364014,-3.471374,-2.593994,-1.113892,1.0291723843234426
0.230713,0.938477,0.360596,-3.40271,-2.281189,-1.029968,1.0315023233682026
0.231689,0.942383,0.361816,-2.967834,-2.365112,-1.098633,1.035700887933384
0.23291,0.946777,0.360596,-2.845764,-2.922058,-2.113342,1.0395495327520474
0.233154,0.951172,0.355957,-2.342224,-3.14331,-2.586365,1.0420145618699386
0.233398,0.946045,0.359863,-1.289368,-3.303528,-2.357483,1.0387382476822542
0.239502,0.939453,0.365967,-1.182556,-3.814697,-2.174377,1.0362745737988557
0.240723,0.938721,0.365234,-1.51062,-4.806519,-1.998901,1.035635338005613
0.240723,0.940918,0.363525,-1.89209,-6.004333,-1.541138,1.0370268420238697
0.240234,0.94043,0.366211,-1.335144,-6.874084,-1.113892,1.0374157585929566
0.235352,0.936523,0.369873,-0.671387,-7.499694,-0.892639,1.0340560572628545
0.22998,0.933105,0.36792,-0.541687,-7.43103,-1.014709,1.029048525495761
0.225342,0.935303,0.37085,-0.717163,-6.805419,-1.13678,1.0310676220660797
0.226318,0.937988,0.375732,-1.106262,-5.905151,-1.564026,1.0354785662156412
0.224609,0.936523,0.375488,-0.518799,-5.050659,-1.541138,1.033690364932362
0.220703,0.933594,0.376465,-0.099182,-4.371643,-1.495361,1.0305500799427458
0.223633,0.926025,0.375732,-0.350952,-4.150391,-1.655578,1.024064722143088
0.222656,0.928955,0.37207,-0.953674,-4.188538,-1.548767,1.0251678746727289
0.227539,0.932373,0.367676,-1.152039,-4.600525,-1.853943,1.0277543717377222
0.223145,0.938477,0.363037,-0.747681,-5.142211,-1.899719,1.0306932782952454
0.213867,0.939941,0.367676,-0.366211,-5.493164,-2.082825,1.031704326900881
0.211182,0.941162,0.370605,-0.167847,-5.279541,-2.6474,1.0333110922626352
0.2146,0.942383,0.365479,0.137329,-4.623413,-2.6474,1.0333023652977864
0.213379,0.939941,0.361328,0.663757,-3.768921,-2.342224,1.0293578603702407
0.216797,0.938721,0.355713,0.854492,-2.914428,-2.02179,1.027000386279869
0.220459,0.9375,0.352783,0.488281,-1.686096,-1.487732,1.0256530923124056
0.218994,0.935303,0.358154,0.167847,0.007629,-0.976562,1.0251947920083284
0.223877,0.9375,0.360107,-0.007629,1.876831,-0.511169,1.028933531661788
0.229004,0.936523,0.360596,0.091553,3.547668,-0.12207,1.0293433036460673
0.236572,0.936279,0.361572,0.427246,4.608154,0.221252,1.031173597513532
0.241943,0.932129,0.363525,0.534058,5.432128,0.808716,1.0293450896152367
0.246826,0.933105,0.362061,-0.1297,5.821228,1.144409,1.0308715647557651
0.256592,0.936768,0.358398,-0.701904,5.767822,1.060486,1.0352887842008143
0.260254,0.940186,0.356445,-0.549316,5.439758,1.480102,1.0386216332895246
0.261475,0.939941,0.356445,0.038147,4.760742,1.914978,1.0387065500568484
0.26416,0.9375,0.351807,0.541687,3.990173,2.197266,1.0355939942125003
0.263184,0.931885,0.348145,1.014709,3.120422,2.220154,1.0290191505049844
0.264404,0.927002,0.3479,1.411438,2.304077,2.334595,1.0248300313808139
0.264648,0.924561,0.347412,1.38855,1.617432,2.227783,1.0225197818961742
0.265137,0.924561,0.346924,1.358032,1.174927,2.159119,1.0224807740324509
0.263672,0.925293,0.341064,1.029968,0.785828,2.128601,1.0207912183835635
0.260742,0.924805,0.343506,0.991821,0.183105,1.792908,1.0204151364150769
0.262695,0.924072,0.348145,1.213074,-0.221252,1.541138,1.0218232064471817
0.262939,0.921875,0.352051,1.327515,-0.617981,1.533508,1.0212396094683167
0.261719,0.920898,0.358643,0.999451,-0.999451,1.434326,1.0223378907259575
0.262695,0.924316,0.361816,0.068665,-1.518249,0.961304,1.0267811591264226
0.262939,0.930908,0.355957,-0.343323,-2.174377,0.75531,1.030743424928823
0.260254,0.931396,0.359131,0.236511,-2.861023,1.014709,1.0316034744479101
0.254395,0.925781,0.364258,0.892639,-3.639221,1.358032,1.0268744648446566
0.251221,0.92041,0.366455,0.411987,-4.188538,1.106262,1.022035139300993
0.251953,0.921387,0.363525,-0.518799,-4.608154,0.75531,1.022049286288582
0.250244,0.924805,0.362549,-1.167297,-4.966736,0.564575,1.0243671826849978
0.249268,0.928711,0.364502,-1.266479,-6.04248,0.236511,1.0283483676989038
0.244385,0.927979,0.359375,-0.946045,-7.125854,0.190735,1.0247045639065926
0.241211,0.923584,0.359863,-0.740051,-7.6828,0.541687,1.020142897022765
0.236084,0.926025,0.356689,-1.197815,-7.980346,0.801086,1.0200416650323652
0.231934,0.927979,0.352295,-1.678467,-8.499146,-0.25177,1.019338104763086
0.230713,0.928955,0.35376,-1.907349,-8.81958,-1.266479,1.0204567692920656
0.225342,0.928711,0.351563,-2.029419,-8.468628,-1.38092,1.0182728914460994
0.223633,0.927979,0.350098,-2.204895,-7.873535,-1.533508,1.0167228495189828
0.221436,0.93335,0.353271,-2.365112,-7.186889,-1.731872,1.0222409324797164
0.2229,0.935547,0.360352,-2.479553,-6.538391,-1.800537,1.0270278297655813
0.224854,0.935791,0.366699,-2.105713,-5.973815,-1.869202,1.0299185761981382
0.228271,0.935547,0.366211,-1.739502,-5.569458,-1.556396,1.030274883305907
0.224121,0.938477,0.362305,-1.716614,-5.363464,-1.663208,1.0306474737731617
0.225342,0.937744,0.359863,-1.594543,-5.050659,-2.067566,1.0293902104007984
0.221436,0.934814,0.355713,-1.396179,-4.379272,-1.88446,1.0244231816300333
0.216553,0.932373,0.355469,-1.312256,-3.52478,-1.808166,1.0210645537374217
0.21875,0.93457,0.362061,-1.396179,-2.044678,-1.754761,1.0258463896319956
0.218262,0.936035,0.366211,-1.625061,-0.25177,-1.556396,1.0285476743398916
0.222412,0.94165,0.36499,-1.831055,1.548767,-1.159668,1.0341129146974233
0.229492,0.941162,0.365967,-1.068115,2.792358,-0.679016,1.0355599129924835
0.230225,0.939453,0.364502,-0.526428,3.791809,-0.083923,1.0336523583091175
0.22998,0.943848,0.358398,-0.709534,4.608154,0.022888,1.0354655831595756
0.237061,0.950684,0.357666,-1.502991,5.531311,0.045776,1.043035451522622
0.246338,0.958008,0.360107,-1.586914,6.309509,0.205994,1.0526817134143636
0.246338,0.957031,0.365967,-0.320435,5.973815,-0.12207,1.0538133564792203
0.246338,0.953125,0.365967,0.541687,5.050659,-1.13678,1.0502673568944243
0.248291,0.954834,0.36377,0.488281,4.356384,-1.579285,1.051515573416295
0.248535,0.957275,0.365234,0.25177,3.166198,-1.686096,1.054296422552026
0.24585,0.965576,0.358154,0.556946,1.38092,-2.342224,1.058798149786823
0.237793,0.96875,0.349365,1.029968,-0.076294,-2.960205,1.056919096513068
0.231445,0.971924,0.342529,1.38092,-0.900268,-3.387451,1.0561861415688052
0.228271,0.979004,0.336182,1.846313,-1.190186,-3.669739,1.0599881219056184
0.227295,0.983643,0.32959,2.609253,-1.296997,-4.447937,1.062001005919486
0.229248,0.985596,0.326904,3.64685,-1.396179,-5.187988,1.0634003695391496
0.2229,0.980713,0.329346,4.882813,-1.281738,-5.325317,1.0582774617674704
0.224609,0.976563,0.335693,5.996704,-1.13678,-5.40924,1.0567943442784882
0.228027,0.972168,0.338379,6.393432,-1.12915,-5.958557,1.0543278809715695
0.230713,0.968262,0.339844,7.04956,-1.304626,-6.408691,1.051785973166119
0.230469,0.961914,0.34375,8.201599,-1.678467,-6.149292,1.0471669235881165
0.230957,0.953369,0.346924,8.865356,-1.815796,-6.217956,1.0404853904721585
0.233887,0.946533,0.347412,8.735657,-1.724243,-6.523132,1.0350473161174807
0.23877,0.946777,0.348633,8.087158,-1.281738,-6.568908,1.036794468213445
0.239258,0.947021,0.351807,7.659912,-0.747681,-6.622314,1.0382010066716367
0.236328,0.945313,0.347412,7.843017,-0.167847,-6.614685,1.034486679129799
0.235596,0.941406,0.345459,8.201599,0.221252,-6.439209,1.0300935164988663
0.23584,0.932617,0.349609,8.19397,0.556946,-6.561279,1.023533793858317
0.237793,0.923828,0.353027,7.461547,0.175476,-6.980896,1.0171684949712116
0.235352,0.921875,0.349609,6.896972,-0.358582,-7.217407,1.0136422112412249
0.241211,0.924316,0.352783,5.691528,-0.587463,-7.766723,1.0183313112469832
0.240967,0.924072,0.350342,5.271911,-0.846863,-7.820129,1.0172087658081796
0.239014,0.917969,0.352539,5.41687,-1.617432,-7.575988,1.0119676495214658
0.238525,0.911133,0.345703,5.432128,-2.6474,-7.492065,1.0032786669330709
0.236572,0.91333,0.340576,4.821777,-3.532409,-7.308959,1.003060323141136
0.240967,0.913818,0.338623,4.203796,-4.325867,-7.057189,1.003889420375571
0.239746,0.918457,0.339844,3.677368,-4.79126,-6.881713,1.0082337773061365
0.237061,0.924561,0.342041,2.883911,-4.867554,-6.965637,1.0139048309003167
0.235596,0.928711,0.337158,2.258301,-4.493713,-6.385803,1.0157190131630893
0.239502,0.936279,0.332764,1.991272,-3.639221,-5.088806,1.0221112725828827
0.244629,0.940674,0.327881,2.120972,-3.044128,-3.692627,1.025776229047057
0.246094,0.939941,0.321045,2.792358,-3.364563,-2.487183,1.0232894176829936
0.243896,0.939697,0.319092,3.288269,-4.40979,-1.937866,1.021927304209551
0.244385,0.94165,0.320068,2.983093,-5.760192,-1.63269,1.0241446554803673
0.241943,0.945801,0.31958,2.182007,-7.225036,-1.670837,1.027232847629981
0.242432,0.955078,0.318604,0.930786,-8.460999,-2.616882,1.0355944039651817
0.24292,0.966553,0.313721,0.335693,-9.376526,-3.456115,1.0448232836465696
0.234375,0.969971,0.313965,1.319885,-10.292052,-3.77655,1.0461115632144595
0.226074,0.962402,0.305908,2.449036,-11.627196,-4.646301,1.0348462530946325
0.216064,0.948975,0.30542,3.608703,-13.526916,-5.142211,1.0200581253639422
0.203857,0.934326,0.307373,4.074097,-15.48767,-5.798339,1.0044903741967863
0.191162,0.924805,0.309326,3.463745,-17.044067,-7.003784,0.9937251997131803
0.185791,0.923828,0.311035,2.510071,-17.425537,-7.888793,0.9923302073856262
0.182373,0.927002,0.311279,1.571655,-16.921997,-8.140564,0.9947297296120188
0.175537,0.927002,0.307373,1.571655,-15.769958,-7.911682,0.9922822720889454
0.175049,0.921143,0.30542,1.625061,-13.656615,-7.225036,0.9861176173509933
0.17334,0.918457,0.302979,0.282288,-9.864807,-5.569458,0.9825509100754016
0.168213,0.926514,0.294434,-1.274109,-4.203796,-2.914428,0.9866180547309075
0.171875,0.936523,0.279053,-1.945495,2.578735,0.007629,0.9922131434137527
0.177734,0.948975,0.269043,-1.281738,10.139464,3.623962,1.0022609746119022
0.176758,0.947998,0.27124,1.296997,16.670227,7.591247,1.0017558266204394
0.175293,0.927246,0.276367,5.531311,21.125792,11.253356,0.983306411579829
0.172363,0.88916,0.277344,8.880615,24.67346,14.389037,0.9472244737679658
0.163574,0.857422,0.268311,10.139464,29.312132,18.508911,0.9131920566239065
0.181885,0.835449,0.224365,9.346008,34.461975,23.29254,0.8839665367257971
0.202881,0.824219,0.192627,8.43811,38.986206,27.961729,0.8704038265374298
0.196777,0.814453,0.185547,8.224487,42.945858,32.829285,0.8581856245282835
0.169434,0.804688,0.177979,11.032104,47.950741,39.230347,0.8413722019065046
0.147949,0.780273,0.189697,16.975403,55.305477,44.494625,0.8165168785389558
0.138672,0.746338,0.209961,21.797178,64.033508,47.264095,0.7876128207114204
0.155029,0.71875,0.223877,22.315977,72.151184,47.866817,0.7686068334785997
0.18457,0.712402,0.236084,18.569946,78.483582,45.753475,0.7728637328533406
0.220459,0.751221,0.199707,12.5885,81.93206,40.084839,0.8079715634668092
0.248779,0.845215,0.160645,6.759643,85.144035,33.477783,0.8955926546656131
0.245605,0.948486,0.17627,5.821228,88.11187,23.254393,0.9954991818786192
0.243652,1.023926,0.208008,11.886596,87.287895,9.651184,1.0728737477653183
0.276123,1.069336,0.223145,23.910521,82.412712,-2.372742,1.126728486837002
0.3396,1.104248,0.237549,38.108826,78.269958,-10.856627,1.1794580674636126
0.409424,1.124756,0.26416,52.536007,76.171875,-16.944885,1.2257587759881634
0.467529,1.124268,0.312988,65.452576,74.966431,-24.131773,1.2571886850465208
0.515869,1.118896,0.364014,75.370789,71.983337,-33.02002,1.2847393806422374
0.575684,1.115967,0.400635,82.427971,65.101624,-41.130062,1.3180678344341765
0.634277,1.123535,0.425049,88.066093,55.114742,-45.982357,1.358419987100823
0.666016,1.138916,0.438477,93.490593,42.785641,-47.95837,1.3903125716330842
0.668213,1.148193,0.438721,100.540154,28.175352,-49.079891,1.3990467806542424
0.666504,1.135254,0.409668,109.817497,13.023376,-49.591061,1.3787157418249782
0.672607,1.095703,0.358643,118.873589,-1.731872,-47.050472,1.3347621668698135
0.664795,1.044678,0.308594,121.917717,-15.731811,-41.999813,1.276140577109356
0.638428,1.00293,0.242188,117.546074,-29.876707,-36.079407,1.2133070194423174
0.613037,0.970703,0.181641,108.261101,-43.380733,-29.380796,1.1623562837869463
0.550537,0.932129,0.144043,96.733086,-55.5191,-20.202635,1.0921098144687649
0.48877,0.900635,0.11499,78.544617,-64.529419,-12.916564,1.0311460692961982
0.436768,0.891113,0.102539,59.150692,-70.549011,-4.669189,0.9976787614828734
0.375244,0.890137,0.091553,41.572567,-72.685242,7.003784,0.9703266924670269
0.335205,0.883057,0.099609,29.144285,-71.090698,16.685486,0.9497757683553524
0.322266,0.875244,0.114014,18.211365,-68.42041,25.436399,0.9396311119199918
0.317139,0.876709,0.13208,8.468628,-65.2771,33.538818,0.941616133252824
0.31543,0.88208,0.148682,1.312256,-61.584469,38.131714,0.9485080645012988
0.308838,0.88916,0.162109,-3.852844,-57.838436,39.726257,0.9551260355183497
0.301758,0.894043,0.177002,-7.438659,-55.13763,39.726257,0.9600523342073598
0.294678,0.9021,0.187744,-9.468079,-53.535458,37.879944,0.9674023688310879
0.293457,0.90918,0.196533,-10.368346,-53.260799,34.072876,0.9753719820345467
0.289795,0.91748,0.202637,-10.421752,-54.76379,28.427122,0.9832662132881409
0.29248,0.921143,0.204102,-9.407043,-58.273312,21.240232,0.9877786205689005
0.292236,0.923096,0.201904,-7.385253,-63.301083,12.878417,0.9890770091999915
0.291992,0.917725,0.197754,-5.41687,-69.007874,3.479004,0.9831506233558518
0.284668,0.903564,0.190674,-3.540039,-74.607849,-6.980896,0.966343803517154
0.282227,0.890381,0.185791,-2.166748,-79.376221,-17.982483,0.9523385429410068
0.279297,0.882568,0.178711,-1.281738,-82.725517,-29.129026,0.9427994009088041
0.27832,0.873291,0.175293,-0.831604,-84.861748,-40.115356,0.933181026880637
0.279297,0.869385,0.174805,-0.793457,-86.517326,-50.682064,0.9297278529005141
0.286621,0.871826,0.169434,-0.907898,-88.172905,-61.218258,0.9332416901708795
0.291748,0.87915,0.169189,-0.930786,-89.630119,-71.647644,0.9416191033135426
0.291016,0.886719,0.169922,-0.465393,-91.522209,-82.252495,0.9485960063699405
0.306396,0.888428,0.164795,0.137329,-94.581596,-92.26989,0.9541175043069905
0.321045,0.892334,0.16626,-0.022888,-98.152153,-101.21154,0.962793979614019
0.332275,0.902344,0.167969,-1.335144,-101.448051,-109.260551,0.9761377745595138
0.353271,0.923584,0.16333,-3.799438,-104.812614,-116.607658,1.002239738484261
0.38916,0.949707,0.150146,-6.256103,-108.184807,-123.275749,1.037271764179957
0.425049,0.981934,0.145508,-8.201599,-112.113945,-128.746033,1.0798303620573928
0.461914,1.013184,0.140869,-10.177611,-116.821281,-133.262634,1.122386046070157
0.498779,1.056885,0.133789,-12.535094,-122.38311,-137.245178,1.1763017855070186
0.527832,1.108887,0.144043,-15.655517,-127.983086,-140.670776,1.236521485798771
0.539307,1.164551,0.181152,-19.607544,-132.789612,-143.630981,1.2960891631959586
0.544434,1.226563,0.21167,-22.895811,-136.001587,-145.454407,1.358554144016719
0.553467,1.270752,0.221436,-21.812437,-136.123657,-144.271851,1.4036275388040091
0.565674,1.283203,0.224854,-14.625548,-132.545471,-137.481689,1.4202662901023175
0.557861,1.293945,0.214844,-7.034301,-124.580376,-127.334587,1.4253632879662643
0.550781,1.302979,0.215576,-2.754211,-114.227287,-116.561882,1.4309392007272708
0.564697,1.306641,0.22583,-0.045776,-103.660576,-104.591362,1.4412468884927385
0.57959,1.308105,0.224854,2.975464,-93.719475,-90.087883,1.4483171546456943
0.596191,1.314209,0.226563,7.659912,-85.670464,-73.181152,1.4607942350416776
0.606201,1.331787,0.227295,12.702941,-80.329887,-53.810116,1.4808103466666487
0.588623,1.361084,0.216064,17.242432,-77.804565,-31.85272,1.4985694322523064
0.551758,1.402344,0.216553,21.003721,-79.177856,-8.972168,1.522465364699309
0.522217,1.436768,0.23877,24.505613,-84.152214,14.488219,1.5472633886358844
0.474121,1.459961,0.273193,29.167173,-89.714043,38.81073,1.5591379860073322
0.398926,1.460205,0.283203,35.057068,-94.070427,64.903259,1.539981991683669
0.334717,1.457031,0.270508,39.31427,-95.512383,92.674248,1.5192594851156929
0.288086,1.460205,0.260498,42.442318,-93.711845,122.863762,1.5109769665435009
0.242676,1.452881,0.244141,44.830318,-89.408867,154.403687,1.4931040382431495
0.197021,1.451904,0.216553,45.516964,-84.602348,186.42424,1.4811271726175306
0.148926,1.47583,0.158936,43.853756,-81.108086,215.866074,1.4918156033746262
0.133789,1.510498,0.130859,41.03088,-79.826355,239.692673,1.522047233960234
0.143799,1.525391,0.156982,38.009644,-80.848686,249.992355,1.54017505615628
0.147217,1.561279,0.161865,33.790588,-82.458488,249.992355,1.5765358350367429
0.134033,1.634766,0.140381,32.012939,-82.229607,249.763474,1.646247716780801
0.13501,1.695801,0.131348,32.646179,-80.223083,249.992355,1.706230063269605
0.146973,1.72168,0.133301,33.927917,-75.469971,249.992355,1.7330759480559415
0.147217,1.703125,0.135986,36.071777,-68.687439,249.992355,1.7148760313532871
0.156006,1.635498,0.158447,38.726807,-61.180111,249.992355,1.6505444652747163
0.173096,1.556396,0.159912,39.878845,-53.153988,249.992355,1.5741355029907684
0.181396,1.486328,0.106201,39.482117,-46.112057,249.992355,1.5011176119148693
0.187012,1.428467,0.080322,37.734985,-43.151852,249.992355,1.4428939953846227
0.20166,1.373779,0.089111,33.195496,-45.227047,249.992355,1.3913577062574527
0.208252,1.314209,0.096191,27.984617,-50.544735,249.992355,1.3340790455089233
0.200195,1.256836,0.087158,24.101255,-58.593746,249.992355,1.2756611171800292
0.172852,1.206787,0.012695,20.751951,-68.984985,249.992355,1.2191693238832741
0.125977,1.183594,-0.057373,18.081665,-79.734802,249.916061,1.1916612868151755
0.0979,1.144531,-0.054932,14.503478,-92.353813,242.416367,1.1500231061091772
0.075439,1.101318,-0.033936,10.57434,-105.987541,226.661667,1.1044202243444294
0.031006,1.058105,-0.025635,8.415222,-117.629997,214.012131,1.0588695463965332
-0.009277,1.003174,-0.017822,11.566161,-127.197258,202.575668,1.0033751844096006
-0.049805,0.936523,-0.010742,15.640258,-135.139465,193.748459,0.9379079155855334
-0.077148,0.874756,-0.025879,17.26532,-140.151978,186.408981,0.8785326380283205
-0.100586,0.824707,-0.065674,18.478394,-140.640259,180.12999,0.8334100152511967
-0.130859,0.769287,-0.092285,20.462034,-137.084961,173.904404,0.7857754688681748
-0.172363,0.712158,-0.09668,21.77429,-130.53894,166.229233,0.7390703911894996
-0.211914,0.654297,-0.104736,21.39282,-121.299736,157.12738,0.6956879597211669
-0.271729,0.60083,-0.130371,19.828796,-110.130302,148.292542,0.6721829631744618
-0.367188,0.548828,-0.162842,18.569946,-96.458427,137.550354,0.6801152239819367
-0.493164,0.491455,-0.146484,20.690916,-80.177307,123.603813,0.7114747431757503
-0.633301,0.42041,-0.11499,26.542662,-59.249874,109.703056,0.7687895842172942
-0.794434,0.321045,-0.086182,36.079407,-29.289244,98.327629,0.8611751328881948
-0.92334,0.205322,-0.086182,44.189449,12.33673,89.653008,0.9498111477593849
-0.967285,0.10791,-0.11084,45.921322,65.1474,86.074821,0.979576615137887
-0.939697,0.060547,-0.141602,33.340454,123.161308,84.243767,0.9522329113310462
-0.73877,0.088623,-0.171631,10.375976,179.725632,72.937012,0.76360483837519
-0.436279,0.206055,-0.159424,-16.304016,224.464401,42.861935,0.5081476563381947
-0.169922,0.357422,-0.144287,-40.046692,249.992355,-5.340576,0.42123949308795827
0.033936,0.497559,-0.134766,-56.846615,249.992355,-59.463497,0.5166028313249937
0.13501,0.643311,-0.135498,-62.255856,249.603256,-108.047478,0.6711456256469233
0.178955,0.765869,-0.099609,-58.128353,242.073044,-154.701233,0.7927812876619882
0.184326,0.868164,-0.0354,-51.956173,220.336899,-197.50975,0.8882217995365798
0.170898,0.979248,0.063965,-46.82159,198.547348,-236.137375,0.9961045593375225
0.130859,1.130615,0.199219,-46.615597,185.386642,-249.992355,1.1554663846546986
0.106445,1.345215,0.299316,-52.223202,179.962143,-249.992355,1.3822170604163444
0.076172,1.622803,0.317139,-47.256466,181.190475,-249.649033,1.6552549337531064
0.048828,1.945068,0.317871,-24.147032,185.073837,-249.992355,1.9714755060230904
0.061279,2.203857,0.356689,11.001586,185.913071,-249.992355,2.233375883054843
0.11499,2.259277,0.430908,46.264645,179.290756,-249.992355,2.3028758037056622
0.265625,2.241455,0.508301,58.975216,161.529526,-249.992355,2.313665287860584
0.351318,2.333496,0.561768,43.373104,138.679504,-249.992355,2.4257393110068524
0.349365,2.50708,0.605713,14.678954,116.302483,-249.992355,2.6027666564626957
0.375,2.608887,0.601807,-8.071899,99.57885,-249.992355,2.703532512106707
0.420898,2.555908,0.567383,-14.167785,91.644279,-249.992355,2.651743633829824
0.473145,2.384033,0.546631,-8.308411,88.340752,-249.992355,2.491241655535448
