ax,ay,az,gx,gy,gz,acc_mag
-0.274414,0.967041,0.069336,8.865356,-12.260436,-1.289368,1.0076104505080323
-0.289307,0.96875,0.076172,7.949829,-12.565612,-0.640869,1.0138921423568683
-0.300293,0.973389,0.056641,7.797241,-13.534545,-1.144409,1.0202304808478329
-0.299316,0.977295,0.048828,9.033203,-14.083861,-2.731323,1.023269152503387
-0.301758,0.97998,0.054199,8.44574,-14.213561,-4.364014,1.0268184954338329
-0.285645,0.978516,0.057861,7.80487,-16.281128,-4.394531,1.0209968283995794
-0.289063,0.979004,0.055176,7.698059,-18.669128,-3.532409,1.0222771840166442
-0.30127,0.982666,0.048096,7.865905,-20.599363,-2.26593,1.028936006597106
-0.31665,0.978027,0.035889,8.476257,-21.202085,-0.434875,1.0286360170390692
-0.325684,0.962646,0.031494,9.162903,-19.920349,0.25177,1.016734607067154
-0.317139,0.954834,0.034668,8.705139,-16.975403,-0.160217,1.006720906260022
-0.310303,0.959961,0.046875,7.499694,-12.641906,0.701904,1.0099556123686821
-0.311279,0.972656,0.039307,6.690979,-8.415222,2.410889,1.022007509965558
-0.313477,0.984863,0.021484,7.575988,-6.088256,2.464294,1.0337719867330513
-0.314209,0.988037,0.01709,8.613586,-4.28009,1.228333,1.0369361008037092
-0.320801,0.986084,0.028076,8.666992,-1.960754,1.13678,1.037334660769127
-0.309814,0.976318,0.047119,8.750916,0.221252,2.662658,1.0253788333494114
-0.294434,0.966797,0.040039,8.850098,1.556396,3.822326,1.0114301464194153
-0.311768,0.96875,0.012207,8.460999,2.159119,3.585815,1.0177548128960139
-0.327148,0.970703,0.010254,7.56073,2.571106,2.76947,1.0243999573550362
-0.339111,0.967773,0.031982,5.0354,5.218505,2.593994,1.0259647645869716
-0.336914,0.964844,0.046631,2.159119,8.834839,4.096985,1.0230393139527922
-0.313477,0.967529,0.045898,0.823975,10.902404,5.424499,1.0180799682608435
-0.303955,0.969238,0.049561,0.175476,10.711669,5.065917,1.016989299545477
-0.304932,0.976807,0.044922,-0.076294,9.857178,3.494262,1.0242819074634677
-0.307129,0.980469,0.034424,1.403808,9.170532,2.27356,1.0280236837631709
-0.311768,0.97583,0.028076,3.067016,9.407043,1.266479,1.0248081461912761
-0.313477,0.966797,0.029785,3.410339,10.185241,0.442505,1.0167848420206707
-0.303223,0.964355,0.0354,2.693176,10.330199,-0.297546,1.0115225720437484
-0.292725,0.96875,0.03833,2.174377,9.819031,-0.564575,1.0127357389887057
-0.291992,0.971436,0.032959,2.159119,9.239197,-1.121521,1.0149056733711759
-0.299316,0.975586,0.020996,2.761841,9.414673,-2.952575,1.020685526138193
-0.306396,0.97876,0.013672,3.257751,10.498046,-4.798889,1.0256883396041898
-0.298584,0.978516,0.023193,2.593994,11.726378,-4.470825,1.023320029395008
-0.296631,0.971191,0.029053,1.319885,12.489318,-1.785278,1.0158966411259562
-0.29248,0.963379,0.031006,0.25177,12.634276,0.366211,1.0072760396619191
-0.291748,0.964844,0.028076,-1.029968,12.519835,0.640869,1.0083794432732156
-0.295166,0.968262,0.030762,-2.410889,12.832641,-0.076294,1.0127193929435734
-0.290283,0.982666,0.036621,-2.914428,13.565063,0.038147,1.025298876077605
-0.281006,0.987305,0.037354,-2.204895,13.748168,0.724792,1.0271956271212412
-0.285889,0.98584,0.035889,-0.465393,13.320922,0.663757,1.0270837581434145
-0.286133,0.983154,0.03125,1.159668,12.596129,-0.137329,1.0244220047934347
-0.288818,0.980469,0.016113,2.441406,12.351989,-1.251221,1.0222499331640966
-0.291992,0.983643,0.005127,2.777099,12.397765,-2.349854,1.026079512339078
-0.289307,0.978027,0.018799,1.152039,12.763976,-2.182007,1.0200925229502469
-0.290283,0.971924,0.029785,-1.121521,12.664794,-0.892639,1.0147845229850523
-0.291504,0.969971,0.027588,-2.593994,12.237548,-0.022888,1.013202556550762
-0.298096,0.973145,0.031006,-3.784179,12.390136,0.12207,1.0182503563844207
-0.291992,0.97583,0.034668,-4.379272,13.069152,0.396728,1.0191689689094738
-0.276611,0.973877,0.036133,-4.364014,13.862609,1.121521,1.0130427681687482
-0.276123,0.969482,0.037598,-3.715515,13.748168,1.548767,1.008738255969803
-0.26123,0.967041,0.042236,-2.464294,12.748717,1.533508,1.0025932815838134
-0.251953,0.969482,0.040771,-2.090454,11.390685,2.235413,1.002515803852488
-0.2854,0.978516,0.033936,-2.670288,9.811401,2.418518,1.0198521335723136
-0.294189,0.998779,0.02124,-3.440857,7.438659,1.472473,1.0414210465330533
-0.266113,1.020508,0.010254,-4.776001,4.989624,3.211975,1.0546837684107024
-0.282227,1.016602,0.017822,-3.944397,3.730774,6.92749,1.0552010849203104
-0.296387,0.996094,0.031738,-1.358032,4.692078,6.591796,1.0397383378759293
-0.307861,0.98291,0.039795,0.37384,8.087158,4.02832,1.030763845624205
-0.323975,1.002197,0.009277,2.922058,12.145995,1.76239,1.0533018039303836
-0.328613,1.04541,-0.051758,10.45227,18.15033,2.029419,1.0970631077713806
-0.355225,1.07251,-0.124023,21.057127,26.359556,5.126953,1.136593245296663
-0.366455,1.077148,-0.195313,29.991148,31.372068,8.43811,1.154419442359665
-0.294678,1.093506,-0.283691,38.749695,29.174803,9.94873,1.1675063508182728
-0.288818,1.109131,-0.335938,50.582882,26.18408,9.819031,1.1943373694768997
-0.378418,1.129639,-0.351563,60.394283,21.202085,3.341675,1.2421276085869761
-0.284424,1.160645,-0.374756,69.213867,3.829956,-12.023925,1.252372104183497
-0.12915,1.19751,-0.447754,81.405632,-24.253843,-33.653259,1.28498776924763
-0.171631,1.274414,-0.526855,97.961418,-61.614986,-62.32452,1.3896634249277773
-0.47998,1.383545,-0.613037,117.691032,-100.532524,-100.563042,1.5875742284359495
-0.738525,1.426025,-0.603027,144.325256,-137.298584,-139.457703,1.7154031709714777
-0.793213,1.34375,-0.498535,173.141464,-174.118027,-166.290268,1.6381050247447506
-0.819092,1.251221,-0.505371,198.715195,-206.115707,-191.757187,1.5785643930312123
-0.873047,1.208252,-0.5271,227.25676,-233.383163,-215.934738,1.5811130161101705
-0.982666,1.185791,-0.528564,249.839767,-249.885544,-230.331406,1.6282237761846496
-1.142578,1.166992,-0.588867,249.992355,-248.710617,-238.647446,1.736121872979256
-1.294189,1.155273,-0.608398,249.671921,-232.620224,-248.374924,1.838403926957838
-1.365479,1.113525,-0.600098,249.954208,-208.023056,-249.992355,1.8613404940176852
-1.342285,1.035156,-0.595459,249.992355,-179.275497,-249.916061,1.796621380881904
-1.323975,0.958252,-0.558594,248.062119,-155.052185,-249.946579,1.7271896111790968
-1.318115,0.929688,-0.487549,233.154282,-143.936157,-249.992355,1.6850670485087529
-1.339355,0.924561,-0.349365,220.672592,-139.373779,-249.992355,1.6645542231994126
-1.378174,0.86377,-0.268311,213.26445,-129.936218,-249.992355,1.648469890503615
-1.433838,0.806396,-0.320557,198.974594,-109.634392,-249.992355,1.67598410174709
-1.439941,0.792969,-0.375488,181.358322,-85.296623,-249.992355,1.6861853861856353
-1.434326,0.755615,-0.394775,165.100082,-63.560482,-249.992355,1.6685599788817902
-1.448486,0.713623,-0.373047,149.147034,-48.286434,-249.992355,1.6572668893494493
-1.473633,0.719238,-0.341064,134.529114,-38.421631,-249.992355,1.674879748348818
-1.432129,0.753418,-0.235107,124.687187,-29.319761,-249.992355,1.6352086890712145
-1.377686,0.718994,-0.150391,117.790215,-17.196655,-249.992355,1.561277854679621
-1.244629,0.651855,-0.181396,111.54937,-8.232117,-249.992355,1.4166583206553371
-1.13623,0.571045,-0.244629,107.612602,0.152588,-249.992355,1.2949727227111776
-1.115479,0.493896,-0.323975,104.789726,12.145995,-249.992355,1.2622149020202542
-1.078369,0.465088,-0.380371,105.224602,27.297972,-249.992355,1.2344507465046954
-1.002686,0.451904,-0.334961,107.482903,41.65649,-249.992355,1.149693572797987
-1.042969,0.384766,-0.275635,113.525383,50.392147,-249.992355,1.1453400643223828
-1.02002,0.372314,-0.206055,123.970024,46.348568,-249.992355,1.105222682549087
-0.839355,0.371338,-0.147949,133.010864,34.370422,-249.992355,0.9296760902970452
-0.731445,0.30542,-0.176514,139.907837,21.362303,-249.992355,0.8120654878893697
-0.702393,0.211914,-0.208252,147.262573,4.974365,-249.992355,0.7626482579466107
-0.721436,0.12915,-0.192383,153.900146,-12.619018,-249.992355,0.7577340188252076
-0.724365,0.054443,-0.151123,156.37207,-28.518675,-249.992355,0.7419614913208098
-0.679443,0.011719,-0.167236,156.829834,-40.328976,-249.992355,0.699819980356377
-0.611816,-0.039551,-0.163574,159.339905,-45.898434,-249.992355,0.6345388506096376
-0.594727,-0.103027,-0.167236,158.546448,-46.56982,-249.992355,0.6263247136701537
-0.604248,-0.142578,-0.158936,152.420044,-47.477718,-248.92424,0.6408625310345425
-0.564697,-0.186279,-0.081787,145.149231,-51.49078,-239.944443,0.600226358150823
-0.566406,-0.247559,-0.041992,137.680054,-54.244991,-228.431686,0.6195680296634098
-0.569824,-0.272949,0.005127,131.576538,-56.999203,-217.132553,0.6318439947534518
-0.565674,-0.299072,0.070313,128.730774,-58.403011,-206.428513,0.6437197009793937
-0.540283,-0.320557,0.096924,126.358025,-61.264034,-196.823105,0.6356546012686449
-0.501709,-0.346191,0.12207,125.442497,-66.810608,-188.056931,0.6216600470208777
-0.52417,-0.364746,0.132568,124.191277,-75.088501,-180.435165,0.6522025053923054
-0.595947,-0.392334,0.165283,122.718803,-88.218681,-173.286423,0.7323914694028051
-0.649902,-0.437988,0.213867,118.400566,-105.079643,-165.489182,0.8123701074245654
-0.627686,-0.477539,0.28125,109.733574,-122.26104,-157.752991,0.8373379088617688
-0.551025,-0.506348,0.373047,101.34124,-134.078979,-151.199341,0.8361703845138262
-0.486816,-0.521729,0.429688,92.01049,-137.718201,-145.439148,0.8329602299275759
-0.472412,-0.530762,0.450928,79.933167,-136.695862,-140.4953,0.8415565694426014
-0.518066,-0.541504,0.488037,65.361023,-136.962891,-136.726379,0.8943148638712207
-0.623779,-0.538086,0.554199,49.47662,-142.76886,-133.102417,0.992861176518651
-0.697021,-0.538574,0.631348,34.950256,-151.748657,-127.387993,1.083743754316951
-0.642822,-0.562988,0.675293,20.675657,-158.653259,-122.825615,1.089126369011879
-0.476563,-0.591553,0.713379,5.302429,-162.048325,-120.132439,1.0420925306415931
-0.369385,-0.605469,0.75708,-12.847899,-163.780197,-118.110649,1.0374045086589898
-0.330811,-0.588867,0.789795,-34.614563,-170.04393,-115.936272,1.0392191315766854
-0.35498,-0.572754,0.808594,-56.53381,-178.932175,-112.403862,1.0525598328608212
-0.439941,-0.562256,0.815918,-79.849243,-188.095078,-106.948845,1.084159617280131
-0.471436,-0.561523,0.807129,-103.576653,-194.831833,-98.121635,1.0904206547319248
-0.422607,-0.558594,0.78125,-127.16674,-196.960434,-88.562004,1.0492737944812116
-0.369385,-0.555664,0.762207,-151.657104,-200.599655,-81.619255,1.0129991460855237
-0.387695,-0.532715,0.758789,-178.466782,-213.363632,-76.644897,1.004914638549464
-0.414307,-0.496338,0.757568,-205.947861,-236.854538,-69.389343,0.9959472752696299
-0.436523,-0.474854,0.727539,-231.330856,-249.992355,-60.119625,0.9722919558270551
-0.456787,-0.438721,0.680664,-249.992355,-249.992355,-51.353451,0.929749407155498
-0.481445,-0.392334,0.611084,-249.992355,-249.702438,-43.182369,0.8712857801186704
-0.514648,-0.337891,0.522705,-249.702438,-249.992355,-35.78949,0.8076220705317556
-0.53833,-0.271484,0.42334,-249.977097,-249.992355,-23.399351,0.7366949889581169
-0.596191,-0.222656,0.301758,-249.992355,-249.992355,-1.747131,0.704327546941762
-0.637451,-0.180908,0.148438,-249.992355,-249.992355,18.058777,0.6790473633768118
-0.583252,-0.145996,-0.052734,-249.992355,-249.992355,25.817869,0.6035549703846369
-0.503174,-0.113037,-0.33374,-249.992355,-249.992355,24.002073,0.6142831800114666
-0.463379,-0.002686,-0.570313,-249.992355,-249.992355,17.601013,0.7348361927708786
-0.373291,0.250244,-0.478271,-249.992355,-249.992355,12.405395,0.6562860501778169
-3.026855,4.67041,-5.785156,-132.781982,-249.992355,-67.321777,8.027615505457458
-1.296143,-0.385498,-5.230469,249.992355,-235.435471,-112.106316,5.402444015851899
-0.753418,-1.626221,-0.8396,-30.143736,-99.884026,189.880356,1.9791820491215557
-1.402832,-0.364502,-2.300537,-233.093246,122.169487,244.857773,2.7190567880419487
-1.150146,-1.145508,-2.231689,77.713013,214.332565,98.94561,2.7596123264148895
0.218018,-1.668213,-0.622314,249.992355,151.573181,-63.507076,1.793806337453684
1.171143,-2.167725,0.107178,150.878906,49.690243,-126.525871,2.4661903263450693
0.997314,-1.954102,-0.352051,-39.802551,-49.591061,-59.249874,2.221956288409158
0.161377,-1.126953,-0.651855,-129.53186,-114.70031,69.763184,1.3118614794874497
-0.317627,-0.588135,-0.545654,-118.408195,-145.851135,112.342827,0.8628603462148438
-0.469482,-0.386719,-0.461182,-82.077019,-158.378601,70.1828,0.7633176078206241
-0.6521,-0.36792,-0.578613,-61.279293,-147.55249,22.430418,0.9462518376040282
-0.796631,-0.441895,-0.779053,-43.80035,-93.643181,9.040833,1.1986724815373881
-0.741211,-0.589111,-0.82666,1.350403,1.586914,22.521971,1.2569058327663214
-0.52417,-0.804932,-0.829834,48.255917,81.42852,32.737732,1.2693676303892423
-0.267334,-0.906982,-0.918457,63.156124,110.885612,31.066893,1.3181984208490767
-0.162109,-0.798584,-1.077393,59.600826,101.905815,33.8974,1.3508484035545958
-0.275391,-0.598145,-1.200684,69.351196,66.551208,37.666321,1.3694012238062299
-0.449951,-0.438477,-1.199951,98.426811,19.081116,31.059263,1.3544742095481184
-0.596924,-0.352539,-1.149658,129.577637,-13.511657,18.943787,1.3425034544689263
-0.727539,-0.337402,-1.124268,153.022766,-7.011413,8.94165,1.3809893706864655
-0.825928,-0.345215,-1.101563,173.057541,35.713196,3.997802,1.4194264688168952
-0.796143,-0.353271,-1.064697,193.077072,88.516228,5.020141,1.3755812508532528
-0.680908,-0.370361,-1.001465,211.936935,126.571648,6.362915,1.2663866396207755
-0.571777,-0.406738,-0.915771,230.796799,143.539429,7.011413,1.1536902802806306
-0.495605,-0.460938,-0.807617,247.512802,144.40918,11.909484,1.0537235759714216
-0.452148,-0.512939,-0.734619,249.992355,135.185242,19.233704,1.003598179943547
-0.458252,-0.518799,-0.669678,249.877914,124.053947,25.123594,0.9631281958228614
-0.514648,-0.493164,-0.581055,249.916061,121.162407,28.984068,0.919618512115214
-0.581787,-0.46875,-0.452148,249.992355,126.91497,29.602049,0.8732929003335593
-0.599121,-0.454834,-0.314941,249.992355,132.751465,26.794432,0.8154800878488696
-0.578857,-0.435547,-0.200439,249.992355,133.766174,26.43585,0.7516331607765852
-0.582764,-0.421143,-0.067139,249.992355,131.813049,30.189512,0.7221377648800816
-0.606445,-0.457275,0.093506,249.992355,131.080627,32.12738,0.7652576923402992
-0.630615,-0.555176,0.238037,249.992355,137.443542,28.663633,0.8732452591168188
-0.673584,-0.662109,0.275635,249.992355,151.405334,21.507261,0.9839097449268402
-0.686523,-0.686279,0.286621,249.992355,169.250473,19.920349,1.0121483552380057
-0.671631,-0.647461,0.36377,242.233261,192.375168,26.046751,1.0013104211891535
-0.666504,-0.616211,0.488525,222.145065,215.78215,33.157349,1.0308250356690023
-0.658447,-0.66333,0.66748,214.233383,232.002243,35.598755,1.1485158645438904
-0.645996,-0.775391,0.871582,211.547836,240.081772,33.027649,1.3334906139980889
-0.645996,-0.894287,1.025391,201.568588,243.00383,30.754087,1.506149651683391
-0.672607,-0.964844,1.078613,182.708725,244.628891,29.655455,1.5958477761221463
-0.656738,-0.97168,1.08252,159.507751,240.509018,23.170469,1.5960314450047657
-0.617432,-0.955811,1.07373,137.031555,221.626266,13.702392,1.5645104842234199
-0.62793,-0.948242,1.101563,112.861626,188.896164,5.79071,1.5833193040044071
-0.728271,-0.963867,1.179932,88.127129,151.130676,5.279541,1.6886852186698385
-0.794434,-0.98291,1.270752,67.314148,113.18969,6.210327,1.7922187628635071
-0.817627,-1.011963,1.362549,49.247738,82.283012,2.212524,1.8839115695538895
-0.80127,-1.040283,1.429688,29.327391,55.374142,-4.867554,1.9411929606128806
-0.749268,-1.056641,1.459717,8.201599,27.366636,-11.672973,1.9515805027705109
-0.70459,-1.041748,1.4729,-15.274047,-3.822326,-20.736692,1.9367809307208703
-0.701172,-0.998779,1.449463,-42.060848,-39.306641,-32.043457,1.8947677041774804
-0.725098,-0.939453,1.401611,-69.114685,-78.262329,-41.473385,1.836532723404078
-0.733398,-0.898193,1.377441,-92.628471,-117.744438,-47.775265,1.800546306023258
-0.73584,-0.889404,1.342773,-115.745537,-148.712158,-51.338192,1.770745410934333
-0.726074,-0.874756,1.270508,-142.555237,-167.27446,-53.62701,1.704867176960129
-0.716309,-0.833008,1.17627,-172.286972,-173.44664,-56.480404,1.609537829454468
-0.709717,-0.768555,1.075684,-201.530441,-174.507126,-59.799191,1.5004902785323204
-0.739746,-0.708984,0.996582,-227.6306,-177.062973,-62.217709,1.4293558477496078
-0.773193,-0.65918,0.927002,-249.061569,-187.080368,-66.940308,1.3753829996233775
-0.738281,-0.614014,0.900635,-249.992355,-203.323349,-72.982788,1.3165163995871831
-0.729248,-0.564209,0.857178,-249.710068,-216.155991,-76.049805,1.2589235738792883
-0.758301,-0.478027,0.788086,-249.93895,-225.212082,-77.476501,1.1935701750320338
-0.810059,-0.375977,0.705811,-249.992355,-237.098679,-81.18438,1.1382984914911378
-0.872803,-0.285645,0.611572,-249.992355,-249.992355,-86.463921,1.1033578086994262
-0.965576,-0.193359,0.538574,-249.992355,-249.992355,-92.170708,1.1224021864434335
-0.942627,-0.092041,0.435303,-249.992355,-249.755844,-95.138542,1.0423559414226025
-0.820801,0.028809,0.293945,-249.992355,-249.992355,-88.417046,0.8723232790124312
-0.750732,0.19873,0.069824,-249.992355,-249.992355,-68.04657,0.7797227325787032
-0.653076,0.440674,-0.102539,-249.992355,-249.748215,-42.762753,0.7944910840110164
-0.542969,0.636963,-0.098877,-249.992355,-219.642624,-21.507261,0.8428011980645257
-3.249268,4.956299,-5.421143,-126.899712,-150.215149,-92.52166,8.03190100410071
0.020752,-1.186035,-5.179199,249.992355,-58.647152,-118.545525,5.31330518117772
0.547852,-2.566406,-0.065918,1.312256,37.994385,185.150131,2.625057476221045
-0.855469,-0.308105,-2.071289,-249.992355,65.376282,247.245773,2.2620773688154436
-1.38501,-0.823486,-2.126465,101.570122,168.601974,141.532898,2.668002115539079
0.321533,-1.689941,-0.181396,249.992355,107.963554,-85.433952,1.7297943699717604
1.713135,-2.312744,0.322754,144.790649,13.328551,-160.545349,2.8961675507948432
1.251465,-2.06543,-0.168457,-68.832397,-33.401489,-53.176876,2.420855942011833
0.06958,-1.257813,-0.544678,-136.756897,-66.299438,95.092766,1.3724463716491804
-0.402588,-0.655029,-0.659912,-126.258842,-95.741264,102.539055,1.0132245241450681
-0.490479,-0.356201,-0.697266,-107.437126,-113.914482,39.070129,0.9239202761050328
-0.560059,-0.343506,-0.820557,-91.201775,-124.534599,12.20703,1.0511785032838143
-0.654785,-0.393311,-0.928467,-62.911983,-108.886711,36.262512,1.2022844542931594
-0.649658,-0.519287,-1.028076,-10.772704,-51.727291,70.571899,1.3223671075420018
-0.466553,-0.67627,-1.046387,32.485962,11.665343,80.375664,1.330390381984927
-0.274902,-0.755615,-1.107422,39.909363,33.432007,69.770813,1.3685425181239346
-0.415283,-0.695313,-1.264648,35.339355,22.956846,57.02972,1.5017505458504086
-0.731689,-0.518066,-1.33374,52.413937,8.43811,45.509335,1.6070543116761797
-0.863525,-0.383545,-1.286621,91.835014,7.270813,33.584595,1.5963006578621084
-0.821777,-0.299316,-1.229004,130.828857,25.894163,23.208616,1.5084290959806497
-0.824707,-0.244385,-1.230957,164.657578,63.613888,19.729614,1.501705963204182
-0.874268,-0.232178,-1.213135,200.53862,111.595146,23.635862,1.513257310483911
-0.791992,-0.259277,-1.103516,234.092697,148.361206,28.892515,1.3828316792180457
-0.615967,-0.314209,-0.949463,249.992355,158.966064,32.226563,1.1745733817599477
-0.502441,-0.385986,-0.822021,249.992355,149.116516,36.521912,1.0378586970864578
-0.478271,-0.409912,-0.731201,249.67955,135.08606,43.769833,0.9651040874361687
-0.47876,-0.384033,-0.607666,249.992355,121.841423,48.805233,0.8636842306335112
-0.485107,-0.360107,-0.497803,249.992355,106.674187,51.155087,0.7828241690871585
-0.509033,-0.348389,-0.419922,249.992355,93.368523,54.344173,0.7462063900115035
-0.558594,-0.365234,-0.303223,249.992355,88.966362,57.243343,0.7330534218738768
-0.634766,-0.412354,-0.138428,249.992355,90.690605,55.77087,0.7694972431763483
-0.709717,-0.452393,0.01123,249.992355,91.735832,50.514217,0.8417147732088348
-0.750244,-0.450195,0.107422,249.992355,92.605583,48.072811,0.8815220267497574
-0.763672,-0.419189,0.199951,249.992355,100.395195,53.611752,0.8938091203976384
-0.785889,-0.417236,0.257568,248.54277,116.561882,61.790462,0.9263091679568976
-0.806396,-0.453613,0.315918,244.26268,139.152527,65.750122,0.9776724632048301
-0.819824,-0.508789,0.430176,238.632187,168.53331,63.697811,1.0564227508308406
-0.853271,-0.570068,0.560791,227.371201,202.751144,61.515804,1.1694167220225646
-0.899902,-0.626465,0.691406,212.577805,235.702499,63.20953,1.2962732206849759
-0.927246,-0.687744,0.812256,199.119553,249.992355,64.64386,1.4115724436202344
-0.949219,-0.755615,0.921143,187.210068,249.992355,62.286373,1.5233105936200273
-0.958252,-0.823486,1.039795,174.247726,249.67955,54.428097,1.636322012846188
-0.954102,-0.903564,1.197266,164.00145,237.96843,45.593258,1.7776907501745065
-1.001221,-1.015625,1.361572,155.693054,198.471054,34.545898,1.9717545340761866
-0.994385,-1.128418,1.449463,139.205933,145.187378,17.616272,2.088796710864415
-0.922852,-1.188721,1.473633,110.427849,86.84539,-0.068665,2.1062544120865363
-0.868408,-1.182617,1.459961,75.614929,30.639647,-14.259337,2.0698312841084414
-0.848633,-1.138916,1.437012,41.717525,-18.02063,-26.290892,2.020472992120657
-0.857178,-1.08374,1.399902,10.505675,-57.762142,-35.552979,1.9669702897827408
-0.862061,-1.025879,1.3479,-18.539429,-90.545647,-43.907162,1.9006344467998049
-0.860107,-0.987305,1.287598,-47.340389,-114.463799,-51.818844,1.8364269177067734
-0.841064,-0.92334,1.211426,-77.384949,-129.615784,-55.801388,1.739970793195104
-0.815186,-0.863525,1.157715,-106.536858,-140.357971,-55.763241,1.658465453799385
-0.803711,-0.80957,1.122803,-137.489319,-149.291992,-59.562679,1.6006378519921365
-0.819092,-0.749756,1.088135,-168.060287,-160.346985,-65.284729,1.5546972509865062
-0.838379,-0.690186,1.04541,-193.626389,-174.32402,-68.222046,1.5073546796746278
-0.835693,-0.641113,0.994385,-215.400681,-186.012253,-68.862915,1.4485200023620661
-0.853271,-0.588867,0.928467,-237.396225,-189.926132,-68.946838,1.3917207741565836
-0.882568,-0.516846,0.84668,-249.992355,-188.308701,-71.517944,1.3277511381053304
-0.88916,-0.428467,0.796875,-249.992355,-189.82695,-77.362061,1.2685421716734528
-0.889404,-0.353271,0.795654,-249.725327,-200.828537,-83.030693,1.244550184754717
-0.880615,-0.302734,0.782715,-249.992355,-223.777756,-86.044304,1.216459380417612
-0.878418,-0.256836,0.782959,-249.992355,-248.863205,-87.173454,1.204411768998045
-0.927246,-0.221191,0.711426,-249.992355,-249.992355,-85.929863,1.1894694432699817
-0.962158,-0.159912,0.581055,-249.992355,-249.656662,-83.747856,1.1353170384227482
-0.927246,-0.025391,0.490723,-249.992355,-249.93132,-79.414368,1.0493993091888332
-0.776367,0.130127,0.311279,-249.992355,-249.992355,-68.344116,0.8465065685858557
-0.57373,0.307373,0.072754,-249.992355,-249.992355,-50.369259,0.6549331405151215
-0.342773,0.467529,0.158936,-249.992355,-249.992355,-29.403685,0.6011134231291129
-1.338867,1.837891,-0.642822,-249.992355,-239.715561,-14.083861,2.362970227331271
-2.2229,3.670654,-7.807373,108.711235,-211.517319,-185.264572,8.908987504696873
-0.521484,-3.070313,-1.984375,234.458908,-34.812927,98.014824,3.6927647665197956
-0.397461,-0.843262,-1.151123,-196.105942,-60.890194,224.212631,1.4812664204301669
-1.899414,-0.648438,-3.293945,-138.305664,1.235962,222.709641,3.857242414765372
-1.329102,-1.421387,-1.165771,249.992355,97.282402,35.102844,2.2684521495094403
0.608398,-2.128174,0.161377,249.992355,73.135376,-137.306213,2.219305124765182
1.419678,-2.401367,-0.123779,66.02478,54.611202,-148.773193,2.7923771831924857
0.791504,-1.669922,-0.439941,-120.788567,2.449036,-23.681639,1.8996489548284967
-0.186523,-0.880127,-0.539795,-158.279419,-71.578979,74.84436,1.0491868316381978
-0.69043,-0.452637,-0.546631,-112.007133,-119.194023,72.532654,0.990141044917339
-0.805664,-0.334717,-0.596436,-68.885803,-123.245232,24.345396,1.0568187418289856
-0.852783,-0.398438,-0.574219,-51.666256,-89.836113,-3.730774,1.1025965467450005
-0.95459,-0.514893,-0.511963,-26.458738,-23.185728,4.493713,1.1993594052318095
-0.979492,-0.688721,-0.435547,18.264771,55.702206,27.900694,1.274143784317139
-0.696045,-0.926025,-0.305908,47.058102,97.43499,34.965515,1.198157187982445
-0.35083,-1.101318,-0.247314,40.27557,89.691154,24.993895,1.182009831016646
-0.234375,-1.087402,-0.278809,15.380858,52.8717,16.662598,1.1467821103897637
-0.288574,-0.94458,-0.32373,-3.532409,10.467528,15.945434,1.0393783924904347
-0.313721,-0.776367,-0.35498,-14.213561,-25.939939,18.135071,0.9094929273666729
-0.293701,-0.634033,-0.38501,-20.378111,-53.314205,21.003721,0.797803749420871
-0.419922,-0.55127,-0.506104,-18.867493,-63.179012,23.811338,0.8581225773745846
-0.649414,-0.50293,-0.567627,-9.155273,-51.399227,24.589537,0.9984375490860707
-0.78125,-0.478271,-0.508057,0.312805,-25.703428,20.957945,1.047481086793456
-0.734375,-0.456055,-0.515625,6.553649,3.990173,19.760132,1.0065594588870546
-0.609375,-0.42041,-0.614746,15.304564,39.970398,27.275084,0.962286393565346
-0.555176,-0.362305,-0.776855,30.960081,72.158813,40.40527,1.0212683266536762
-0.517578,-0.334961,-0.897217,51.826473,80.596916,47.767635,1.088615727745103
-0.43457,-0.363037,-0.893799,71.57135,63.400265,48.248287,1.058075422959063
-0.402588,-0.408691,-0.862793,84.190361,36.682129,49.682613,1.036106747431943
-0.478027,-0.444336,-0.841797,89.439384,16.281128,54.687496,1.065160308514169
-0.560059,-0.461426,-0.788818,91.064445,6.065368,59.829708,1.071827352739703
-0.597412,-0.467285,-0.747559,92.65136,2.578735,60.913082,1.0649417014325244
-0.595947,-0.469238,-0.712646,95.947258,3.425598,58.601376,1.0407696425093307
-0.592285,-0.476563,-0.685547,100.593559,7.720947,57.685848,1.023664253260316
-0.595703,-0.484863,-0.645996,103.912346,15.075683,59.867855,1.0036259387809783
-0.614014,-0.478027,-0.567871,105.110161,23.628233,63.697811,0.9633278141764618
-0.619873,-0.482422,-0.495117,106.018059,32.730103,68.344116,0.9285011394187948
-0.632568,-0.512451,-0.466553,108.497612,46.783443,72.799683,0.938306988055615
-0.640625,-0.540283,-0.424316,112.014763,64.682007,75.447083,0.9393349661169864
-0.60083,-0.552979,-0.34668,113.883965,80.436699,77.522278,0.887113006184105
-0.560547,-0.569824,-0.280029,112.648003,91.316216,82.069389,0.846952519936035
-0.552246,-0.591553,-0.239502,108.604424,96.092216,89.004509,0.8439619685323504
-0.543213,-0.603516,-0.220215,101.867668,93.65081,95.79467,0.8413124103744102
-0.510986,-0.608643,-0.2229,93.1549,86.273186,101.638786,0.8253710702738497
-0.478027,-0.615967,-0.236328,84.251396,79.467773,107.055656,0.8147245432672322
-0.464111,-0.613525,-0.231201,77.476501,77.148438,111.320488,0.8032844131109479
-0.469482,-0.597656,-0.197998,71.281433,77.293396,114.95208,0.7853720460164088
-0.455322,-0.569336,-0.140381,64.086914,76.034546,119.705193,0.7424071859438053
-0.423828,-0.550049,-0.092529,55.747982,73.265076,127.777092,0.7005324345281951
-0.415283,-0.533447,-0.083008,46.913143,71.113586,138.86261,0.6811137936952973
-0.487549,-0.506836,-0.11377,36.170959,70.831299,150.07782,0.7124116585212513
-0.583008,-0.460449,-0.143311,24.589537,70.831299,159.645081,0.7566040261497423
-0.603271,-0.40625,-0.142578,16.815186,71.853638,168.342575,0.741150084682583
-0.54126,-0.364258,-0.13208,13.587951,76.797485,177.894577,0.6656511132447688
-0.458496,-0.344727,-0.111572,11.352538,82.992546,188.827499,0.5843830915837659
-0.388916,-0.342529,-0.085205,7.080078,83.732597,199.562057,0.5252063051049558
-0.33252,-0.335205,-0.029053,-0.404358,76.210022,208.740219,0.47304970059603674
-0.290527,-0.327393,0.017822,-10.490417,61.920162,216.16362,0.43807503679392645
-0.272461,-0.310059,0.00415,-22.827147,44.288631,222.778305,0.41278178557441214
-0.275635,-0.262695,-0.030762,-36.277771,27.160643,230.636581,0.38200735188475105
-0.281494,-0.188477,-0.041504,-49.819942,13.298034,241.256699,0.34129903835346503
-0.285156,-0.106689,-0.029541,-62.599178,3.14331,249.992355,0.3058907611190636
-0.311035,-0.035156,-0.054688,-74.409485,-3.791809,249.992355,0.31775697144988024
-0.380127,0.049561,-0.074219,-86.265556,-10.482787,249.839767,0.39046291605093564
-0.398682,0.147461,-0.025879,-97.785942,-20.523069,249.992355,0.4258659487280005
-0.367676,0.237549,0.009521,-109.123222,-30.937193,249.992355,0.43784222936806816
-0.466064,0.328613,-0.002686,-122.123711,-38.238525,249.992355,0.5702713130265277
-0.681885,0.444336,0.021729,-136.909485,-48.171993,249.992355,0.8141706108439435
-0.795654,0.587402,0.046631,-150.802612,-58.898922,249.992355,0.9900913328986372
-0.803711,0.750244,0.016602,-161.415085,-57.266232,249.992355,1.099587676113642
-0.87915,0.876953,0.029053,-166.458115,-43.830868,249.992355,1.2420931380206557
-1.116211,1.031494,0.034424,-174.224838,-29.121397,249.992355,1.5202275751784666
-1.37793,1.17334,0.050049,-186.485275,-25.169371,249.992355,1.810503450121264
-1.380859,1.247803,0.065674,-198.234543,-23.674009,249.992355,1.862282733358713
-1.223145,1.260254,0.038574,-204.330429,-11.245727,249.992355,1.7566478841865263
-1.096191,1.238281,0.061768,-203.971848,1.777649,249.992355,1.6549289499147688
-0.992432,1.189209,0.045654,-209.136948,0.793457,249.992355,1.5495882059505357
-0.927246,1.18457,-0.003418,-218.612656,-12.855529,249.992355,1.5043280600121771
-0.922119,1.246582,-0.018555,-228.187546,-31.738279,249.992355,1.5506819212559357
-1.006592,1.352051,0.009033,-234.344467,-44.036861,249.992355,1.6856307294760617
-1.165039,1.468018,0.072021,-234.352097,-41.641232,249.992355,1.8755211927051105
-1.254395,1.54541,0.08374,-228.301987,-28.648375,249.992355,1.9921875593741167
-1.228516,1.558105,0.064941,-213.966354,-9.231567,249.992355,1.98523552425449
-1.178955,1.519775,0.0354,-196.403488,12.168883,249.992355,1.9237734021058719
-1.157715,1.473389,-0.003662,-181.877121,28.556822,245.056137,1.8738176476888033
-1.155762,1.438965,-0.020264,-174.667343,39.18457,230.865463,1.8457564036364604
-1.177246,1.42041,-0.080811,-177.062973,47.538754,217.193588,1.8466193788480072
-1.169922,1.398438,-0.096191,-178.054794,54.176327,199.752792,1.8258146221369245
-1.13916,1.381104,-0.155518,-177.47496,60.958858,178.451523,1.7970307767926514
-1.100342,1.39209,-0.246094,-181.114182,65.086365,158.653259,1.7914322041037445
-0.993652,1.420898,-0.250732,-185.714706,62.69836,137.115479,1.75190238293462
-0.83252,1.411621,-0.159912,-179.512009,50.704952,112.007133,1.6466132653981018
-0.750732,1.338135,-0.064941,-157.791138,31.425474,88.36364,1.5357151908898992
-0.724121,1.2229,-0.025391,-129.53949,6.568908,65.505981,1.421436011757828
-0.702393,1.125732,0.028076,-106.361382,-19.90509,40.77911,1.3271837567002545
-0.643311,1.068604,0.031006,-94.970695,-45.196529,22.956846,1.2476878309789674
-0.625488,1.057129,-0.018311,-92.086784,-65.658569,14.526366,1.228451160407283
-0.657715,1.034912,-0.046875,-89.004509,-77.026367,4.554749,1.227122298140654
-0.67334,1.029785,-0.227051,-98.655693,-77.423096,-3.631592,1.2511578870893953
-0.57251,1.152832,-0.388916,-118.217461,-82.900993,-8.872986,1.3446356292245123
-0.553223,1.390625,-0.560303,-117.507927,-95.870964,-19.737244,1.5980716598960762
-0.558838,1.594971,-0.661865,-86.418144,-97.618095,-41.755672,1.8150200217380523
-0.605225,1.556885,-0.501709,-20.690916,-68.359375,-36.552429,1.7441043903766198
-0.594971,1.319824,-0.3125,39.634705,-25.451658,-22.560118,1.4810746543699276
-0.499756,1.055176,-0.153076,74.150085,7.6828,-16.441345,1.1775333168484023
-0.541016,0.935303,-0.032715,80.520622,41.954037,-0.518799,1.0809996694217812
-0.558105,0.937988,0.052246,68.992615,74.035645,22.445677,1.092717860970983
-0.522949,0.945068,0.119385,56.65588,97.091667,39.916992,1.0866839280351945
-0.506592,0.928711,0.169678,47.615047,106.918327,43.159481,1.0714150454744416
-0.519043,0.906494,0.218018,40.008545,108.345024,40.969845,1.0670842779316918
-0.499023,0.864258,0.275391,32.920837,105.178825,37.712097,1.035280661450797
-0.453613,0.818848,0.322266,25.863646,97.846977,34.01947,0.9900162501843088
-0.407471,0.790771,0.3479,19.378662,85.433952,30.311583,0.9551888819924571
-0.375,0.769531,0.362061,12.145995,71.716309,26.679991,0.9294574372621912
-0.361816,0.757813,0.384521,4.394531,59.562679,22.987364,0.9236058468123727
-0.358887,0.762451,0.381836,-8.216858,49.484249,20.210264,0.9251649242518871
-0.356445,0.788086,0.378418,-20.240782,40.06958,17.906189,0.9441042125448864
-0.371094,0.825439,0.36084,-29.067991,31.967161,15.350341,0.9743027276760545
-0.370605,0.859619,0.346191,-33.065796,24.612425,11.840819,0.9980686848443848
-0.376953,0.870605,0.358887,-31.242369,16.990662,8.743286,1.0143207130897998
-0.43042,0.85791,0.372803,-27.717588,13.21411,4.40979,1.0296858847770032
-0.437744,0.838379,0.398438,-26.344297,13.099669,1.274109,1.0262806619151508
-0.409912,0.825684,0.428955,-29.487608,14.823913,1.441955,1.016751841712126
-0.421631,0.828613,0.417236,-37.475586,16.784668,2.426147,1.0190476356019869
-0.433594,0.842773,0.410889,-43.922421,19.538879,0.221252,1.0330052549169342
-0.43042,0.860352,0.408936,-46.928402,24.055479,-2.39563,1.0453208083645902
-0.429199,0.877197,0.394287,-48.568722,29.319761,-1.701355,1.053161239686972
-0.416016,0.884033,0.402344,-48.789974,35.232544,-2.098083,1.0566287672030323
-0.397461,0.880859,0.425293,-49.140926,42.015072,-4.669189,1.0558228829926921
-0.377197,0.874512,0.422363,-51.803585,47.874447,-5.439758,1.0418441911927139
-0.330322,0.865479,0.441895,-54.718014,51.315304,-7.545471,1.0263711385994834
-0.308594,0.873047,0.44043,-59.43298,52.665707,-11.024474,1.0253876856803967
-0.333008,0.907959,0.415771,-65.795898,54.557796,-12.351989,1.0526867521660943
-0.368408,0.95752,0.382568,-69.80896,60.142513,-12.5885,1.0949553778524495
-0.334229,0.99707,0.34375,-68.67218,72.280884,-9.773254,1.106355129170105
-0.293945,1.035889,0.310791,-64.880371,93.315117,-0.366211,1.1207411516612567
-0.220703,1.096191,0.265869,-61.653133,118.461601,11.810302,1.1493610606989433
-0.157959,1.144775,0.223145,-57.716366,148.025513,27.847288,1.1769683671751763
-0.087646,1.131348,0.209717,-49.682613,169.219955,37.010193,1.1539546518425237
-0.001221,1.106689,0.182617,-41.374203,174.96489,39.505005,1.1216554739540123
0.04834,1.073486,0.1604,-33.02002,169.929489,43.510433,1.0864792256624145
0.082275,1.03418,0.138184,-27.992247,156.860352,48.866268,1.046609891927742
0.084473,1.012207,0.111084,-24.894712,139.762878,52.520748,1.021781950141027
0.055176,1.00708,0.091797,-21.179197,120.948784,52.8717,1.0127592046409648
0.023682,1.002197,0.089111,-15.747069,99.143974,48.622128,1.0064295475859202
-0.020996,0.992676,0.107666,-11.383056,73.905945,39.718628,0.9987183990234685
-0.069092,0.988037,0.126709,-8.827209,48.362728,29.502867,0.998521901869959
-0.112305,0.982666,0.155762,-5.683898,25.100706,21.591185,1.001252556164028
-0.172363,0.957764,0.206787,-2.471924,5.783081,15.785216,0.9948777547186387
-0.226807,0.929932,0.237061,-0.297546,-9.475708,10.604857,0.9861099622222665
-0.272705,0.915039,0.249023,-0.534058,-20.828245,6.958007,0.986750648885016
-0.31958,0.915527,0.26001,-1.754761,-28.015135,5.119323,1.0039553098763907
-0.355957,0.93042,0.264404,-3.570556,-31.639097,5.104064,1.030677562317624
-0.391602,0.946777,0.265137,-5.096435,-31.372068,6.126403,1.0583177419385918
-0.420166,0.950439,0.279541,-3.417969,-28.274534,7.057189,1.0761119509409791
-0.4375,0.948486,0.299561,-0.495911,-23.048399,7.995605,1.0866318304361418
-0.441406,0.943604,0.309082,2.281189,-16.51001,9.315491,1.086627557342441
-0.446289,0.945313,0.302979,3.39508,-9.078979,9.368896,1.0883872536606627
-0.46582,0.955566,0.299316,4.394531,-1.022339,8.117676,1.1043933722238648
-0.462402,0.95752,0.301758,5.218505,6.568908,6.805419,1.1053135530554214
-0.432617,0.961914,0.302002,5.836486,12.420653,5.905151,1.0971058381437044
-0.416748,0.974121,0.300537,6.584167,16.212463,5.317688,1.1013233433074956
-0.407715,0.983398,0.299072,7.484436,18.943787,4.570007,1.1057790054133783
-0.391846,0.986084,0.287109,8.911133,21.858213,3.181457,1.099243612968936
-0.375488,0.985596,0.271484,10.009766,25.230406,1.922607,1.0890795543099687
-0.356201,0.987305,0.258789,11.016845,28.190611,1.88446,1.0810282428997866
-0.329834,0.983154,0.248047,12.481688,30.662535,2.677917,1.0662596163603872
-0.303711,0.979004,0.244629,12.96997,32.096863,4.173279,1.053818082582568
-0.285645,0.963379,0.251221,13.618468,32.470703,5.66864,1.0357625956303886
-0.268555,0.940674,0.26416,13.732909,32.173157,6.843566,1.0132965350286165
-0.255127,0.92041,0.27124,12.298583,31.333921,9.017944,0.9928824159128813
-0.256348,0.904785,0.28125,10.2005,30.624388,11.634826,0.9815557833505949
-0.252197,0.88916,0.291016,8.239746,30.273436,13.587951,0.9689680823768139
-0.24585,0.877197,0.288818,5.935668,29.182432,15.35797,0.9556843811808373
-0.254395,0.870605,0.282227,3.601074,27.648924,16.311646,0.9499062909461121
-0.255127,0.875977,0.275146,1.091003,25.184629,15.930175,0.9529589770677435
-0.255615,0.878662,0.266602,-0.701904,21.713255,14.663695,0.9531330258012258
-0.255859,0.878662,0.263672,-1.876831,16.716003,12.306212,0.952383148585169
-0.26416,0.879883,0.266357,-2.250671,11.672973,9.651184,0.9565148460625167
-0.266602,0.882568,0.262695,-3.067016,7.385253,6.622314,0.9586509083357716
-0.278564,0.899414,0.248047,-6.240844,3.471374,5.073547,0.9736892521235921
-0.297119,0.927979,0.234131,-8.926392,0.427246,4.02832,1.002118780266591
-0.307129,0.945801,0.225586,-9.597778,-1.205444,2.845764,1.019684655978504
-0.31958,0.957031,0.215088,-9.498596,-1.358032,3.341675,1.0316504054693139
-0.32373,0.96582,0.213623,-8.270264,-0.793457,4.096985,1.0407901668583346
-0.323975,0.968018,0.223877,-6.996154,-0.25177,4.753113,1.0450548119969594
-0.320313,0.972168,0.234863,-5.622863,-0.366211,5.340576,1.0501769693542133
-0.31958,0.96875,0.242432,-3.921509,-1.052856,5.523681,1.04851381179458
-0.324219,0.969482,0.242432,-2.754211,-0.953674,4.951477,1.0506124798939902
-0.317139,0.967285,0.245117,-0.854492,-1.220703,3.784179,1.0470433420995522
-0.321289,0.959961,0.242188,-0.015259,-0.221252,2.662658,1.0408682771542228
-0.316162,0.959229,0.249268,0.648498,0.511169,1.098633,1.040294775777039
-0.30957,0.959473,0.266357,1.625061,0.221252,1.098633,1.0427694251741368
-0.310791,0.959473,0.257813,0.953674,0.198364,2.6474,1.0409836820906464
-0.30957,0.954834,0.253174,0.358582,1.220703,3.578186,1.0351998003921754
-0.309326,0.954834,0.251221,-0.099182,3.623962,4.127502,1.0346509231006369
-0.295898,0.961182,0.248779,-1.014709,5.79071,4.776001,1.0360103543734491
-0.287109,0.968994,0.24292,-0.518799,6.248474,4.730225,1.0394186241919086
-0.284912,0.970947,0.235107,0.946045,5.134582,3.837585,1.0388398461755306
-0.283691,0.965576,0.229248,2.456665,4.119873,2.868652,1.032168707509097
-0.282471,0.958984,0.233643,3.532409,3.219604,1.686096,1.026659256786788
-0.270264,0.950439,0.246826,4.074097,1.113892,0.839233,1.0184792568790981
-0.270508,0.943604,0.260742,4.249573,-1.174927,0.213623,1.0156522423762968
-0.275635,0.946045,0.26123,3.52478,-2.685547,-0.183105,1.0194198880490806
-0.270264,0.964355,0.243652,1.350403,-3.181457,-0.358582,1.0307228011570326
-0.270508,0.983398,0.228271,0.694275,-3.326416,-0.946045,1.0451573345238505
-0.281738,0.976563,0.227539,1.731872,-3.234863,-1.754761,1.0415496100205692
-0.275879,0.962891,0.228271,2.456665,-3.555298,-2.281189,1.027314922486284
-0.270752,0.955078,0.233398,2.250671,-4.447937,-1.953125,1.0197819659083995
-0.273682,0.95752,0.238281,1.937866,-5.867004,-1.411438,1.023974717698147
-0.2771,0.968262,0.230957,1.441955,-7.369995,-0.556946,1.0332748165386592
-0.299072,0.971436,0.226807,2.166748,-7.881164,0.473022,1.0414285278063973
-0.307373,0.960449,0.233398,3.440857,-7.087707,0.534058,1.0350918167650636
-0.28833,0.942139,0.243164,3.974914,-5.859375,1.037598,1.014834378170645
-0.282959,0.927246,0.244629,3.601074,-6.240844,1.502991,0.9998471322347232
-0.291992,0.925049,0.245605,2.410889,-7.858276,0.732422,1.0006481881710474
-0.298584,0.933105,0.246826,1.266479,-9.002686,-0.366211,1.0103268878719402
-0.305908,0.946533,0.247803,0.556946,-9.124756,-0.457764,1.0251393814316179
-0.303955,0.959229,0.230469,0.274658,-8.460999,-0.061035,1.032291081249373
-0.300293,0.966064,0.213135,1.373291,-6.515502,-0.106812,1.0338675283468381
-0.314453,0.957031,0.216797,2.296448,-4.829407,-0.183105,1.0304319304927425
-0.301758,0.948486,0.216797,1.754761,-4.074097,-0.328064,1.018668013618274
-0.289307,0.949463,0.211914,0.488281,-4.058838,-0.190735,1.0149315602610847
-0.297852,0.954346,0.209717,-0.236511,-5.088806,-0.656128,1.021505419324342
-0.307129,0.955322,0.219971,-0.068665,-5.744934,-1.464844,1.0273050117496751
-0.30957,0.953125,0.223877,0.785828,-5.645751,-1.739502,1.026840670042826
-0.309326,0.952148,0.223145,1.174927,-5.195617,-1.449585,1.0257007746926001
-0.312744,0.958252,0.220215,0.770569,-4.875183,-1.411438,1.0317704935037635
-0.314209,0.965088,0.221436,0.930786,-4.417419,-1.777649,1.0388243573968603
-0.312256,0.973389,0.217041,1.075745,-3.860473,-2.029419,1.0450343298370632
-0.311035,0.984619,0.209229,1.373291,-3.540039,-1.739502,1.0535625851495487
-0.318848,0.984619,0.204346,2.799988,-2.807617,-1.831055,1.0549388181221695
-0.314697,0.977295,0.209717,4.318237,-1.876831,-2.220154,1.0479126580602984
-0.307129,0.969971,0.213379,5.325317,-1.38092,-1.998901,1.039568449464969
-0.303223,0.9646,0.219238,5.714416,-1.472473,-2.113342,1.0346316486426461
-0.302246,0.966064,0.23291,5.516052,-2.006531,-2.243042,1.0386911787013502
-0.310547,0.96582,0.23999,5.989074,-2.449036,-2.052307,1.0425175834051912
-0.314697,0.962891,0.236572,6.729125,-2.410889,-2.426147,1.040268999285281
-0.319092,0.963379,0.233398,6.935119,-1.678467,-2.754211,1.0413421284616309
-0.314697,0.970215,0.219971,6.736755,-0.747681,-2.662658,1.0434263696471353
-0.309326,0.978271,0.208496,6.935119,0.015259,-2.220154,1.0469800885083727
-0.306396,0.970459,0.209961,8.049011,0.62561,-2.098083,1.039111544069259
-0.298584,0.957764,0.210693,8.758545,0.50354,-2.586365,1.0251125913776495
-0.292236,0.951172,0.213135,8.758545,-0.190735,-2.723694,1.0176230055894964
-0.296387,0.954346,0.21167,8.407593,-1.25885,-2.555847,1.021482124359012
-0.300781,0.962402,0.207275,8.201599,-1.76239,-2.906799,1.0293929012723957
-0.297852,0.959473,0.202881,8.369446,-2.258301,-3.753662,1.0249219247308547
-0.300293,0.958984,0.203613,8.68988,-2.777099,-4.508972,1.0253216333785218
-0.295898,0.956543,0.203369,9.32312,-3.135681,-4.829407,1.0217089054197386
-0.29541,0.962646,0.200439,9.33075,-3.753662,-4.844666,1.0267084211873398
-0.304443,0.968506,0.197266,9.346008,-4.020691,-3.974914,1.0342162670549135
-0.311523,0.965576,0.203613,9.437561,-3.479004,-3.601074,1.0348148844474552
-0.313232,0.959961,0.211914,9.056091,-2.571106,-3.257751,1.0317688455952718
-0.313232,0.960938,0.216553,8.399963,-1.419067,-2.677917,1.0336398441802637
-0.313965,0.968506,0.213867,8.31604,-0.465393,-2.120972,1.040344648157523
-0.316162,0.979492,0.202637,8.926392,-0.221252,-1.76239,1.0490113164675583
-0.317871,0.977051,0.201904,10.772704,-0.228882,-2.059937,1.047108329857995
-0.330811,0.962402,0.202881,12.252807,0.267029,-2.845764,1.0376965970292087
-0.331299,0.953857,0.208252,12.252807,1.708984,-3.02124,1.031004897832207
-0.318848,0.953369,0.213135,11.688231,3.448486,-2.27356,1.0276200783801377
-0.312012,0.956055,0.210205,10.780334,4.386902,-2.098083,1.0274136426941196
-0.321289,0.952881,0.211426,10.757445,4.692078,-3.105163,1.0275747053903184
-0.33252,0.949951,0.210938,10.971068,5.653381,-4.226685,1.0283342319717845
-0.322266,0.948486,0.205811,10.45227,7.217407,-4.03595,1.0226628157281363
-0.317383,0.943359,0.199219,9.986877,8.216858,-3.288269,1.015059792096505
-0.320557,0.937744,0.199219,9.986877,8.483887,-3.379822,1.0108455914460923
-0.320557,0.929932,0.198486,9.819031,9.490967,-3.517151,1.0034575262904752
-0.315918,0.923828,0.196777,9.063721,10.910033,-3.227234,0.9959837067126149
-0.312988,0.92627,0.199951,7.949829,12.039184,-2.868652,0.9979569146235723
-0.310547,0.932617,0.204834,7.057189,12.611388,-2.601623,1.00407712624778
-0.309082,0.940674,0.201904,6.17218,13.053893,-2.281189,1.0105268339910622
-0.308105,0.947998,0.201904,5.546569,13.458251,-1.953125,1.0170516821897497
-0.311279,0.949219,0.196777,5.844116,13.603209,-1.953125,1.0181515179633138
-0.313232,0.951172,0.188232,6.248474,14.373778,-1.670837,1.0189571851810066
-0.302734,0.943115,0.189941,6.233215,16.036987,-0.961304,1.0085590520450451
-0.291992,0.930908,0.196045,6.019592,17.463684,-0.099182,0.995129476275826
-0.284912,0.919678,0.199219,5.203247,17.868042,0.312805,0.9831941219255738
-0.284668,0.918701,0.201904,3.509521,17.486572,0.946045,0.9827576623160971
-0.289063,0.927979,0.191406,1.960754,17.25769,2.204895,0.9906254081366983
-0.289063,0.937744,0.18457,0.87738,17.433167,3.334045,0.9984925199544562
-0.282227,0.943359,0.179932,-0.045776,17.112732,3.845215,1.00097642681234
-0.277344,0.951904,0.17627,-1.060486,15.853881,3.555298,1.007031296659642
-0.284424,0.95459,0.171387,-1.678467,13.931273,2.998352,1.0106990569130854
-0.285156,0.963135,0.171387,-1.899719,11.489867,2.14386,1.0189781530189939
-0.2854,0.971191,0.165039,-2.151489,8.544922,0.999451,1.0256232202919355
-0.30127,0.978027,0.165527,-2.090454,6.187438,0.320435,1.0366771982435035
-0.307861,0.98291,0.16333,-1.327515,4.951477,0.816345,1.0428648773072184
-0.310547,0.97998,0.160645,-0.488281,5.050659,1.480102,1.04048404871675
-0.306641,0.986816,0.157715,-0.190735,5.424499,2.01416,1.0453270024073806
-0.304443,0.990723,0.157959,0.434875,5.40924,2.296448,1.0484124420565601
-0.307861,0.994141,0.154785,1.266479,5.050659,1.785278,1.052165918202543
-0.3125,0.996338,0.144775,2.410889,4.867554,1.022339,1.0541847375431879
-0.318848,0.99292,0.139648,3.784179,5.470275,0.862122,1.0521671622931406
-0.322754,0.982422,0.140381,4.974365,6.576538,0.595093,1.0435659805498645
-0.326416,0.971436,0.147461,5.676269,7.324218,0.404358,1.0353646959757705
-0.335449,0.963623,0.150879,6.156921,7.614135,0.648498,1.0314357907165137
-0.335693,0.959961,0.154297,6.141662,8.338928,1.190186,1.028602195204249
-0.330566,0.957031,0.158447,5.531311,8.827209,1.716614,1.0248354341678472
-0.327393,0.955078,0.160156,4.646301,8.712769,1.449585,1.022257358432308
-0.325928,0.955322,0.159912,3.959656,7.888793,0.236511,1.0219789785567999
-0.333496,0.953857,0.16333,3.425598,7.461547,-0.968933,1.0235914455313702
-0.334473,0.947754,0.170898,3.265381,7.255554,-1.655578,1.0194684686879727
-0.336182,0.943848,0.177979,2.914428,7.438659,-1.617432,1.0176167788853523
-0.339111,0.941406,0.176514,2.441406,7.736206,-0.816345,1.0160702334745368
-0.342285,0.945557,0.173584,1.518249,8.247375,-0.007629,1.0204746280677437
-0.341797,0.95166,0.168457,0.87738,9.536743,0.541687,1.0251144841714022
-0.333252,0.961426,0.159912,0.106812,10.848998,1.426697,1.0300333473844427
-0.317627,0.971924,0.1604,0.267029,11.398314,2.204895,1.0350127211319675
-0.306641,0.972656,0.162842,1.296997,10.971068,1.914978,1.0327661468991902
-0.306152,0.969482,0.160156,2.609253,10.131835,1.106262,1.0292105420000321
-0.307617,0.963867,0.156982,3.005981,9.910583,0.282288,1.0238706757701386
-0.303467,0.964844,0.155029,2.784729,10.383605,-1.045227,1.0232546873901924
-0.303711,0.968018,0.150879,2.983093,10.32257,-2.220154,1.0257015611209725
-0.303955,0.967529,0.146729,3.936767,9.979248,-3.196716,1.024709913735102
-0.29541,0.964111,0.148926,4.615784,8.880615,-4.020691,1.019291931635388
-0.299072,0.973389,0.144531,4.264832,6.729125,-4.02832,1.0285034839347895
-0.305176,0.986572,0.136719,3.677368,4.699707,-2.487183,1.0417047504552333
-0.306641,0.980957,0.144287,4.943848,3.486633,-1.159668,1.0378458831151183
-0.309082,0.9646,0.158936,5.928039,2.510071,-1.358032,1.025302635722741
-0.312012,0.953369,0.167969,5.371093,1.25885,-1.76239,1.0170926817483252
-0.317627,0.953857,0.168701,4.508972,0.137329,-1.617432,1.019406746583031
-0.319824,0.953857,0.166992,4.15802,-0.427246,-2.052307,1.0198121863799234
-0.318115,0.953613,0.165527,4.15802,-0.236511,-2.372742,1.0188101367394222
-0.318115,0.94873,0.167236,4.592896,-0.030518,-2.26593,1.014521387562135
-0.313721,0.941895,0.172119,4.722595,-0.38147,-2.807617,1.007577295807622
-0.317627,0.942383,0.164795,4.005432,-1.159668,-3.425598,1.0080327483980864
-0.322266,0.947266,0.156738,2.914428,-1.968384,-4.112244,1.0127857869046148
-0.32373,0.952637,0.150391,2.563476,-2.6474,-4.402161,1.017317954009463
-0.324951,0.955566,0.140869,2.609253,-3.791809,-4.104614,1.0190895975909087
-0.323975,0.950439,0.138184,2.525329,-5.050659,-3.715515,1.0136019490914567
-0.326172,0.943604,0.14209,1.76239,-5.928039,-3.738403,1.008447445581573
-0.323486,0.938477,0.14917,1.045227,-6.393432,-3.883362,1.0038097233166254
-0.325195,0.934814,0.157959,0.144958,-6.706237,-4.386902,1.0022874080332447
-0.326904,0.936768,0.158447,-0.679016,-5.828857,-4.760742,1.004741739378334
-0.327637,0.941406,0.157471,-1.51062,-3.791809,-4.669189,1.009152305871616
-0.336914,0.9375,0.16333,-1.785278,-1.754761,-4.570007,1.0095018485847365
-0.339844,0.935059,0.168213,-1.693725,0.25177,-4.730225,1.0090217496099874
-0.33667,0.936523,0.167725,-2.243042,2.258301,-3.509521,1.0092342116941935
-0.331543,0.93335,0.178467,-2.555847,3.746032,-1.754761,1.0064360155707863
-0.333496,0.930176,0.185303,-2.990722,4.852295,-0.831604,1.0053776279592659
-0.335693,0.93457,0.178955,-4.585266,6.004333,0.732422,1.009027138968026
-0.337158,0.944824,0.171387,-6.179809,7.507324,2.075195,1.0177138162121018
-0.333496,0.94873,0.170898,-7.263183,9.262085,2.89154,1.0200560383233854
-0.322266,0.946777,0.179199,-8.331299,10.780334,3.692627,1.016048396527449
-0.313965,0.949219,0.181396,-9.613037,11.734008,4.364014,1.0161177294004864
-0.313477,0.954102,0.178955,-10.482787,12.557982,4.295349,1.0200996755013698
-0.314453,0.962402,0.174072,-10.437011,13.786315,4.119873,1.0273263162194377
-0.309326,0.972412,0.17041,-9.658813,15.510558,4.196167,1.0345565427370318
-0.301514,0.97876,0.161621,-9.025574,17.166138,4.127502,1.03682359996144
-0.291504,0.979736,0.15625,-8.232117,18.356323,3.761291,1.0340557403795987
-0.284424,0.983398,0.149414,-7.469177,18.966675,3.601074,1.0345497482364006
-0.272705,0.98999,0.135498,-6.988525,18.287659,4.211426,1.035764415844163
-0.27124,0.986572,0.130859,-5.836486,16.426086,4.508972,1.031513221759663
-0.273926,0.978027,0.138184,-4.806519,14.060973,4.348755,1.0250205286046714
-0.266113,0.973877,0.147217,-4.91333,11.260985,4.745483,1.020257509154919
-0.261963,0.97998,0.15625,-4.859924,8.209229,4.631042,1.0263525107237765
-0.265625,0.990479,0.164307,-4.264832,4.78363,4.890442,1.0385576923382736
-0.282715,0.977783,0.169922,-2.693176,1.785278,4.875183,1.0319209525918156
-0.290039,0.95874,0.174805,-2.052307,-0.465393,3.845215,1.016789947406051
-0.29126,0.958496,0.174316,-3.013611,-2.5177,3.15094,1.0168249787805175
-0.295166,0.97168,0.16626,-4.219055,-5.516052,2.632141,1.0290419707456058
-0.307373,0.982666,0.159912,-3.929138,-8.590698,1.502991,1.0419608804696077
-0.317871,0.986328,0.158936,-2.63977,-10.643004,0.389099,1.0484014251807368
-0.32666,0.984375,0.160156,-1.121521,-11.528014,-0.106812,1.0494526385506877
-0.328857,0.985107,0.154541,-0.259399,-11.650084,-0.320435,1.049983642053056
-0.336426,0.982422,0.158203,0.221252,-10.246276,0.25177,1.050411171289129
-0.325928,0.968262,0.166992,1.113892,-7.949829,1.365662,1.0352036948794183
-0.316406,0.955078,0.166748,1.319885,-6.195068,1.731872,1.0198488311627365
-0.31665,0.956299,0.161865,0.946045,-4.653931,1.518249,1.0202819601100472
-0.320313,0.959473,0.15918,0.930786,-2.655029,1.449585,1.0239761364885414
-0.316406,0.95752,0.16626,1.304626,-0.534058,1.564026,1.0220566006029217
-0.313965,0.958252,0.162109,1.075745,1.106262,3.005981,1.0213227915845215
-0.311523,0.951904,0.164063,1.052856,2.716064,4.486084,1.0149307723751408
-0.304688,0.94458,0.17041,0.419617,3.974914,4.981995,1.0070281633817397
-0.305908,0.946533,0.177734,-1.182556,4.669189,5.065917,1.0104918600904214
-0.304688,0.96167,0.175781,-2.868652,5.012512,5.348205,1.0239838505586891
-0.302734,0.966797,0.179688,-3.013611,5.813598,5.012512,1.0288984844526694
-0.300293,0.962158,0.185303,-2.182007,6.858825,4.920959,1.0248224746862258
-0.29248,0.955078,0.19458,-2.189636,7.621765,5.630493,1.0176344691901902
-0.288574,0.94873,0.196045,-2.548218,8.384705,6.278991,1.010839852994034
-0.293701,0.95166,0.195068,-3.486633,9.605408,6.523132,1.0148736658446704
-0.288086,0.956299,0.188965,-4.707336,11.177062,6.477355,1.016468933131751
-0.279297,0.95874,0.178955,-5.1651,12.283324,6.912231,1.0145018944457422
-0.270264,0.958008,0.176025,-5.66864,12.771605,7.575988,1.0108445767698415
-0.262207,0.955078,0.175537,-6.004333,12.145995,7.255554,1.0058527403661035
-0.255615,0.952393,0.173096,-6.210327,9.979248,6.385803,1.0011761482826087
-0.25708,0.952637,0.173584,-6.210327,7.110595,5.66101,1.0018676485569338
-0.263428,0.953125,0.171143,-6.54602,4.341125,5.210876,1.0035594169046493
-0.269531,0.954102,0.180176,-6.759643,2.243042,5.393981,1.0076809898678252
-0.275146,0.952881,0.185303,-6.767272,0.62561,5.485534,1.008972112243941
-0.28125,0.955811,0.1875,-7.865905,0.205994,5.462646,1.0138207337695357
-0.28418,0.966309,0.192139,-9.185791,0.434875,6.210327,1.0253919987994835
-0.2854,0.971191,0.191895,-9.277344,0.25177,6.813049,1.0302857902087168
-0.289307,0.969971,0.19458,-8.537292,0.091553,6.912231,1.0307296723632244
-0.290771,0.970215,0.189941,-8.514404,-0.282288,6.881713,1.03050594571162
-0.295166,0.967773,0.188232,-8.544922,-0.267029,7.507324,1.0291447094111692
-0.298584,0.962646,0.19043,-8.087158,0.160217,7.514953,1.0257208739574328
-0.298584,0.957275,0.192383,-7.728576,0.900268,7.270813,1.0210480152128008
-0.297363,0.96167,0.187012,-8.476257,1.518249,7.514953,1.0238200187596451
-0.296875,0.970215,0.17749,-8.758545,2.388,7.92694,1.0300265103141764
-0.293213,0.970215,0.175293,-7.713317,3.417969,8.026123,1.0286003331921492
-0.287109,0.969482,0.168945,-6.629943,3.883362,7.751464,1.0251191829392325
-0.282471,0.965332,0.165527,-5.981445,3.768921,7.789611,1.0193404356710274
-0.275391,0.965332,0.165039,-5.91278,3.295898,7.93457,1.01732194738244
-0.271729,0.970215,0.171875,-6.202697,2.441406,8.010864,1.0221031314358646
-0.263916,0.982422,0.17627,-7.064819,0.846863,8.209229,1.0324125890553641
-0.262695,0.994141,0.174805,-7.949829,-1.121521,8.384705,1.0430157136548808
-0.27124,0.998291,0.179199,-8.140564,-4.020691,7.5531,1.0498896798626036
-0.287598,0.998291,0.182617,-7.362365,-5.66101,6.92749,1.0548206003743006
-0.293945,0.990723,0.180664,-6.729125,-4.951477,7.209777,1.0490830313421335
-0.291748,0.97998,0.178955,-6.721496,-4.341125,7.469177,1.0380282211621223
-0.300049,0.970215,0.180664,-7.102966,-4.364014,6.996154,1.0314969847372313
-0.307373,0.959229,0.178223,-8.003235,-3.982544,7.041931,1.0229183121339651
-0.310791,0.958252,0.177979,-9.971619,-3.959656,6.217956,1.0229928961757262
-0.322754,0.965576,0.176758,-11.230468,-2.998352,5.523681,1.0333201569968526
-0.331787,0.966064,0.173096,-11.32965,0.556946,5.973815,1.0360137502374185
-0.319336,0.967285,0.168457,-11.665343,4.211426,6.118774,1.0324696184246778
-0.309814,0.974121,0.161133,-11.680602,6.065368,6.263732,1.0348237922110217
-0.30957,0.978271,0.154541,-10.871886,7.781982,6.744384,1.0376563279920767
-0.306152,0.970215,0.147461,-9.94873,9.750366,7.003784,1.0280033754078826
-0.300049,0.951904,0.155273,-9.078979,11.238097,7.339477,1.010079369230953
-0.294189,0.937256,0.1604,-8.323669,12.847899,7.92694,0.995351263251823
-0.287109,0.927979,0.168457,-8.468628,13.84735,8.483887,0.9858774584962373
-0.288818,0.932617,0.177734,-9.025574,15.014647,8.995056,0.9923606605307367
-0.286377,0.939453,0.174316,-9.010315,16.456604,9.277344,0.9974817257443868
-0.279785,0.944092,0.175049,-8.773804,17.555237,9.521484,1.0001157448465654
-0.277588,0.945313,0.177979,-8.239746,18.753052,9.536743,1.001173456576831
-0.276611,0.950928,0.177979,-7.637023,19.416809,9.178162,1.006207846792103
-0.272461,0.955566,0.185303,-7.308959,18.829346,8.979797,1.0107811725027331
-0.275879,0.962891,0.19751,-7.057189,17.951965,8.323669,1.0209204183588454
-0.273193,0.964844,0.208496,-6.179809,16.693115,7.110595,1.0242211390129576
-0.284424,0.963379,0.22168,-4.936218,14.900207,6.370544,1.028658413574205
-0.291016,0.962891,0.226563,-4.714966,13.587951,5.348205,1.031106290886638
-0.292969,0.964355,0.230469,-4.707336,12.893676,4.264832,1.0338894336180247
-0.294189,0.961426,0.234131,-4.112244,12.481688,3.570556,1.0323296209825619
-0.293457,0.961914,0.22876,-3.562927,12.603759,2.838135,1.0313712677038274
-0.289795,0.970703,0.227539,-3.318786,13.656615,1.861572,1.0382771560402357
-0.282715,0.973145,0.229736,-2.609253,15.144347,1.403808,1.0390946020194696
-0.272461,0.97168,0.232422,-1.747131,16.12854,1.518249,1.035575687723983
-0.271973,0.969727,0.232422,-0.694275,17.440796,2.296448,1.0336148960526836
-0.259521,0.966553,0.228271,0.320435,19.493103,3.181457,1.0264908673198219
-0.247559,0.9646,0.22876,1.022339,21.354673,3.540039,1.0217973165364058
-0.23584,0.968018,0.220459,0.50354,22.857664,3.601074,1.020432028410026
-0.226807,0.970703,0.213379,0.358582,23.223875,3.173828,1.019429412514177
-0.219727,0.969238,0.208252,0.610352,22.6593,2.449036,1.015416737441825
-0.209229,0.966309,0.211914,0.335693,21.331785,2.578735,1.011156467277938
-0.194824,0.965332,0.212891,-0.144958,18.676758,2.990722,1.0075439638452508
-0.188232,0.964355,0.212646,-0.350952,15.068053,2.365112,1.0053010360906824
-0.187988,0.97168,0.208252,-0.648498,10.780334,1.220703,1.0113705582268055
-0.195557,0.979248,0.201172,-0.694275,6.187438,0.411987,1.0186458458841325
-0.200928,0.977539,0.20459,-0.320435,2.555847,-0.747681,1.0187303989795338
-0.200928,0.974365,0.205322,-0.144958,-1.174927,-1.739502,1.0158328297968127
-0.210693,0.97876,0.201172,-0.572205,-3.883362,-2.029419,1.0211918778726161
-0.217529,0.976074,0.204102,-0.50354,-6.065368,-2.01416,1.0206355596984655
-0.222656,0.975586,0.202881,-0.267029,-7.606506,-1.899719,1.0210310660763462
-0.226318,0.982178,0.198486,-0.564575,-7.781982,-1.502991,1.0272731637709611
-0.23291,0.981934,0.202637,-0.106812,-7.232666,-1.350403,1.0293217194954158
-0.239502,0.974854,0.19751,0.205994,-6.744384,-1.838684,1.0230893066687776
-0.241455,0.971924,0.196777,0.030518,-6.996154,-2.151489,1.0206164639716526
-0.248047,0.9729,0.193115,-0.144958,-7.331848,-2.037048,1.0224260987641112
-0.252441,0.972412,0.187256,-0.305176,-7.720947,-1.953125,1.0219473400136625
-0.256592,0.967773,0.192139,-0.541687,-8.209229,-1.777649,1.019480960741298
-0.258789,0.967041,0.19751,-0.900268,-9.19342,-1.495361,1.0203676995583504
-0.267822,0.965576,0.199707,-1.13678,-10.246276,-1.113892,1.021737990538181
-0.278076,0.968994,0.202637,-0.808716,-10.742187,-1.480102,1.0282691221567435
-0.286133,0.974365,0.209473,-0.50354,-10.406493,-1.777649,1.0368887040772505
-0.286377,0.981445,0.209473,-0.495911,-9.468079,-1.617432,1.043611523452573
-0.285889,0.987305,0.208496,0.091553,-8.537292,-1.25885,1.0487965795911045
-0.289795,0.984375,0.211182,1.487732,-7.331848,-1.373291,1.0476512395706885
-0.287598,0.976807,0.217529,2.449036,-5.958557,-1.953125,1.0412412740061738
-0.276611,0.978271,0.213867,2.250671,-4.493713,-2.319336,1.0388777062055958
-0.273682,0.986572,0.211914,1.88446,-3.250122,-2.494812,1.04553033992515
-0.27832,0.985596,0.213623,2.304077,-2.319336,-2.807617,1.0461817642001796
-0.274902,0.983887,0.2146,2.807617,-1.144409,-2.563476,1.043866801068508
-0.26709,0.985107,0.204102,2.906799,-0.434875,-1.342773,1.0408796740992687
-0.270752,0.990967,0.195068,3.234863,0.259399,-0.343323,1.0456451430657536
-0.264404,0.991455,0.180176,3.570556,0.953674,0.022888,1.04180414820493
-0.259277,0.984619,0.18335,4.264832,1.686096,0.747681,1.034560950543756
-0.247559,0.976563,0.188721,4.493713,0.862122,0.62561,1.0249762764527772
-0.245117,0.970215,0.191895,4.310608,0.106812,0.213623,1.0189323730940145
-0.247559,0.969971,0.19751,3.829956,-0.076294,-0.167847,1.020362386322624
-0.246582,0.972656,0.201172,3.639221,0.106812,-0.175476,1.0233926668898894
-0.251709,0.975098,0.199463,3.784179,0.457764,0.083923,1.0266250623543145
-0.250488,0.977539,0.19751,3.799438,0.595093,0.114441,1.0282689019731173
-0.24707,0.97583,0.196045,4.28772,0.541687,0.259399,1.0255346975236868
-0.249268,0.971436,0.197266,4.516602,0.091553,0.907898,1.0221234331899451
-0.244629,0.967041,0.199463,4.394531,-0.663757,0.938415,1.0172497882481963
-0.243896,0.964355,0.203369,3.852844,-1.403808,0.778198,1.0152954126765272
-0.256348,0.96582,0.20752,3.570556,-1.914978,1.091003,1.0205817556198034
-0.255859,0.968262,0.203369,3.540039,-2.227783,0.709534,1.0219364357365872
-0.253174,0.970459,0.208984,3.608703,-1.747131,0.25177,1.0244813601100802
-0.246582,0.967529,0.2146,3.761291,-1.647949,0.328064,1.0212581498157065
-0.245605,0.960449,0.219482,4.058838,-1.945495,0.144958,1.0153602542693898
-0.251953,0.955811,0.222168,3.837585,-2.853393,-0.305176,1.0131207243729643
-0.255371,0.960938,0.222656,3.326416,-3.753662,-0.457764,1.018917014197427
-0.261475,0.961182,0.222168,3.158569,-4.104614,0.144958,1.0205873960484717
-0.256104,0.954346,0.224121,3.349304,-4.211426,0.312805,1.0132106242894416
-0.256104,0.951904,0.229736,3.051758,-3.982544,0.213623,1.0121704963730171
-0.256592,0.957764,0.224121,2.02179,-4.241943,0.312805,1.0165537648353873
-0.255859,0.968018,0.213623,1.304626,-4.684448,0.427246,1.0237956155082908
-0.253906,0.977295,0.203613,1.480102,-4.875183,0.175476,1.0300640890886352
-0.253418,0.976318,0.198242,2.388,-4.91333,-0.289917,1.027967611557874
-0.248779,0.965088,0.20166,3.097534,-4.852295,-0.686645,1.016834595293158
-0.24585,0.956299,0.202881,2.723694,-4.852295,-0.610352,1.0080231644471271
-0.243408,0.960205,0.200439,1.319885,-4.829407,-0.366211,1.0106517150878436
-0.246582,0.966064,0.19751,0.297546,-4.600525,-0.076294,1.016411597198694
-0.259033,0.968994,0.194092,-0.190735,-4.486084,0.541687,1.0216257492785703
-0.261963,0.970459,0.192139,-0.518799,-4.295349,1.266479,1.0233927297821692
-0.260742,0.971436,0.189209,-0.648498,-3.730774,1.701355,1.0234619379053624
-0.265625,0.970703,0.192139,-0.297546,-3.135681,2.02179,1.0245673965898974
-0.267822,0.966553,0.200684,0.541687,-2.471924,2.098083,1.02285257654708
-0.265381,0.960449,0.200928,0.854492,-2.113342,2.02179,1.0164946718729027
-0.269287,0.960938,0.199951,0.228882,-1.220703,2.220154,1.017790612362877
-0.275635,0.965576,0.203857,-0.473022,0.366211,3.204345,1.0246313197682375
-0.269043,0.962646,0.20459,-0.495911,2.197266,4.127502,1.0202590481171925
-0.263428,0.960938,0.205566,-0.610352,3.173828,4.577637,1.0173758063685219
-0.262451,0.959717,0.202148,-0.976562,3.341675,4.638672,1.0152837344279677
-0.265381,0.96167,0.200684,-1.190186,3.372192,4.051208,1.017600281012638
-0.262451,0.965088,0.201172,-1.419067,3.631592,3.227234,1.0201693725695749
-0.259766,0.968018,0.199219,-1.38092,4.005432,2.830505,1.0218734917009054
-0.259766,0.962891,0.204346,-0.991821,4.631042,2.723694,1.018034744177722
-0.257813,0.952881,0.212891,-1.045227,4.959106,2.563476,1.00983776964966
-0.251465,0.950684,0.216064,-2.029419,4.653931,2.456665,1.0068358188786293
-0.250244,0.956543,0.21167,-3.27301,4.211426,2.670288,1.011138348241723
-0.259766,0.956299,0.210205,-3.494262,4.013062,2.479553,1.0130016259522983
-0.257324,0.950439,0.216064,-3.746032,3.974914,2.090454,1.008084116427295
-0.25293,0.946533,0.220703,-4.264832,4.318237,2.357483,1.0042948367874844
-0.254883,0.946289,0.22168,-4.905701,4.79126,2.960205,1.0047737245818087
-0.25708,0.949463,0.217041,-5.554199,5.630493,3.288269,1.0073117245669287
-0.255859,0.955078,0.213867,-6.019592,6.721496,3.540039,1.0116209308105482
-0.249268,0.959473,0.206787,-6.225585,7.713317,3.952026,1.0126617583981337
-0.239258,0.960693,0.201172,-6.16455,8.323669,4.005432,1.010270065080125
-0.23999,0.958984,0.202148,-5.91278,8.132935,3.387451,1.0090140367011748
-0.240723,0.957031,0.206055,-6.340026,7.354736,2.89917,1.0081242784076772
-0.240967,0.964355,0.206787,-7.003784,6.317138,2.937317,1.0152864248491653
-0.244873,0.971191,0.203857,-7.217407,5.432128,3.425598,1.0221215294958814
-0.251221,0.973633,0.204834,-7.225036,5.371093,3.608703,1.0261725864034763
-0.248535,0.972656,0.20752,-7.247924,6.195068,3.913879,1.025131157931023
-0.247314,0.976563,0.209717,-7.255554,7.080078,4.241943,1.02899014944459
-0.251465,0.978271,0.205811,-6.736755,8.216858,4.341125,1.0308282899624943
-0.251953,0.976318,0.204834,-5.653381,9.567261,4.394531,1.0288994697680625
-0.249023,0.974365,0.208252,-5.401611,10.551452,4.524231,1.027019232175328
-0.24707,0.971924,0.204102,-5.493164,10.795592,4.737854,1.0233950718466451
-0.243408,0.969238,0.199707,-5.66101,10.650634,4.554749,1.0190940294972786
-0.23999,0.968506,0.202881,-5.676269,10.528563,3.791809,1.0182140110492488
-0.228271,0.96582,0.209961,-5.722045,9.902954,3.532409,1.0143961471545522
-0.228027,0.967773,0.218506,-6.134033,9.208679,3.242492,1.0180008665487472
-0.221924,0.972412,0.221924,-6.263732,8.171082,2.26593,1.0218050798934208
-0.22876,0.973633,0.222412,-6.126403,5.401611,1.968384,1.0245776954594512
-0.244141,0.972656,0.22168,-5.218505,3.219604,2.090454,1.027037752284209
-0.248047,0.962402,0.224854,-4.707336,3.074646,2.433777,1.0189721513019874
-0.240723,0.953613,0.227051,-5.279541,3.852844,3.494262,1.009394607227025
-0.246582,0.955078,0.226074,-6.072998,5.348205,4.440308,1.0119714038864933
-0.247803,0.961914,0.226318,-6.843566,7.04956,4.829407,1.0187760830177552
-0.250244,0.969971,0.22876,-6.866455,8.262634,5.546569,1.0275197993114293
-0.248535,0.970703,0.229004,-5.973815,9.162903,5.805969,1.0278505691247146
-0.239746,0.973633,0.234131,-5.508422,9.979248,6.149292,1.0296876654432645
-0.238281,0.980469,0.237061,-5.767822,10.45227,6.41632,1.036482133296566
-0.243164,0.984375,0.237549,-5.378723,10.673522,6.050109,1.0414184552436163
-0.24292,0.978516,0.235596,-4.798889,11.016845,5.775451,1.0353787538248986
-0.236572,0.97583,0.23291,-4.463196,10.803222,5.561828,1.0307558237448868
-0.238037,0.974854,0.235352,-4.257202,10.238647,5.317688,1.0307242592415296
-0.238525,0.974121,0.235596,-4.020691,10.688781,5.088806,1.0301996765103356
-0.233398,0.970947,0.238525,-3.738403,11.001586,5.15747,1.0266970725769116
-0.227783,0.976563,0.236084,-3.890991,11.650084,5.1651,1.03019223599967
-0.223389,0.980713,0.233887,-3.379822,11.772155,5.363464,1.0326682731928003
-0.221436,0.980225,0.232666,-2.807617,12.222289,5.371093,1.0315078382043443
-0.210449,0.982666,0.229248,-2.433777,12.886046,5.088806,1.0307647135311724
-0.201904,0.987305,0.222656,-2.082825,13.85498,4.905701,1.0320426747848173
-0.196045,0.989502,0.218994,-1.480102,13.702392,4.371643,1.0322336082810906
-0.187988,0.986816,0.222412,-0.808716,12.184142,3.967285,1.028888917106215
-0.189453,0.981445,0.228516,-0.396728,10.147094,3.631592,1.0253517881634577
-0.187988,0.981934,0.231689,-0.221252,8.087158,3.517151,1.0262619846905565
-0.192383,0.984863,0.232178,-0.434875,5.760192,3.784179,1.029986879111574
-0.196533,0.987793,0.231201,-0.442505,4.272461,3.65448,1.0333509245841899
-0.197266,0.982666,0.240234,0.549316,3.791809,3.211975,1.0306593603455994
-0.193848,0.976318,0.241211,0.907898,3.364563,3.067016,1.024185837994746
-0.19043,0.977051,0.240967,0.656128,2.159119,3.059387,1.0241861825810774
-0.193359,0.981445,0.238525,0.617981,0.587463,2.761841,1.0283560504664715
-0.20166,0.980469,0.246826,0.747681,-0.63324,2.220154,1.0309749220213846
-0.200439,0.981934,0.249756,0.793457,-1.411438,2.029419,1.0328350461777522
-0.199463,0.983398,0.245605,1.00708,-2.151489,2.212524,1.033043528026772
-0.201904,0.980225,0.246826,1.319885,-3.059387,2.006531,1.0307906432040408
-0.201904,0.976563,0.251465,1.869202,-3.730774,1.670837,1.0284333543842303
-0.19751,0.973389,0.248779,2.13623,-4.78363,1.525879,1.0239078748901191
-0.198242,0.975586,0.23999,1.770019,-6.446838,1.625061,1.024042545043906
-0.210693,0.981689,0.237549,1.625061,-8.171082,1.464844,1.031762744225144
-0.213135,0.97876,0.239502,1.998901,-9.056091,1.098633,1.029931489871535
-0.211182,0.976563,0.240967,2.059937,-8.94165,0.869751,1.0277831605849552
-0.213135,0.971191,0.240723,1.792908,-8.766174,0.312805,1.0230278830193242
-0.219727,0.9729,0.233154,1.686096,-8.911133,-0.511169,1.0242925130278948
-0.224121,0.974121,0.229248,1.922607,-9.025574,-1.358032,1.0255225939909856
-0.227051,0.969971,0.228027,2.510071,-8.720398,-1.914978,1.0219550920519942
-0.224609,0.971191,0.230469,2.6474,-7.987976,-1.63269,1.0231212642316647
-0.221924,0.969727,0.233154,2.738952,-7.324218,-0.87738,1.0217541309047886
-0.219971,0.960205,0.241455,3.318786,-6.835937,-0.740051,1.0142393208168377
-0.216309,0.956543,0.245361,3.40271,-6.54602,-0.770569,1.0109233970242257
-0.213867,0.957764,0.246094,3.005981,-6.652832,-0.976562,1.011737727981417
-0.208252,0.966553,0.237305,2.693176,-7.011413,-1.441955,1.0168123033962562
-0.207275,0.97168,0.229004,2.975464,-7.225036,-1.831055,1.019591967426676
-0.209961,0.968994,0.227051,3.570556,-7.209777,-2.098083,1.017145589460034
-0.206055,0.9646,0.232178,3.890991,-6.660461,-2.075195,1.0133205054221492
-0.192627,0.965576,0.228027,3.860473,-6.347656,-1.678467,1.0106623994361321
-0.190186,0.967285,0.230225,3.974914,-6.935119,-1.335144,1.0123312385015095
-0.195068,0.968018,0.239746,4.196167,-7.766723,-1.571655,1.016163627308122
-0.197754,0.971191,0.237305,4.066467,-8.155823,-1.708984,1.019133095342311
-0.194092,0.973389,0.238037,3.875732,-8.117676,-1.724243,1.020695578100542
-0.193604,0.977051,0.237061,4.043579,-8.308411,-1.724243,1.0238696612059563
-0.198242,0.975098,0.233398,4.219055,-9.361267,-1.609802,1.0220521643106089
-0.19751,0.9729,0.234131,4.402161,-10.734557,-1.945495,1.0199813406435432
-0.19873,0.971924,0.233154,4.440308,-11.894225,-2.326965,1.01906362038491
-0.203125,0.975586,0.236084,4.379272,-12.542724,-2.494812,1.0240915311030552
-0.203857,0.97876,0.237305,4.447937,-12.939452,-2.380371,1.0275419587900048
-0.205078,0.97998,0.235107,4.66156,-13.21411,-2.716064,1.02844206834075
-0.20459,0.981201,0.235596,4.989624,-13.610839,-3.02124,1.0296202920091464
-0.200684,0.981445,0.237305,5.371093,-13.916015,-3.036499,1.0294765752099462
-0.199707,0.983398,0.229004,5.508422,-14.533996,-3.036499,1.0292702969915142
-0.202637,0.984619,0.225586,5.897521,-15.213012,-3.303528,1.0302550035432976
-0.204102,0.984375,0.222656,6.324768,-15.647887,-3.829956,1.029673473177298
-0.204346,0.983643,0.218262,6.41632,-15.960692,-3.944397,1.0280803177811548
-0.206055,0.981445,0.212646,6.614685,-16.082764,-3.364563,1.0251396355453242
-0.203125,0.975586,0.215576,7.148742,-15.830993,-3.295898,1.0195591306035172
-0.201904,0.972656,0.219727,6.988525,-15.747069,-3.303528,1.017401038962021
-0.20459,0.977539,0.218994,6.217956,-16.044617,-2.540588,1.0224470336682483
-0.209961,0.983887,0.212891,5.958557,-16.372681,-2.082825,1.0283189330995515
-0.213623,0.982178,0.212891,6.278991,-16.311646,-2.403259,1.0274390432984333
-0.210205,0.97998,0.213867,6.538391,-15.998839,-2.655029,1.0248346384241704
-0.211182,0.981201,0.2146,6.629943,-16.357422,-2.624511,1.0263558834658668
-0.212891,0.984863,0.207275,6.752014,-16.860962,-2.868652,1.0287082347658154
-0.219238,0.978516,0.207031,7.118225,-17.066956,-3.417969,1.023924166069441
-0.219971,0.971191,0.208496,7.339477,-16.960144,-3.883362,1.0173837925473357
-0.216553,0.966064,0.2146,7.057189,-16.731262,-3.807068,1.0130291278660253
-0.215332,0.968262,0.208496,6.41632,-16.578674,-3.219604,1.0135924984351452
-0.219238,0.968018,0.205078,6.057739,-16.235352,-2.998352,1.0134994499515035
-0.221191,0.971191,0.204346,5.981445,-15.708922,-3.189087,1.0168061293471828
-0.217529,0.974121,0.203369,6.134033,-15.449523,-3.486633,1.0186213912160886
-0.2146,0.973633,0.197754,6.614685,-15.571593,-3.90625,1.0164256112500314
-0.210938,0.975098,0.193604,6.973266,-16.059875,-4.432678,1.0162644627576034
-0.212891,0.970703,0.196777,7.492065,-16.777039,-5.279541,1.0130686451662592
-0.221436,0.960693,0.205078,7.659912,-17.204285,-5.622863,1.0069865582166428
-0.224365,0.958252,0.21167,7.072448,-17.166138,-5.41687,1.0066731036582828
-0.222412,0.964355,0.206543,5.699157,-17.127991,-4.78363,1.0109934097797078
-0.229248,0.969971,0.203125,5.073547,-17.112732,-4.631042,1.0171814744528136
-0.233398,0.973145,0.200684,5.1651,-16.647339,-5.088806,1.020666392747895
-0.228027,0.977539,0.198975,5.271911,-15.953063,-5.401611,1.0233131778077522
-0.2229,0.97876,0.197998,5.470275,-15.419005,-5.424499,1.0231611581779285
-0.225586,0.982178,0.198975,5.859375,-14.999389,-5.615234,1.0272067550912036
-0.227783,0.981934,0.205811,6.202697,-14.343261,-5.477905,1.0288039867564667
-0.22583,0.981445,0.207275,6.217956,-13.656615,-4.821777,1.0282005653324646
-0.22168,0.983643,0.207764,6.385803,-12.870788,-4.310608,1.0294957277934669
-0.222656,0.985596,0.206787,6.278991,-12.161254,-3.890991,1.0313757961679146
-0.220459,0.989746,0.199463,5.928039,-11.489867,-3.112793,1.033433502246758
-0.210205,0.989502,0.197266,6.134033,-10.94818,-2.319336,1.0306377757413125
-0.202148,0.983154,0.199463,7.003784,-10.69641,-1.983642,1.0233479808887103
-0.19751,0.973145,0.203369,7.606506,-10.932921,-2.243042,1.013597721626287
-0.19458,0.968506,0.203125,7.606506,-11.604308,-2.578735,1.0085261593340056
-0.196289,0.970215,0.202637,7.034301,-12.535094,-2.906799,1.0104000551835892
-0.197266,0.969238,0.202881,6.561279,-13.618468,-3.265381,1.0097013793993748
-0.200195,0.969238,0.20459,6.370544,-14.953612,-3.616333,1.0106222868950596
-0.203369,0.96875,0.202393,5.950927,-16.548157,-4.020691,1.010345702772076
-0.20752,0.970459,0.205078,5.577087,-17.76886,-4.013062,1.0133667683346441
-0.211426,0.96582,0.204834,5.28717,-18.768311,-3.944397,1.0096861856200667
-0.214355,0.959717,0.204102,4.974365,-19.485474,-3.890991,1.0043218669918526
-0.217773,0.959961,0.203613,4.394531,-20.195005,-4.188538,1.0051907554384887
-0.224854,0.9646,0.199707,3.883362,-20.652769,-4.669189,1.0103936694006945
-0.231201,0.967041,0.197266,3.593445,-20.545958,-4.722595,1.0136745398982852
-0.236328,0.970215,0.19873,3.829956,-20.080564,-4.890442,1.0181658424387454
-0.23999,0.970459,0.199951,4.043579,-19.569397,-4.959106,1.0194931452354155
-0.240967,0.971191,0.196533,3.608703,-19.012451,-5.081176,1.0197559873121609
-0.248535,0.970459,0.192627,3.112793,-18.432617,-5.126953,1.0201301279910324
-0.249512,0.968262,0.190918,2.822876,-17.562866,-5.081176,1.0179573770605526
-0.249268,0.964355,0.193359,2.26593,-16.319275,-4.882813,1.0146441764135838
-0.250488,0.966553,0.192627,1.88446,-14.961242,-4.722595,1.016894341159395
-0.251953,0.97168,0.188965,1.548767,-13.641356,-4.402161,1.021445107597075
-0.250732,0.974365,0.187744,1.708984,-12.191772,-4.364014,1.0234752066293547
-0.252197,0.973633,0.19043,2.059937,-10.475158,-4.28009,1.023634764160538
-0.250244,0.971436,0.191895,2.113342,-8.720398,-4.081726,1.0213391467367732
-0.246582,0.973389,0.188721,1.525879,-6.988525,-3.379822,1.0217164204836877
-0.240479,0.975098,0.182373,0.938415,-5.577087,-2.655029,1.0207380516929894
-0.23584,0.979004,0.178711,0.831604,-4.211426,-2.349854,1.022744816235702
-0.230225,0.978027,0.181396,1.045227,-3.189087,-2.120972,1.0210018962617062
-0.22168,0.977295,0.17627,1.266479,-2.593994,-2.189636,1.0175060944903476
-0.217773,0.976807,0.181885,1.243591,-2.540588,-2.113342,1.0171819640570707
-0.219727,0.976318,0.189209,0.991821,-2.822876,-2.037048,1.0184678872374917
-0.220703,0.976807,0.189453,0.465393,-3.219604,-1.76239,1.0191929006164633
-0.219971,0.979736,0.187256,0.015259,-3.555298,-1.327515,1.0214375556405786
-0.220215,0.974854,0.189697,0.37384,-3.715515,-1.335144,1.0172609888076904
-0.217529,0.97168,0.192627,0.488281,-4.081726,-1.815796,1.0141923137995081
-0.217041,0.97583,0.196045,0.221252,-4.714966,-1.907349,1.0187171474977732
-0.219238,0.977783,0.197266,0.228882,-5.53894,-1.838684,1.021292695797341
-0.222412,0.978027,0.201172,0.617981,-5.905151,-2.105713,1.022973159011027
-0.223877,0.975098,0.202148,0.785828,-6.019592,-2.14386,1.0206864526567403
-0.224854,0.975342,0.200928,0.732422,-6.309509,-1.937866,1.0208934319820067
-0.22876,0.978271,0.197266,0.770569,-6.782531,-1.945495,1.023845282157905
-0.232666,0.97583,0.194336,0.87738,-7.606506,-2.479553,1.0218337131608057
-0.235107,0.972168,0.192627,0.75531,-8.43811,-2.922058,1.0185730620834228
-0.238281,0.974854,0.189453,0.106812,-9.101868,-2.853393,1.0212789019097575
-0.244141,0.97876,0.185303,-0.228882,-9.292603,-3.013611,1.0256281817939676
-0.251953,0.974854,0.189209,-0.205994,-8.781433,-3.250122,1.0245099712574788
-0.255859,0.9729,0.188477,-0.411987,-7.67517,-3.135681,1.023485132969698
-0.259277,0.977051,0.186035,-0.587463,-5.867004,-2.586365,1.0278434903014175
-0.264648,0.973877,0.188965,-0.541687,-3.547668,-2.365112,1.0267340192367251
-0.26001,0.975586,0.189941,-0.595093,-1.113892,-2.319336,1.0273513649073525
-0.252197,0.973877,0.187744,-0.869751,1.373291,-1.777649,1.0233706794089814
-0.250732,0.975342,0.183838,-0.900268,3.555298,-1.167297,1.0236967143798013
-0.24707,0.976807,0.187012,-0.740051,5.630493,-0.892639,1.0247775311222431
-0.236572,0.97168,0.194092,-0.534058,7.247924,-0.640869,1.0187247116115326
-0.229736,0.970459,0.193848,-0.717163,8.026123,-0.1297,1.0159460357130194
-0.226563,0.97583,0.191162,-1.00708,8.110046,0.50354,1.019861702444503
-0.220459,0.979004,0.195557,-1.029968,7.972717,0.75531,1.0223959814797787
-0.219727,0.976318,0.201172,-1.205444,7.67517,0.778198,1.020758034617901
-0.217773,0.979492,0.198486,-1.174927,7.148742,0.854492,1.0228520664245637
-0.217529,0.981934,0.196289,-1.167297,6.484985,0.640869,1.024715871702005
-0.217285,0.98291,0.197998,-0.923157,5.981445,0.030518,1.0259278957748443
-0.215332,0.979736,0.200439,-0.396728,5.447387,-0.465393,1.0229497996680972
-0.213379,0.976563,0.197266,-0.37384,4.478455,-0.709534,1.018881624805355
-0.210938,0.979736,0.19751,-0.495911,3.326416,-0.602722,1.0214634940319698
-0.213379,0.982178,0.203857,-0.518799,1.899719,-0.495911,1.025554434330036
-0.217041,0.980469,0.208252,-0.465393,0.656128,-0.328064,1.0255706465894976
-0.221924,0.978271,0.207275,-0.350952,-0.442505,-0.160217,1.0243179861947167
-0.225586,0.978271,0.201416,-0.259399,-1.350403,-0.099182,1.0239490211397246
-0.229004,0.974609,0.19751,-0.022888,-1.869202,-0.473022,1.0204487909723838
-0.232666,0.971436,0.194824,-0.106812,-1.838684,-0.839233,1.0177316741793978
-0.233154,0.972168,0.19165,-0.083923,-1.533508,-0.831604,1.0179396497042446
-0.231934,0.9729,0.190918,-0.152588,-1.304626,-0.968933,1.0182227030861175
-0.233643,0.968262,0.196289,0.030518,-1.441955,-1.304626,1.0152092018958456
-0.23999,0.967529,0.197266,0.190735,-1.022339,-1.251221,1.016179826948459
-0.245117,0.964111,0.202637,-0.099182,-0.518799,-1.441955,1.0152113660607824
-0.244629,0.967285,0.197998,-0.167847,-0.205994,-2.288818,1.0171955696275912
-0.254395,0.965332,0.197266,-0.328064,1.411438,-2.311707,1.017593514624086
-0.250244,0.963379,0.19751,-0.442505,3.456115,-2.929687,1.0147567971080558
-0.244385,0.962646,0.195557,-0.328064,4.997253,-3.349304,1.0122518904847746
-0.242676,0.965332,0.193604,-0.396728,5.622863,-3.40271,1.0140217058899674
-0.248779,0.969727,0.196045,-0.495911,6.561279,-3.662109,1.0201446404285033
-0.246582,0.973145,0.20166,-0.732422,7.507324,-3.494262,1.0239534312404057
-0.245605,0.975586,0.199707,-0.900268,7.888793,-2.319336,1.0256572260116923
-0.245361,0.974854,0.206055,-0.961304,7.972717,-1.396179,1.0261583721151428
-0.244385,0.975586,0.209961,-1.266479,8.392334,-0.923157,1.027412134025095
-0.240723,0.973633,0.208252,-1.838684,8.735657,-0.732422,1.0243425583865975
-0.237061,0.976563,0.202393,-2.609253,9.017944,-0.099182,1.0251029885523697
-0.233398,0.975342,0.201172,-3.280639,9.017944,0.442505,1.0228571830671183
-0.230469,0.97583,0.198486,-3.692627,9.307861,1.121521,1.0221334751670157
-0.226563,0.980469,0.193848,-3.997802,9.750366,2.006531,1.0248059816540886
-0.227783,0.982666,0.196533,-3.669739,9.742737,2.716064,1.0276880765747942
-0.227539,0.982422,0.195313,-2.998352,9.262085,2.799988,1.0271680245091355
-0.229004,0.986084,0.190674,-2.700805,8.628845,2.792358,1.0301267210144585
-0.231445,0.989258,0.185791,-2.449036,7.957458,2.990722,1.0328196717094422
-0.233643,0.986572,0.186279,-1.876831,7.591247,2.861023,1.0308313288186386
-0.230713,0.974365,0.191162,-1.464844,7.705688,2.449036,1.0193912653333852
-0.229492,0.966064,0.197266,-1.625061,7.453918,2.471924,1.0123537449508446
-0.233398,0.967529,0.205078,-2.250671,6.813049,2.685547,1.0161909162795149
-0.23999,0.972656,0.207031,-2.944946,5.973815,2.929687,1.02299400262025
-0.247803,0.973389,0.209229,-2.76947,5.66864,2.838135,1.0259967088499846
-0.251465,0.970215,0.207031,-2.052307,5.760192,2.220154,1.0234322778821274
-0.251465,0.966797,0.205078,-1.815796,5.882263,1.991272,1.0197980542823173
-0.255615,0.962891,0.203125,-1.808166,5.775451,1.747131,1.0167388414588086
-0.255615,0.957275,0.201416,-2.342224,6.17218,1.13678,1.0110800457461318
-0.25415,0.955566,0.202393,-3.181457,6.752014,0.701904,1.0092876345745052
-0.25415,0.957275,0.201172,-3.890991,7.354736,0.640869,1.010662070975754
-0.254639,0.963379,0.19751,-4.15802,7.972717,0.602722,1.0158495548367386
-0.254395,0.970459,0.198486,-3.883362,8.766174,0.457764,1.0226945677483577
-0.254395,0.968506,0.203125,-3.631592,9.506226,0.579834,1.021753616918482
-0.251709,0.971191,0.196289,-4.096985,10.284423,1.304626,1.0223007144099039
-0.253662,0.968506,0.19751,-4.112244,11.085509,1.88446,1.0204697361411557
-0.251709,0.963867,0.195801,-4.173279,12.145995,1.785278,1.0152512230827402
-0.242676,0.969971,0.193115,-4.562378,13.404845,1.945495,1.0183461027774399
-0.236572,0.976807,0.195068,-4.547119,14.114379,2.342224,1.0238016170416024
-0.235107,0.978271,0.20166,-3.608703,14.488219,2.540588,1.0261365437845005
-0.234131,0.977539,0.208496,-3.051758,14.770507,2.746582,1.0265819030637546
-0.22876,0.979004,0.217041,-2.792358,14.686584,3.02124,1.0285362245915308
-0.225098,0.980713,0.217529,-3.005981,14.312743,3.265381,1.029459063690247
-0.223877,0.983154,0.214355,-2.807617,13.862609,3.250122,1.0308543858712538
-0.223633,0.980713,0.218262,-2.372742,13.420104,2.76947,1.0292949080326783
-0.219482,0.977051,0.217529,-2.365112,13.21411,2.372742,1.024753565871327
-0.215332,0.979248,0.21167,-2.838135,12.809752,2.502441,1.0247432383909638
-0.213379,0.980713,0.212646,-2.922058,11.970519,2.487183,1.025937087411309
-0.212891,0.982422,0.214355,-2.677917,10.711669,2.075195,1.0278247078125724
-0.214111,0.984619,0.215576,-2.609253,9.246826,1.998901,1.0304324855409015
-0.219727,0.981689,0.217041,-2.174377,7.835388,1.991272,1.0291258635030993
-0.226318,0.973389,0.217529,-1.663208,6.874084,1.464844,1.0227535618544674
-0.233398,0.96582,0.215576,-1.502991,6.42395,0.717163,1.0167378770263258
-0.237793,0.967529,0.209717,-2.082825,6.225585,0.534058,1.0181547508993904
-0.240723,0.971191,0.204102,-2.761841,6.332397,0.930786,1.021184188877795
-0.240479,0.968018,0.209717,-2.380371,6.813049,1.243591,1.0192498309315534
-0.236084,0.96167,0.216309,-2.27356,7.369995,1.289368,1.0135750724228572
-0.236816,0.962158,0.219727,-2.502441,7.67517,1.625061,1.0149432443979318
-0.239014,0.964844,0.221924,-2.792358,7.827758,1.617432,1.0184801904347478
-0.244629,0.968262,0.2229,-2.616882,8.026123,1.342773,1.0232590377245636
-0.246582,0.968018,0.224609,-2.510071,8.491516,1.106262,1.0238704673585424
-0.243896,0.969971,0.220703,-2.532959,8.987427,1.373291,1.0242259584027347
-0.239502,0.970947,0.212891,-2.830505,9.376526,1.747131,1.0224587339809856
-0.235352,0.970703,0.212402,-2.716064,9.925842,2.105713,1.0211608530084768
-0.234131,0.971191,0.20874,-2.464294,10.673522,2.487183,1.0205888845377458
-0.229004,0.96875,0.211182,-2.456665,11.344909,3.02124,1.0176036712001388
-0.224365,0.971191,0.211426,-2.586365,11.680602,3.257751,1.0189467921250845
-0.224365,0.976318,0.209229,-2.777099,11.71112,3.593445,1.023383244337135
-0.223877,0.977051,0.20752,-2.5177,11.428832,3.89862,1.023627919768702
-0.219727,0.976318,0.20752,-2.059937,11.016845,3.967285,1.022028053456949
-0.214355,0.974609,0.208252,-1.647949,10.299682,3.967285,1.0194016207609247
-0.21875,0.97168,0.208984,-1.831055,9.33075,4.081726,1.0176875243197196
-0.229248,0.973389,0.205811,-2.319336,8.262634,4.333496,1.0209794114212098
-0.234375,0.977051,0.208496,-2.609253,7.614135,4.112244,1.0261729285271561
-0.239258,0.978516,0.212891,-2.487183,7.995605,3.89862,1.0295924099861071
-0.23877,0.975098,0.213623,-2.166748,8.651733,4.013062,1.0263829736667498
-0.236816,0.973145,0.216064,-1.785278,8.834839,3.883362,1.0245860925159
-0.238281,0.978027,0.212158,-1.731872,8.552551,3.631592,1.0287495636227506
-0.244385,0.981934,0.209717,-1.579285,8.308411,3.196716,1.033392291760491
-0.24707,0.985107,0.204834,-1.228333,8.148193,2.716064,1.0360677361567632
-0.249023,0.98291,0.205322,-0.717163,8.132935,2.380371,1.0345441732052816
-0.245361,0.980713,0.20752,-0.236511,8.155823,1.937866,1.032019650534814
-0.246338,0.977051,0.210693,-0.183105,7.995605,1.716614,1.0294185772046278
-0.248535,0.975098,0.214111,-0.411987,8.239746,1.312256,1.0287999203683873
-0.248047,0.979248,0.214844,-0.549316,8.644104,1.190186,1.0327690468100794
-0.248535,0.981689,0.21167,-0.022888,9.20105,1.197815,1.0345468224522272
-0.245117,0.980957,0.211426,0.50354,9.552002,1.13678,1.0329859306950893
-0.240723,0.979736,0.212891,0.984192,9.735107,1.052856,1.0310929978939825
-0.234863,0.976074,0.20874,1.25885,9.796143,0.900268,1.0254040519936518
-0.227783,0.973145,0.203857,1.220703,9.529114,0.915527,1.0200264518937732
-0.224854,0.973633,0.205566,1.289368,8.865356,1.106262,1.0201852382587193
-0.227051,0.972656,0.209229,1.38092,8.31604,1.335144,1.0204845052121074
-0.227051,0.976807,0.206055,0.991821,8.003235,1.625061,1.0237981905019173
-0.229004,0.982422,0.201172,0.930786,8.247375,1.88446,1.028623347821738
-0.228271,0.986084,0.201172,1.88446,8.728027,1.823425,1.0319590486453423
-0.219971,0.984863,0.19873,2.624511,9.117126,1.907349,1.0285115373733054
-0.216797,0.979004,0.198486,2.868652,9.025574,1.968384,1.0221773150588893
-0.215576,0.974121,0.200928,3.082275,8.552551,1.853943,1.0177213742478832
-0.21167,0.971436,0.204102,3.051758,7.972717,1.76239,1.0149629142978576
-0.211426,0.970703,0.204834,2.76947,7.057189,1.88446,1.0143580409505313
-0.219238,0.973389,0.205566,2.578735,5.966186,1.502991,1.0187290249722936
-0.220215,0.97583,0.208496,2.853393,5.271911,1.220703,1.0218656551332959
-0.22168,0.977539,0.209229,3.234863,4.730225,1.228333,1.0239635214996676
-0.227295,0.975342,0.213867,3.311157,4.043579,1.144409,1.0240576779058883
-0.229004,0.9729,0.217529,3.593445,3.387451,0.694275,1.022886165639657
-0.229492,0.971924,0.217041,3.326416,2.731323,0.167847,1.0219636175133633
-0.229492,0.969971,0.214111,2.853393,2.26593,0.358582,1.0194870471104573
-0.228516,0.965088,0.215088,2.89154,2.433777,0.663757,1.0148286839383285
-0.22876,0.961182,0.220215,2.479553,2.624511,0.808716,1.0122729972438265
-0.229004,0.963623,0.219971,1.602173,2.235413,1.083374,1.014593198767861
-0.229492,0.968262,0.217041,1.419067,1.693725,1.113892,1.0184815532885219
-0.233887,0.969482,0.214355,1.76239,1.419067,0.846863,1.0200718323324098
-0.231934,0.96582,0.212646,2.128601,1.647949,0.328064,1.0157853976465698
-0.231445,0.964355,0.20752,2.044678,2.27356,0.137329,1.0132185867077252
-0.231201,0.965088,0.205811,1.724243,2.876281,0.152588,1.013512169569759
-0.227051,0.96167,0.203613,1.502991,3.219604,-0.053406,1.0088704571301512
-0.221191,0.960693,0.205566,1.266479,3.02124,-0.228882,1.0070322135294383
-0.223145,0.964111,0.207275,0.762939,2.63977,0.297546,1.011072023631848
-0.225098,0.965576,0.206299,0.427246,1.922607,0.289917,1.012702028624906
-0.231201,0.969238,0.205811,0.450134,1.365662,-0.236511,1.0174646778959946
-0.236084,0.97168,0.206055,0.289917,1.167297,-0.38147,1.0209585400401917
-0.238037,0.975342,0.202393,-0.175476,1.38855,-0.160217,1.0241662739916795
-0.238525,0.977051,0.203613,-0.289917,2.120972,0.076294,1.0261486666146384
-0.23584,0.972656,0.206543,-0.12207,3.303528,0.213623,1.0219296506046784
-0.231201,0.966797,0.208252,-0.183105,4.470825,0.762939,1.0156373551194344
-0.226074,0.967773,0.207764,-0.839233,4.943848,1.548767,1.0153127167040705
-0.226318,0.971924,0.203613,-1.235962,5.096435,2.037048,1.0184863046055161
-0.225586,0.973145,0.206055,-1.091003,5.264282,1.998901,1.0199798514902145
-0.223389,0.973145,0.208008,-0.961304,5.592346,2.067566,1.0198927220105063
-0.22168,0.977051,0.205566,-0.984192,5.584716,2.13623,1.0227551316698442
-0.219727,0.979736,0.202881,-0.686645,5.134582,2.105713,1.0243648199669881
-0.220459,0.977539,0.209473,-0.106812,4.631042,1.831055,1.0237497765230525
-0.219971,0.976318,0.203125,0.099182,4.013062,1.831055,1.0211972598817527
-0.220215,0.980713,0.196045,-0.137329,2.868652,1.945495,1.024073374626545
-0.216553,0.980225,0.197266,0.083923,2.14386,1.914978,1.0230592002372103
-0.217041,0.981689,0.19751,0.015259,1.823425,1.922607,1.0246122625178755
-0.214111,0.980469,0.198486,0.022888,1.045227,2.006531,1.0230149913261293
-0.214844,0.976074,0.202881,0.663757,-0.328064,1.808166,1.0198230718967873
-0.217529,0.978027,0.202393,0.312805,-1.76239,0.701904,1.0221636879771263
-0.219238,0.981689,0.20459,0.389099,-2.372742,-0.144958,1.0264675647408446
-0.218262,0.981201,0.201416,0.907898,-2.26593,-0.694275,1.0251644297872415
-0.21875,0.980713,0.198975,1.235962,-2.540588,-1.167297,1.0243244610444484
-0.219238,0.979248,0.202637,1.190186,-3.52478,-1.365662,1.0237449388968913
-0.217529,0.97876,0.201172,1.121521,-4.249573,-1.281738,1.0226241621558725
-0.216797,0.983643,0.199219,1.327515,-4.592896,-0.854492,1.0267632154586568
-0.220215,0.985352,0.196533,1.602173,-4.501343,-0.50354,1.0286099504758839
-0.222656,0.97876,0.19458,2.220154,-4.364014,-0.335693,1.0224520567420263
-0.220459,0.975586,0.188965,2.281189,-4.341125,-0.160217,1.0178791604615942
-0.217773,0.974609,0.188232,2.151489,-4.440308,-0.12207,1.0162278623586345
-0.218994,0.974854,0.190918,2.166748,-4.798889,-0.396728,1.0172258235396896
-0.220703,0.975586,0.188232,1.861572,-5.401611,-0.648498,1.017796219008992
-0.221436,0.975586,0.190674,2.067566,-6.126403,-1.091003,1.0184097995247294
-0.224121,0.974609,0.193115,2.166748,-6.607055,-1.609802,1.0185216388211886
-0.22583,0.976807,0.193115,1.922607,-7.04956,-1.586914,1.0210017176155974
-0.22583,0.981445,0.188721,2.052307,-7.591247,-1.319885,1.0246214387597012
-0.22998,0.983154,0.188721,2.235413,-7.850646,-1.350403,1.0271797330345842
-0.234619,0.982178,0.187744,2.441406,-7.5531,-1.426697,1.0271161124142683
-0.236816,0.984375,0.18457,2.494812,-6.881713,-1.228333,1.029146269186747
-0.239502,0.98291,0.182861,2.708435,-5.996704,-0.938415,1.0280619735332106
-0.239502,0.979736,0.182373,2.975464,-4.981995,-1.029968,1.0249408513807028
-0.235107,0.981201,0.182617,3.112793,-4.03595,-0.846863,1.025368066861359
-0.23584,0.983398,0.178467,3.074646,-3.623962,-0.25177,1.026909247252648
-0.237305,0.980713,0.180664,3.540039,-3.257751,-0.152588,1.025061526099775
-0.230713,0.975342,0.188721,4.020691,-2.975464,-0.587463,1.0198706394312957
-0.226807,0.970703,0.190918,3.761291,-2.983093,-0.518799,1.0149657197078137
-0.223145,0.977051,0.191406,3.295898,-3.303528,-0.389099,1.0203227942479771
-0.226807,0.984863,0.189941,3.14331,-3.791809,-0.526428,1.028335610342752
-0.226563,0.986328,0.190918,3.593445,-4.631042,-1.113892,1.029865719051275
-0.227539,0.984863,0.191895,3.814697,-5.645751,-1.541138,1.0288599595255907
-0.227295,0.978271,0.19458,3.883362,-6.393432,-1.785278,1.0230046641467476
-0.228027,0.974854,0.198486,3.852844,-6.484985,-1.991272,1.0206533820259451
-0.226318,0.973633,0.202637,3.616333,-6.217956,-1.701355,1.0199229429628496
-0.227051,0.972656,0.20166,3.52478,-5.760192,-1.235962,1.0189595706096488
-0.224365,0.972412,0.194824,3.295898,-5.340576,-1.182556,1.0167994600436214
-0.226807,0.969238,0.190674,3.280639,-4.882813,-1.319885,1.0135187665598502
-0.226318,0.966064,0.186768,3.028869,-4.402161,-1.63269,1.0096443804845348
-0.222168,0.968262,0.18457,2.342224,-4.180908,-1.556396,1.0104236763694723
-0.218994,0.973633,0.178955,1.480102,-4.264832,-1.182556,1.013875970101866
-0.216553,0.974121,0.181885,1.670837,-4.478455,-0.915527,1.0143416967053065
-0.219482,0.971191,0.190186,1.976013,-4.814148,-1.037598,1.0136838863279816
-0.223389,0.96875,0.191162,1.663208,-5.020141,-0.923157,1.0123843726890493
-0.226074,0.971924,0.188477,1.251221,-5.149841,-0.526428,1.0155143006285041
-0.22876,0.973877,0.189209,0.984192,-4.79126,-0.541687,1.0181196365899245
-0.228027,0.97583,0.189209,0.785828,-4.051208,-0.427246,1.0198237824791103
-0.225586,0.977051,0.188965,0.801086,-3.578186,-0.061035,1.0204045625250802
-0.220947,0.976563,0.192139,0.770569,-3.669739,0.099182,1.019514720393482
-0.22168,0.974854,0.191162,0.724792,-3.875732,-0.083923,1.0178532575769457
-0.223633,0.9729,0.194336,0.534058,-3.936767,-0.244141,1.0170116073993452
-0.224365,0.973633,0.196289,0.083923,-4.096985,-0.175476,1.0182486157294788
-0.227051,0.977295,0.192139,-0.389099,-4.203796,0.106812,1.0215552207037073
-0.225342,0.9729,0.192627,-0.541687,-4.127502,0.083923,1.0170637089646843
-0.219727,0.968506,0.194336,-0.579834,-4.226685,0.030518,1.0119537081610996
-0.220215,0.968994,0.19165,-0.854492,-4.53949,0.053406,1.0120146939452017
-0.223877,0.972412,0.187256,-1.396179,-4.676819,0.205994,1.0152688404600034
-0.224365,0.974365,0.183838,-1.487732,-4.585266,0.259399,1.0166234389851534
-0.226807,0.970703,0.185791,-1.167297,-4.272461,0.228882,1.0140138190079069
-0.22876,0.966064,0.183594,-1.022339,-3.852844,0.152588,1.0096125724910523
-0.223145,0.963867,0.181641,-1.152039,-3.65448,0.091553,1.0058959874634157
-0.221924,0.966064,0.181641,-1.571655,-3.662109,-0.175476,1.007731793064504
-0.221924,0.969727,0.18335,-2.182007,-3.807068,-0.587463,1.0115522422519758
-0.221924,0.979004,0.182373,-2.63977,-4.318237,-0.770569,1.020273985222107
-0.224609,0.986328,0.181396,-2.441406,-4.936218,-0.640869,1.0277142770639123
-0.227051,0.986572,0.183838,-1.754761,-5.577087,-0.686645,1.0289183048371722
-0.229004,0.982666,0.183838,-1.197815,-6.050109,-0.907898,1.0256079708231602
-0.231445,0.980957,0.185059,-0.900268,-6.141662,-1.052856,1.0247391167292288
-0.236328,0.979004,0.182373,-1.25885,-5.91278,-0.961304,1.0235036232124437
-0.240723,0.977783,0.184082,-1.586914,-5.111694,-0.930786,1.0236666159165297
-0.239014,0.975342,0.187744,-1.602173,-3.982544,-0.923157,1.0216004692128915
-0.235107,0.980225,0.18457,-2.128601,-3.234863,-0.62561,1.0247840928576126
-0.233154,0.986572,0.178223,-2.090454,-2.922058,-0.419617,1.0292951649692132
-0.237549,0.983643,0.181396,-1.426697,-2.685547,-0.717163,1.0280503818714335
-0.236572,0.976563,0.18457,-0.816345,-2.563476,-1.205444,1.0216201295261365
-0.23291,0.97583,0.187988,-0.778198,-2.403259,-1.38855,1.0207011047040166
-0.235107,0.97876,0.183594,-0.930786,-2.250671,-1.220703,1.0232073083618
-0.237305,0.979004,0.185059,-0.923157,-1.907349,-1.083374,1.0242115643371734
-0.240723,0.980469,0.183105,-0.88501,-1.182556,-0.740051,1.026057729231158
-0.238037,0.976563,0.186523,-0.671387,-0.289917,-0.305176,1.0223148907587134
-0.230225,0.974609,0.189209,-0.556946,0.38147,-0.350952,1.0191497923205401
-0.223389,0.976318,0.187012,-0.793457,0.411987,-0.335693,1.018858660751824
-0.22583,0.976807,0.185791,-0.518799,0.1297,-0.556946,1.0196417997659766
-0.226807,0.978027,0.186279,-0.488281,-0.045776,-0.862122,1.0211161020270907
-0.227051,0.981201,0.189453,-0.297546,-0.244141,-0.907898,1.0247926610836946
-0.226318,0.981689,0.188477,-0.137329,-0.709534,-0.701904,1.0249179037240008
-0.229248,0.980957,0.190674,-0.244141,-0.984192,-0.488281,1.025274526958024
-0.227051,0.981689,0.191162,-0.114441,-0.976562,-0.785828,1.0255770861159097
-0.220703,0.982178,0.194336,-0.038147,-0.961304,-0.991821,1.0252560259705865
-0.22168,0.983887,0.188721,-0.236511,-1.045227,-0.62561,1.0260561714691843
-0.222412,0.983154,0.189697,0.244141,-0.946045,-0.686645,1.025691882228284
-0.219482,0.976807,0.190674,0.640869,-0.87738,-1.037598,1.019156925036081
-0.218262,0.973389,0.193848,0.648498,-1.152039,-0.953674,1.0162192150658242
-0.219482,0.974854,0.192871,0.526428,-1.747131,-0.816345,1.0176993132949437
-0.221924,0.973389,0.193115,0.442505,-2.182007,-1.014709,1.0168725634621085
-0.222412,0.970459,0.193604,0.488281,-2.357483,-1.365662,1.0142683457749235
-0.224121,0.973877,0.19458,0.457764,-2.410889,-1.495361,1.0181001965278271
-0.223633,0.976318,0.196289,0.305176,-2.525329,-1.457214,1.020655636017359
-0.222168,0.974854,0.201904,0.411987,-3.005981,-1.602173,1.0200314538071853
-0.223389,0.975098,0.205811,0.526428,-3.479004,-1.708984,1.0213113739922806
-0.229004,0.968994,0.207031,0.740051,-3.974914,-1.754761,1.016982811562221
-0.235596,0.967285,0.210205,0.617981,-4.28009,-2.052307,1.0175125986767928
-0.234131,0.971436,0.212646,-0.297546,-4.226685,-2.243042,1.0216278914423782
-0.239014,0.972412,0.207031,-0.991821,-3.860473,-1.754761,1.022533434612776
-0.243408,0.976563,0.206543,-1.25885,-3.280639,-1.419067,1.027415572337698
-0.238281,0.973145,0.20752,-0.961304,-2.418518,-1.419067,1.0231586271864201
-0.236816,0.964844,0.205322,-0.663757,-1.495361,-1.548767,1.014476656151338
-0.234375,0.963867,0.204102,-0.892639,-1.022339,-1.480102,1.0127333611163405
-0.235107,0.963623,0.206543,-1.182556,-0.648498,-1.098633,1.0131656322768752
-0.229248,0.961182,0.20874,-1.487732,-0.038147,-0.747681,1.0099494394414008
-0.223633,0.965576,0.209229,-2.189636,0.541687,-0.091553,1.0129785313154471
-0.222168,0.97168,0.205811,-2.76947,0.793457,0.411987,1.01778131754567
-0.222656,0.978516,0.206055,-2.89917,1.075745,0.610352,1.0244646990584887
-0.223145,0.979248,0.204102,-2.746582,1.457214,0.694275,1.024879487029085
-0.219971,0.983398,0.200684,-2.609253,1.831055,1.029968,1.0274886544877273
-0.220703,0.983643,0.19751,-2.502441,1.976013,1.571655,1.0272650903043479
-0.220459,0.981689,0.197998,-1.968384,2.120972,1.678467,1.0254358446075502
-0.217773,0.976807,0.207275,-1.358032,2.27356,1.693725,1.0220273579523202
-0.217773,0.974365,0.210449,-1.235962,2.540588,2.14386,1.0203435766226003
-0.214111,0.97583,0.209473,-1.312256,2.418518,2.662658,1.0207676753061883
-0.211914,0.981934,0.208496,-1.373291,2.39563,2.830505,1.0259495629747106
-0.211914,0.982178,0.209229,-1.068115,2.39563,2.784729,1.026332276371059
-0.207275,0.981934,0.207764,-0.747681,2.365112,2.708435,1.0248527629259727
-0.202148,0.981689,0.203613,-0.061035,1.823425,2.540588,1.0227587009622554
-0.20166,0.98584,0.205322,0.411987,1.068115,2.281189,1.0269880159398161
-0.200195,0.986572,0.207031,0.907898,-0.183105,2.197266,1.027747140190621
-0.203125,0.981445,0.208496,1.716614,-1.098633,2.082825,1.02370143873397
-0.204834,0.976074,0.210938,1.686096,-1.525879,1.472473,1.0193979894408267
-0.199219,0.97998,0.212402,1.365662,-2.166748,1.480102,1.0223324410215104
-0.201904,0.982178,0.212402,0.892639,-3.074646,1.678467,1.024965101115155
-0.205322,0.984131,0.210205,0.938415,-4.020691,1.289368,1.0270623597766593
-0.205811,0.983643,0.207275,1.617432,-5.027771,0.419617,1.0260968008891755
-0.205322,0.978516,0.207764,2.113342,-6.881713,-0.50354,1.021183903925243
-0.21167,0.973389,0.211182,2.281189,-9.010315,-1.365662,1.0182770602075841
-0.223633,0.972412,0.21167,2.128601,-10.971068,-2.27356,1.0200004928101751
-0.230957,0.972656,0.209961,1.716614,-12.039184,-2.929687,1.0215108671502227
-0.238525,0.977783,0.20874,1.296997,-12.08496,-3.211975,1.027874582969148
-0.240479,0.97583,0.206787,1.464844,-11.596679,-3.135681,1.0260775807462124
-0.240234,0.970703,0.203369,1.838684,-11.253356,-3.211975,1.0204585435606877
-0.237305,0.967529,0.200439,2.044678,-10.902404,-3.593445,1.0161701735373854
-0.240723,0.967285,0.196777,1.739502,-10.360717,-3.936767,1.0160260930128713
-0.247559,0.971924,0.196533,1.525879,-9.674072,-4.180908,1.0220307922690002
-0.247314,0.973633,0.19873,1.533508,-8.621216,-3.944397,1.0240210184293095
-0.246826,0.972412,0.196289,1.953125,-6.965637,-3.555298,1.0222707779942652
-0.23877,0.970459,0.193604,1.876831,-5.279541,-3.318786,1.0179804970612158
-0.234619,0.970459,0.19165,1.434326,-3.837585,-2.952575,1.016644710969373
-0.231445,0.974121,0.188965,1.091003,-2.471924,-2.708435,1.0189142662123247
-0.225342,0.977783,0.185791,0.907898,-1.625061,-2.426147,1.0204689646108793
-0.221191,0.979736,0.1875,0.854492,-1.266479,-2.197266,1.0217457306869455
-0.21875,0.981201,0.193848,0.793457,-0.900268,-1.754761,1.0238085817207239
-0.216797,0.984619,0.196045,0.816345,-0.793457,-1.312256,1.027087706281698
-0.214844,0.985107,0.199463,1.197815,-0.915527,-1.106262,1.0278031105975503
-0.215332,0.984619,0.20459,1.777649,-1.213074,-1.312256,1.028445192261114
-0.211182,0.980225,0.203125,2.281189,-1.51062,-1.548767,1.023082916177374
-0.212402,0.973145,0.203613,2.403259,-1.747131,-1.243591,1.016653359999366
-0.210938,0.969727,0.203613,2.304077,-2.090454,-1.350403,1.0130762795278547
-0.202393,0.97168,0.205811,1.953125,-2.868652,-1.434326,1.0136484186195922
-0.200928,0.975342,0.214111,1.655578,-4.02832,-1.174927,1.0185811693080724
-0.205322,0.978027,0.216309,1.724243,-5.325317,-1.312256,1.0224888849733282
-0.209961,0.975098,0.217529,2.342224,-6.736755,-1.953125,1.0208910798738522
-0.210449,0.969482,0.214355,2.456665,-7.949829,-2.571106,1.0149542826896194
-0.211426,0.970947,0.210693,2.120972,-9.246826,-2.784729,1.0157906135291859
-0.212158,0.970459,0.207764,1.625061,-10.45227,-2.807617,1.014873177959197
-0.212891,0.97168,0.202393,1.396179,-11.497497,-2.944946,1.0151096131600763
-0.217285,0.973145,0.199463,1.25885,-12.33673,-3.089905,1.0168625524715718
-0.223389,0.976563,0.19751,1.441955,-12.96997,-3.280639,1.021072053476149
-0.229004,0.97876,0.200439,1.586914,-13.031005,-3.265381,1.0249828107519656
-0.238525,0.97876,0.202881,1.945495,-12.557982,-2.975464,1.0276312633362221
-0.23999,0.977783,0.203857,2.006531,-11.634826,-2.578735,1.027235353576774
-0.241211,0.978271,0.203125,1.670837,-10.276793,-2.113342,1.0278407763788124
-0.238037,0.97876,0.203613,1.579285,-8.903503,-1.655578,1.0276628847720444
-0.236084,0.977539,0.196777,1.808166,-7.781982,-1.533508,1.024714272031965
-0.230225,0.97583,0.192627,1.907349,-6.942749,-1.724243,1.020956855432197
-0.22876,0.974854,0.193359,1.930237,-6.385803,-1.556396,1.0198329087634894
-0.227539,0.975098,0.195068,1.846313,-6.134033,-1.068115,1.0201184395691512
-0.225342,0.979248,0.196777,1.686096,-5.966186,-0.648498,1.0239271703578334
-0.225098,0.97998,0.202881,1.76239,-5.66101,-0.50354,1.025763427972064
-0.223145,0.976563,0.205566,2.151489,-5.348205,-0.137329,1.0226076297143494
-0.224121,0.976074,0.203369,2.174377,-5.1651,-0.083923,1.0219146863990163
-0.224854,0.977295,0.201416,2.098083,-5.104064,-0.152588,1.022855436216184
-0.224609,0.979492,0.197998,2.02179,-5.203247,-0.160217,1.0242348309587015
-0.223877,0.984863,0.200195,1.747131,-5.310058,-0.144958,1.0296378382339104
-0.222412,0.984619,0.200928,1.708984,-5.584716,-0.137329,1.0292296799495242
-0.21875,0.986572,0.202148,2.044678,-6.309509,-0.167847,1.0305530978984052
-0.220947,0.986328,0.206055,2.464294,-6.988525,-0.114441,1.0315615170303707
-0.221924,0.984863,0.211426,3.120422,-7.614135,-0.312805,1.0314583578705445
-0.224854,0.980713,0.214355,3.555298,-8.003235,-0.709534,1.0287397026021694
-0.226318,0.978271,0.215332,3.761291,-7.843017,-0.87738,1.026938097836963
-0.22583,0.974609,0.213867,3.738403,-7.347106,-0.75531,1.0230351829091706
-0.219971,0.9729,0.213135,3.570556,-6.942749,-0.816345,1.0199745972650496
-0.21582,0.975342,0.208496,3.082275,-6.935119,-0.75531,1.0204611072353518
-0.211182,0.97876,0.205078,2.845764,-7.652282,-0.63324,1.0220694500903547
-0.208496,0.979004,0.203125,2.777099,-8.728027,-0.419617,1.021361434388924
-0.20752,0.979248,0.20874,2.777099,-9.750366,-0.297546,1.022528035558928
-0.208984,0.974854,0.208496,2.815246,-10.421752,-0.259399,1.0185701819648953
-0.209961,0.97168,0.20752,2.662658,-10.772704,-0.1297,1.0155344377819
-0.213135,0.973145,0.202393,2.113342,-11.062621,-0.076294,1.016563153817312
-0.216309,0.977051,0.195557,1.693725,-11.039733,-0.076294,1.0196375730282796
-0.219727,0.981689,0.189941,1.785278,-10.902404,-0.038147,1.0237533056019892
-0.220947,0.981934,0.187988,2.182007,-10.604857,-0.038147,1.0238903482839359
-0.221191,0.980469,0.186035,2.281189,-10.162353,-0.190735,1.0221809720724604
-0.222656,0.977539,0.187012,2.281189,-9.69696,-0.343323,1.0198684616169873
-0.227295,0.978516,0.184814,1.89209,-9.025574,-0.411987,1.0214268421561086
-0.230469,0.979736,0.186035,1.686096,-8.026123,-0.37384,1.0235270445288684
-0.22998,0.979736,0.193115,1.785278,-6.370544,-0.244141,1.024727687398462
-0.230957,0.979736,0.200684,1.846313,-4.806519,0.144958,1.026400425468053
-0.228271,0.978516,0.203369,1.770019,-3.700256,0.87738,1.0251634805522485
-0.229248,0.975098,0.201904,1.953125,-2.883911,1.358032,1.0218297217853862
-0.227783,0.969238,0.200439,1.953125,-2.227783,1.304626,1.015619608147657
-0.224854,0.968506,0.200928,1.167297,-1.770019,1.564026,1.0143644584349354
-0.22583,0.970703,0.202637,0.686645,-1.411438,1.876831,1.0170178252508655
-0.22583,0.973877,0.198975,0.663757,-1.083374,1.953125,1.0193265672266176
-0.225342,0.973145,0.197266,0.854492,-1.12915,1.502991,1.0181866639987975
-0.223389,0.973145,0.193848,0.854492,-1.251221,1.12915,1.0170992495572888
-0.223633,0.975586,0.193359,0.976562,-1.63269,0.62561,1.019395637113481
-0.224854,0.975342,0.196045,1.213074,-2.029419,-0.328064,1.0199436162381723
-0.221436,0.976074,0.198975,1.205444,-2.288818,-0.801086,1.0204633291779768
-0.220215,0.973633,0.202881,1.281738,-2.26593,-0.778198,1.0186346573109517
-0.220947,0.972656,0.205566,1.434326,-2.098083,-0.747681,1.0183980810572062
-0.216309,0.974609,0.203613,1.281738,-1.579285,-0.801086,1.0188770976575143
-0.212891,0.981201,0.199219,1.495361,-1.083374,-0.984192,1.0236045087058772
-0.209717,0.984375,0.194092,1.960754,-1.251221,-1.037598,1.0250107634449503
-0.207031,0.97876,0.192871,2.464294,-1.693725,-1.350403,1.0188386502297604
-0.199219,0.974365,0.194336,2.571106,-2.311707,-1.76239,1.0133320502589465
-0.197754,0.975586,0.196045,2.159119,-2.975464,-1.670837,1.0145483379006641
-0.199707,0.975342,0.202881,1.937866,-3.585815,-1.533508,1.016039173936714
-0.199707,0.976074,0.203857,1.876831,-3.883362,-1.541138,1.0169370756216924
-0.201904,0.980469,0.201904,1.876831,-3.990173,-1.449585,1.0212002303138206
-0.202881,0.983643,0.203125,1.831055,-4.005432,-1.38092,1.0246823982263968
-0.202881,0.987549,0.197266,1.76239,-4.295349,-1.197815,1.0272913911437203
-0.203125,0.98877,0.19458,1.983642,-4.78363,-0.976562,1.0280015831335088
-0.207275,0.987305,0.194336,2.26593,-5.081176,-0.968933,1.0273755737538244
-0.205322,0.986328,0.192627,2.296448,-5.325317,-0.869751,1.0257217987334577
-0.20752,0.988281,0.19043,2.26593,-5.477905,-0.610352,1.0276319721870275
-0.212402,0.98999,0.192383,2.372742,-5.363464,-0.648498,1.0306337993647403
-0.217285,0.990967,0.190918,2.632141,-5.203247,-0.648498,1.0323168355877956
-0.220215,0.989502,0.192139,2.952575,-4.631042,-0.473022,1.031758813652687
-0.218506,0.988037,0.189453,3.341675,-3.799438,-0.396728,1.0294923140140486
-0.217285,0.985596,0.186279,3.295898,-3.204345,-0.274658,1.0263099494217136
-0.212891,0.986816,0.18457,3.082275,-2.89917,-0.1297,1.0262526397710265
-0.211182,0.986084,0.18335,2.883911,-2.6474,0.068665,1.0249764459147341
-0.209961,0.986816,0.184082,2.922058,-2.494812,0.343323,1.0255611254825332
-0.206055,0.983887,0.182861,3.097534,-2.258301,0.427246,1.0217291407780242
-0.202637,0.981689,0.179932,3.181457,-2.227783,0.419617,1.0184058970341836
-0.201904,0.981689,0.18042,3.349304,-2.487183,0.289917,1.0183466474324938
-0.205322,0.983154,0.178467,3.417969,-3.013611,-0.022888,1.0200977313419533
-0.20459,0.985107,0.178711,3.410339,-3.341675,-0.106812,1.021875966578136
-0.206299,0.987549,0.181396,3.417969,-3.540039,0.015259,1.0250447861522929
-0.210938,0.987061,0.179688,3.684997,-3.89862,-0.282288,1.0252180426177642
-0.209229,0.984619,0.178955,3.921509,-4.493713,-0.564575,1.0223875202813266
-0.210205,0.980957,0.181152,3.890991,-5.111694,-0.457764,1.0194502562548111
-0.211426,0.97583,0.18457,3.868103,-5.363464,-0.511169,1.0153872302112135
-0.211182,0.973389,0.189453,3.585815,-5.340576,-0.411987,1.0138917208725988
-0.212402,0.975586,0.194824,2.861023,-5.172729,-0.022888,1.017270388822952
-0.213623,0.980225,0.194336,2.342224,-5.096435,0.427246,1.0218817532620887
-0.215088,0.980957,0.190918,2.616882,-4.959106,0.228882,1.022247116071745
-0.21875,0.977783,0.191406,2.967834,-4.623413,-0.175476,1.0200722594135183
-0.218994,0.969238,0.187256,2.792358,-4.470825,-0.518799,1.0111604631392586
-0.216553,0.966309,0.187012,2.311707,-4.463196,-0.595093,1.0077806177110173
-0.216797,0.966553,0.186768,1.480102,-4.272461,-0.488281,1.0080217888726413
-0.216064,0.970215,0.185303,0.930786,-4.020691,-0.221252,1.011107313854469
-0.2146,0.97583,0.185303,0.793457,-3.723144,0.0,1.0161862775638135
-0.216553,0.977783,0.182617,0.671387,-3.425598,0.389099,1.01799006163469
-0.21167,0.97876,0.182373,0.892639,-3.295898,0.465393,1.0178581618423068
-0.210938,0.973633,0.183838,1.13678,-3.189087,0.350952,1.0130411979663019
-0.213867,0.974365,0.18335,0.732422,-3.219604,0.434875,1.0142699194070581
-0.214111,0.972412,0.181885,0.457764,-3.097534,0.244141,1.0121811948905197
-0.212158,0.973633,0.180176,0.228882,-2.883911,0.068665,1.0126379543691812
-0.212158,0.9729,0.179443,0.099182,-2.586365,-0.076294,1.0118029537479123
-0.212158,0.973877,0.18042,-0.030518,-2.349854,-0.083923,1.0129159908368512
-0.211182,0.973145,0.177734,-0.175476,-2.220154,0.007629,1.0115326998693617
-0.209717,0.973877,0.18042,-0.190735,-1.770019,-0.045776,1.0124075304036413
-0.209961,0.972168,0.184326,-0.465393,-1.678467,-0.068665,1.0115188164443605
-0.208008,0.971191,0.181641,-0.656128,-1.747131,-0.152588,1.0096894272131407
-0.212158,0.970459,0.179688,-0.87738,-2.029419,-0.389099,1.0094996111881371
-0.20874,0.971924,0.178467,-1.25885,-2.403259,-0.610352,1.0099797619086235
-0.210205,0.970215,0.177734,-1.88446,-2.761841,-0.572205,1.0085101204281492
-0.214111,0.970459,0.174805,-2.357483,-3.341675,-0.259399,1.0090544975505535
-0.216797,0.970947,0.172119,-2.655029,-4.081726,-0.434875,1.0096355610709242
-0.222656,0.970459,0.171387,-2.723694,-4.844666,-1.235962,1.0103167170674747
-0.231934,0.969971,0.165771,-2.731323,-5.187988,-2.044678,1.0109980937855423
-0.240723,0.96875,0.163818,-2.975464,-4.974365,-2.960205,1.0115633753517375
-0.249268,0.968506,0.163574,-3.196716,-3.784179,-3.494262,1.0133582097836875
-0.252197,0.967773,0.163818,-3.372192,-2.166748,-3.913879,1.0134220460706387
-0.255615,0.965576,0.166748,-3.448486,-0.854492,-3.746032,1.0126603258274711
-0.255859,0.966309,0.172607,-3.425598,-0.053406,-3.448486,1.0144013445431743
-0.261719,0.967285,0.178467,-3.341675,0.495911,-3.158569,1.017834749001526
-0.266357,0.969238,0.181396,-3.166198,1.533508,-3.044128,1.0214072943292505
-0.26416,0.97168,0.186035,-3.02124,3.181457,-3.387451,1.023988061075421
-0.261963,0.976563,0.186768,-2.487183,4.53949,-4.043579,1.0281936549901483
-0.259033,0.977295,0.187744,-1.937866,5.249023,-4.936218,1.0283245701868649
-0.254395,0.980713,0.190186,-1.502991,5.813598,-6.141662,1.0308663924049517
-0.25,0.980469,0.191406,-0.991821,6.385803,-7.232666,1.0297843059578058
-0.246338,0.979248,0.195068,-0.37384,6.965637,-7.942199,1.0284262639450628
-0.23584,0.978027,0.193604,-0.37384,7.392883,-8.178711,1.0245193151644336
-0.232422,0.981689,0.196289,-0.50354,7.8125,-8.041382,1.0277463939737272
-0.226074,0.980225,0.195068,-0.175476,8.216858,-8.018494,1.0246960665119194
-0.218506,0.973877,0.194824,0.312805,8.239746,-8.026123,1.0169255991177526
-0.212158,0.974609,0.193115,0.518799,8.003235,-8.125305,1.0159562604118348
-0.203125,0.9729,0.194824,0.846863,7.209777,-8.19397,1.0127934471554403
-0.197998,0.975098,0.199219,0.869751,5.973815,-8.377075,1.0147450554543245
-0.19751,0.979004,0.205322,0.556946,4.577637,-8.232117,1.0196156902480462
-0.196289,0.97583,0.209473,0.389099,3.410339,-7.591247,1.0171786952890824
-0.198242,0.974365,0.210449,-0.038147,2.716064,-6.996154,1.0163541830434901
-0.197266,0.975098,0.209717,-0.488281,2.27356,-6.515502,1.0167158917067245
-0.202148,0.97168,0.210693,-0.854492,1.88446,-5.905151,1.0146020779364686
-0.202637,0.974609,0.205322,-1.411438,1.289368,-5.783081,1.0164062083310983
-0.20459,0.979492,0.201416,-1.434326,0.091553,-5.622863,1.0207007647787867
-0.205322,0.98291,0.199951,-1.274109,-1.419067,-5.226135,1.0238406097557373
-0.209961,0.979248,0.197021,-0.801086,-2.616882,-4.707336,1.020699535351124
-0.216309,0.978271,0.198242,-0.617981,-3.799438,-4.562378,1.0213244457497335
-0.217041,0.978516,0.200928,-0.617981,-5.218505,-4.333496,1.0222389246751467
-0.222656,0.980225,0.198975,-0.610352,-6.858825,-4.15802,1.0246988804453725
-0.232178,0.983643,0.193848,-0.244141,-8.758545,-4.379272,1.029095341665193
-0.239746,0.981445,0.191406,0.312805,-10.208129,-5.1651,1.0282746176858593
-0.244873,0.978271,0.193604,0.572205,-10.963439,-6.019592,1.0268687571379314
-0.250488,0.981934,0.192871,0.236511,-11.474608,-6.050109,1.0315705701215987
-0.255371,0.986084,0.193604,-0.37384,-12.062072,-5.92041,1.0368502840396003
-0.260742,0.986328,0.200195,-0.267029,-12.481688,-6.04248,1.0396669429067176
-0.266113,0.989746,0.203125,0.167847,-12.580871,-6.278991,1.0448315839933247
-0.269287,0.987305,0.205566,0.663757,-12.512206,-6.340026,1.043812258861717
-0.27832,0.986328,0.208496,1.243591,-11.802672,-6.744384,1.0458372378147567
-0.287842,0.980713,0.212646,1.686096,-9.963989,-7.041931,1.043968067830142
-0.289551,0.976318,0.216309,1.716614,-7.118225,-6.523132,1.0410697393575514
-0.286133,0.974854,0.214111,1.419067,-3.562927,-5.302429,1.038294724693331
-0.282471,0.973633,0.209717,1.106262,0.114441,-3.875732,1.0352450456867688
-0.270996,0.972656,0.202393,0.900268,3.356933,-2.883911,1.0297870910052231
-0.254883,0.971436,0.192871,0.816345,5.905151,-2.082825,1.0226692859502529
-0.22583,0.97998,0.1875,0.480652,6.980896,-1.373291,1.022993763079717
-0.19873,1.001709,0.189209,0.274658,5.439758,-0.450134,1.03861185207083
-0.188965,1.023926,0.19458,1.25885,1.38855,0.267029,1.0592419936449837
-0.18457,1.048096,0.200439,3.448486,-3.334045,0.068665,1.0829344868628943
-0.184082,1.061279,0.207275,6.484985,-7.888793,-0.679016,1.0968875166533714
-0.1875,1.060547,0.209229,9.979248,-12.08496,-2.174377,1.097129419735885
-0.189941,1.06958,0.218994,13.168334,-15.960692,-4.676819,1.108168458275636
-0.182373,1.083984,0.215332,15.373229,-18.844604,-5.905151,1.1201111969840316
-0.171143,1.12207,0.197266,16.609192,-20.431517,-5.485534,1.1520611468602697
-0.177246,1.161865,0.169189,19.485474,-20.835875,-4.318237,1.1874221407999768
-0.196045,1.202881,0.126709,24.856565,-19.317627,-3.738403,1.2253209836067447
-0.202637,1.238281,0.077637,33.538818,-15.846251,-4.203796,1.2571511812423357
-0.200684,1.245117,0.053955,44.723507,-11.108397,-4.379272,1.2623397140112484
-0.18457,1.229736,0.02832,56.968685,-6.034851,-5.40924,1.243832278482915
-0.157227,1.20752,-0.000488,68.534851,-0.396728,-7.141113,1.2177130688602302
-0.135986,1.188232,-0.011719,76.286316,4.135132,-8.850098,1.1960454895115822
-0.088623,1.175049,-0.024902,82.420341,2.548218,-12.985229,1.178649353342206
-0.026123,1.156006,-0.012939,88.439934,-6.996154,-17.913818,1.1563735127051296
0.035889,1.110596,0.014893,93.635551,-27.786253,-22.720335,1.1112755270345873
0.081543,1.064453,0.038818,95.184319,-58.013912,-28.587339,1.0682772520193435
0.103271,1.033203,0.022949,91.110222,-90.873711,-34.408569,1.0386048311321299
0.108398,1.013184,-0.008789,83.648674,-121.864311,-38.909912,1.0190040190210243
0.110107,0.994629,-0.024658,77.171326,-147.155762,-43.106075,1.0010086992898712
0.104004,0.980713,-0.021484,73.303223,-163.185104,-46.165462,0.986446340477271
0.078857,0.954346,-0.003662,71.44165,-171.989426,-44.326778,0.9576054116435433
0.058105,0.924561,-0.003174,71.960449,-175.743088,-40.695187,0.9263904727608115
0.042969,0.905518,-0.009521,73.71521,-174.163803,-33.592224,0.9065869140496128
-0.001221,0.898682,-0.027832,74.951172,-165.695175,-22.674559,0.899113701479963
-0.025635,0.904785,-0.068115,76.278687,-154.571533,-12.939452,0.9077073882452428
-0.042236,0.901367,-0.090576,79.658508,-141.471863,-4.333496,0.9068904896187853
-0.068848,0.878906,-0.083984,82.992546,-128.074646,1.899719,0.8855896996894216
-0.060303,0.847168,-0.084961,84.877007,-122.337334,4.516602,0.8535504926798414
-0.041504,0.829834,-0.079346,83.389275,-125.877373,5.28717,0.8346513267754385
-0.064941,0.833984,-0.081787,80.032349,-133.262634,5.516052,0.8404973284347784
-0.087891,0.837891,-0.071533,77.682495,-141.235352,4.669189,0.8455194414388117
-0.104736,0.837891,-0.047607,76.86615,-149.436951,2.357483,0.8457525548445006
-0.140381,0.831055,-0.027832,75.996399,-156.356812,-0.465393,0.843287530092791
-0.172852,0.82251,-0.017578,75.180054,-160.926804,-3.295898,0.8406601573097181
-0.196533,0.815186,-0.011963,73.913574,-162.879929,-5.729675,0.8386277768199668
-0.216553,0.820557,-0.026367,70.991516,-163.154587,-6.896972,0.8490607815386363
-0.229004,0.844971,-0.04541,67.153931,-161.575302,-5.577087,0.8766304186810996
-0.238525,0.87085,-0.035156,65.048218,-157.920837,-2.14386,0.9036093417295995
-0.250488,0.877441,-0.038086,65.116882,-152.770996,1.518249,0.9132893791241635
-0.253174,0.874512,-0.061523,66.123962,-145.9198,4.890442,0.9124984339433136
-0.248779,0.874756,-0.066895,65.872192,-137.901306,8.621216,0.9119013057354398
-0.246826,0.874512,-0.044434,64.300537,-130.058289,12.680053,0.9097629871433548
-0.249268,0.858887,-0.025879,63.056942,-123.619072,16.563416,0.894701702934559
-0.254395,0.841064,-0.033203,61.706539,-118.865959,19.744873,0.8793224137539086
-0.256104,0.841553,-0.016846,58.158871,-114.387505,22.880552,0.8798207194315215
-0.262451,0.843994,-0.009521,53.787228,-110.03875,25.794981,0.8839100909470375
-0.260742,0.840576,-0.019287,51.025387,-105.766289,28.190611,0.8802990348222586
-0.261475,0.827881,-0.02417,49.079891,-100.738518,29.914854,0.8685276706507398
-0.259277,0.813232,-0.030029,46.249386,-94.924919,31.028746,0.8540916750525086
-0.252197,0.797363,-0.041504,42.465206,-88.897697,31.028746,0.8373253027312624
-0.244873,0.786621,-0.053711,37.376404,-83.290092,30.761717,0.8256029646815713
-0.236572,0.779053,-0.068359,31.875608,-78.613281,30.326841,0.8170451890036438
-0.226318,0.78125,-0.081055,25.878904,-76.11084,29.08325,0.8173991146612528
-0.221924,0.780273,-0.081055,19.859314,-76.309204,27.313231,0.8152583206137795
-0.21875,0.772949,-0.072021,14.85443,-78.910828,25.085447,0.8065288237515136
-0.217773,0.763672,-0.061279,10.307311,-83.206169,22.674559,0.7964766907788325
-0.217285,0.764893,-0.056885,4.585266,-88.333122,20.622252,0.7971887956431651
-0.224121,0.780762,-0.052246,-2.082825,-93.200676,19.508362,0.8139712327846728
-0.240723,0.807373,-0.053467,-9.32312,-96.794121,19.371033,0.8441904074004869
-0.255615,0.840576,-0.066895,-16.487122,-98.747246,19.500732,0.8811254059587659
-0.262451,0.89209,-0.084229,-21.163939,-103.691093,16.998291,0.9337021044969323
-0.248291,0.948975,-0.126709,-21.949766,-120.674126,8.255005,0.9890688257077968
-0.23999,1.009766,-0.196777,-18.676758,-151.222229,-4.837036,1.0563823941097275
-0.299805,1.105469,-0.294678,-10.650634,-189.475998,-22.804258,1.1827002459076432
-0.320313,1.249023,-0.45459,-3.181457,-236.274704,-47.088619,1.3672274648345826
-0.248779,1.375488,-0.599365,-5.065917,-249.992355,-73.722839,1.5208867913852102
-0.34082,1.380127,-0.349365,-36.056519,-249.946579,-104.003899,1.4638868507347145
-0.655762,1.500977,-0.179443,-62.110897,-249.610886,-127.944939,1.6477729046874148
-0.937744,1.596191,-0.086182,-9.475708,-249.992355,-113.807671,1.8532719323242879
-1.093262,1.500488,0.156494,70.152283,-249.992355,-71.563721,1.8631093394709823
-0.996338,1.430664,0.229248,100.296013,-236.007675,-30.906675,1.7584207507431207
-0.790283,1.395264,0.231201,95.733635,-148.735046,4.798889,1.6201119566826239
-0.7146,1.365967,0.259521,80.688469,-56.343075,38.772583,1.5632882506211065
-0.692383,1.356201,0.278076,64.956665,7.308959,68.489075,1.547902333116014
-0.642578,1.375732,0.267578,56.716915,59.165951,91.651909,1.54179862757495
-0.628906,1.38501,0.233887,56.381222,104.583733,109.489433,1.538986220115372
-0.64209,1.355225,0.203369,57.754513,142.044067,115.821831,1.5133648994495676
-0.610352,1.29834,0.184326,55.458065,171.257004,115.020744,1.4464412859774156
-0.547607,1.229492,0.158203,48.698421,194.511398,114.845268,1.3551945224660555
-0.490967,1.161865,0.133301,39.169312,211.410507,115.753166,1.2683643127725566
-0.434082,1.110596,0.113037,28.564451,221.252426,115.051262,1.1977595841023356
-0.366699,1.073975,0.087402,18.287659,222.549423,111.274712,1.1382133221984356
-0.308594,1.047607,0.064697,9.353638,215.888962,105.400078,1.0940275979581136
-0.259766,1.029053,0.041992,3.288269,201.820358,96.839897,1.0621637254345488
-0.216064,1.000488,0.024414,-0.541687,179.252609,83.312981,1.0238437056680088
-0.187012,0.970215,0.018311,-3.692627,149.887085,68.229675,0.9882438601327104
-0.172363,0.936035,0.018311,-5.485534,116.004936,54.710384,0.9519484322771901
-0.17334,0.908936,0.022949,-5.783081,79.88739,41.275021,0.925601460833441
-0.184082,0.892578,0.031982,-6.736755,43.861385,27.519224,0.9119235259230897
-0.209473,0.880371,0.036377,-8.346558,10.627746,15.251159,0.9056794805553453
