ax,ay,az,gx,gy,gz,acc_mag
0.141846,1.009766,-0.151611,-0.747681,-4.905701,-0.488281,1.0308896923497683
0.143066,1.009277,-0.151855,-0.762939,-4.547119,-0.480652,1.0306152939433801
0.146973,1.006592,-0.151611,-0.663757,-4.226685,-0.579834,1.0285010512945525
0.145264,1.008789,-0.146973,-0.640869,-4.066467,-0.457764,1.029736829945399
0.14502,1.01416,-0.147461,-0.640869,-4.020691,-0.312805,1.035034324320213
0.14502,1.014404,-0.14624,-0.556946,-4.051208,-0.358582,1.0351001947715013
0.143066,1.012451,-0.148438,-0.488281,-4.226685,-0.221252,1.0332273455542107
0.140869,1.010498,-0.14917,-0.534058,-4.264832,-0.099182,1.0311168566486535
0.140625,1.010498,-0.149902,-0.457764,-4.226685,-0.022888,1.0311897052594152
0.140137,1.006836,-0.149902,-0.343323,-4.142761,-0.091553,1.0275347776445332
0.138428,1.006104,-0.151855,-0.343323,-3.952026,-0.1297,1.0268726849152237
0.135986,1.008301,-0.151123,-0.236511,-3.570556,-0.213623,1.0285918821019344
0.137451,1.003906,-0.150635,-0.114441,-3.005981,-0.480652,1.0244076031843965
0.137939,1.004883,-0.149902,0.083923,-2.26593,-0.747681,1.0253231788143677
0.140137,1.006104,-0.149414,0.022888,-1.518249,-0.961304,1.0267464053898607
0.141602,1.006348,-0.149414,0.183105,-0.87738,-1.029968,1.0271864323987152
0.143311,1.00415,-0.150635,0.282288,-0.526428,-1.00708,1.025449252009089
0.146729,1.00415,-0.149414,0.37384,-0.564575,-0.87738,1.0257539497057762
0.143555,1.002441,-0.150879,0.526428,-0.663757,-0.793457,1.0238459206086625
0.145752,1.003418,-0.148438,0.610352,-0.801086,-0.724792,1.0247561505411908
0.147949,1.006104,-0.146729,0.595093,-0.869751,-0.724792,1.0274548967511907
0.147705,1.005859,-0.145996,0.411987,-0.915527,-0.869751,1.0270754241641653
0.144531,1.009277,-0.14502,0.175476,-0.915527,-0.976562,1.029834973716663
0.142578,1.010254,-0.14917,0.167847,-0.732422,-1.060486,1.0311126609153822
0.142822,1.006836,-0.153564,0.221252,-0.442505,-1.029968,1.0284448243226274
0.144043,1.008057,-0.150635,0.183105,-0.007629,-1.037598,1.0293775810279724
0.148193,1.01001,-0.149658,0.198364,0.366211,-1.052856,1.0317358587899328
0.148193,1.009277,-0.152344,0.152588,0.434875,-1.029968,1.0314116163365623
0.148193,1.005859,-0.153076,0.030518,0.297546,-0.846863,1.0281759357746125
0.147217,1.003906,-0.154053,-0.007629,0.198364,-0.671387,1.0262711282765387
0.14502,1.003418,-0.155273,0.045776,0.083923,-0.671387,1.02566475402687
0.145508,1.003174,-0.156738,-0.022888,-0.144958,-0.534058,1.0257180182603796
0.143555,1.003906,-0.158936,0.030518,-0.411987,-0.526428,1.026496929833207
0.140137,1.00293,-0.158936,-0.083923,-0.595093,-0.50354,1.0250695663051363
0.140137,1.003418,-0.1604,-0.1297,-0.50354,-0.656128,1.02577493705637
0.142334,1.006104,-0.161377,0.0,-0.297546,-0.869751,1.0288570175204135
0.14209,1.009277,-0.165039,-0.022888,-0.320435,-1.098633,1.0325054490655243
0.143555,1.010254,-0.164063,0.144958,-0.38147,-1.38855,1.0335075473889874
0.142578,1.009766,-0.160156,0.267029,-0.343323,-1.449585,1.032281843866296
0.145508,1.00708,-0.158203,0.343323,-0.228882,-1.365662,1.0297625423722694
0.147705,1.007324,-0.159668,0.450134,-0.152588,-1.106262,1.030539799437654
0.147217,1.004639,-0.156982,0.556946,-0.045776,-0.831604,1.0274316102466383
0.146484,1.004639,-0.155518,0.579834,-0.076294,-0.556946,1.0271041480302765
0.144043,1.001465,-0.155029,0.534058,-0.328064,-0.328064,1.0235792704597921
0.144531,1.001953,-0.155518,0.595093,-0.556946,-0.213623,1.0241996253143233
0.14502,1.001953,-0.154297,0.480652,-0.526428,-0.205994,1.0240840682375643
0.14209,1.001953,-0.153076,0.656128,-0.335693,-0.205994,1.02348993355333
0.143311,0.999268,-0.153809,0.556946,-0.007629,-0.396728,1.0211423931195884
0.14624,0.999268,-0.150635,0.465393,0.083923,-0.62561,1.0210845100426311
0.143555,0.999268,-0.155273,0.465393,0.099182,-0.87738,1.0213981977554103
0.138428,1.001465,-0.166992,0.541687,0.38147,-0.946045,1.024685700823916
0.114014,1.00415,-0.196289,0.839233,1.716614,-0.930786,1.0294881185409572
0.056152,1.010254,-0.229004,2.63977,6.66809,-0.663757,1.0374049467956088
0.01416,1.012451,-0.25,6.774902,17.26532,-0.846863,1.0429561510442327
-0.007568,1.013672,-0.235352,12.46643,34.286499,-2.182007,1.0406626552884464
0.032715,1.014648,-0.195068,17.440796,52.688595,-3.662109,1.03374675803748
0.071777,1.014893,-0.188232,20.301817,68.107605,-4.432678,1.0346936865575243
0.072266,1.011963,-0.243652,21.598814,79.246521,-4.463196,1.0433876485894396
0.038818,1.020996,-0.290771,25.207518,91.659538,-2.861023,1.06230289634407
0.040771,1.028076,-0.281738,32.646179,109.53521,-0.75531,1.0667609089486734
0.08374,1.029785,-0.251953,39.375305,129.562378,0.701904,1.0634612583606418
0.143555,1.039795,-0.222656,43.411251,143.890381,2.998352,1.0730132219064217
0.199463,1.056152,-0.208252,46.211239,148.872375,6.469726,1.094811139410355
0.242432,1.070313,-0.236816,48.21014,144.180298,8.911133,1.1226865147711538
0.260986,1.089355,-0.332764,50.697323,132.30896,12.145995,1.1685631724117442
0.226807,1.116699,-0.4021,56.40411,119.728081,18.409729,1.2083635553301002
0.188965,1.138184,-0.389648,65.849304,116.096489,24.024961,1.2177832947552698
0.181641,1.151855,-0.363281,74.501038,124.832146,29.174803,1.2213666439145128
0.218994,1.160889,-0.371338,81.832878,139.686584,37.162781,1.2383511426897462
0.302002,1.164063,-0.364502,89.103691,151.733398,47.439571,1.2566262706059428
0.372803,1.151123,-0.345947,95.382683,155.525208,58.04443,1.2584695327051028
0.376953,1.144531,-0.365234,98.152153,152.709961,68.939209,1.2591428230848158
0.391357,1.153564,-0.378662,101.577751,150.039673,78.75824,1.275639100133341
0.444092,1.151367,-0.408691,106.346123,148.017883,86.898796,1.299958463426428
0.47998,1.144775,-0.443604,111.015312,143.39447,95.657341,1.3182090539216458
0.510742,1.131836,-0.446045,117.179863,136.901855,104.064934,1.3194189112958024
0.544189,1.109619,-0.435547,122.924797,129.966736,109.825127,1.3103805485777784
0.591064,1.089355,-0.426758,127.41851,123.992912,114.921562,1.3107911193950774
0.632324,1.066406,-0.431396,130.729675,119.178764,121.314995,1.3126910933757416
0.653076,1.039063,-0.443848,133.377075,115.95916,128.196716,1.305052193151293
0.662354,1.013428,-0.457275,135.955811,114.265434,134.750366,1.2941597884824734
0.675781,0.990723,-0.473389,138.298035,112.739555,140.617371,1.2893056922277977
0.710938,0.972412,-0.481445,140.953064,109.558098,145.7901,1.2972305984723764
0.764893,0.949219,-0.468018,143.920898,102.493279,150.382996,1.3058019986713147
0.820557,0.913574,-0.443115,145.973206,90.270988,154.945374,1.3054815766413557
0.849365,0.873291,-0.416016,146.41571,74.378967,159.973145,1.2872945996010394
0.869141,0.843262,-0.412842,145.507813,59.211727,163.970932,1.2794277609497928
0.876953,0.814453,-0.412109,145.065308,46.020504,167.419418,1.2657859539823468
0.888672,0.769531,-0.396729,144.813538,33.38623,170.66954,1.2406892370718785
0.871338,0.722656,-0.410156,143.417358,19.500732,173.538193,1.2040305431823561
0.834473,0.688477,-0.443604,142.654419,6.645202,175.178513,1.1692434631307544
0.80249,0.654297,-0.459229,143.814087,-2.990722,174.949631,1.1326897363135238
0.780518,0.605957,-0.450928,145.065308,-6.645202,173.645004,1.086152979721089
0.772461,0.564697,-0.415283,145.385742,-5.569458,173.713669,1.043090920494949
0.823242,0.534912,-0.348145,144.042969,-1.663208,174.697861,1.0416636594088324
0.844238,0.491699,-0.296387,140.159607,0.175476,176.567062,1.0209559055189406
0.840088,0.456543,-0.276855,134.017944,1.014709,178.970322,0.9954034607223343
0.84375,0.432861,-0.259521,128.387451,-0.015259,180.694565,0.983175394963686
0.847168,0.400879,-0.274902,122.665398,-4.959106,181.480392,0.9767132140341913
0.833252,0.376221,-0.313721,117.462151,-12.71057,181.411728,0.9665774682797029
0.796875,0.358643,-0.333984,114.532463,-20.271299,181.953415,0.9355104912987348
0.79248,0.322754,-0.325928,113.128654,-24.917601,180.915817,0.9156548236644636
0.820313,0.286621,-0.293945,111.160271,-22.918699,179.611191,0.917316018956935
0.804443,0.266846,-0.260254,107.223503,-17.89856,182.662949,0.8866044622496551
0.822266,0.24292,-0.243896,102.363579,-12.512206,183.868393,0.8914127887639935
0.833496,0.207275,-0.25,97.640984,-8.674622,182.601913,0.8945269742388992
0.782227,0.169678,-0.257568,92.51403,-8.827209,182.861313,0.8408394483116263
0.752197,0.133057,-0.238281,88.623039,-9.742737,181.411728,0.8001764349310719
0.756836,0.092041,-0.210205,85.266106,-10.406493,178.634628,0.7908592912787963
0.788086,0.051758,-0.187256,80.42907,-13.061522,177.490219,0.8116792737873746
0.778564,0.013672,-0.185303,75.233459,-18.196106,177.284225,0.8004286523413564
0.712891,-0.025879,-0.209717,70.404053,-22.323606,175.704941,0.743548600032977
0.658203,-0.064453,-0.219238,67.085266,-21.01898,172.729477,0.6967429074357342
0.620605,-0.108398,-0.225586,64.674377,-15.007018,169.54039,0.6691709316945857
0.624023,-0.147461,-0.249512,61.836239,-8.178711,165.916428,0.6880448308024704
0.616211,-0.183594,-0.259766,58.891293,-3.768921,162.86467,0.6934703512861959
0.606689,-0.227051,-0.249023,56.03027,-0.75531,159.393311,0.6940001108436511
0.586182,-0.26001,-0.225586,52.345272,2.822876,155.830383,0.6797820096324998
0.563232,-0.291016,-0.207275,48.095699,5.943298,152.572632,0.6669958948187011
0.55835,-0.311768,-0.188477,44.143673,8.460999,148.750305,0.666691523759677
0.51416,-0.339844,-0.187012,39.93988,8.094788,144.348145,0.6440713765414513
0.510986,-0.363525,-0.203369,35.331726,9.353638,137.145996,0.6592541755514333
0.526367,-0.381104,-0.19873,31.089781,16.12854,132.003784,0.6795558037460941
0.522217,-0.419434,-0.179199,25.871275,25.817869,130.203247,0.693359760186586
0.548584,-0.463623,-0.180664,19.767761,36.92627,126.380913,0.7406282279801385
0.565918,-0.494629,-0.177979,13.313293,46.913143,123.741142,0.7723972778344057
0.534668,-0.51416,-0.172607,7.164001,53.108212,122.207634,0.7615927732541847
0.493896,-0.524658,-0.191406,1.464844,57.487484,117.729179,0.745543783165013
0.493408,-0.52417,-0.196289,-2.677917,61.19537,112.30468,0.7461467783787584
0.502441,-0.537354,-0.179199,-6.057739,63.507076,108.406059,0.757171421408653
0.505371,-0.586182,-0.117188,-10.337829,66.474915,105.316154,0.7827785204698708
0.518311,-0.65625,-0.007324,-15.731811,74.043274,102.249138,0.8362798551902348
0.541992,-0.723145,0.078125,-22.5296,85.487358,99.220268,0.9070818787265017
0.567139,-0.749023,0.117432,-31.021116,96.733086,95.802299,0.9468222507281923
0.563232,-0.726074,0.145996,-40.580746,105.812065,92.575066,0.9304453618112135
0.549072,-0.688721,0.180908,-51.124569,116.127007,88.73748,0.8991909594124042
0.593018,-0.662842,0.2146,-63.148495,131.118774,84.922783,0.9149224149008484
0.657715,-0.646973,0.263672,-77.232361,148.239136,85.319511,0.9595238441737652
0.72583,-0.647949,0.348389,-92.567436,163.917526,87.295525,1.0334611704471532
0.767822,-0.699219,0.502197,-108.314507,175.285324,87.997429,1.1535422230911188
0.795898,-0.735352,0.654297,-128.738403,182.922348,86.914055,1.2658201904366195
0.813721,-0.707275,0.759033,-153.6026,185.211166,84.800713,1.3185260280157536
0.907959,-0.620605,0.790771,-181.274399,185.371384,81.726067,1.3545696313394155
1.043945,-0.499023,0.818604,-212.997421,189.300522,84.20562,1.4173770233674596
1.087402,-0.397461,0.81543,-245.246872,197.494492,95.069878,1.4161018469817064
1.128906,-0.359375,0.826416,-249.992355,209.175095,104.072563,1.4444869513142027
1.174805,-0.328857,0.842773,-249.725327,220.878586,111.610405,1.482760953088191
1.172363,-0.220947,0.749756,-249.832138,228.981003,116.83654,1.4090374871216167
1.124268,-0.039063,0.549805,-249.992355,230.773911,119.453423,1.2521142087757011
1.603271,0.786621,-1.505615,-249.992355,227.142319,120.277397,2.3358354020150904
1.042236,6.682861,-7.250977,-139.938354,219.886765,88.966362,9.91582343930881
1.954102,2.156738,-1.039795,58.944698,-73.982239,24.978636,3.090502721091344
0.41626,-2.464111,0.779297,74.501038,-244.88829,38.887024,2.6177125934926466
-0.785645,-2.835205,1.21167,36.735535,-194.831833,8.544922,3.181787178135898
-0.866943,-1.102539,0.052734,-60.43243,108.596794,71.95282,1.4035538060672985
0.781738,0.208008,-1.311279,-99.433891,234.298691,68.367004,1.5407252333070294
0.862793,0.014893,-1.263428,-66.947937,119.575493,6.767272,1.529994729887002
0.556152,-0.204346,-1.121338,-61.889645,16.166687,14.442443,1.2682512547062588
0.513916,-0.218994,-1.120117,-55.824276,-58.753963,2.761841,1.2516909046489872
0.243896,-0.170166,-0.960449,-41.168209,-60.386654,-21.575926,1.0054372222933663
0.296875,-0.428711,-0.748779,-21.354673,-19.218445,-22.552488,0.9124680147747646
0.301758,-0.762695,-0.644043,-9.155273,-15.930175,-31.158445,1.0428580629395354
0.260986,-0.735596,-0.80249,-6.629943,-31.120298,-35.903931,1.1194665548876395
0.371094,-0.491943,-1.016113,3.692627,-45.867916,-41.587826,1.188362024323396
0.500488,-0.334229,-1.12793,21.499632,-54.214474,-48.835751,1.2784456763918444
0.681152,-0.393799,-1.141357,39.604187,-59.92889,-50.170895,1.3862689136505948
0.689941,-0.446045,-1.109375,52.11639,-65.452576,-43.273922,1.3804664487523772
0.739014,-0.375732,-1.021729,64.994812,-55.557247,-33.226013,1.3157683601078878
0.937256,-0.333984,-0.896973,86.082451,-48.271175,-23.078917,1.3396099001280186
1.082764,-0.462646,-0.69165,105.278008,-63.049313,-16.868591,1.365576407057474
1.220215,-0.580566,-0.527588,110.733025,-86.227409,-12.413024,1.4506311124214177
1.051758,-0.494141,-0.63208,110.565178,-102.577202,-3.40271,1.32283609901038
0.909912,-0.35376,-0.911133,121.612541,-105.056755,-2.89154,1.3353835887238543
0.908691,-0.30957,-1.053467,145.523071,-106.674187,-2.960205,1.4252528331738197
0.918213,-0.345703,-0.985107,171.569809,-121.643059,-0.198364,1.3903458127483967
0.881836,-0.38623,-0.788086,192.970261,-147.537231,-0.686645,1.244141425719761
0.818359,-0.419922,-0.563477,207.21434,-166.748032,-2.937317,1.0786808000951902
0.716797,-0.470459,-0.365723,214.714035,-171.279892,-3.166198,0.9321388966345091
0.632568,-0.531494,-0.252197,217.147812,-166.473373,-4.646301,0.8638469039528938
0.615479,-0.558594,-0.171631,215.126022,-157.592773,-7.255554,0.8487042219984533
0.601318,-0.598389,-0.055176,210.49498,-148.551941,-6.385803,0.8501159470454603
0.549805,-0.650146,0.035645,202.735886,-140.830994,-4.707336,0.8522006368021559
0.533691,-0.6875,0.102783,192.10051,-134.750366,-3.967285,0.8763827237970863
0.514893,-0.71875,0.170166,179.634079,-133.361816,-1.724243,0.9003737176889384
0.470459,-0.748291,0.243652,165.641769,-136.650085,-0.404358,0.9168627969690994
0.449463,-0.769287,0.285889,150.733948,-139.160156,-0.793457,0.935709355013083
0.438721,-0.763184,0.306152,135.765076,-136.749268,-0.190735,0.9320166204531977
0.432861,-0.78418,0.35498,123.481743,-129.135132,1.838684,0.9634924587774416
0.433838,-0.832275,0.414307,111.625664,-118.537895,5.203247,1.0259373158814333
0.416748,-0.87207,0.474854,98.876945,-107.269279,8.506775,1.076880356269906
0.374023,-0.887207,0.505859,85.3424,-96.870415,10.559081,1.087622541720702
0.345947,-0.891113,0.513428,71.395874,-84.136955,11.413573,1.0850668259429923
0.328369,-0.898193,0.523438,57.548519,-67.459106,13.511657,1.0902129173945794
0.313232,-0.915771,0.539307,43.624874,-50.506588,15.853881,1.1079724051229796
0.290039,-0.94043,0.529297,29.342649,-36.16333,17.181396,1.1174464285280077
0.253662,-0.948486,0.517334,15.907287,-24.772642,16.777039,1.1097768108930732
0.242432,-0.952637,0.512939,3.02124,-13.015746,14.236449,1.1087817396196602
0.234863,-0.945557,0.50293,-10.2005,-0.694275,11.787414,1.0964384405510414
0.22998,-0.932861,0.491699,-23.880003,10.299682,9.010315,1.0792999362188436
0.244385,-0.925293,0.480469,-38.505554,21.194456,5.569458,1.0708602261896742
0.258301,-0.925293,0.469482,-54.38995,36.735535,4.40979,1.0692520239747034
0.318115,-0.910645,0.472412,-69.961548,57.624813,5.393981,1.0740784733873034
0.416504,-0.900391,0.504395,-84.716789,79.750061,7.164001,1.112921313895102
0.496094,-0.93335,0.577881,-100.952141,99.136345,10.330199,1.2046567683356948
0.607666,-0.923584,0.598877,-121.025078,115.188591,13.450622,1.2573460278463522
0.725098,-0.841309,0.579102,-143.52417,127.120964,17.433167,1.2525681895565608
0.831055,-0.811768,0.548096,-164.733871,133.804321,22.28546,1.2845345164942046
0.874756,-0.790771,0.505615,-188.728317,141.670227,31.944273,1.2830289794864338
0.937744,-0.723389,0.471191,-213.127121,160.781845,46.653744,1.2746279509480403
1.018799,-0.716553,0.550293,-235.290512,188.613876,62.683102,1.361698200798914
1.073242,-0.780029,0.695068,-249.992355,217.987045,78.536987,1.4978027760786798
1.086182,-0.767822,0.825195,-249.992355,245.056137,93.032829,1.5653398189636012
1.074463,-0.655273,0.848145,-249.717697,249.992355,104.309074,1.5176308457339025
1.026367,-0.438477,0.705811,-249.992355,249.832138,111.625664,1.32055309092024
1.023438,-0.177979,0.422852,-249.992355,249.839767,113.731377,1.121563942978286
1.471924,0.876465,-1.708496,-249.992355,249.992355,112.571709,2.4194440973118185
-1.390625,6.798828,-7.422852,-64.208984,242.279037,72.776794,10.161527044598808
2.922607,1.26709,0.549805,111.206047,121.528618,-15.892028,3.232558473187144
2.106689,-3.370605,1.121582,77.362061,-129.333496,43.159481,4.130019708363387
-1.504883,-2.743652,0.297607,2.159119,-210.975632,48.667904,3.1433849696214433
-1.158691,-0.749023,0.192627,-49.293514,126.449577,39.253235,1.3930920461832377
0.693115,0.227783,-1.219971,-93.673698,213.233932,15.960692,1.4214861023432483
0.375977,0.100098,-1.38916,-66.444397,71.578979,-5.897521,1.4426170038277657
0.284424,-0.102051,-1.323975,-55.282589,-37.30011,4.91333,1.358021067215822
0.437012,-0.180176,-1.652344,-45.707699,-133.117676,-32.958984,1.7186283988855764
0.225342,0.013184,-1.82666,-25.268553,-155.128479,-60.714718,1.84055415307999
0.458008,-0.115723,-1.681152,11.45172,-131.309509,-53.87878,1.7462632069355983
0.368896,-0.608398,-1.365234,37.841797,-127.258293,-57.487484,1.5395116953034167
0.246094,-0.686523,-1.156982,37.940979,-98.663322,-60.699459,1.3676561829235445
0.404053,-0.510254,-0.812012,57.769772,-61.775204,-52.017208,1.0406639512681315
0.492432,-0.561035,-0.568115,85.983269,-37.117004,-57.968136,0.9380853900759781
0.835205,-0.652588,-0.553223,92.811577,-29.846189,-67.237854,1.1956145605913304
1.001953,-0.610352,-0.775391,94.253532,-49.461361,-56.335445,1.4062967613537338
0.905029,-0.465332,-1.101563,105.972282,-74.584961,-47.5769,1.4996841014140276
0.789551,-0.382568,-1.253906,131.324768,-96.397392,-46.600338,1.530369012055916
0.747803,-0.384766,-1.189209,160.331726,-113.128654,-46.386715,1.456527461892154
0.813232,-0.423096,-1.00415,186.218246,-128.173828,-49.064632,1.3596594182147235
0.832275,-0.46582,-0.776855,206.161484,-146.614075,-50.109859,1.2301112303568322
0.817383,-0.487793,-0.515869,218.971237,-159.622192,-48.515316,1.082671605196608
0.746582,-0.488281,-0.367188,226.036057,-164.848312,-44.914242,0.9646916839223815
0.655518,-0.428711,-0.323242,228.744492,-166.145309,-42.243954,0.8473383978134119
0.648438,-0.42749,-0.188477,233.337387,-166.839584,-42.999264,0.7992140636106199
0.630127,-0.499268,-0.045166,234.268173,-167.503342,-44.197079,0.8052133503047499
0.621582,-0.556641,0.072021,229.217514,-164.970383,-43.968197,0.8374965134530412
0.618164,-0.635498,0.183105,221.717819,-160.163879,-43.861385,0.9052689544687811
0.587891,-0.715088,0.276367,211.425766,-155.273438,-42.41943,0.9660980252096575
0.550049,-0.739258,0.302002,198.348984,-150.695801,-39.009094,0.9696708209330628
0.518799,-0.730225,0.338867,185.935959,-144.683838,-34.805298,0.9577117503273102
0.506592,-0.741211,0.411621,174.194321,-136.703491,-30.563353,0.9876543163607396
0.507568,-0.763916,0.484131,159.912109,-128.181458,-25.619505,1.037099684138897
0.502441,-0.789307,0.526367,143.692017,-121.025078,-19.889832,1.073552382242711
0.502686,-0.818115,0.587891,127.235405,-113.098137,-14.762877,1.125886848534079
0.519043,-0.847168,0.662842,109.374992,-99.342339,-9.681702,1.1943444951256736
0.518799,-0.869873,0.69751,89.775078,-81.382744,-2.883911,1.2297770686713914
0.489502,-0.869873,0.679199,69.335938,-64.285278,3.379822,1.2073121078387312
0.430176,-0.860107,0.653809,49.835201,-48.652645,7.614135,1.1628850548983765
0.384277,-0.848145,0.616455,31.494139,-33.805847,10.368346,1.1167074463703552
0.363037,-0.825928,0.55957,13.877868,-23.406981,11.611938,1.0616362415879557
0.335205,-0.813965,0.514404,-2.243042,-19.348145,11.993407,1.0195650486683034
0.309326,-0.836914,0.485107,-16.983032,-18.211365,11.70349,1.0155965828620142
0.284668,-0.884766,0.496094,-30.754087,-14.129638,11.19995,1.0535444944642822
0.268799,-0.943604,0.515137,-43.991085,-2.6474,10.719298,1.1081550162256182
0.275391,-0.979004,0.499023,-57.739254,16.357422,9.643555,1.1328340520243907
0.283936,-0.976318,0.474365,-70.777893,39.489746,8.659363,1.1219797870037589
0.300537,-0.970703,0.462891,-83.312981,65.864563,7.980346,1.1166265626694538
0.313721,-0.975342,0.486816,-96.900932,97.236626,8.003235,1.1343291853165907
0.35791,-0.979736,0.543457,-111.999504,132.919312,10.0708,1.1761495264824964
0.413086,-0.969238,0.586182,-129.760742,166.297897,12.107848,1.2056830765852196
0.459473,-0.96167,0.606689,-150.154114,194.129929,13.236999,1.2263752155641439
0.517822,-0.920898,0.642822,-172.142014,219.772324,13.175963,1.236694333201216
0.627686,-0.885254,0.728271,-193.946823,245.887741,12.329101,1.3069211944692765
0.840576,-0.899414,0.897461,-216.819748,249.992355,14.305114,1.523466376948635
1.042725,-0.961426,1.061768,-242.767319,249.786362,19.989014,1.7717129183152105
1.147705,-1.023926,1.27417,-249.992355,249.862656,30.387877,1.9972882639721787
1.304688,-0.943848,1.364746,-249.961838,249.992355,44.013973,2.1108272001667974
1.427002,-0.705566,1.251465,-249.793991,249.992355,61.06567,2.024925365188801
1.496826,-0.420166,0.979492,-249.992355,249.992355,76.118469,1.8375070394139992
1.496826,-0.117676,0.554688,-249.992355,249.992355,86.60125,1.600629405139116
1.281982,1.567627,-2.769531,-249.992355,249.992355,91.331474,3.430923231349545
-0.044922,6.987305,-6.705078,-56.442257,230.041489,22.239683,9.684137552471723
3.999023,0.738525,0.327881,148.269653,69.488525,-48.698421,4.079841918544761
2.09668,-3.486328,1.402832,51.528927,-215.972885,63.003536,4.303311232784354
-1.64209,-3.495605,1.501465,-6.469726,-249.992355,33.77533,4.143683268584847
-1.510498,-0.993408,-0.034668,-120.002739,-55.404659,16.532898,1.808221649215604
0.59668,0.971924,-1.525146,-165.176376,172.218307,42.41943,1.90439848915399
0.554688,0.624756,-1.60791,-96.839897,149.513245,44.700619,1.812008113938787
0.785156,-0.253174,-1.438232,-66.291809,25.863646,27.214048,1.6580344702194825
0.710693,-0.436768,-1.17041,-61.912533,-94.28405,-14.694213,1.437257942810893
0.249512,-0.388916,-0.811768,-44.31152,-71.662903,-29.739378,0.9340659393340494
0.270508,-0.648193,-0.524658,-17.852783,15.472411,-11.100768,0.8766953634398895
0.296875,-0.994873,-0.325684,-6.16455,49.186703,-13.267516,1.0881071268997369
0.411621,-0.973145,-0.364014,-13.710021,47.691341,-25.756834,1.1175639717090025
0.523682,-0.708496,-0.42749,-15.251159,21.171568,-25.81024,0.9792635596406107
0.441406,-0.541016,-0.423584,-8.583069,-7.568359,-25.352476,0.8166767868306286
0.443115,-0.497559,-0.450439,-2.410889,-22.666929,-27.57263,0.8042457052586602
0.394287,-0.533691,-0.473389,3.425598,-33.210754,-26.878355,0.8150984401721059
0.366699,-0.534912,-0.498779,7.110595,-36.422729,-28.396605,0.8181561557465665
0.39624,-0.481201,-0.503662,10.223388,-37.452698,-30.914305,0.80139625045604
0.411865,-0.452637,-0.511719,14.755248,-33.782959,-34.362793,0.7977276270476032
0.423096,-0.437256,-0.523193,18.730164,-27.648924,-36.224365,0.8024549520072762
0.415527,-0.416748,-0.538574,21.354673,-28.289793,-37.67395,0.7977490436904328
0.406738,-0.394775,-0.569824,24.497984,-34.934998,-43.022152,0.8037303604101316
0.395752,-0.381348,-0.583252,29.403685,-44.509884,-48.950191,0.8013918131051752
0.379395,-0.388916,-0.567383,35.400391,-51.719662,-55.5191,0.7855696594001069
0.362793,-0.417236,-0.533447,39.779663,-52.734371,-63.346859,0.768290532516183
0.344727,-0.425049,-0.516602,41.78619,-49.85046,-71.594238,0.7525828747280926
0.354736,-0.40332,-0.502197,42.518612,-47.500607,-81.192009,0.7353274637227961
0.378174,-0.392822,-0.4646,42.8009,-47.119137,-91.575615,0.7163643332550833
0.393311,-0.391113,-0.441406,39.840698,-49.148556,-101.600639,0.7088738804089201
0.408203,-0.362061,-0.426025,34.591675,-53.390499,-111.061089,0.692253680058835
0.398438,-0.339844,-0.400635,30.563353,-58.868404,-119.186394,0.6593596798447718
0.388672,-0.353027,-0.373779,25.253294,-62.599178,-126.106255,0.6445189889786026
0.395508,-0.343994,-0.380615,17.822266,-61.271664,-132.797241,0.6477856345466454
0.397949,-0.339111,-0.368408,10.69641,-55.534359,-138.534546,0.6395968506692321
0.364258,-0.334961,-0.370361,2.494812,-45.768734,-143.692017,0.6181019595552177
0.323242,-0.333496,-0.362793,-6.484985,-31.997679,-150.932312,0.5893417798094752
0.330078,-0.34668,-0.372559,-15.419005,-14.48059,-159.698486,0.6065795223752611
0.365234,-0.319336,-0.366455,-23.490904,5.516052,-166.374191,0.6079972225898733
0.402344,-0.282227,-0.371094,-30.273436,24.574278,-170.80687,0.6158275170053705
0.436035,-0.270508,-0.385498,-35.621643,39.611816,-177.177414,0.6418020000693361
0.468262,-0.267578,-0.42334,-38.337708,47.874447,-185.142502,0.6856267514675897
0.522217,-0.234863,-0.490723,-39.085388,48.828121,-193.10759,0.7541089354907553
0.573975,-0.188721,-0.538574,-36.460876,42.5415,-201.225266,0.8093978440433357
0.575439,-0.16748,-0.541016,-31.867979,28.381346,-207.992538,0.8073895623408814
0.57373,-0.16626,-0.533936,-28.717039,11.756896,-215.675339,0.801184218888515
0.55957,-0.153809,-0.517334,-27.19116,3.082275,-223.670944,0.7774382682483542
0.552002,-0.122314,-0.46582,-27.038572,7.499694,-227.294907,0.7325675361357478
0.54248,-0.071777,-0.404541,-28.396605,23.674009,-227.775558,0.6805070968109003
0.551025,-0.028076,-0.363281,-29.594419,43.04504,-229.606613,0.6605981360570131
0.6875,0.01123,-0.356689,-30.113218,55.603024,-234.977707,0.7746027405199389
0.911621,0.061035,-0.343994,-29.937742,50.956722,-238.731369,0.9762735225857557
0.989502,0.074463,-0.302979,-30.624388,20.309446,-236.045822,1.037523600123872
0.934082,0.046875,-0.233398,-35.202026,-24.475096,-236.541733,0.9639403896263502
0.839355,0.019287,-0.188477,-44.845577,-61.660763,-242.599472,0.8604721866062841
0.7146,0.031494,-0.193359,-59.951778,-84.030144,-245.01799,0.7409674317518956
0.62793,0.081299,-0.251709,-77.36969,-89.813225,-245.39183,0.6813685001392419
0.591797,0.161621,-0.334473,-92.445366,-76.690674,-246.101364,0.6987254286048277
0.637207,0.266113,-0.430664,-103.492729,-49.354549,-242.179855,0.8138306768081429
0.817139,0.411865,-0.503906,-109.725945,-16.548157,-233.863815,1.0446387798574202
0.982666,0.523438,-0.529053,-109.52758,1.754761,-221.443161,1.2326868556973423
1.102051,0.572998,-0.511719,-107.727043,-2.494812,-211.036667,1.3433910263084237
1.131592,0.606201,-0.459717,-106.63604,-22.071836,-205.429062,1.3635687833600474
1.04541,0.641357,-0.410156,-108.352654,-48.484798,-199.607834,1.293231925790962
0.912354,0.685791,-0.387451,-112.464897,-71.838379,-195.777878,1.2053287495111034
0.769775,0.720703,-0.382813,-115.692131,-86.303703,-194.511398,1.121834282683053
0.640625,0.723877,-0.38623,-118.278496,-93.536369,-192.619308,1.0409476041828425
0.531982,0.722168,-0.392578,-121.398918,-94.825737,-190.063461,0.9791062019168298
0.445801,0.731934,-0.4021,-124.366753,-89.736931,-188.171371,0.9466521652418062
0.383545,0.759521,-0.414551,-126.991264,-79.101563,-187.660202,0.9464837283688505
0.365234,0.803467,-0.416016,-129.455566,-63.659664,-188.621506,0.9757173807517215
0.357178,0.860352,-0.406738,-131.813049,-45.471188,-189.636215,1.016473063210236
0.339844,0.916992,-0.398926,-134.788513,-25.657652,-191.780075,1.056177175418973
0.318115,0.972412,-0.392334,-137.458801,-2.952575,-196.182236,1.0957683233809052
0.307373,1.039551,-0.38208,-139.625549,23.574827,-201.522812,1.149404006052702
0.317139,1.119629,-0.366455,-140.472412,52.543636,-206.306442,1.2200145531865594
0.346436,1.205322,-0.356689,-139.167786,81.031792,-210.342392,1.3038581473845228
0.377197,1.279785,-0.344971,-135.2005,106.452934,-213.760361,1.378090060146651
0.414307,1.342529,-0.319336,-129.928589,127.754204,-216.54509,1.440836523338439
0.458496,1.39624,-0.273682,-124.2752,144.14978,-217.819199,1.4948600458705155
0.493652,1.443115,-0.227051,-118.110649,155.37262,-217.323288,1.5420198951148458
0.522217,1.469971,-0.172119,-111.770622,161.880478,-214.431747,1.5694426673475523
0.584717,1.470947,-0.123779,-106.597893,162.689194,-208.328232,1.5877343253009932
0.692871,1.471191,-0.102051,-102.546684,151.405334,-197.334274,1.6293825786852514
0.869141,1.460205,-0.114746,-97.625725,114.837639,-179.542526,1.7031651019269978
0.948975,1.396484,-0.218018,-93.803398,47.912594,-157.188416,1.7024256110635203
0.813721,1.314941,-0.345215,-92.964165,-35.598755,-132.804871,1.5844194821911903
0.592285,1.287354,-0.397949,-90.011589,-110.069267,-107.154839,1.4718849306729112
0.424072,1.274414,-0.361084,-81.451408,-160.202026,-78.491211,1.390809030613477
0.295166,1.228516,-0.286377,-70.571899,-189.590439,-48.393246,1.2955254979895223
0.180908,1.167969,-0.21875,-62.042233,-204.803452,-23.170469,1.2019695719630343
0.08252,1.126953,-0.174805,-56.556698,-205.696091,-4.806519,1.1434113007286575
0.015625,1.119873,-0.169678,-52.307125,-191.078171,10.284423,1.1327622435612867
-0.00415,1.118896,-0.166748,-46.302792,-168.388351,24.757383,1.131260525617331
-0.005127,1.105469,-0.187256,-40.229794,-146.759033,37.094116,1.1212282575934305
-0.049316,1.092285,-0.209961,-35.575867,-124.893181,44.334408,1.1133742455266333
-0.094238,1.062744,-0.204346,-31.883238,-94.100945,45.860287,1.0863069998375228
-0.095459,1.025879,-0.18457,-30.082701,-50.834652,45.043941,1.0467121037907223
-0.052979,0.993896,-0.202881,-30.914305,0.587463,45.94421,1.0157739578360927
-0.06543,0.984619,-0.261719,-31.654356,50.582882,43.395992,1.0209076819291742
-0.144531,0.979248,-0.314697,-29.220579,93.803398,31.761168,1.0386770707366173
-0.201904,0.973145,-0.341797,-25.939939,132.362366,14.198302,1.0510002880351652
-0.170898,0.973145,-0.344482,-23.269651,171.775803,-1.846313,1.0463676054585216
-0.029785,0.980957,-0.29126,-18.569946,208.755478,-11.260985,1.023716840573603
0.177246,0.967529,-0.23584,-13.542174,226.226791,-15.167235,1.0115082876363397
0.30249,0.956299,-0.245117,-13.59558,211.067184,-17.578125,1.0325164992337894
0.305176,0.954834,-0.283447,-13.175963,174.903854,-24.002073,1.0417209608820397
0.310547,0.960938,-0.280762,-10.711669,132.034302,-32.035828,1.0481739262627172
0.330566,0.995361,-0.287598,-9.994507,91.278069,-34.584045,1.0875339122441194
0.342041,1.038086,-0.304199,-8.575439,52.360531,-32.035828,1.1345270471337385
0.345703,1.053711,-0.296143,-4.989624,12.832641,-27.557371,1.1478319180868775
0.324951,1.056885,-0.265137,-2.571106,-24.742125,-22.27783,1.1370561483035921
0.275391,1.067139,-0.234375,-1.472473,-53.237911,-16.38031,1.1267464172683221
0.230957,1.084229,-0.200439,0.045776,-70.053101,-9.025574,1.1265298278390148
0.195557,1.092529,-0.174561,2.02179,-78.117371,-1.319885,1.1235362472172405
0.163818,1.0896,-0.152588,4.417419,-81.123344,5.218505,1.1123612699424588
0.141357,1.084229,-0.138672,6.408691,-82.099907,11.146544,1.1021634404542733
0.131104,1.080811,-0.121338,8.506775,-83.335869,15.968322,1.0954741378877915
0.123047,1.071289,-0.099854,10.44464,-86.120598,19.264221,1.082945754433711
0.12085,1.065186,-0.078857,11.848449,-89.904778,22.254942,1.0749159797607437
0.11499,1.063232,-0.067383,13.778686,-94.947807,23.315428,1.0715528239956256
0.10376,1.063477,-0.044189,16.25061,-98.052971,22.575377,1.0694401034419831
0.109863,1.048828,-0.027588,17.379761,-97.602837,26.069639,1.0549270828341644
0.119873,1.040527,-0.023438,16.349792,-99.739067,26.016233,1.0476713767694523
0.110352,1.035156,-0.02124,15.426635,-105.789177,23.117064,1.0412380351485437
0.07959,1.021729,-0.022461,15.441894,-108.474724,22.628782,1.0250703459090016
0.048584,1.013184,-0.026611,15.342711,-102.119438,23.445127,1.0146971805583183
0.028076,1.013916,-0.037109,14.114379,-87.768547,23.735044,1.0149832484888606
0.037842,1.013916,-0.049316,14.434813,-68.908691,23.79608,1.0158197378846308
0.072754,1.016357,-0.060791,15.792846,-49.201962,24.642942,1.0207694360853483
0.11377,1.016602,-0.046387,16.365051,-35.385132,26.138304,1.0239995083363078
0.119873,1.017822,-0.040527,15.960692,-28.099058,26.992796,1.0256576414876457
0.105225,1.023682,-0.034424,15.777587,-22.056578,25.93231,1.0296514699280528
0.111816,1.020996,-0.027588,15.495299,-14.465331,24.932859,1.027471044660627
0.126709,1.010986,-0.031006,15.304564,-7.003784,25.733946,1.0193670756469426
0.125977,1.008545,-0.037842,15.022277,-4.829407,24.940489,1.0170866425816436
0.130615,0.99707,-0.035889,15.304564,-8.81958,21.049498,1.0062290412455803
0.119629,0.993652,-0.036133,14.701842,-12.687682,20.797728,1.0014793999049607
0.104492,0.998047,-0.045166,13.22174,-14.373778,21.820066,1.0045179738705525
0.122559,0.997559,-0.055176,12.4588,-22.598265,16.365051,1.0065729272824697
0.093262,0.987793,-0.058105,10.94818,-39.352417,11.123656,0.9938858095968571
-0.001221,0.992676,-0.064941,7.644653,-50.956722,12.245177,0.9947987059189412
-0.071533,1.009766,-0.078369,5.119323,-49.644466,11.741637,1.0153255857142574
-0.091797,1.018311,-0.096924,3.387451,-39.352417,7.957458,1.0270239742605816
-0.08667,1.022461,-0.116943,2.01416,-26.985167,5.531311,1.0327699892376812
-0.075195,1.025146,-0.129639,0.75531,-16.090393,3.692627,1.0360428947017588
-0.063232,1.03125,-0.135254,-1.052856,-6.614685,1.89209,1.0420021558710904
-0.047852,1.036621,-0.137695,-2.708435,2.540588,0.50354,1.0468203401587113
-0.020752,1.034424,-0.133545,-3.547668,10.765075,-0.839233,1.04321518600191
0.012939,1.030273,-0.127441,-3.990173,17.570496,-2.571106,1.038205702513235
0.041504,1.02832,-0.127441,-4.364014,22.926329,-4.142761,1.0370177495573545
0.070068,1.032715,-0.126709,-4.501343,26.550291,-4.867554,1.04281588333224
0.103271,1.032715,-0.129639,-4.135132,27.06909,-4.638672,1.045930896850743
0.126709,1.029785,-0.126465,-3.829956,24.475096,-4.241943,1.0452299809759573
0.141846,1.027344,-0.12793,-3.52478,19.775391,-4.249573,1.0449507485771758
0.15625,1.022705,-0.125488,-2.922058,14.183043,-4.478455,1.042154891400026
0.166016,1.02124,-0.121338,-2.403259,8.110046,-4.653931,1.0417367038268355
0.174072,1.02002,-0.116699,-2.029419,2.250671,-4.951477,1.0413263264630352
0.177734,1.025391,-0.116943,-1.800537,-2.822876,-5.134582,1.0472305108647284
0.178467,1.025391,-0.118896,-1.724243,-6.759643,-4.981995,1.0475750244187763
0.177734,1.021729,-0.119141,-1.686096,-9.437561,-4.234314,1.043893721639325
0.170898,1.016357,-0.122314,-1.914978,-10.894774,-3.135681,1.0378575973846316
0.163818,1.010742,-0.124023,-1.869202,-11.116027,-2.113342,1.0314152569246782
0.158936,1.008057,-0.127686,-1.815796,-10.490417,-1.190186,1.0284664709853208
0.154053,1.004639,-0.127197,-1.678467,-9.414673,-0.358582,1.0243099745384694
0.151123,1.000977,-0.124512,-1.556396,-8.117676,0.38147,1.0199491917747667
0.14624,1.003662,-0.127197,-1.373291,-6.881713,1.174927,1.0222047860644168
0.145752,1.008057,-0.127441,-0.839233,-6.355285,1.747131,1.0264812561532723
0.147217,1.011475,-0.126953,-0.312805,-6.874084,1.800537,1.029986206180937
0.140137,1.011963,-0.128662,-0.274658,-8.728027,1.708984,1.0296899544921276
0.129395,1.01709,-0.129639,-0.610352,-10.925292,1.434326,1.033451210481656
0.121582,1.024414,-0.131836,-0.717163,-12.405395,1.121521,1.0399937293157107
0.115479,1.023682,-0.134277,-0.686645,-12.96997,0.778198,1.0388890938372584
0.115723,1.02002,-0.136963,-0.602722,-13.412475,0.274658,1.035659923188109
0.10791,1.019287,-0.140625,-0.808716,-14.305114,-0.091553,1.0345849153617117
0.099854,1.02002,-0.143066,-1.083374,-14.915465,-0.167847,1.0348330793282556
0.092529,1.025635,-0.144287,-1.205444,-14.419555,-0.366211,1.0398593690663176
0.088379,1.028076,-0.14502,-0.869751,-13.236999,-0.63324,1.0420085939266528
0.081787,1.030029,-0.144287,0.152588,-10.94818,-1.091003,1.0432965027157908
0.094727,1.031006,-0.139404,0.587463,-8.69751,-1.434326,1.0446913667591018
0.10376,1.030762,-0.138428,0.473022,-8.750916,-1.281738,1.0451788121790453
0.095947,1.030518,-0.135254,1.091003,-8.171082,-0.999451,1.043775272579783
0.106445,1.026367,-0.129395,1.197815,-6.988525,-0.740051,1.039953279113538
0.101074,1.026855,-0.130615,1.457214,-6.126403,-1.029968,1.0400516442590724
0.112061,1.026123,-0.126709,2.128601,-4.142761,-0.862122,1.0399717541986415
0.12085,1.02832,-0.126465,1.579285,-3.501892,0.350952,1.0430916264283785
0.129395,1.022461,-0.128418,1.846313,-5.584716,0.50354,1.0385859354285518
0.11792,1.020996,-0.121338,2.166748,-7.789611,0.236511,1.0349207064601618
0.110352,1.022217,-0.117676,2.26593,-5.233764,1.205444,1.0348684940459825
0.128662,1.024414,-0.114502,2.204895,-0.823975,2.914428,1.0387919241330286
0.14502,1.019043,-0.112793,2.441406,-0.976562,2.738952,1.0354717268462716
0.150146,1.014404,-0.110596,2.571106,-5.180358,1.701355,1.031402332626798
0.13623,1.019531,-0.109619,1.76239,-8.628845,3.417969,1.0344169362602296
0.120605,1.022949,-0.112061,2.227783,-9.513855,4.875183,1.0361119101462932
0.115479,1.015869,-0.104736,3.486633,-9.140015,4.234314,1.0277620611299094
0.107666,1.01123,-0.0979,3.65448,-7.575988,4.753113,1.0216469500057248
0.096436,1.009766,-0.097656,3.433227,-5.401611,6.324768,1.0190505243549015
0.093018,1.008301,-0.101318,3.448486,-3.608703,6.072998,1.0176387335636354
0.087158,1.01001,-0.104736,3.189087,-2.433777,5.516052,1.0191596277129507
0.079346,1.010498,-0.112061,2.822876,-1.373291,5.317688,1.0197841259016536
0.07373,1.010742,-0.116211,2.532959,0.175476,4.119873,1.0200688702166143
0.07251,1.011719,-0.118164,2.075195,2.357483,2.845764,1.0211737197739668
0.07373,1.012207,-0.123047,1.846313,4.364014,1.38092,1.0223207363435411
0.074707,1.013428,-0.121338,1.266479,6.614685,0.068665,1.0233964809774363
0.076904,1.021484,-0.121826,0.50354,9.475708,-0.740051,1.0315936029987778
0.082275,1.02124,-0.130859,-0.053406,12.367248,-1.419067,1.0328719141820053
0.092041,1.016846,-0.134766,-0.282288,14.526366,-2.655029,1.0298588292348616
0.105469,1.013916,-0.137207,-0.595093,15.632628,-3.486633,1.0285791782191587
0.116943,1.011475,-0.138672,-0.839233,15.510558,-3.753662,1.0276124096457768
0.127197,1.010498,-0.137695,-1.174927,14.739989,-3.837585,1.0277379032798195
0.137939,1.013428,-0.141846,-1.38092,13.244628,-3.700256,1.0325617495438228
0.142334,1.015869,-0.143066,-1.464844,10.932921,-3.623962,1.0357203643228223
0.146973,1.020264,-0.143555,-1.564026,8.621216,-3.372192,1.0407438351727096
0.149658,1.019043,-0.145996,-1.373291,6.42395,-3.097534,1.0402696692824414
0.147217,1.012451,-0.143799,-1.152039,4.577637,-2.838135,1.033154405154912
0.147461,1.011719,-0.141602,-0.846863,3.311157,-2.616882,1.0321682071668359
0.148438,1.01123,-0.145996,-0.640869,2.624511,-2.243042,1.0324411773849396
0.149902,1.010986,-0.146973,-0.350952,1.876831,-1.838684,1.0325523543767647
0.148682,1.008057,-0.145752,-0.198364,0.915527,-1.609802,1.0293342012568123
0.146973,1.008057,-0.144287,0.022888,-0.083923,-1.403808,1.0288822655420784
0.145752,1.007568,-0.14624,0.38147,-0.63324,-1.13678,1.0285052541081159
0.142334,1.006104,-0.144775,0.511169,-0.869751,-0.953674,1.026383956907453
0.143799,1.003418,-0.144287,0.709534,-1.617432,-0.946045,1.0238869925406806
0.144531,1.002686,-0.141602,0.62561,-3.005981,-0.526428,1.0228976248681976
0.135986,1.006104,-0.137939,0.37384,-4.53949,0.045776,1.0245802158606228
0.128906,1.008545,-0.138916,0.404358,-5.332946,0.1297,1.0261956094804734
0.122803,1.013184,-0.137939,0.518799,-5.256652,0.099182,1.0298784211672756
0.120117,1.01416,-0.134521,0.801086,-4.684448,0.030518,1.0300701426262195
0.115234,1.016113,-0.135498,0.846863,-3.89862,-0.175476,1.0315639638573073
0.11377,1.017334,-0.13501,0.869751,-3.051758,-0.350952,1.0325404498401018
0.111084,1.018066,-0.136719,0.923157,-2.258301,-0.595093,1.0331941348909215
0.109375,1.017334,-0.135986,1.045227,-1.296997,-0.923157,1.032193562456674
0.107422,1.017578,-0.13208,0.923157,-0.228882,-1.075745,1.0317216671990561
0.106445,1.018311,-0.135254,0.778198,0.808716,-1.13678,1.032754315053682
0.108398,1.018066,-0.135498,0.793457,1.907349,-1.319885,1.0327478950663613
0.110596,1.014648,-0.134277,0.854492,2.784729,-1.487732,1.0294524524469306
0.115479,1.010742,-0.134277,0.587463,3.112793,-1.655578,1.0261408786000097
0.115967,1.010742,-0.136719,0.289917,3.280639,-1.594543,1.026518300184658
0.11792,1.015137,-0.137939,0.144958,3.341675,-1.426697,1.0312300533295178
0.12207,1.016846,-0.139893,0.038147,3.311157,-1.579285,1.0336570630847544
0.125732,1.014648,-0.140625,-0.053406,3.059387,-1.739502,1.0320341517377223
0.129395,1.012451,-0.142578,-0.038147,2.616882,-1.777649,1.0305962252550707
0.128418,1.010986,-0.143555,0.0,2.052307,-1.770019,1.029170497510009
0.128662,1.010986,-0.143799,-0.167847,1.579285,-1.770019,1.0292350338192924
0.132324,1.012207,-0.143066,-0.183105,1.213074,-1.487732,1.0307960672126182
0.133545,1.008301,-0.138428,-0.205994,0.701904,-1.243591,1.026483066012294
0.132813,1.011475,-0.138428,-0.167847,-0.045776,-0.930786,1.0295063281874473
0.130859,1.011719,-0.137451,-0.152588,-0.320435,-0.75531,1.029364945120534
0.131592,1.008301,-0.137695,0.007629,-0.480652,-0.694275,1.0261321913330659
0.129883,1.003174,-0.136963,0.022888,-0.907898,-0.656128,1.0207774151762958
0.127197,1.003662,-0.139648,-0.198364,-1.205444,-0.434875,1.0212825519693363
0.123291,1.007324,-0.139404,-0.396728,-1.052856,-0.221252,1.0243709225046365
0.124268,1.010986,-0.141113,-0.228882,-0.488281,0.007629,1.028322958408009
0.126221,1.010986,-0.140625,-0.282288,-0.007629,0.076294,1.0284939589817725
0.125,1.011963,-0.140137,-0.259399,-0.038147,0.167847,1.029238792573424
0.125,1.012695,-0.13916,-0.190735,-0.244141,0.160217,1.0298260380399205
0.126709,1.015381,-0.137695,-0.083923,-0.259399,0.030518,1.0324793745479859
0.127197,1.020264,-0.138672,0.045776,-0.289917,0.0,1.0374717490558478
0.127441,1.018311,-0.138916,0.144958,-0.434875,-0.045776,1.0356139030826113
0.122803,1.013428,-0.138428,0.358582,-0.63324,-0.038147,1.0301840608245694
0.12207,1.012451,-0.137939,0.343323,-0.75531,0.038147,1.0290701045225248
0.121338,1.011719,-0.136719,0.282288,-0.587463,0.205994,1.028100350241162
0.116455,1.011963,-0.137207,0.335693,-0.328064,0.205994,1.0278407664823377
0.114502,1.01123,-0.136719,0.305176,0.37384,0.198364,1.0268344101484914
0.11377,1.011719,-0.136475,0.236511,1.266479,0.12207,1.0272022067178401
0.120361,1.01123,-0.136719,0.144958,2.037048,0.030518,1.027504242415573
0.122559,1.010254,-0.137451,-0.076294,2.39563,-0.061035,1.0269014706377628
0.127686,1.010986,-0.137207,0.007629,2.281189,-0.221252,1.0282130944706938
0.131104,1.008789,-0.13623,-0.1297,1.739502,-0.312805,1.026353797789534
0.133057,1.009521,-0.13623,-0.328064,1.045227,-0.236511,1.0273244023140888
0.13208,1.009277,-0.136475,-0.358582,0.335693,-0.068665,1.0269910490135734
0.131836,1.010498,-0.135986,-0.350952,-0.213623,0.053406,1.028094903739922
0.131592,1.010986,-0.137695,-0.312805,-0.663757,0.030518,1.028770654560578
0.130615,1.012695,-0.136963,-0.236511,-0.999451,0.083923,1.0302282779165983
0.12793,1.015381,-0.133545,-0.183105,-1.266479,0.244141,1.0320847480153945
0.129639,1.014648,-0.13501,-0.343323,-1.594543,0.137329,1.0317676745881312
0.129395,1.018066,-0.137451,-0.434875,-1.945495,0.030518,1.0354198297222243
0.125,1.019043,-0.135742,-0.282288,-2.166748,0.305176,1.0356155302104155
0.119385,1.018799,-0.135742,-0.152588,-2.220154,0.152588,1.0347125548624603
0.119629,1.020264,-0.135742,-0.167847,-2.182007,-0.358582,1.0361831970752085
0.119873,1.017334,-0.134766,-0.061035,-1.953125,-0.396728,1.0331988571620663
0.11792,1.012451,-0.135498,0.076294,-1.754761,-0.358582,1.0282615726579498
0.11792,1.012939,-0.134277,-0.030518,-1.579285,-0.244141,1.0285819640893963
0.116211,1.015137,-0.131836,-0.25177,-1.396179,-0.328064,1.0302372814968404
0.116211,1.014404,-0.132324,-0.358582,-1.235962,-0.282288,1.029577638021048
0.11792,1.015381,-0.13208,-0.488281,-1.00708,-0.183105,1.030703074585984
0.118164,1.018311,-0.133545,-0.579834,-0.694275,-0.205994,1.033805731577263
0.118652,1.015869,-0.133789,-0.587463,-0.396728,-0.480652,1.0314880604185392
0.123535,1.013916,-0.132813,-0.63324,-0.244141,-0.808716,1.0300125456760223
0.125488,1.011475,-0.133301,-0.640869,-0.244141,-0.869751,1.0279095633225717
0.126709,1.009766,-0.135498,-0.62561,-0.312805,-0.869751,1.02666559961898
0.128174,1.012451,-0.133789,-0.717163,-0.534058,-0.762939,1.0292643480651607
0.126953,1.012207,-0.134521,-0.724792,-0.831604,-0.549316,1.0289684030615325
0.127686,1.011963,-0.135986,-0.846863,-1.014709,-0.587463,1.0290116715377917
0.126953,1.013184,-0.13623,-0.709534,-1.167297,-0.75531,1.0301541122400086
0.126221,1.015869,-0.135742,-0.640869,-1.243591,-0.556946,1.0326410104997767
0.125977,1.013916,-0.135498,-0.50354,-1.152039,-0.343323,1.0306578324492568
0.126221,1.014648,-0.137207,-0.411987,-1.068115,-0.37384,1.0316336876983032
0.125732,1.016602,-0.137939,-0.358582,-1.190186,-0.320435,1.0335934064945462
0.125488,1.016602,-0.136719,-0.183105,-1.289368,-0.366211,1.0334016399778936
0.120605,1.013428,-0.135986,0.144958,-1.174927,-0.358582,1.0295989847532874
0.119629,1.015381,-0.135498,0.213623,-1.037598,-0.228882,1.031343483426351
0.120605,1.015625,-0.135254,0.099182,-1.098633,-0.25177,1.0316653290510445
0.11792,1.014404,-0.137451,0.289917,-1.068115,-0.236511,1.030443292479989
0.116699,1.012207,-0.134277,0.160217,-0.869751,-0.244141,1.0277217425835654
0.114746,1.011719,-0.132813,0.022888,-0.617981,-0.289917,1.0268306931748779
0.116455,1.012939,-0.134033,-0.099182,-0.198364,-0.259399,1.0283832115680418
0.120605,1.013428,-0.131592,-0.213623,0.175476,-0.305176,1.0290278575786955
0.123779,1.014404,-0.129639,-0.419617,0.282288,-0.465393,1.0301179477991829
0.125,1.019287,-0.133789,-0.648498,0.015259,-0.518799,1.0356015087329682
0.126953,1.020752,-0.135254,-0.556946,-0.556946,-0.724792,1.0374706522254016
0.126953,1.019043,-0.133057,-0.267029,-0.999451,-0.976562,1.0355046428225225
0.128906,1.017334,-0.13501,-0.236511,-1.556396,-1.113892,1.0343176129661527
0.125977,1.015381,-0.133789,-0.030518,-1.983642,-1.075745,1.0318760953772503
0.125732,1.015869,-0.134521,0.183105,-1.998901,-1.00708,1.0324215517055038
0.122559,1.013184,-0.13501,0.25177,-2.090454,-0.823975,1.0294611340099247
0.120605,1.010986,-0.13501,0.221252,-1.922607,-0.656128,1.027066676667586
0.120117,1.011719,-0.134277,0.305176,-1.76239,-0.610352,1.0276350234295248
0.119385,1.012695,-0.132324,0.312805,-1.579285,-0.556946,1.0282575466418906
0.118652,1.01123,-0.133545,0.175476,-1.12915,-0.50354,1.026887860006632
0.119629,1.012939,-0.133789,0.053406,-0.63324,-0.419617,1.0287157099427422
0.121094,1.017334,-0.134766,-0.083923,-0.167847,-0.50354,1.033341230740359
0.121582,1.017578,-0.135742,-0.053406,-0.015259,-0.701904,1.033766443338146
0.122803,1.014404,-0.134766,0.1297,-0.160217,-0.907898,1.0306589769564907
0.125488,1.014648,-0.135254,0.289917,-0.282288,-0.846863,1.0312863067858509
0.125732,1.014893,-0.134277,0.305176,-0.579834,-0.648498,1.031429420756457
0.124756,1.019287,-0.132324,0.328064,-0.976562,-0.518799,1.035383836497847
0.122803,1.015625,-0.134766,0.495911,-1.159668,-0.511169,1.0318607426343924
0.118652,1.012695,-0.134033,0.62561,-1.251221,-0.411987,1.0283940418040158
0.117676,1.010498,-0.132324,0.656128,-1.106262,-0.144958,1.025896432373171
0.115479,1.008789,-0.133789,0.679016,-0.762939,0.152588,1.0241533783974937
0.110596,1.008789,-0.13208,0.419617,-0.198364,0.366211,1.0233923236652696
0.112305,1.009033,-0.13208,0.244141,0.770569,0.724792,1.0238188973221778
0.114014,1.010742,-0.132813,0.007629,1.548767,0.709534,1.025786466926231
0.121826,1.012939,-0.133301,-0.053406,1.89209,0.488281,1.0289101751844036
0.126953,1.010742,-0.133789,-0.083923,1.960754,0.366211,1.0274317258552998
0.129883,1.012695,-0.133301,-0.183105,1.617432,0.244141,1.0296552400269714
0.13208,1.012695,-0.134766,-0.228882,0.923157,0.076294,1.0301253147947582
0.130371,1.015625,-0.134766,-0.221252,0.198364,0.030518,1.0327887552747657
0.12793,1.015869,-0.135254,-0.083923,-0.37384,0.175476,1.0327872746006312
0.130371,1.016113,-0.135498,0.160217,-0.663757,0.297546,1.0333643764006963
0.129395,1.018799,-0.133545,0.137329,-0.770569,0.427246,1.0356296323739487
0.125,1.019043,-0.134521,0.335693,-1.083374,0.457764,1.03545619670269
0.123535,1.020264,-0.135498,0.511169,-1.495361,0.389099,1.0366094895981806
0.120361,1.016113,-0.135742,0.404358,-1.815796,0.267029,1.0321813259568302
0.11792,1.016602,-0.136963,0.511169,-1.914978,0.053406,1.0325423072073125
0.118164,1.016602,-0.135254,0.587463,-1.678467,0.091553,1.0323449044849304
0.115723,1.018799,-0.132813,0.579834,-1.365662,-0.068665,1.0339161030272233
0.117432,1.019531,-0.131836,0.63324,-0.915527,-0.282288,1.034705013750779
0.116943,1.015381,-0.130371,0.732422,-0.473022,-0.427246,1.0303741252821716
0.117676,1.01123,-0.130371,0.816345,-0.038147,-0.320435,1.0263675518628794
0.117432,1.010498,-0.12915,0.63324,0.190735,-0.137329,1.0254638975254076
0.118408,1.013184,-0.127686,0.488281,0.518799,0.061035,1.0280398761312717
0.117432,1.014648,-0.126709,0.518799,1.052856,0.045776,1.029250217007021
0.120605,1.014893,-0.128662,0.404358,1.815796,-0.061035,1.0301006153371621
0.123779,1.014648,-0.129639,0.389099,2.250671,-0.198364,1.030358226572681
0.125,1.017822,-0.135742,0.236511,2.403259,-0.50354,1.0344140922512608
0.12793,1.018799,-0.135498,0.198364,2.037048,-0.694275,1.035701306026501
0.129639,1.014404,-0.132324,0.144958,1.152039,-0.968933,1.0311796092403107
0.127197,1.014893,-0.13501,0.144958,0.511169,-0.75531,1.0317046953261384
0.126709,1.015869,-0.13623,0.167847,0.389099,-0.717163,1.0327650307509446
0.126221,1.015869,-0.13623,0.213623,0.556946,-0.617981,1.0327052720413505
0.127686,1.014404,-0.135254,0.328064,0.595093,-0.442505,1.0313160690729104
0.12793,1.01416,-0.133057,0.312805,0.350952,-0.259399,1.030820428468994
0.126953,1.012695,-0.135498,0.320435,-0.053406,-0.198364,1.0295765805601835
0.124756,1.012695,-0.135254,0.297546,-0.259399,-0.137329,1.0292758945379998
0.123291,1.012207,-0.136719,0.213623,-0.442505,-0.1297,1.028812794676952
0.125,1.012695,-0.135986,0.183105,-0.770569,-0.137329,1.0294019405562629
0.125244,1.014404,-0.134521,0.061035,-0.900268,-0.152588,1.0309206730845009
0.123535,1.014404,-0.132324,-0.015259,-0.793457,-0.160217,1.0304300133521929
0.123535,1.016113,-0.132324,-0.015259,-0.694275,-0.1297,1.0321124773831583
0.125732,1.014893,-0.133789,-0.068665,-0.526428,-0.152588,1.0313660037998151
0.125977,1.015381,-0.134521,-0.137329,-0.534058,-0.152588,1.0319712588686762
0.125244,1.014893,-0.135742,-0.297546,-0.839233,-0.144958,1.0315618020986432
0.123535,1.01416,-0.134277,-0.25177,-1.00708,-0.12207,1.0304424848355196
0.124756,1.013916,-0.133789,-0.12207,-0.854492,-0.228882,1.0302859851094743
0.123779,1.013428,-0.136475,-0.267029,-0.617981,-0.328064,1.0300402796250252
0.125732,1.012207,-0.137451,-0.259399,-0.656128,-0.320435,1.029205676273698
0.127197,1.011963,-0.136475,-0.289917,-0.961304,-0.289917,1.0290158481787344
0.125488,1.010986,-0.135742,-0.411987,-1.075745,-0.244141,1.027747936463022
0.125488,1.01123,-0.13501,-0.350952,-1.106262,-0.137329,1.0278915561205861
0.127441,1.009521,-0.135254,-0.335693,-0.946045,0.038147,1.0264830745988947
0.126709,1.012939,-0.134521,-0.343323,-0.595093,0.190735,1.0296584326090863
0.127197,1.01416,-0.135498,-0.259399,-0.297546,0.282288,1.031047666411694
0.127441,1.015869,-0.134766,-0.274658,-0.205994,0.274658,1.0326630178320515
0.127441,1.015625,-0.134277,-0.297546,-0.137329,0.183105,1.0323592697481823
0.127197,1.015137,-0.133301,-0.236511,-0.144958,0.144958,1.0317225218919086
0.126465,1.014404,-0.132813,-0.205994,-0.152588,0.167847,1.0308482741946072
0.122314,1.012939,-0.133301,-0.25177,-0.022888,0.259399,1.0289680699215114
0.121094,1.011719,-0.131592,-0.175476,0.335693,0.320435,1.0274023293048349
0.123535,1.013672,-0.131836,-0.167847,0.961304,0.389099,1.0296468087188926
0.123535,1.01416,-0.132324,-0.144958,1.472473,0.343323,1.0301898091133497
0.127686,1.010498,-0.132568,-0.205994,1.502991,-0.053406,1.0271242365089044
0.130127,1.014404,-0.134277,-0.328064,1.022339,-0.236511,1.031493492017279
0.130371,1.017334,-0.137451,-0.434875,0.572205,-0.091553,1.0348226140735426
0.129395,1.013428,-0.137207,-0.442505,0.12207,-0.244141,1.0308274045920587
0.129395,1.01123,-0.135254,-0.37384,-0.228882,-0.282288,1.0284079071268366
0.129395,1.01123,-0.133057,-0.389099,-0.526428,-0.297546,1.0281212691963921
0.130127,1.011963,-0.133057,-0.404358,-0.671387,-0.297546,1.0289345531893659
0.128662,1.015625,-0.132324,-0.38147,-0.831604,-0.190735,1.0322585392453774
0.125244,1.013916,-0.135254,-0.289917,-0.778198,-0.076294,1.0305364423968713
0.125488,1.010254,-0.135498,-0.167847,-0.701904,-0.030518,1.0269956624367993
0.122559,1.009766,-0.133301,-0.12207,-0.686645,0.099182,1.0258738908062726
0.122314,1.011963,-0.132568,-0.106812,-0.457764,0.137329,1.0279124975351743
0.118896,1.011475,-0.133057,0.030518,-0.007629,0.167847,1.027094007231081
0.120605,1.012207,-0.129883,0.1297,0.862122,0.007629,1.027607984867284
0.124268,1.018311,-0.132813,0.045776,1.88446,-0.190735,1.03442695320356
0.131836,1.016846,-0.134033,0.12207,2.418518,-0.37384,1.0340799600132475
0.13623,1.017822,-0.132568,0.106812,2.052307,-0.411987,1.0354199685190546
0.133789,1.015869,-0.134033,0.053406,1.358032,-0.328064,1.0333702950883579
0.133789,1.014404,-0.134766,0.038147,0.793457,-0.38147,1.0320256036034183
0.132324,1.015869,-0.135254,0.038147,0.480652,-0.160217,1.0333407524398714
0.128418,1.016113,-0.136963,0.015259,0.221252,0.045776,1.0333129607539044
0.130127,1.016357,-0.136475,0.297546,-0.022888,0.038147,1.0337020911282901
0.128662,1.014893,-0.134521,0.305176,-0.274658,0.038147,1.031822470744847
0.126465,1.014648,-0.134766,0.343323,-0.434875,-0.022888,1.0313417643463296
0.128662,1.013184,-0.135986,0.411987,-0.724792,-0.053406,1.0303338877742496
0.128174,1.01416,-0.137207,0.312805,-1.022339,-0.190735,1.031394609606333
0.125488,1.015381,-0.140381,0.297546,-1.144409,-0.297546,1.0326919378333503
0.127441,1.016113,-0.134766,0.442505,-1.174927,-0.511169,1.0329030506325363
0.128418,1.016357,-0.130859,0.511169,-1.098633,-0.724792,1.0327617402160094
0.131348,1.017578,-0.131348,0.50354,-0.892639,-0.75531,1.034393339253497
0.133545,1.014893,-0.134033,0.648498,-0.976562,-0.862122,1.0323792489017785
0.132324,1.01416,-0.133789,0.541687,-1.373291,-0.785828,1.031469652048474
0.129395,1.01416,-0.132568,0.480652,-1.846313,-0.50354,1.030940272881509
0.125732,1.013916,-0.131592,0.389099,-2.349854,-0.419617,1.0301216653114331
0.123779,1.013672,-0.130859,0.267029,-2.326965,-0.350952,1.0295514762778983
0.12085,1.015381,-0.130371,0.37384,-1.899719,-0.366211,1.0308248616045308
0.122559,1.015869,-0.129883,0.297546,-1.358032,-0.518799,1.0314456492375155
0.124512,1.013428,-0.13208,0.183105,-0.694275,-0.762939,1.02955557194743
0.127441,1.012939,-0.130615,0.221252,-0.267029,-1.091003,1.0292457939807187
0.127441,1.014648,-0.131592,0.183105,-0.282288,-1.13678,1.0310520000703165
0.127441,1.012451,-0.132324,0.099182,-0.328064,-1.289368,1.028983905052941
0.129639,1.012207,-0.131348,0.12207,-0.389099,-1.304626,1.0288933755613359
0.129395,1.010986,-0.134521,0.137329,-0.320435,-1.235962,1.0280718154204986
0.12915,1.010254,-0.134033,0.160217,-0.152588,-1.113892,1.0272573738382218
0.127441,1.012207,-0.13208,0.175476,-0.106812,-0.907898,1.0287124699010897
0.129883,1.011963,-0.132813,0.25177,-0.022888,-0.717163,1.0288721981018827
0.129395,1.011475,-0.132813,0.228882,0.137329,-0.534058,1.0283307029448259
0.130371,1.012695,-0.135254,0.144958,0.297546,-0.457764,1.0299715555208309
0.129639,1.013428,-0.135498,0.25177,0.259399,-0.526428,1.0306319854870603
0.128906,1.014404,-0.13501,0.205994,0.0,-0.556946,1.0314358594464321
0.128906,1.013916,-0.132568,0.358582,-0.137329,-0.785828,1.030638970016174
0.128906,1.015625,-0.133301,0.328064,-0.091553,-0.907898,1.0324146715646771
0.127686,1.013428,-0.134277,0.404358,-0.076294,-0.930786,1.0302282943644094
0.127441,1.011475,-0.13208,0.25177,-0.106812,-0.88501,1.0279922229793375
0.125488,1.012695,-0.133301,0.205994,0.076294,-0.801086,1.0291100804918782
0.127686,1.012451,-0.135742,0.030518,0.267029,-0.709534,1.0294593884952432
0.127441,1.012939,-0.134033,0.076294,0.221252,-0.663757,1.0296851321112683
0.126953,1.011475,-0.133545,0.068665,0.137329,-0.724792,1.0281211051520147
0.12793,1.011963,-0.135986,0.045776,0.114441,-0.762939,1.0290419770179444
0.130371,1.011963,-0.136719,0.007629,0.091553,-0.617981,1.0294453827042014
0.133057,1.012207,-0.137207,-0.015259,-0.144958,-0.541687,1.030093654454293
0.133301,1.010498,-0.134033,0.099182,-0.549316,-0.564575,1.0280273389817995
0.130615,1.010986,-0.133301,0.061035,-0.846863,-0.396728,1.02806718020857
0.130371,1.013672,-0.133301,-0.015259,-0.991821,-0.259399,1.030677775944548
0.129395,1.014893,-0.135498,-0.091553,-1.029968,-0.305176,1.032041944631128
0.129395,1.011963,-0.131592,-0.083923,-1.182556,-0.335693,1.0286537968908684
0.126221,1.015381,-0.131836,-0.12207,-1.342773,-0.328064,1.0316545191574553
0.124756,1.014648,-0.134766,-0.183105,-1.365662,-0.350952,1.0311335986165906
0.126221,1.015869,-0.134766,-0.328064,-1.304626,-0.526428,1.0325131673533272
0.126709,1.013916,-0.133301,-0.259399,-1.228333,-0.686645,1.0304610532853729
0.125488,1.014648,-0.133057,-0.198364,-1.274109,-0.671387,1.031000469106101
0.124756,1.013916,-0.132813,-0.144958,-1.274109,-0.686645,1.030159700027622
0.124756,1.013916,-0.132324,-0.1297,-1.487732,-0.816345,1.0300967700017316
0.12207,1.013428,-0.130859,-0.1297,-1.472473,-0.839233,1.0291071246303758
0.123535,1.013916,-0.129883,-0.320435,-1.113892,-0.732422,1.029638842007235
0.123535,1.014404,-0.129639,-0.419617,-0.663757,-0.656128,1.0300886572339296
0.126221,1.015869,-0.130615,-0.473022,-0.289917,-0.915527,1.0319795754892631
0.12793,1.017334,-0.133789,-0.617981,-0.312805,-1.052856,1.0340377405960577
0.129639,1.017334,-0.132813,-0.75531,-0.740051,-1.274109,1.034124765609063
0.13208,1.013916,-0.133301,-0.892639,-1.327515,-1.472473,1.0311352666149094
0.13208,1.012451,-0.13501,-0.907898,-1.823425,-1.38855,1.029917401494411
0.130615,1.014648,-0.135254,-1.045227,-2.067566,-1.243591,1.0319227135037778
0.128174,1.018799,-0.134033,-0.976562,-2.281189,-1.228333,1.0355408353927913
0.126465,1.016602,-0.133545,-0.808716,-2.403259,-1.205444,1.0331056527064404
0.126465,1.014404,-0.135742,-0.686645,-2.349854,-1.152039,1.0312297328941793
0.125,1.014404,-0.13501,-0.62561,-2.372742,-0.762939,1.030954982196604
0.124512,1.013672,-0.135498,-0.549316,-2.464294,-0.526428,1.030239714693624
0.12207,1.012207,-0.134766,-0.358582,-2.212524,-0.450134,1.0284094371917247
0.118164,1.011963,-0.132813,-0.114441,-1.823425,-0.358582,1.0274585817608415
0.116943,1.010986,-0.132568,-0.205994,-1.167297,-0.312805,1.0263248180127964
0.121826,1.01416,-0.13208,-0.183105,-0.228882,-0.38147,1.0299549535178711
0.125244,1.016846,-0.130371,0.015259,0.450134,-0.541687,1.0327915786319135
0.127686,1.01416,-0.129883,0.106812,0.694275,-0.63324,1.030385274489596
0.131104,1.012207,-0.131836,0.038147,0.534058,-0.62561,1.0291413899756439
0.131348,1.013184,-0.132813,0.061035,0.175476,-0.495911,1.030258903348571
0.130371,1.015137,-0.131836,0.160217,-0.190735,-0.457764,1.0319304517776378
0.130615,1.014404,-0.133301,0.328064,-0.465393,-0.312805,1.0314285772858924
0.126709,1.017334,-0.132813,0.442505,-0.488281,-0.144958,1.0337615446542785
0.125977,1.017822,-0.130371,0.518799,-0.511169,-0.12207,1.0338415864405919
0.127686,1.016846,-0.130859,0.480652,-0.831604,-0.160217,1.0331522541198852
0.124512,1.018066,-0.134033,0.396728,-1.13678,-0.198364,1.0343724975022295
0.122803,1.01709,-0.135986,0.465393,-1.365662,-0.442505,1.0334625475095844
0.120605,1.017334,-0.135498,0.556946,-1.625061,-0.511169,1.0333797663903626
0.119385,1.014648,-0.132324,0.442505,-1.472473,-0.473022,1.0301810438486043
0.12085,1.017578,-0.135254,0.37384,-1.327515,-0.541687,1.0336166373951226
0.12085,1.019043,-0.133301,0.305176,-1.243591,-0.679016,1.0348055445106583
0.121338,1.01416,-0.133789,0.190735,-1.403808,-0.679016,1.0301179118746553
0.12207,1.011475,-0.132324,0.015259,-1.914978,-0.572205,1.0273715985469911
0.122559,1.010498,-0.133301,-0.198364,-2.388,-0.396728,1.0265944053451683
0.119385,1.009277,-0.130371,-0.350952,-2.807617,-0.213623,1.024641126734136
0.11792,1.011475,-0.13208,-0.495911,-2.822876,-0.144958,1.0268553590574476
0.118164,1.013672,-0.131592,-0.50354,-2.586365,-0.167847,1.0289849896592271
0.12085,1.013184,-0.130127,-0.62561,-2.342224,-0.190735,1.0286299511899313
0.124268,1.014893,-0.127197,-0.617981,-2.120972,-0.228882,1.030354023664682
0.125488,1.015869,-0.12793,-0.663757,-2.250671,-0.450134,1.0315537543943116
0.126465,1.019287,-0.129883,-0.770569,-2.624511,-0.465393,1.0352820766742754
0.124023,1.018799,-0.129639,-0.770569,-2.868652,-0.534058,1.0344754116222385
0.120117,1.02002,-0.130127,-0.663757,-2.677917,-0.549316,1.0352786727340615
0.118652,1.017578,-0.128174,-0.419617,-2.441406,-0.549316,1.0324591311349811
0.117188,1.017334,-0.129395,-0.38147,-2.120972,-0.526428,1.0322037400266482
0.11499,1.016357,-0.128418,-0.297546,-1.808166,-0.427246,1.030871201592614
0.113525,1.015625,-0.12793,-0.274658,-1.51062,-0.411987,1.0299262843281554
0.113281,1.016113,-0.129639,-0.350952,-1.281738,-0.427246,1.030594238316419
0.111328,1.016602,-0.125732,-0.328064,-1.045227,-0.37384,1.0303795833633351
0.112305,1.01709,-0.128418,-0.297546,-0.656128,-0.480652,1.0312980480195821
0.115234,1.015381,-0.128174,-0.259399,-0.38147,-0.50354,1.0299058326822896
0.116455,1.016113,-0.128662,-0.259399,-0.175476,-0.579834,1.030825545879612
0.117188,1.016357,-0.128418,-0.434875,-0.175476,-0.595093,1.0311186941943202
0.117676,1.015137,-0.129395,-0.442505,-0.190735,-0.572205,1.0300940907363754
0.114258,1.01709,-0.126709,-0.595093,0.083923,-0.663757,1.0313011826547083
0.117188,1.018555,-0.12793,-0.50354,0.579834,-0.816345,1.0332247578668448
0.121094,1.019043,-0.131348,-0.411987,0.656128,-0.87738,1.0345843077241215
0.121826,1.017578,-0.130859,-0.411987,0.305176,-0.953674,1.0331653489354935
0.120361,1.015137,-0.12915,-0.312805,0.0,-1.00708,1.0303735349813679
0.116699,1.014893,-0.130615,-0.602722,0.061035,-0.938415,1.0298964687166376
0.119629,1.015381,-0.130127,-0.572205,0.244141,-0.762939,1.030651594347479
0.120605,1.012695,-0.132324,-0.595093,0.335693,-0.679016,1.0283999076361297
0.119873,1.01416,-0.130859,-0.747681,0.389099,-0.511169,1.0295698711646528
0.120361,1.016113,-0.132813,-0.762939,0.450134,-0.572205,1.0318002190632642
0.121338,1.015381,-0.132324,-0.717163,0.473022,-0.740051,1.0311309938029214
0.121826,1.015381,-0.13208,-0.701904,0.427246,-0.823975,1.0311572507804037
0.119629,1.016846,-0.131836,-0.602722,0.526428,-0.900268,1.0323117824828891
0.120605,1.014648,-0.133789,-0.450134,0.602722,-0.976562,1.0305123126144589
0.121582,1.012207,-0.134521,-0.350952,0.572205,-1.022339,1.0283195481045764
0.118896,1.01123,-0.131348,-0.25177,0.488281,-0.747681,1.0266326844689877
0.117432,1.012695,-0.132324,-0.259399,0.572205,-0.709534,1.0280326252726613
0.115234,1.013916,-0.133301,-0.396728,0.595093,-0.564575,1.0291130581296692
0.114014,1.015381,-0.129639,-0.183105,0.938415,-0.389099,1.0299534152950802
0.116455,1.013916,-0.129883,-0.236511,1.228333,-0.411987,1.0288134018227018
0.116699,1.01416,-0.130859,-0.289917,1.121521,-0.50354,1.0292051496577346
0.119385,1.014893,-0.134033,-0.335693,0.87738,-0.511169,1.0306432092450812
0.12085,1.018311,-0.135254,-0.312805,0.656128,-0.587463,1.0343382714262295
0.123535,1.018799,-0.135986,-0.106812,0.12207,-0.709534,1.0352316121631913
0.122314,1.020264,-0.132324,0.244141,-0.350952,-0.862122,1.0360545281344995
0.121582,1.016602,-0.130859,0.648498,-0.434875,-0.793457,1.032175317961537
0.121826,1.017334,-0.12915,1.014709,-0.434875,-0.526428,1.032709912962977
0.12207,1.01709,-0.126953,1.38855,-0.450134,-0.289917,1.03222585571618
0.119629,1.019775,-0.123779,1.51062,-0.63324,-0.030518,1.0342018125622292
0.119873,1.020752,-0.123291,1.716614,-0.846863,0.228882,1.0351351855260258
0.115234,1.020508,-0.123535,1.89209,-0.75531,0.427246,1.0343966110950866
0.110596,1.015869,-0.121582,2.166748,-0.228882,0.427246,1.0290789489154852
0.111328,1.013672,-0.116699,2.281189,0.457764,0.389099,1.026422673058716
0.106445,1.011719,-0.116699,2.319336,1.052856,0.350952,1.0239748676539868
0.106689,1.009277,-0.117676,2.304077,1.525879,0.198364,1.0216996850474214
0.105957,1.011963,-0.116943,2.220154,2.098083,0.099182,1.024193177319103
0.10498,1.016357,-0.119873,2.159119,2.876281,0.198364,1.0287720291580638
0.109863,1.017334,-0.120605,2.296448,3.921509,0.030518,1.030331942798048
0.11792,1.018066,-0.122803,2.410889,4.226685,-0.061035,1.032203508793203
0.117432,1.016113,-0.12207,2.449036,4.03595,0.099182,1.030134451561057
0.116699,1.02002,-0.121338,2.426147,3.768921,0.068665,1.0338193107332634
0.118896,1.025635,-0.125732,2.182007,3.761291,-0.053406,1.0401307359486114
0.112549,1.030518,-0.126709,2.029419,3.791809,-0.099182,1.044360951207005
0.105713,1.033447,-0.130859,2.082825,4.28009,-0.579834,1.0470491956250194
0.108398,1.037109,-0.133789,2.494812,5.798339,-1.060486,1.0513061879424093
0.110107,1.029297,-0.137207,2.922058,7.766723,-1.068115,1.0442229773889289
0.110352,1.016846,-0.137695,3.463745,9.521484,-0.862122,1.0320432474683412
0.117676,1.003906,-0.130127,4.03595,11.070251,-0.434875,1.0191211576358328
0.119385,0.993408,-0.116455,4.165649,12.08496,0.495911,1.0073102797619011
0.123047,0.985596,-0.106201,3.875732,12.420653,1.350403,0.9989087505002647
0.12793,0.986084,-0.105957,3.044128,12.130736,2.166748,0.9999773126451419
0.125,0.988525,-0.103516,2.39563,11.528014,3.112793,1.0017595708956317
0.12085,0.98584,-0.092041,1.487732,10.467528,4.02832,0.9974751995819244
0.115967,0.989746,-0.082031,-0.228882,9.82666,4.325867,0.9998872809302056
0.12085,0.993896,-0.084473,-2.090454,9.277344,3.807068,1.0047734416499075
0.119385,1.000488,-0.094727,-3.944397,8.209229,3.334045,1.0120287648570074
0.118408,1.005127,-0.106445,-5.79071,7.324218,2.799988,1.0176597066888322
0.113525,1.007324,-0.118652,-7.247924,7.369995,1.281738,1.020621312586113
0.111084,1.009521,-0.126709,-8.300781,8.125305,-0.450134,1.0234878969377212
0.117676,1.011963,-0.140137,-9.223938,8.857727,-1.930237,1.028374996348122
0.125,1.018799,-0.145996,-9.552002,9.429932,-3.196716,1.0367696149178949
0.131592,1.018799,-0.151611,-9.658813,8.918762,-4.074097,1.0383899807808241
0.132813,1.014648,-0.154053,-9.567261,7.820129,-4.676819,1.0348343750001736
0.142822,1.013916,-0.1521,-9.32312,6.828308,-5.15747,1.035160948229791
0.141846,1.016357,-0.147461,-8.811951,5.935668,-4.837036,1.036748082074908
0.132324,1.015869,-0.140381,-8.31604,5.172729,-4.257202,1.0340243185235054
0.133789,1.021484,-0.136475,-8.041382,5.432128,-3.952026,1.0392085856082984
0.138672,1.024414,-0.134521,-7.156372,5.813598,-3.341675,1.0424729571653166
0.143799,1.016113,-0.132324,-6.385803,5.348205,-2.548218,1.0347335029590954
0.141113,1.014893,-0.129395,-6.004333,4.600525,-1.899719,1.0327941451436486
0.142578,1.016846,-0.125488,-5.462646,4.478455,-1.205444,1.0344329422171357
0.141846,1.017334,-0.122314,-5.088806,4.447937,-0.465393,1.0344319551657326
0.141113,1.015381,-0.12207,-4.829407,3.814697,-0.12207,1.0323819733170472
0.141357,1.01709,-0.124512,-4.768372,2.63977,0.106812,1.034387310291943
0.136963,1.02124,-0.125977,-4.882813,1.579285,0.389099,1.0380559741642066
0.131592,1.021484,-0.127197,-4.653931,1.052856,0.396728,1.0377500149501324
0.125977,1.018555,-0.12793,-4.470825,0.938415,0.213623,1.0342584674316184
0.125732,1.019287,-0.12915,-4.272461,1.235962,-0.015259,1.035101080423067
0.127686,1.016357,-0.126221,-3.791809,2.01416,-0.282288,1.0320935068519712
0.128662,1.015869,-0.123291,-3.479004,2.616882,-0.274658,1.0313798553811295
0.131592,1.016602,-0.120117,-3.265381,2.883911,-0.099182,1.0320969792403232
0.134277,1.017822,-0.115234,-2.868652,2.845764,0.1297,1.0330879977857645
0.134521,1.019043,-0.111816,-2.738952,2.281189,0.267029,1.0339474615017923
0.135742,1.020752,-0.112061,-2.433777,1.274109,0.480652,1.0358176498732776
0.130615,1.018066,-0.114258,-2.296448,0.244141,0.793457,1.0327504776784178
0.125977,1.017578,-0.113525,-2.182007,-0.099182,1.235962,1.0316119019466576
0.121338,1.016113,-0.113525,-1.716614,0.465393,1.396179,1.029609860402473
0.121826,1.011719,-0.117676,-1.419067,1.350403,1.556396,1.0257994688110343
0.121094,1.011963,-0.115723,-1.121521,2.082825,1.815796,1.0257312917786996
0.126221,1.012939,-0.108398,-0.679016,2.510071,1.846313,1.0265121942607405
0.129639,1.015137,-0.10498,-0.396728,2.784729,1.922607,1.0287517676728433
0.130371,1.016602,-0.103516,-0.366211,2.807617,1.998901,1.0301416340974672
0.136963,1.014404,-0.098877,-0.38147,2.593994,2.105713,1.0283729866706923
0.137939,1.016602,-0.099365,-0.785828,2.26593,2.380371,1.0307182919449913
0.135742,1.019531,-0.10083,-1.25885,1.579285,2.571106,1.0334582910911305
0.134277,1.020752,-0.106934,-1.647949,1.045227,2.418518,1.0350844596403717
0.135742,1.018799,-0.108398,-1.777649,1.022339,2.258301,1.0335025009011831
0.137939,1.016846,-0.109619,-1.701355,1.556396,2.029419,1.03199771346549
0.13916,1.014648,-0.109131,-1.472473,1.876831,1.731872,1.029944486205446
0.143311,1.012695,-0.112061,-1.396179,1.800537,1.609802,1.0289056679147024
0.143311,1.014648,-0.110596,-1.487732,1.251221,1.533508,1.0306697249075478
0.143311,1.017578,-0.111328,-1.472473,0.305176,1.64032,1.03363289053174
0.145508,1.017578,-0.111328,-1.449585,-0.602722,1.907349,1.033939789219856
0.142578,1.015869,-0.111084,-1.38092,-1.228333,2.120972,1.0318226428514736
0.141846,1.014404,-0.114258,-1.190186,-1.701355,2.326965,1.030626340385302
0.140137,1.011719,-0.109619,-0.862122,-1.914978,2.563476,1.0272439042851509
0.136963,1.011475,-0.106201,-0.595093,-1.876831,2.845764,1.0262159574840959
0.137939,1.009033,-0.104736,-0.541687,-1.625061,2.89154,1.0237892324624245
0.138672,1.013428,-0.103271,-0.411987,-1.266479,2.822876,1.0280715608404893
0.143311,1.009277,-0.102783,-0.114441,-0.823975,2.799988,1.0245693976198
0.146973,1.008789,-0.102539,-0.114441,-0.602722,2.853393,1.024583113159201
0.147461,1.010742,-0.101807,0.137329,-0.663757,2.799988,1.0265031915849068
0.149902,1.009277,-0.096924,0.259399,-0.862122,2.838135,1.0249414295992723
0.151367,1.01123,-0.095215,0.411987,-0.938415,2.861023,1.026919654994489
0.151855,1.013184,-0.088867,0.679016,-0.907898,2.967834,1.0283477537146664
0.151367,1.016113,-0.08252,0.572205,-0.228882,3.128052,1.030634342460021
0.153076,1.019775,-0.081299,0.473022,0.511169,3.196716,1.0343997485508203
0.1521,1.023926,-0.081299,0.366211,1.029968,3.341675,1.0383488772455045
0.152588,1.020508,-0.081787,0.053406,1.281738,3.494262,1.035088783234076
0.149902,1.018799,-0.081299,-0.396728,1.106262,3.562927,1.0329721871405833
0.146484,1.01709,-0.087158,-0.991821,0.518799,3.532409,1.0312740408446244
0.143799,1.016602,-0.088379,-1.434326,-0.106812,3.417969,1.030518620135512
0.138428,1.014648,-0.089355,-1.785278,-0.610352,3.173828,1.0279383206754187
0.134521,1.01709,-0.093262,-1.930237,-0.740051,2.548218,1.0301775420698125
0.135742,1.014404,-0.101807,-2.067566,-0.587463,2.082825,1.0284969766747007
0.140137,1.008545,-0.105957,-2.059937,-0.25177,1.76239,1.023732524462811
0.148193,1.007813,-0.105225,-2.067566,-0.350952,1.602173,1.024070558527585
0.154297,1.012207,-0.100586,-2.067566,-1.213074,1.701355,1.0288285175159173
0.156738,1.012695,-0.098633,-1.800537,-2.380371,1.670837,1.029488432357547
0.154541,1.013428,-0.093994,-1.76239,-3.059387,1.647949,1.0294435894700593
0.155273,1.019287,-0.092773,-1.701355,-3.158569,1.785278,1.0352113419138143
0.158447,1.018799,-0.087158,-1.464844,-3.135681,1.922607,1.034723813959068
0.158691,1.012695,-0.083984,-1.319885,-3.356933,1.800537,1.028487874873593
0.157715,1.010254,-0.080322,-1.350403,-3.410339,1.838684,1.0256406726651397
0.157471,1.012939,-0.079346,-1.441955,-3.311157,1.792908,1.0281723208091142
0.161133,1.013184,-0.076172,-1.434326,-3.02124,1.556396,1.028740897956818
0.158936,1.010254,-0.074219,-1.396179,-2.632141,1.342773,1.0253693269125033
0.15625,1.007568,-0.078369,-1.296997,-2.410889,1.365662,1.02261871549713
0.161621,1.010254,-0.079102,-1.335144,-2.311707,1.304626,1.0261537986876041
0.155273,1.012451,-0.077881,-1.296997,-2.555847,1.396179,1.0272449474643328
0.14917,1.010498,-0.077637,-1.174927,-2.63977,1.411438,1.0243951389346788
0.147949,1.01123,-0.077148,-0.984192,-1.922607,1.480102,1.0249033288096006
0.147705,1.012207,-0.078613,-0.938415,-1.167297,1.693725,1.0259433618104854
0.150146,1.010498,-0.081787,-0.846863,-0.732422,1.708984,1.0248605479229844
0.147949,1.008789,-0.077881,-0.862122,-0.366211,1.89209,1.0225505382537334
0.145752,1.007324,-0.076904,-0.839233,0.419617,2.197266,1.0207151961717824
0.149902,1.012451,-0.071045,-0.778198,1.525879,2.311707,1.0259507926942695
0.158691,1.019043,-0.066406,-0.984192,2.189636,2.311707,1.033460800498016
0.162598,1.017822,-0.066162,-1.342773,1.914978,2.410889,1.0328490419862915
0.158691,1.011475,-0.070068,-1.754761,1.419067,2.39563,1.0262426777960465
0.15625,1.010498,-0.07373,-2.235413,1.312256,2.189636,1.025161637696222
0.1604,1.010986,-0.080322,-2.540588,1.663208,1.998901,1.026777714931523
0.161865,1.010742,-0.079102,-2.868652,1.945495,1.785278,1.0266726816239924
0.166016,1.008789,-0.07959,-3.059387,2.243042,1.373291,1.0254516696934086
0.173584,1.008301,-0.081787,-3.265381,2.403259,0.953674,1.0263973036918987
0.176514,1.009766,-0.07959,-3.707886,1.731872,0.793457,1.0281629905088006
0.176025,1.00708,-0.073242,-4.234314,0.564575,0.747681,1.0249679592987284
0.172363,1.007568,-0.075928,-4.814148,0.328064,0.694275,1.0250206532441188
0.174072,1.014893,-0.079346,-4.936218,0.579834,0.946045,1.0327655350315483
0.178223,1.013916,-0.077148,-4.760742,-0.167847,1.144409,1.0323472800802063
0.179932,1.012451,-0.07959,-4.79126,-0.839233,1.319885,1.0313908668031728
0.178711,1.015625,-0.082764,-4.806519,-0.434875,1.586914,1.0345441710444268
0.182861,1.018799,-0.083252,-4.447937,-0.274658,1.869202,1.038422092997833
0.185059,1.010742,-0.080566,-4.364014,-0.892639,1.907349,1.0306973874037908
0.174805,1.006592,-0.085449,-4.547119,-1.64032,2.02179,1.0252247432099948
0.172119,1.01709,-0.088623,-4.653931,-1.327515,2.067566,1.035350691500228
0.177979,1.019775,-0.09082,-4.226685,-1.060486,1.937866,1.039165938368844
0.178223,1.012207,-0.091309,-3.90625,-1.724243,1.953125,1.0318254610441633
0.176025,1.010254,-0.090088,-3.89862,-2.563476,1.960754,1.029424010252821
0.175049,1.008301,-0.09082,-3.532409,-3.028869,2.113342,1.0274051447223729
0.174561,1.006836,-0.086426,-3.265381,-3.585815,2.380371,1.0255046207077763
0.175293,1.004883,-0.082275,-2.983093,-4.379272,2.792358,1.0233702434422256
0.17041,1.006348,-0.078857,-2.792358,-5.065917,3.135681,1.0237159233171085
0.164307,1.00708,-0.080811,-2.479553,-5.615234,3.311157,1.0235904133832048
0.160156,1.00708,-0.078369,-2.067566,-5.744934,3.379822,1.022742279803177
0.161621,1.006836,-0.07251,-1.701355,-5.607605,3.158569,1.0223002389890163
0.162842,1.008545,-0.066406,-1.541138,-5.256652,2.838135,1.0237628098465972
0.161621,1.010498,-0.064697,-1.670837,-4.905701,2.532959,1.025384443735129
0.161133,1.013184,-0.05835,-1.724243,-4.989624,1.991272,1.027575001664112
0.163818,1.016357,-0.054688,-1.869202,-4.524231,1.373291,1.0309261204940925
0.166016,1.012939,-0.05542,-1.876831,-3.578186,1.037598,1.0279484940292485
0.172607,1.009521,-0.054443,-1.785278,-2.5177,0.862122,1.0256168222776965
0.17627,1.009521,-0.049072,-2.113342,-2.151489,0.75531,1.0259687244380309
0.173584,1.01416,-0.044189,-2.357483,-2.304077,0.549316,1.0298565814602536
0.171631,1.015625,-0.04126,-2.830505,-2.433777,0.259399,1.0308509729277069
0.171143,1.018311,-0.042969,-3.456115,-2.365112,0.053406,1.0334861170480232
0.168945,1.019287,-0.049316,-4.226685,-2.243042,-0.289917,1.0343695999254812
0.168213,1.019287,-0.056152,-4.798889,-2.189636,-0.823975,1.0345987864104618
0.169922,1.019775,-0.05835,-5.256652,-2.349854,-1.197815,1.0354802070580589
0.169189,1.018799,-0.0625,-5.676269,-2.723694,-1.525879,1.0346412760575523
0.170654,1.016113,-0.064697,-5.989074,-3.250122,-1.831055,1.0323730519022667
0.164795,1.013672,-0.064209,-5.943298,-3.997802,-2.059937,1.0289854767148074
0.161133,1.017822,-0.062256,-6.034851,-4.470825,-2.334595,1.0323765189643748
0.165527,1.02124,-0.056641,-6.126403,-4.669189,-2.319336,1.036117043682807
0.162598,1.022217,-0.057861,-6.16455,-5.447387,-2.204895,1.0366839441285853
0.158447,1.019531,-0.063477,-6.401062,-6.477355,-2.388,1.0337205818300221
0.152588,1.017578,-0.067139,-6.645202,-6.54602,-2.601623,1.0311429237254166
0.1521,1.020508,-0.068359,-6.355285,-5.561828,-2.548218,1.0340425237605075
0.157715,1.021484,-0.06958,-5.729675,-4.089355,-2.716064,1.0359271016249165
0.162598,1.022949,-0.068115,-5.15747,-2.616882,-2.967834,1.0380281399991045
0.170166,1.023438,-0.064941,-4.508972,-1.617432,-2.983093,1.039518706364152
0.177246,1.021729,-0.057373,-3.585815,-1.419067,-2.838135,1.0385749636333432
0.174805,1.018555,-0.053223,-2.89917,-2.029419,-2.441406,1.0348158115234807
0.169678,1.020508,-0.049316,-2.418518,-2.471924,-2.189636,1.0356926520952054
0.169189,1.021973,-0.035889,-1.708984,-1.937866,-1.907349,1.0365045830921347
0.164795,1.023682,-0.0354,-1.464844,-0.366211,-1.403808,1.037465849630242
0.170898,1.023926,-0.0354,-0.976562,2.090454,-1.022339,1.0386932847958534
0.171387,1.013184,-0.033936,-0.465393,3.623962,-0.457764,1.0281376239205529
0.168701,1.008545,-0.03125,-0.511169,4.447937,-0.053406,1.0230345091569493
0.166992,1.012939,-0.036621,-0.396728,5.279541,0.488281,1.027264738724152
0.167969,1.014648,-0.034424,-0.335693,5.813598,0.762939,1.0290331193120072
0.171143,1.014404,-0.032471,-0.335693,6.095886,0.610352,1.0292520427504628
0.169189,1.013916,-0.032471,-0.274658,6.118774,0.556946,1.0284478297988675
0.168213,1.012695,-0.0354,-0.37384,6.141662,0.411987,1.0271805763321267
0.168701,1.009766,-0.040039,-0.50354,6.141662,0.358582,1.0245440564846393
0.167236,1.007813,-0.040771,-0.473022,6.072998,0.320435,1.02240754941755
0.166016,1.003174,-0.043213,-0.358582,5.928039,0.1297,1.0177360904974335
0.166748,1.00293,-0.046387,-0.297546,5.950927,0.0,1.0177549971250448
0.168457,1.000977,-0.045166,-0.228882,6.439209,-0.053406,1.016057421081112
0.166504,1.001709,-0.047119,-0.152588,6.988525,-0.190735,1.016545475056576
0.165283,1.004395,-0.041504,-0.068665,7.484436,-0.434875,1.0187494138059663
0.171387,1.007568,-0.041016,0.038147,7.827758,-0.793457,1.022863182761507
0.172852,1.008301,-0.038818,-0.045776,7.881164,-0.892639,1.0237458462084228
0.167969,1.007568,-0.04126,-0.38147,7.141113,-1.159668,1.0223058481614002
0.168701,1.016846,-0.04541,-0.488281,6.996154,-1.914978,1.031745066970034
0.17334,1.020752,-0.043213,-0.320435,7.339477,-2.166748,1.0362667438806479
0.167725,1.020508,-0.045166,-0.495911,7.385253,-2.342224,1.0351851144819462
0.171875,1.020752,-0.044434,-0.511169,7.667541,-3.036499,1.0360743416787235
0.172852,1.022949,-0.040771,-0.50354,8.262634,-3.303528,1.0382508102313237
0.175781,1.023682,-0.040283,-0.434875,8.865356,-3.303528,1.0394452930164242
0.177734,1.020264,-0.032227,-0.091553,9.132385,-3.112793,1.0361305824947935
0.178711,1.017822,-0.036865,-0.282288,8.544922,-2.998352,1.034049454054302
0.181396,1.023926,-0.036865,-0.328064,8.399963,-2.861023,1.0405229408893395
0.188721,1.023926,-0.034424,0.152588,8.743286,-2.151489,1.0417413695793212
0.183594,1.019531,-0.028809,0.50354,9.109497,-1.358032,1.0363301478187346
0.186035,1.014404,-0.026367,0.740051,9.307861,-1.174927,1.0316587202801129
0.185791,1.014893,-0.028076,0.808716,9.45282,-0.793457,1.0321406681775505
0.182373,1.011719,-0.026855,0.854492,9.513855,-0.114441,1.0283756303583822
0.178223,1.003174,-0.025635,0.900268,9.803772,0.183105,1.0192049181739655
0.175781,1.000244,-0.02417,0.785828,9.94873,0.160217,1.0158598369839216
0.171143,0.996338,-0.023193,0.526428,9.994507,0.297546,1.0111959513081525
0.166748,0.992188,-0.026367,0.328064,9.887695,0.244141,1.0064477838104666
0.164795,0.998291,-0.029297,0.0,9.94873,0.1297,1.0122255810415977
0.166992,1.004639,-0.03125,-0.25177,10.154723,-0.076294,1.0189025522026138
0.170654,1.007813,-0.033936,-0.37384,10.353087,-0.434875,1.022722583490264
0.173096,1.009766,-0.039063,-0.328064,10.612487,-0.411987,1.0252392491223694
0.17749,1.010254,-0.044189,-0.183105,10.658263,-0.411987,1.0266783879760009
0.181885,1.013916,-0.047363,0.083923,10.31494,-0.343323,1.031189149501681
0.18335,1.015381,-0.046631,0.343323,9.605408,-0.152588,1.032855385725417
0.181152,1.016602,-0.04541,0.312805,8.773804,-0.1297,1.0336139228977133
0.179443,1.018799,-0.050537,0.396728,8.331299,-0.228882,1.0357148164523862
0.180176,1.018555,-0.052734,0.50354,8.285522,-0.358582,1.0357116170812222
0.182129,1.020264,-0.053955,0.656128,8.44574,-0.244141,1.0377960996082036
0.183838,1.018799,-0.05542,0.907898,8.499146,-0.267029,1.0367348692144005
0.185547,1.011719,-0.051758,1.083374,7.92694,-0.144958,1.0298941279248077
0.184082,1.007568,-0.051758,1.029968,7.04956,-0.015259,1.0255527036247334
0.181885,1.006836,-0.046387,0.984192,5.638122,-0.007629,1.0241838887084682
0.179688,1.006104,-0.040527,0.900268,4.478455,-0.068665,1.0228271964945987
0.172119,1.009033,-0.04126,0.495911,4.150391,-0.144958,1.0244388380230418
0.175781,1.013916,-0.046387,0.62561,4.608154,-0.335693,1.030085612357536
0.175537,1.012207,-0.046875,1.068115,3.807068,-0.648498,1.0283839335787974
0.172119,1.014893,-0.043945,1.045227,2.372742,-1.235962,1.0303222382512183
0.16626,1.015137,-0.042236,1.083374,1.63269,-1.64032,1.0295287252257703
0.163086,1.01416,-0.038818,1.045227,1.594543,-1.937866,1.0279223638582828
0.164551,1.015381,-0.032227,1.068115,2.128601,-2.380371,1.0291327350206096
0.165283,1.021973,-0.025879,0.930786,2.861023,-2.593994,1.0355756879431846
0.165771,1.030273,-0.024902,0.648498,3.555298,-2.632141,1.0438211477901758
0.168701,1.030029,-0.0271,0.534058,4.28772,-2.845764,1.0441044862665805
0.170654,1.029053,-0.023193,0.450134,4.928589,-2.838135,1.0433651229430663
0.177979,1.027588,-0.019775,0.38147,5.577087,-2.723694,1.0430746247560623
0.181641,1.027344,-0.01709,0.274658,5.897521,-2.441406,1.0434180443700407
0.183594,1.023682,-0.018066,0.076294,5.569458,-2.082825,1.0401720887987718
0.179199,1.022217,-0.019531,-0.335693,5.1651,-2.098083,1.0379890831078136
0.183105,1.015869,-0.019043,-0.411987,5.004883,-2.006531,1.0324145979377664
0.182129,1.009277,-0.021484,-0.663757,4.692078,-1.579285,1.025803391311415
0.181396,1.006104,-0.026123,-1.068115,3.852844,-1.51062,1.0226593659479193
0.177002,1.008789,-0.030029,-1.403808,2.967834,-1.617432,1.0246397881040925
0.171631,1.004639,-0.035645,-1.602173,2.670288,-1.670837,1.019817280941542
0.169922,1.001709,-0.03833,-1.731872,2.853393,-1.785278,1.0167416563045895
0.175049,1.005127,-0.043945,-1.617432,3.112793,-1.846313,1.0212020375787547
0.175293,1.004395,-0.042969,-1.51062,2.960205,-1.823425,1.0204818895183785
0.175781,1.007324,-0.043213,-1.441955,2.342224,-1.731872,1.0234588239426148
0.174072,1.012939,-0.043457,-1.342773,1.564026,-1.724243,1.0287054922347796
0.17334,1.017578,-0.047607,-1.190186,0.930786,-1.708984,1.0333335222148752
0.173584,1.021973,-0.05249,-0.87738,0.686645,-1.625061,1.0379380607170159
0.171143,1.019531,-0.052246,-0.549316,0.694275,-1.495361,1.0351149843983518
0.169678,1.019287,-0.053955,-0.068665,0.915527,-1.502991,1.0347210996582608
0.170898,1.020508,-0.053711,0.38147,1.083374,-1.342773,1.0361117584454873
0.171143,1.022461,-0.057129,0.732422,1.045227,-1.25885,1.0382582268448444
0.17334,1.024902,-0.057129,1.106262,0.556946,-1.13678,1.0410257383201433
0.176758,1.027344,-0.052734,1.647949,-0.076294,-1.144409,1.0437719864299866
0.18042,1.024414,-0.040039,2.029419,-0.778198,-1.083374,1.0409507871734378
0.174805,1.023438,-0.034912,1.998901,-1.091003,-0.831604,1.0388459826235072
0.178467,1.027588,-0.038818,2.037048,-0.526428,-0.679016,1.0436926774472453
0.178223,1.023193,-0.041504,2.464294,-0.549316,-0.328064,1.0394276958951978
0.174072,1.016113,-0.039307,2.471924,-1.441955,-0.350952,1.0316645434452034
0.170898,1.015625,-0.033936,2.342224,-2.128601,-0.457764,1.0304619930521455
0.166748,1.012695,-0.033447,2.258301,-2.418518,-0.564575,1.0268762147104196
0.163574,1.006348,-0.033203,2.220154,-2.426147,-0.610352,1.02009567678184
0.161133,0.998535,-0.034668,1.930237,-2.159119,-0.541687,1.0120463725235125
0.164063,0.998535,-0.035156,1.663208,-1.922607,-0.556946,1.0125338308076426
0.164063,1.001953,-0.033203,1.502991,-2.02179,-0.442505,1.015839023362954
0.165771,1.002686,-0.034668,1.319885,-2.6474,-0.465393,1.0168879531497066
0.165527,1.003906,-0.032715,1.144409,-3.242492,-0.556946,1.0179865990227965
0.164063,1.004883,-0.030762,1.152039,-3.456115,-0.701904,1.0186524492200468
0.165771,1.004639,-0.028809,1.083374,-3.578186,-0.770569,1.0186311909827817
0.16333,1.006104,-0.029053,0.892639,-3.868103,-0.892639,1.019689180351052
0.163086,1.007568,-0.028076,0.740051,-4.096985,-1.091003,1.0210673727996602
0.159912,1.00415,-0.025391,0.50354,-3.860473,-1.403808,1.0171203336503503
0.15918,0.998779,-0.023438,0.183105,-3.14331,-1.571655,1.0116556247483626
0.164551,0.999023,-0.020264,-0.259399,-2.26593,-1.594543,1.0126868300842071
0.168701,1.003174,-0.023926,-0.87738,-2.075195,-1.533508,1.0175414267502825
0.171387,1.006592,-0.027588,-1.533508,-2.693176,-1.472473,1.0214509562269742
0.172607,1.013428,-0.029053,-2.044678,-3.593445,-1.38092,1.0284325765172941
0.174561,1.022461,-0.029785,-2.418518,-4.264832,-1.312256,1.0376826034327646
0.175049,1.024414,-0.029053,-2.502441,-4.356384,-1.281738,1.0396683474098842
0.174561,1.024414,-0.036133,-2.632141,-4.173279,-1.144409,1.0398082418436583
0.174561,1.022461,-0.035889,-2.792358,-4.203796,-1.029968,1.037875743797397
0.17627,1.02417,-0.040771,-2.944946,-4.455566,-0.793457,1.0400276805167255
0.175537,1.024414,-0.042725,-3.082275,-5.073547,-0.495911,1.0402224316894921
0.173828,1.0271,-0.048828,-3.15094,-6.072998,-0.534058,1.042849345384078
0.174561,1.028809,-0.049316,-3.448486,-6.973266,-0.701904,1.0446777345468794
0.166992,1.0271,-0.047852,-3.715515,-7.415771,-0.839233,1.0416863980910953
0.172852,1.028076,-0.053223,-3.929138,-6.698608,-1.022339,1.0438633834985303
0.179199,1.022461,-0.05542,-3.921509,-6.507873,-0.976562,1.0395240038219415
0.178467,1.015137,-0.056885,-3.967285,-7.797241,-0.961304,1.0322739472073292
0.175537,1.012695,-0.056885,-4.127502,-9.399414,-1.13678,1.0293688865605954
0.168457,1.012207,-0.058105,-4.28009,-10.57434,-1.022339,1.0277728166881046
0.167969,1.010254,-0.05835,-4.203796,-11.680602,-0.900268,1.0257833357863637
0.165771,1.009277,-0.059814,-4.15802,-12.901305,-0.831604,1.0245476083452638
0.160889,1.010742,-0.057129,-4.081726,-14.053344,-0.724792,1.0250601853188914
0.158691,1.014893,-0.05957,-3.768921,-14.709472,-0.839233,1.0289505429465502
0.155029,1.013428,-0.05835,-3.456115,-15.129088,-0.961304,1.0268763433466563
0.150635,1.012695,-0.05249,-3.166198,-15.541076,-1.075745,1.0251815772583899
0.148438,1.012207,-0.047607,-2.845764,-15.457152,-1.228333,1.0241402624357663
0.146973,1.013428,-0.042236,-2.555847,-15.098571,-1.457214,1.024900606697547
0.146973,1.018555,-0.037598,-2.365112,-14.816283,-1.823425,1.0297907361974084
0.147217,1.021484,-0.03418,-2.151489,-14.465331,-2.120972,1.0326038348490674
0.148193,1.022949,-0.028076,-1.899719,-13.702392,-2.380371,1.0340087444630244
0.151367,1.020996,-0.027344,-1.678467,-12.489318,-2.555847,1.0325175519287797
0.155762,1.022949,-0.023926,-1.541138,-11.253356,-2.471924,1.0350163818611764
0.163086,1.027588,-0.021973,-1.174927,-9.986877,-2.288818,1.0406810048564354
0.166992,1.027832,-0.021484,-0.907898,-9.056091,-2.075195,1.0415308495402333
0.169922,1.029053,-0.022461,-0.495911,-8.430481,-1.876831,1.043229629283026
0.170166,1.029297,-0.021729,-0.068665,-8.140564,-1.708984,1.0434945765101031
0.165771,1.028809,-0.020264,0.175476,-8.239746,-1.670837,1.0422756893538294
0.15918,1.025879,-0.018555,0.175476,-8.369446,-1.808166,1.0383208959979568
0.151611,1.02417,-0.017334,0.144958,-8.430481,-2.029419,1.0354760025114054
0.144775,1.024902,-0.024414,-0.068665,-7.911682,-2.311707,1.0353646476604268
0.140137,1.024414,-0.029297,-0.320435,-6.79779,-2.487183,1.0343697290495308
0.139648,1.024658,-0.031738,-0.312805,-5.683898,-2.815246,1.034617263296916
0.145752,1.023682,-0.035645,-0.366211,-4.684448,-2.937317,1.034620243689925
0.150146,1.023926,-0.039063,-0.434875,-4.478455,-3.067016,1.0356129550951938
0.1521,1.024414,-0.041992,-0.282288,-4.600525,-2.944946,1.036494950040761
0.153809,1.022461,-0.047607,0.0,-5.218505,-2.662658,1.0350604482111179
0.157227,1.021729,-0.048096,0.495911,-6.324768,-2.494812,1.0348737624396516
0.152832,1.023926,-0.047607,0.87738,-7.492065,-2.449036,1.0363631121132206
0.142822,1.025879,-0.048096,1.266479,-8.361816,-2.410889,1.0368891317498703
0.135498,1.028076,-0.046875,1.815796,-8.560181,-2.578735,1.0380256429419266
0.132568,1.030273,-0.043945,2.296448,-7.888793,-2.799988,1.0396960575947183
0.128906,1.02832,-0.040527,2.685547,-6.690979,-3.135681,1.0371601693880266
0.130127,1.030029,-0.03833,3.173828,-5.233764,-3.211975,1.0389234648760226
0.133057,1.03125,-0.0354,3.318786,-3.684997,-3.288269,1.040400830328869
0.142334,1.031982,-0.032715,3.631592,-2.418518,-3.27301,1.0422648833693862
0.145996,1.032959,-0.030518,3.852844,-1.51062,-3.044128,1.0436716322776047
0.146973,1.03125,-0.027588,4.15802,-0.808716,-2.906799,1.0420358549363837
0.150146,1.03125,-0.025146,4.486084,-0.007629,-2.479553,1.042426354776202
0.150146,1.029297,-0.023682,4.631042,0.724792,-2.120972,1.0404599812818367
0.149902,1.026367,-0.024658,4.737854,1.022339,-1.983642,1.0375489604143988
0.14917,1.022217,-0.020996,4.882813,1.152039,-1.64032,1.033257042562498
0.144531,1.01709,-0.025879,4.875183,1.358032,-1.312256,1.0276336899411191
0.140137,1.015869,-0.028076,4.737854,1.411438,-1.342773,1.0258735135025174
0.138184,1.01123,-0.029785,4.837036,1.869202,-1.617432,1.0210622297299026
0.135986,1.007324,-0.029297,4.821777,2.563476,-1.708984,1.0168835466173105
0.135254,1.005127,-0.030273,4.745483,3.14331,-1.770019,1.0146380562417319
0.13501,1.00708,-0.031006,4.592896,3.662109,-1.899719,1.0165624420250827
0.134766,1.007813,-0.035645,4.425049,3.90625,-2.26593,1.0174082188335223
0.137939,1.009277,-0.037842,4.28009,4.272461,-2.586365,1.0193621767625087
0.138428,1.013428,-0.040527,4.104614,4.798889,-2.670288,1.0236410797232594
0.140869,1.014893,-0.042725,3.974914,5.218505,-2.830505,1.025513189693336
0.14624,1.016602,-0.044922,3.875732,5.683898,-2.929687,1.0280485154349477
0.150635,1.020264,-0.050293,3.669739,5.706787,-2.815246,1.0325497173356837
0.152344,1.023682,-0.051514,3.532409,5.638122,-2.716064,1.036237049934039
0.152588,1.024902,-0.056152,3.623962,5.531311,-2.540588,1.0377187742601557
0.1521,1.022705,-0.059814,3.707886,5.477905,-2.243042,1.0356822107292372
0.154297,1.022949,-0.060303,3.860473,5.500793,-2.029419,1.0362763495414726
0.153564,1.019287,-0.061523,3.860473,5.325317,-1.831055,1.032624312126148
0.149414,1.019775,-0.064941,3.829956,5.004883,-1.533508,1.0327066028170828
0.146484,1.021729,-0.067139,3.913879,4.570007,-1.327515,1.0343574609476167
0.144775,1.020508,-0.06665,4.058838,3.944397,-1.220703,1.0328787930773873
0.143799,1.015869,-0.069092,4.150391,3.517151,-1.029968,1.0283198344999476
0.140625,1.014648,-0.06958,4.142761,3.364563,-1.083374,1.0267070326675474
0.138672,1.013672,-0.071533,4.333496,3.288269,-1.060486,1.0256109482922848
0.143555,1.010742,-0.071289,4.592896,3.433227,-0.839233,1.0233716578594503
0.146484,1.007324,-0.064209,4.776001,3.372192,-0.709534,1.0199421546896668
0.146729,1.008545,-0.06665,4.91333,3.044128,-0.587463,1.0213396295875334
0.144531,1.007568,-0.062988,4.981995,2.838135,-0.343323,1.0198284035704241
0.145264,1.007813,-0.060791,4.905701,3.303528,-0.1297,1.0200412826675203
0.151367,1.01123,-0.064209,5.027771,4.257202,0.198364,1.0245100669441956
0.154297,1.010498,-0.064697,5.218505,4.013062,0.534058,1.0242555706570504
0.156738,1.008301,-0.062744,5.241394,2.952575,0.526428,1.0223377703973378
0.150635,1.010254,-0.064697,5.149841,2.212524,0.63324,1.023469466838166
0.145752,1.011475,-0.061279,5.355834,2.090454,0.75531,1.023757997267909
0.145264,1.006836,-0.059082,5.41687,2.525329,0.694275,1.0189754871026093
0.146484,1.009521,-0.058838,5.371093,3.028869,0.75531,1.0217886875186082
0.145752,1.011963,-0.059326,5.462646,3.295898,0.88501,1.0241251550220802
0.14624,1.013428,-0.052734,5.691528,3.089905,0.946045,1.0252820702323824
0.140137,1.010498,-0.048096,5.599975,2.792358,1.144409,1.0213020180088748
0.136963,1.012451,-0.054443,5.325317,2.914428,1.045227,1.0231226373309312
0.138184,1.017822,-0.053711,5.226135,3.280639,1.243591,1.0285627414314598
0.137695,1.017578,-0.049072,5.081176,3.64685,1.480102,1.0280238130962727
0.139648,1.02002,-0.047852,4.898071,3.967285,1.480102,1.0306464855652493
0.142578,1.019531,-0.047852,4.592896,4.180908,1.525879,1.0305638068305134
0.143799,1.020264,-0.054199,4.188538,3.982544,1.792908,1.0317724137124429
0.141113,1.016602,-0.058105,3.868103,3.684997,1.991272,1.0279925564895886
0.141113,1.013428,-0.059326,3.791809,3.52478,1.945495,1.0249237845952253
0.134766,1.01123,-0.063232,3.860473,3.700256,1.853943,1.0221283057816177
0.131104,1.009277,-0.068115,3.952026,4.234314,1.731872,1.0200333204214458
0.128174,1.00708,-0.070313,4.096985,4.837036,1.411438,1.017635798625913
0.128662,1.007813,-0.072266,4.203796,5.500793,1.060486,1.0185594376220761
0.130127,1.008301,-0.073486,4.127502,6.072998,0.724792,1.0193155227533819
0.128662,1.010254,-0.070801,4.15802,6.622314,0.312805,1.0208720959850945
0.131104,1.01123,-0.071533,3.936767,7.080078,-0.213623,1.0221992671710345
0.136719,1.015137,-0.070313,3.517151,7.537841,-0.549316,1.026712779553756
0.141113,1.020264,-0.06665,3.27301,7.919311,-0.724792,1.032130675333797
0.147217,1.02124,-0.067383,2.952575,8.003235,-1.113892,1.033994415544881
0.149658,1.02417,-0.074219,2.593994,7.858276,-1.152039,1.0377042766727909
0.152588,1.025879,-0.074707,2.174377,7.67517,-1.190186,1.0398518914893602
0.160156,1.024902,-0.074707,2.082825,6.92749,-1.25885,1.040026533213937
0.162354,1.026123,-0.079102,1.831055,5.638122,-1.228333,1.0418946006429823
0.161621,1.030518,-0.080566,1.655578,3.929138,-1.13678,1.0462215713322873
0.156006,1.031006,-0.082764,1.701355,2.39563,-1.13678,1.0460215694563855
0.152588,1.029541,-0.08252,1.88446,1.327515,-1.13678,1.0440533122523008
0.144287,1.0271,-0.088623,1.869202,0.816345,-0.999451,1.0409645452646308
0.139404,1.026123,-0.090576,2.052307,0.778198,-1.060486,1.0395027167453674
0.136963,1.025146,-0.089844,2.334595,0.991821,-1.068115,1.0381498586528823
0.134766,1.023682,-0.085938,2.426147,1.426697,-1.12915,1.0360849635642821
0.13501,1.022217,-0.085449,2.441406,1.853943,-1.243591,1.0346288352786228
0.135498,1.020996,-0.082764,2.380371,1.991272,-1.266479,1.0332678354211942
0.138184,1.020996,-0.08374,2.540588,1.899719,-1.464844,1.0337021028671656
0.14209,1.022217,-0.082275,2.578735,1.617432,-1.564026,1.0353194380547481
0.141357,1.020752,-0.079346,2.708435,1.281738,-1.777649,1.0335435330304188
0.142822,1.016846,-0.07666,2.822876,0.915527,-1.808166,1.0296847415592794
0.145508,1.015869,-0.072021,2.807617,0.671387,-1.76239,1.0287611130218715
0.148193,1.015381,-0.070313,2.601623,0.25177,-1.609802,1.0285444367546792
0.144775,1.018555,-0.067139,2.357483,-0.404358,-1.426697,1.03098095713306
0.137695,1.018799,-0.065186,2.14386,-0.831604,-1.335144,1.0301264631209122
0.133789,1.01709,-0.063477,1.914978,-0.648498,-1.319885,1.0278136475791708
0.134033,1.013184,-0.063965,1.693725,0.091553,-1.419067,1.024010832056966
0.134521,1.01123,-0.07373,1.342773,0.968933,-1.335144,1.0227991617326446
0.134033,1.012207,-0.077637,0.984192,1.823425,-1.213074,1.0239899216823378
0.136475,1.01001,-0.076172,0.968933,1.983642,-1.083374,1.022031212492554
0.136475,1.00708,-0.079346,0.564575,1.541138,-1.00708,1.01937791801716
0.141357,1.009766,-0.078613,0.221252,0.999451,-1.274109,1.022638342706746
0.13623,1.010986,-0.08374,0.175476,0.717163,-1.342773,1.0235544405140353
0.138672,1.01123,-0.084473,-0.007629,0.785828,-1.586914,1.0241834426571248
0.144287,1.01123,-0.085693,0.0,0.747681,-1.770019,1.0250600672731331
0.144043,1.015137,-0.090088,-0.183105,0.1297,-1.747131,1.0292557322463645
0.14209,1.014648,-0.091064,-0.358582,-0.511169,-2.120972,1.0285877619824184
0.144287,1.016113,-0.091553,-0.37384,-0.465393,-2.227783,1.0303816375241748
0.144775,1.016846,-0.095703,-0.419617,-0.305176,-2.220154,1.031549636493562
0.144775,1.016113,-0.095215,-0.37384,-0.350952,-2.311707,1.0307819001219416
0.148926,1.01709,-0.095703,-0.221252,-0.778198,-2.159119,1.0323807852653013
0.145264,1.022217,-0.092285,-0.198364,-1.586914,-1.899719,1.036602983793699
0.143555,1.020752,-0.091797,-0.152588,-2.403259,-1.89209,1.0348765012009888
0.141357,1.016602,-0.092285,0.0,-2.975464,-1.876831,1.030523143397566
0.139648,1.014648,-0.092529,0.045776,-3.623962,-1.716614,1.0283840448242088
0.134766,1.015625,-0.093994,0.205994,-4.241943,-1.571655,1.0288298632023665
0.130615,1.010742,-0.089111,0.396728,-4.386902,-1.480102,1.0230349158801961
0.130371,1.013184,-0.083008,0.358582,-4.03595,-1.319885,1.0249042606804795
0.131104,1.016846,-0.077393,0.457764,-3.295898,-1.365662,1.0281798106270128
0.135498,1.015869,-0.077881,0.602722,-2.494812,-1.518249,1.0278205015108426
0.135742,1.013916,-0.078857,0.465393,-1.945495,-1.487732,1.025997062407588
0.13916,1.013916,-0.076416,0.328064,-1.907349,-1.548767,1.026270220610537
0.138916,1.015869,-0.072998,0.061035,-2.166748,-1.594543,1.027918376244437
0.136963,1.019531,-0.075684,-0.167847,-2.365112,-1.541138,1.0314700146809892
0.135498,1.02002,-0.07959,-0.114441,-2.464294,-1.754761,1.0320538147325458
0.135254,1.018555,-0.08252,-0.267029,-2.388,-1.754761,1.0308042893493412
0.135498,1.020264,-0.082275,-0.236511,-2.227783,-1.76239,1.0325054543802663
0.140137,1.022217,-0.083008,-0.175476,-2.326965,-1.785278,1.0351117340277811
0.14209,1.020996,-0.084229,-0.198364,-2.784729,-1.602173,1.0342712045479174
0.137451,1.02124,-0.085449,-0.213623,-3.27301,-1.411438,1.03398522552404
0.136475,1.022461,-0.088623,-0.244141,-3.707886,-1.342773,1.035328913087527
0.135742,1.024658,-0.0896,-0.297546,-4.066467,-1.449585,1.0374864179968817
0.128174,1.024902,-0.094971,-0.190735,-4.463196,-1.335144,1.0372425823889992
0.124512,1.026367,-0.09668,-0.236511,-4.554749,-1.38855,1.038402368657256
0.127197,1.028809,-0.09375,-0.144958,-4.364014,-1.838684,1.0408727577326635
0.128906,1.025879,-0.093994,0.083923,-4.112244,-2.037048,1.0382096857152703
0.128662,1.019531,-0.092285,-0.068665,-4.005432,-2.13623,1.0317528247744223
0.130371,1.017334,-0.094238,-0.091553,-3.959656,-2.098083,1.0299737209468016
0.131836,1.016602,-0.09082,0.0,-3.89862,-1.998901,1.0291300353696806
0.131104,1.014404,-0.091553,0.198364,-3.890991,-1.792908,1.0269302244266647
0.129395,1.013916,-0.087891,0.389099,-3.90625,-1.770019,1.0259110823857982
0.130371,1.015137,-0.084473,0.50354,-3.501892,-1.792908,1.0269544362526508
0.13208,1.015869,-0.084473,0.63324,-3.112793,-1.716614,1.0278962200971458
0.132813,1.017578,-0.086426,0.785828,-3.005981,-1.754761,1.029841605553495
0.13208,1.020996,-0.084229,0.679016,-3.112793,-1.876831,1.0329436010049144
0.130859,1.020264,-0.08374,0.732422,-3.097534,-1.907349,1.0320247551183064
0.129639,1.020508,-0.085205,0.831604,-2.777099,-2.105713,1.0322319218131166
0.127686,1.01709,-0.085693,0.846863,-2.13623,-2.113342,1.0286491495864858
0.128418,1.018799,-0.088379,0.854492,-1.541138,-1.991272,1.030656796788339
0.128906,1.020264,-0.089844,0.854492,-1.274109,-1.968384,1.0322922700805233
0.128662,1.01709,-0.088135,0.846863,-1.335144,-2.037048,1.028977043752192
0.127686,1.015381,-0.08667,1.00708,-1.518249,-1.983642,1.0270413714437214
0.125977,1.015625,-0.087402,0.778198,-1.708984,-1.960754,1.0271336109572113
0.122803,1.015381,-0.087402,0.839233,-1.88446,-1.907349,1.0265077990809424
0.125977,1.016602,-0.085938,0.747681,-2.067566,-1.899719,1.0279762501035712
0.121582,1.014893,-0.086426,0.602722,-2.113342,-1.800537,1.0257969768180253
0.119629,1.016846,-0.089355,0.610352,-1.686096,-1.800537,1.027750554065528
0.121582,1.016846,-0.083984,0.556946,-1.13678,-1.739502,1.0275267795517544
0.121338,1.016113,-0.083252,0.396728,-0.770569,-1.64032,1.0267129270234208
0.125244,1.01709,-0.085449,0.228882,-0.686645,-1.586914,1.0283285755229212
0.125732,1.02002,-0.082764,0.106812,-0.701904,-1.51062,1.0310670278502752
0.125977,1.02124,-0.082764,0.015259,-0.717163,-1.434326,1.0323038418145114
0.128174,1.019775,-0.081055,-0.114441,-0.62561,-1.579285,1.0309895915701575
0.127197,1.017334,-0.082031,-0.183105,-0.526428,-1.64032,1.0285312972029583
0.131836,1.021484,-0.084717,-0.572205,-0.686645,-1.617432,1.033434692296035
0.142578,1.022705,-0.083496,-0.671387,-1.228333,-1.434326,1.0359660154295602
0.155762,1.018555,-0.086914,-0.602722,-2.5177,-0.770569,1.034055188113768
0.1521,1.022217,-0.094238,-0.930786,-4.28772,-0.099182,1.0377585488604755
0.159668,1.025146,-0.06958,-1.304626,-6.385803,-0.312805,1.0398363178596908
0.156982,1.023438,-0.075195,-1.266479,-6.439209,0.282288,1.0381343728983257
0.135742,1.024414,-0.096924,-1.274109,-7.476806,1.029968,1.0379037507090914
0.136963,1.020996,-0.097168,-1.022339,-11.291503,0.862122,1.0347141226488599
0.121338,1.021973,-0.097168,-0.732422,-13.298034,1.159668,1.0337278864367547
0.105225,1.017822,-0.101563,-0.053406,-12.107848,1.63269,1.028274752815608
0.108887,1.012939,-0.101318,0.320435,-9.780884,1.625061,1.023800338744816
0.104004,1.012695,-0.104004,0.328064,-7.133483,1.663208,1.0233204908810338
0.109131,1.018555,-0.104492,0.350952,-5.058288,0.991821,1.0297001705593722
0.110107,1.016113,-0.105957,0.587463,-4.051208,0.183105,1.0275388392012246
0.109375,1.01709,-0.110596,0.671387,-2.929687,-0.228882,1.0289151733456943
0.114258,1.018555,-0.105469,0.869751,-1.731872,-0.701904,1.030355709718736
0.120361,1.013916,-0.101807,1.12915,-1.098633,-1.25885,1.0260979927014768
0.12207,1.013184,-0.096924,1.113892,-0.984192,-1.403808,1.025103489669214
0.123779,1.018799,-0.093018,1.083374,-0.999451,-1.182556,1.0304974485975207
0.123535,1.022217,-0.092529,1.075745,-0.793457,-1.243591,1.0338037082323703
0.124268,1.02124,-0.088867,1.045227,-0.564575,-1.243591,1.0326039982069601
0.124756,1.021729,-0.091797,1.106262,-0.343323,-1.052856,1.0334025828233642
0.124268,1.019287,-0.088867,0.961304,-0.244141,-0.991821,1.0306725318363734
0.121338,1.017822,-0.087891,0.938415,-0.053406,-0.999451,1.0287902418904449
0.118652,1.018799,-0.091797,0.862122,0.389099,-0.984192,1.029784632199374
0.119629,1.016602,-0.090576,0.63324,0.732422,-0.75531,1.0276160449413974
0.118408,1.016113,-0.092773,0.411987,1.312256,-0.785828,1.0271868928106511
0.120361,1.016357,-0.093262,0.198364,1.907349,-0.839233,1.027699431942044
0.123535,1.018555,-0.092773,0.022888,1.976013,-0.869751,1.030204840688977
0.122559,1.016846,-0.09082,-0.282288,1.495361,-0.999451,1.0282240848166315
0.124268,1.017334,-0.089844,-0.495911,1.022339,-1.312256,1.0288260045877535
0.125977,1.019043,-0.0896,-0.480652,1.014709,-1.365662,1.0307021880145593
0.131592,1.020264,-0.089355,-0.465393,0.976562,-1.457214,1.0325886887744802
0.133057,1.02124,-0.093506,-0.450134,0.457764,-1.480102,1.0341076708375196
0.128906,1.02124,-0.096191,-0.434875,-0.236511,-1.38855,1.0338281302600543
0.126953,1.020264,-0.096924,-0.183105,0.183105,-1.075745,1.0326906389045076
0.130127,1.020996,-0.092529,0.152588,1.167297,-0.717163,1.033405769282328
0.130615,1.019043,-0.087158,0.160217,1.777649,-0.549316,1.031070041771169
0.128662,1.019287,-0.086426,0.1297,2.220154,-0.007629,1.031004050471675
0.125732,1.021484,-0.089355,0.289917,2.243042,0.488281,1.03306457402478
0.122559,1.019775,-0.09082,0.358582,1.89209,0.75531,1.0311207647535763
0.124023,1.02002,-0.08667,0.778198,2.243042,0.961304,1.0311809704552348
0.126709,1.019775,-0.090332,0.946045,3.204345,0.930786,1.0315794160073184
0.127197,1.023193,-0.098389,1.235962,4.02832,1.182556,1.0357525705394122
0.135742,1.017578,-0.101807,1.998901,4.638672,1.38092,1.0316276178432797
0.146484,1.013184,-0.099121,2.578735,3.90625,1.853943,1.028505883674469
0.123291,1.011963,-0.104736,1.869202,1.823425,1.449585,1.0248118918835787
0.099365,1.015137,-0.10083,0.526428,1.571655,1.38855,1.0249601069768521
0.106201,1.019775,-0.101074,-0.022888,5.691528,1.693725,1.030259994613981
0.106934,1.019531,-0.100098,0.045776,12.184142,2.563476,1.0299990048155385
0.112793,1.018555,-0.084961,-0.198364,17.578125,3.982544,1.0282970973386047
0.132813,1.02832,-0.09668,0.221252,21.461485,4.119873,1.0413588899937427
0.153564,1.026367,-0.11084,1.091003,20.584105,3.692627,1.0436937416622751
0.171143,1.022217,-0.109863,1.655578,14.98413,3.639221,1.0422511215187056
0.160889,1.02002,-0.112793,2.052307,8.964539,3.784179,1.0387725119437845
0.137939,1.021484,-0.108154,2.151489,6.996154,3.944397,1.036414018475725
0.148193,1.020508,-0.093506,2.372742,9.605408,4.28772,1.0354424732205068
0.144043,1.017822,-0.092285,2.471924,13.816833,5.256652,1.0320981207026783
0.130859,1.016113,-0.075928,2.27356,17.219543,5.805969,1.0273143471372335
0.127441,1.013184,-0.061279,2.204895,20.324705,5.294799,1.0230044683079347
0.134033,1.010742,-0.065186,2.319336,23.056028,4.669189,1.0216718897224295
0.149658,1.010986,-0.059326,2.189636,23.941038,4.53186,1.0237234897353873
0.153809,1.012451,-0.065918,2.029419,23.147581,4.295349,1.0261868341613043
0.15918,1.011475,-0.068848,2.044678,20.843504,4.15802,1.0262358379675696
0.168213,1.010742,-0.07251,2.13623,17.417908,3.90625,1.0272062616792208
0.159668,1.006836,-0.074951,2.044678,13.328551,3.517151,1.0221693859243683
0.150635,1.004639,-0.061279,1.495361,10.95581,3.364563,1.0177158441269352
0.160645,1.011719,-0.0625,1.289368,10.94818,3.097534,1.0262983976339435
0.167725,1.018311,-0.074219,1.312256,9.498596,3.326416,1.034696780852729
0.170166,1.019287,-0.081055,1.487732,6.149292,3.128052,1.0365675901503
0.157715,1.018311,-0.084473,1.678467,3.868103,2.929687,1.0339086041207899
0.14502,1.019531,-0.0896,1.686096,4.653931,3.204345,1.0336839073725583
0.143311,1.020752,-0.088623,1.792908,6.904602,3.77655,1.0345659594022993
0.147705,1.019531,-0.095215,1.960754,8.331299,3.761291,1.034565668873175
0.150879,1.015625,-0.096924,2.220154,8.575439,3.936767,1.031335481326033
0.144287,1.015625,-0.101563,2.029419,7.774353,3.814697,1.030838455803333
0.148438,1.017578,-0.103027,2.197266,6.942749,3.158569,1.033495712935956
0.154297,1.016846,-0.10376,2.6474,6.011962,2.700805,1.033706674799481
0.150635,1.015625,-0.101074,2.609253,5.065917,2.235413,1.031698113464399
0.148438,1.013184,-0.09668,2.754211,4.234314,1.571655,1.0285536836257019
0.156738,1.010986,-0.090576,2.731323,3.39508,0.808716,1.0270654821460996
0.160156,1.008789,-0.089111,2.502441,2.304077,0.602722,1.0253028631472751
0.158203,1.010986,-0.089111,2.418518,1.228333,0.656128,1.027161940360915
0.16626,1.010986,-0.077881,2.555847,0.389099,0.305176,1.027521547198403
0.161865,1.008789,-0.074463,2.319336,-0.076294,0.114441,1.0244023931614958
0.158936,1.012451,-0.085449,1.907349,0.198364,0.37384,1.0284061508460556
0.165039,1.012939,-0.080566,1.907349,-0.839233,-0.022888,1.0294533353183135
0.156738,1.010986,-0.083496,1.495361,-2.464294,-0.694275,1.02646533056699
0.14502,1.014893,-0.091309,1.106262,-2.525329,-1.075745,1.0292598968822209
0.142822,1.013672,-0.088623,1.274109,-1.220703,-1.518249,1.027513057531144
0.146973,1.007324,-0.089111,1.25885,0.221252,-1.731872,1.0218823190690796
0.147705,1.010498,-0.085938,0.999451,1.502991,-1.548767,1.0248455078073964
0.148193,1.018066,-0.0896,0.915527,3.868103,-1.289368,1.0326895494799004
0.151855,1.018311,-0.086426,0.87738,6.492614,-1.228333,1.0331924734636815
0.165527,1.013184,-0.087646,0.984192,7.774353,-1.235962,1.0303508270977415
0.162598,1.015137,-0.085205,0.785828,7.133483,-0.839233,1.0316012458299961
0.157959,1.020264,-0.085938,0.442505,6.690979,-0.816345,1.0359898721614031
0.155518,1.014404,-0.089355,0.457764,7.545471,-0.808716,1.0301386506509695
0.158447,1.014648,-0.103271,0.434875,9.44519,0.167847,1.0321244668905005
0.156738,1.015381,-0.126465,0.518799,11.20758,1.770019,1.0351612299685495
0.159912,1.012695,-0.113525,1.686096,11.558532,2.5177,1.0315090578342003
0.170898,1.004639,-0.078857,1.976013,10.459899,2.441406,1.0221174458808537
0.162109,1.003174,-0.072266,0.839233,9.58252,2.540588,1.018754031605765
0.158691,1.009766,-0.067383,-0.099182,12.092589,2.243042,1.0243781903799005
0.173096,1.010986,-0.05835,-0.411987,17.227173,1.586914,1.0273556540517017
0.183594,1.012939,-0.091064,-0.961304,21.278379,2.250671,1.0334625424527975
0.173584,1.015625,-0.119141,-1.296997,21.934507,4.356384,1.037217490964166
0.1875,0.997559,-0.106934,-0.267029,17.814636,4.981995,1.0206444478058947
0.1604,0.990723,-0.110107,-0.679016,12.023925,4.768372,1.0096453705029305
0.139404,1.008301,-0.105225,-1.13678,11.688231,4.585266,1.0233165113697715
0.152832,1.009277,-0.087158,-0.450134,15.968322,3.372192,1.0244970472954034
0.163086,1.003418,-0.086182,-0.297546,19.485474,2.578735,1.0202313773081084
0.17749,1.00415,-0.08252,-0.091553,19.599915,1.914978,1.023049105859538
0.1875,1.006836,-0.075195,0.114441,18.104553,0.808716,1.026902755338109
0.201416,1.011475,-0.072998,0.274658,16.677856,0.862122,1.0339143043236223
0.208008,1.015625,-0.089111,0.198364,13.046264,1.403808,1.040529787661074
0.214111,1.014404,-0.082031,0.541687,6.736755,1.396179,1.0399942694544042
0.218018,1.003662,-0.065186,0.831604,0.038147,1.548767,1.0291348177785067
0.204346,0.998779,-0.057373,0.38147,-4.882813,1.960754,1.0210819945949492
0.186768,0.998535,-0.054199,-0.015259,-6.54602,2.082825,1.0172963991138473
0.172119,1.000732,-0.05957,-0.343323,-5.729675,1.983642,1.0171716034598095
0.165771,1.001465,-0.070313,-0.289917,-3.471374,1.556396,1.017524490434997
0.17627,1.004395,-0.072754,-0.038147,-1.205444,1.167297,1.0223373090330803
0.188965,0.999268,-0.068359,0.030518,-0.473022,0.938415,1.019272907483565
0.188721,1.006104,-0.074463,-0.053406,-1.365662,0.823975,1.0263555003145841
0.188232,1.008545,-0.073242,-0.007629,-2.426147,0.701904,1.0285711902503394
0.19043,1.007324,-0.068115,0.12207,-3.02124,0.511169,1.0274263375546686
0.193115,1.007813,-0.071289,0.022888,-3.784179,0.343323,1.0286216834750277
0.186279,1.010254,-0.072754,-0.091553,-5.180358,0.25177,1.0298573468558643
0.171387,1.015137,-0.091553,-0.167847,-5.455017,-0.289917,1.0335659554895371
0.164551,1.021484,-0.112793,0.1297,-1.876831,-0.099182,1.0407828086137858
0.185059,1.010254,-0.090576,0.907898,0.701904,1.075745,1.0310499453338815
0.182617,1.000244,-0.071289,0.534058,-0.534058,0.976562,1.0192738345243637
0.172852,1.01123,-0.074951,-0.221252,-0.694275,0.549316,1.0286309246785263
0.181396,1.02124,-0.078613,-0.099182,0.938415,0.62561,1.0401998126249592
0.194824,1.014893,-0.077148,0.144958,0.572205,0.839233,1.0362991876523884
0.192627,1.012451,-0.085205,0.190735,-1.739502,0.732422,1.0341286576413016
0.177246,1.024414,-0.108398,0.450134,-2.815246,0.961304,1.0452704503218293
0.197021,1.016846,-0.080322,1.327515,-3.601074,0.938415,1.038867020287486
0.195557,0.991211,-0.052979,1.396179,-5.615234,1.579285,1.0117057681020702
0.163818,1.008789,-0.064697,0.205994,-6.278991,1.625061,1.0240494545938685
0.168457,1.010254,-0.065918,0.480652,-6.561279,0.175476,1.02632162994307
0.167236,1.000244,-0.068848,0.511169,-8.300781,-0.205994,1.0164624864381369
0.165283,1.003662,-0.063477,0.350952,-9.994507,-0.572205,1.0191590699503192
0.172363,1.002197,-0.052734,0.335693,-11.878966,-1.701355,1.0182773224097648
0.168945,0.999756,-0.046875,0.045776,-14.244079,-2.63977,1.0150131714347357
0.163818,0.997314,-0.038574,-0.679016,-16.326904,-3.486633,1.011414605983125
0.165527,1.0,-0.029053,-1.655578,-18.218994,-4.547119,1.0140233057173784
0.168213,1.000732,-0.019531,-2.861023,-20.095823,-5.424499,1.014958919934201
0.164551,1.0,-0.004639,-4.196167,-21.675108,-6.454467,1.013458707556455
0.157471,0.999756,0.002441,-5.767822,-21.255491,-7.202148,1.0120845487695185
0.147949,1.006104,-0.01001,-7.194519,-18.547058,-7.545471,1.0169731390341634
0.132324,1.016113,-0.040039,-8.010864,-13.641356,-7.759094,1.0254747150788264
0.141846,1.015137,-0.033691,-7.537841,-9.284973,-7.743835,1.0255527777574394
0.135742,1.002441,-0.038574,-7.408142,-6.652832,-7.461547,1.0123249490756412
0.131836,1.012207,-0.055908,-8.300781,-4.333496,-8.308411,1.0222863816998642
0.130859,1.017334,-0.064453,-8.033752,-1.64032,-9.338379,1.0277386509448792
0.128662,1.014893,-0.068848,-7.781982,1.434326,-9.70459,1.0253300730969517
0.12915,1.016113,-0.07373,-7.5531,4.310608,-10.147094,1.0269379066764455
0.133545,1.019043,-0.079346,-7.209777,6.500244,-10.536193,1.0308145762405574
0.131104,1.020508,-0.08667,-7.011413,8.659363,-10.795592,1.0325388737379333
0.125732,1.021973,-0.097412,-6.652832,12.245177,-10.94818,1.0342758076533551
0.128174,1.026367,-0.108887,-6.462097,16.586304,-10.238647,1.0400548888082781
0.137939,1.029053,-0.115234,-6.202697,19.882202,-9.475708,1.0446320497122419
0.146484,1.027588,-0.114502,-5.599975,21.301268,-9.002686,1.044272650223111
0.153809,1.021973,-0.102783,-5.088806,20.904539,-8.895874,1.03858093873275
0.158691,1.022461,-0.09668,-5.371093,18.318176,-8.972168,1.0392094843687678
0.164307,1.020996,-0.10083,-5.340576,14.427184,-9.788513,1.0390362415070036
0.175781,1.024902,-0.095215,-4.562378,10.711669,-9.849548,1.0442169151043283
0.189209,1.029053,-0.103027,-3.883362,7.034301,-9.017944,1.0513632508410211
0.195313,1.031494,-0.107666,-2.731323,1.327515,-8.735657,1.0553288622799055
0.203613,1.029053,-0.101318,-1.464844,-6.126403,-8.789063,1.0538850353344997
0.193115,1.022705,-0.089355,-0.679016,-12.054442,-7.843017,1.0446067376170804
0.186279,1.015625,-0.077637,-0.106812,-14.953612,-6.645202,1.0354812940053528
0.183594,1.015137,-0.070313,-0.366211,-15.808105,-5.622863,1.033998937897907
0.174805,1.015381,-0.070557,-0.709534,-16.067505,-4.364014,1.0327311622271307
0.164551,1.016113,-0.065186,-0.656128,-16.387939,-4.013062,1.0314125629281428
0.157959,1.013428,-0.062988,-0.961304,-17.127991,-3.982544,1.0275966353628256
0.156494,1.011963,-0.066406,-1.220703,-17.578125,-4.089355,1.0261428956246785
0.158691,1.014893,-0.070313,-1.312256,-17.425537,-3.578186,1.0296283566894417
0.161621,1.017578,-0.07666,-1.205444,-17.372131,-2.815246,1.0331810535065962
0.159668,1.015625,-0.075928,-0.717163,-17.51709,-2.456665,1.0308991570629011
0.156006,1.014893,-0.07373,-0.38147,-18.531799,-2.258301,1.0294570347445298
0.147217,1.015381,-0.066895,-0.518799,-19.859314,-1.945495,1.0281762306506605
0.138428,1.01709,-0.066895,-0.648498,-20.973204,-1.88446,1.0286444090690428
0.130615,1.018799,-0.065918,-0.663757,-21.133421,-1.876831,1.0292506319405395
0.125732,1.019287,-0.06665,-0.656128,-20.492552,-1.754761,1.0291728458781841
0.121582,1.023926,-0.068604,-0.686645,-19.615173,-1.800537,1.0333988315340792
0.119141,1.029297,-0.067627,-0.602722,-18.798828,-1.914978,1.0383738744878934
0.120361,1.036133,-0.069336,-0.419617,-17.76123,-2.197266,1.0454022407217234
0.119629,1.042236,-0.06958,-0.236511,-16.601563,-2.624511,1.0513840182050513
0.118164,1.042236,-0.069092,-0.061035,-15.449523,-3.135681,1.0511861467199801
0.116455,1.043213,-0.071777,0.175476,-14.007567,-3.40271,1.0521440339245383
0.118164,1.041016,-0.070068,0.297546,-12.21466,-3.40271,1.0500412219413102
0.12085,1.042969,-0.067871,0.411987,-10.551452,-3.387451,1.052138550810681
0.120361,1.045166,-0.065186,0.259399,-9.033203,-3.234863,1.0540910551147848
0.120117,1.043701,-0.062744,-0.190735,-7.8125,-2.548218,1.052462199143513
0.121582,1.041748,-0.06958,-0.366211,-7.217407,-2.288818,1.0511243763836893
0.121094,1.035156,-0.069092,-0.785828,-7.141113,-2.151489,1.044502467989425
0.118164,1.027344,-0.068848,-1.098633,-7.156372,-1.960754,1.0364065188602396
0.119141,1.019043,-0.070801,-1.289368,-7.057189,-1.960754,1.0284240347886662
0.120605,1.009033,-0.077393,-1.350403,-7.019042,-2.227783,1.0191579060984615
0.118896,1.001709,-0.081299,-1.411438,-7.17163,-2.349854,1.0120112187609382
0.11792,0.999023,-0.080566,-1.289368,-7.080078,-2.563476,1.009179350405566
0.120605,0.997803,-0.078857,-0.938415,-6.660461,-2.89154,1.0081541644426213
0.123535,0.998779,-0.073975,-0.938415,-5.996704,-3.059387,1.0091048942954344
0.125977,1.000244,-0.070068,-0.900268,-5.340576,-3.051758,1.010577947854098
0.12915,1.001709,-0.069092,-0.747681,-4.920959,-3.372192,1.0123607793889486
0.132813,1.003906,-0.065186,-0.595093,-4.997253,-3.639221,1.014749114018337
0.134277,1.007813,-0.064209,-0.648498,-5.432128,-3.784179,1.0187443994344214
0.133301,1.006836,-0.066406,-0.869751,-6.134033,-3.448486,1.0177905699764564
0.129395,1.00708,-0.066162,-1.106262,-6.660461,-3.105163,1.0175119668431423
0.126709,1.009766,-0.063965,-1.068115,-7.003784,-3.15094,1.0196931237691071
0.125,1.015381,-0.064209,-1.113892,-6.904602,-3.059387,1.0250592035789934
0.123291,1.019775,-0.065918,-1.243591,-6.607055,-2.998352,1.0293138025063107
0.121826,1.021973,-0.070801,-1.365662,-6.584167,-2.883911,1.0316410076213527
0.116455,1.026123,-0.074707,-1.403808,-6.530761,-2.792358,1.0354087666245635
0.113525,1.028564,-0.074951,-1.296997,-6.912231,-2.914428,1.03752083358456
0.112305,1.027588,-0.079346,-1.274109,-7.362365,-2.861023,1.036747461286981
0.109131,1.028076,-0.082031,-1.091003,-7.545471,-2.815246,1.0371012110194453
0.106689,1.02832,-0.079346,-0.900268,-7.331848,-2.89917,1.0368801053337844
0.104248,1.027832,-0.08252,-0.640869,-6.92749,-2.983093,1.0363955886282035
0.106689,1.031738,-0.077393,-0.37384,-6.538391,-2.845764,1.0401228388099166
0.104004,1.034668,-0.075439,-0.106812,-6.126403,-2.738952,1.0426148593613078
0.10791,1.030762,-0.075684,0.259399,-5.683898,-2.6474,1.0391549146301526
0.11084,1.030762,-0.069336,0.488281,-5.386352,-2.449036,1.0390203497237191
0.108643,1.028564,-0.068848,0.724792,-5.111694,-2.067566,1.0365747684798237
0.110352,1.029541,-0.069824,0.976562,-4.646301,-1.754761,1.0377897790790773
0.110352,1.028564,-0.068115,1.266479,-4.554749,-1.586914,1.0367068627268752
0.107178,1.023926,-0.067627,1.480102,-4.425049,-1.434326,1.0317388178647733
0.107178,1.02124,-0.064697,1.693725,-3.807068,-1.098633,1.0288848152699115
0.103027,1.019775,-0.064453,1.838684,-2.853393,-0.900268,1.026990653590869
0.10498,1.02002,-0.065918,1.808166,-1.960754,-0.869751,1.0275245902283798
0.108887,1.020264,-0.063965,1.708984,-1.213074,-0.831604,1.0280498673167562
0.110352,1.019287,-0.0625,1.754761,-0.671387,-0.679016,1.0271464366257619
0.110596,1.021729,-0.061279,1.770019,-0.518799,-0.778198,1.0295225789160722
0.112061,1.019775,-0.062256,1.64032,-0.747681,-0.808716,1.0278008211137022
0.111816,1.018799,-0.062012,1.739502,-0.900268,-0.465393,1.026790976002906
0.112061,1.023682,-0.061768,1.792908,-0.930786,-0.343323,1.03164809439508
0.111816,1.026611,-0.0625,1.754761,-0.984192,-0.213623,1.0345719951637005
0.109619,1.023193,-0.063721,1.876831,-1.060486,0.061035,1.0310192075082791
0.106689,1.022461,-0.062256,1.976013,-1.060486,0.343323,1.0298955523634423
0.104736,1.023682,-0.063477,1.853943,-1.12915,0.495911,1.0309819573343657
0.101807,1.024902,-0.066162,1.808166,-1.220703,0.686645,1.0320688858293325
0.097412,1.023682,-0.066162,1.693725,-1.274109,0.88501,1.0304326009555405
0.094971,1.020996,-0.06543,1.113892,-1.121521,1.022339,1.027488884493161
0.095947,1.025635,-0.067627,0.770569,-0.663757,1.052856,1.0323305629317578
0.098877,1.027832,-0.066406,0.648498,-0.091553,1.045227,1.034710122782705
0.098633,1.027832,-0.065186,0.602722,0.038147,0.701904,1.0346092516061318
0.103271,1.028564,-0.062256,0.427246,-0.549316,0.259399,1.035608328989778
0.105225,1.025391,-0.063477,0.328064,-1.449585,0.045776,1.032728586335732
0.101074,1.025635,-0.05957,0.411987,-1.899719,0.1297,1.032323443306893
0.099121,1.022461,-0.05835,0.526428,-1.708984,0.144958,1.0289101961114002
0.101563,1.024414,-0.057373,0.511169,-1.266479,0.190735,1.0310338246119763
0.100342,1.02417,-0.053955,0.610352,-1.022339,0.175476,1.030487189580249
0.098877,1.026367,-0.05249,0.511169,-0.770569,0.297546,1.0324539117645881
0.096436,1.026367,-0.052734,0.366211,-0.312805,0.366211,1.0322354361002146
0.095215,1.025146,-0.051514,0.312805,0.434875,0.289917,1.0308462105168743
0.094482,1.025879,-0.052734,0.236511,1.327515,0.1297,1.0315694090661083
0.094727,1.026855,-0.050781,0.022888,2.357483,0.007629,1.0324645783342885
0.094727,1.031006,-0.053223,-0.198364,3.417969,-0.091553,1.0367156139916096
0.093506,1.03418,-0.055176,-0.434875,4.40979,-0.404358,1.0398634696016589
0.097656,1.030273,-0.057617,-0.770569,4.920959,-0.679016,1.0364935443860708
0.095215,1.029297,-0.064697,-1.00708,5.28717,-0.610352,1.0357142039399672
0.097168,1.029297,-0.06665,-1.068115,5.569458,-0.75531,1.0360193805778923
0.101563,1.027588,-0.069092,-1.13678,5.455017,-1.121521,1.0349037854684848
