ax,ay,az,gx,gy,gz,acc_mag
-0.386963,-0.932129,0.098877,-0.404358,-2.075195,0.389099,1.0140914638921876
-0.388428,-0.93335,0.09668,-0.579834,-1.991272,0.38147,1.0155616948684112
-0.387939,-0.932617,0.095703,-0.610352,-1.976013,0.358582,1.0146083976682827
-0.388428,-0.93457,0.093262,-0.63324,-1.930237,0.175476,1.0163637128154468
-0.391357,-0.936768,0.092773,-0.579834,-1.823425,-0.053406,1.0194613365900642
-0.394775,-0.940918,0.090576,-0.541687,-1.861572,-0.083923,1.0243915243328598
-0.393799,-0.939697,0.093262,-0.404358,-1.831055,-0.076294,1.0231353306645217
-0.391602,-0.937012,0.094482,-0.335693,-1.724243,0.007629,1.0199364994312146
-0.393799,-0.939209,0.093994,-0.358582,-1.678467,0.183105,1.022754159179028
-0.393555,-0.94043,0.095947,-0.320435,-1.861572,0.335693,1.0239628654077255
-0.391357,-0.94043,0.098389,-0.305176,-1.922607,0.556946,1.023351983273595
-0.392578,-0.941162,0.098633,-0.12207,-1.907349,0.62561,1.0245154293699046
-0.393555,-0.939941,0.095947,-0.083923,-2.01416,0.62561,1.023513775342081
-0.391113,-0.940918,0.093994,-0.038147,-2.319336,0.549316,1.0232941578690853
-0.387207,-0.937988,0.098389,0.205994,-2.655029,0.450134,1.0195249601230958
-0.389404,-0.933105,0.095215,0.282288,-2.609253,0.37384,1.0155719139804922
-0.388184,-0.93457,0.095703,0.190735,-2.441406,0.1297,1.0164974013567374
-0.38623,-0.934326,0.093994,0.167847,-2.342224,-0.015259,1.0153686814216796
-0.385986,-0.935791,0.092773,0.305176,-2.075195,-0.030518,1.0165120842400253
-0.385742,-0.933838,0.092529,0.267029,-1.770019,-0.1297,1.0145993872701677
-0.385986,-0.934326,0.089355,0.297546,-1.472473,-0.236511,1.014856927106969
-0.38916,-0.935791,0.088867,0.297546,-1.289368,-0.236511,1.0173729134245713
-0.38916,-0.936768,0.087646,0.221252,-1.335144,-0.259399,1.0181658080784288
-0.388428,-0.9375,0.089355,0.099182,-1.434326,-0.38147,1.0187084358191012
-0.387451,-0.936279,0.087402,-0.061035,-1.594543,-0.38147,1.017042650455722
-0.388184,-0.935303,0.087891,-0.106812,-1.838684,-0.411987,1.0164661074261159
-0.387939,-0.936523,0.088867,-0.320435,-1.846313,-0.495911,1.0175801398116022
-0.385986,-0.936768,0.088867,-0.511169,-1.853943,-0.526428,1.0170628405900002
-0.385254,-0.935303,0.090576,-0.602722,-1.831055,-0.610352,1.0155867063431856
-0.38501,-0.937012,0.091553,-0.640869,-1.472473,-0.50354,1.017155907446346
-0.386475,-0.934814,0.091553,-0.488281,-0.961304,-0.495911,1.0156879895076047
-0.385986,-0.935059,0.098389,-0.328064,-0.350952,-0.595093,1.0163665288654482
-0.391113,-0.935791,0.097412,-0.221252,0.167847,-0.518799,1.018902974867578
-0.392334,-0.936279,0.094238,-0.198364,0.434875,-0.343323,1.0195220125338147
-0.39209,-0.938965,0.09668,-0.106812,0.808716,-0.274658,1.022123701772442
-0.386719,-0.938232,0.099121,0.305176,1.373291,0.167847,1.0196351521137352
-0.379883,-0.939941,0.112549,0.915527,2.532959,0.640869,1.0200330654302339
-0.361572,-0.943848,0.142578,1.953125,5.241394,1.289368,1.0207408311476525
-0.325195,-0.94873,0.148682,4.371643,10.269164,2.716064,1.0138770823176741
-0.278076,-0.94458,0.124023,7.987976,19.737244,4.356384,0.9924411028897382
-0.19873,-0.944336,0.08252,12.168883,36.430359,5.950927,0.9685420198401306
-0.216309,-0.946777,0.065186,16.792297,59.402462,7.369995,0.9733578405735478
-0.333008,-0.956055,0.080322,20.156858,82.176201,10.131835,1.0155723089829694
-0.469971,-0.964111,0.099854,22.644041,91.720573,16.51001,1.0771970954648922
-0.520752,-0.980225,0.140137,25.695799,89.271538,23.445127,1.1187770443202703
-0.487061,-0.99707,0.150391,29.571531,84.869377,29.541014,1.1198189387137547
-0.43042,-1.001953,0.16626,34.629822,91.987602,35.705566,1.1030927332772165
-0.441406,-1.008057,0.173828,38.856506,111.473076,42.770382,1.114106972273758
-0.495605,-1.01709,0.153076,42.358395,130.867004,51.727291,1.1417217900613967
-0.522217,-1.008789,0.140625,45.463558,142.730713,60.272213,1.144614010151457
-0.510986,-0.996826,0.119141,47.294613,149.032593,67.359924,1.1264827314934747
-0.540039,-0.990967,0.107666,48.110958,152.46582,73.471069,1.1336885304906281
-0.614014,-1.002686,0.120605,48.492428,152.877808,81.291191,1.181921305678597
-0.710205,-1.02124,0.137695,50.361629,147.80426,91.316216,1.2515119626475808
-0.79834,-1.030518,0.154297,54.428097,138.969421,101.913445,1.312677290171884
-0.860596,-1.035156,0.173584,58.944698,129.562378,113.052361,1.3573153003661307
-0.883301,-1.046143,0.175781,62.820431,121.269218,125.083916,1.3804110956562903
-0.883789,-1.044678,0.152344,67.054749,115.295403,136.33728,1.3768238139068485
-0.882568,-1.02124,0.133057,70.983887,111.999504,145.088196,1.3563043823098855
-0.895752,-0.992432,0.112793,72.738647,110.092155,152.641296,1.3416464441040343
-0.918213,-0.954834,0.131104,72.692871,108.657829,161.132797,1.3311691627066036
-0.92749,-0.939453,0.1604,72.402954,106.452934,170.860275,1.3298638273556433
-0.976807,-0.926514,0.170654,75.515747,103.851311,180.068954,1.3570935469454566
-1.042969,-0.896973,0.173096,79.658508,98.739616,188.461288,1.3864729073826145
-1.114502,-0.866211,0.157715,82.420341,89.057915,196.411118,1.4203204658632502
-1.177246,-0.82959,0.136719,84.251396,74.874878,202.590927,1.4466581481390135
-1.204102,-0.791504,0.136475,84.503166,56.861874,207.542404,1.4473996110421612
-1.164307,-0.760254,0.138184,83.534233,38.665771,212.165817,1.3973874740461214
-1.113037,-0.731201,0.148193,82.824699,24.108885,215.461716,1.3399505330492614
-1.098145,-0.70459,0.179932,83.595268,14.961242,216.857895,1.3170971998106291
-1.095703,-0.656006,0.187988,86.502068,6.645202,218.643173,1.2908324540346048
-1.118164,-0.592529,0.181396,89.859001,-4.104614,220.001205,1.2783919021774974
-1.146729,-0.540283,0.192871,91.361992,-15.182494,220.82518,1.2822216431533981
-1.135498,-0.50708,0.206299,92.216484,-24.101255,222.579941,1.2605733266276102
-1.103516,-0.472656,0.185547,92.964165,-29.060362,224.372849,1.2147341049797689
-1.101563,-0.445313,0.177002,92.315666,-27.763365,224.533066,1.2012803248792516
-1.06958,-0.433105,0.166016,90.553276,-24.467466,226.951584,1.1658227265244918
-1.043457,-0.400391,0.168457,89.157097,-23.41461,228.713974,1.1302624582719716
-1.027832,-0.348877,0.162598,88.706963,-24.185179,226.341232,1.097539015687825
-1.028564,-0.286133,0.171875,88.424675,-29.685972,223.793015,1.081368120211614
-1.063232,-0.227783,0.194824,86.357109,-38.757324,221.046432,1.1046736042329426
-1.09668,-0.258057,0.200439,84.70153,-48.675533,219.078049,1.14432348152522
-1.107178,-0.262939,0.183105,86.578362,-59.280392,221.641525,1.152608989393194
-1.055176,-0.233643,0.162109,86.883537,-66.253662,221.443161,1.0928242174778156
-0.955322,-0.192627,0.123047,86.555473,-67.062378,219.360336,0.9822860321830907
-0.903809,-0.129395,0.099609,86.547844,-60.119625,216.003403,0.9184420109005249
-0.912354,-0.072998,0.088867,84.121696,-49.858089,213.058456,0.919573745280388
-0.96582,-0.05835,0.092041,79.963684,-43.647762,210.815414,0.9719488364008673
-1.009277,-0.053223,0.098389,76.728821,-45.0592,207.801804,1.0154571117378617
-1.000488,-0.032715,0.0979,74.645996,-54.595943,203.071579,1.0057986475279235
-0.978027,-0.000488,0.10083,72.753906,-65.246582,197.227463,0.983210933509692
-0.939209,0.019043,0.102783,71.037292,-70.968628,194.305405,0.94500821510662
-0.866943,0.049072,0.076904,70.06073,-71.655273,192.59642,0.8717295748390094
-0.813965,0.104004,0.063721,68.481445,-65.704346,187.164291,0.8230529868009715
-0.804443,0.157715,0.051514,65.704346,-55.114742,181.701645,0.8213746122628822
-0.807861,0.195557,0.038574,62.004086,-45.349117,178.085312,0.8320876690866174
-0.772949,0.228271,0.032959,58.197018,-40.06958,173.706039,0.8066251308526161
-0.762939,0.276123,0.019531,54.977413,-38.528442,167.564377,0.8116041453880087
-0.785889,0.309082,0.018066,51.460262,-38.505554,161.22435,0.8446772066304382
-0.77124,0.332764,0.018066,47.767635,-41.206356,156.951904,0.8401603404422278
-0.722168,0.357666,0.012939,44.250484,-45.341488,152.000427,0.805989457437875
-0.645996,0.383057,0.031494,41.770931,-47.637936,144.233704,0.7516883458595057
-0.590576,0.415283,0.047119,39.604187,-46.104427,136.169434,0.7235054816834493
-0.585693,0.438232,0.064209,37.139893,-37.734985,129.318237,0.7343067286590802
-0.609375,0.462158,0.061523,33.439636,-25.222776,126.235954,0.7672763433848329
-0.631348,0.496582,0.028809,28.678892,-12.313842,123.657219,0.8037561435591022
-0.654297,0.549072,-0.018555,23.315428,-1.296997,119.590752,0.8543587732434191
-0.685547,0.586426,-0.054443,16.654968,6.057739,114.555351,0.9037887933217583
-0.700684,0.5979,-0.05957,9.925842,8.628845,108.734123,0.9230336195155623
-0.678955,0.594971,-0.050293,3.631592,9.262085,102.996819,0.9041569381003499
-0.640625,0.579102,-0.040527,-2.998352,12.779235,97.244255,0.864524120402664
-0.634521,0.575684,-0.054932,-9.277344,21.14105,92.254631,0.858514118649775
-0.654785,0.605713,-0.088379,-17.311096,31.372068,89.614861,0.8963495312850897
-0.676025,0.645996,-0.153809,-27.06909,39.054871,88.073723,0.9476169274142373
-0.687256,0.702148,-0.20752,-36.956787,43.525692,85.006706,1.004189809667475
-0.690918,0.740479,-0.251465,-48.057552,46.981808,81.352226,1.0435092133709218
-0.708984,0.753906,-0.307129,-59.776302,52.459713,78.163147,1.0795187778510387
-0.736084,0.753174,-0.346191,-72.029114,59.707638,76.858521,1.1085751836537745
-0.770508,0.746094,-0.370361,-87.455742,65.490723,77.690125,1.1346832620696403
-0.781494,0.730225,-0.405518,-106.582634,70.053101,79.238892,1.1438558785900432
-0.763428,0.705811,-0.395752,-128.585815,76.797485,82.031242,1.1124797186506368
-0.762939,0.680176,-0.405518,-152.915955,88.592522,85.014336,1.0996181869271715
-0.804932,0.67627,-0.43335,-177.162155,102.798454,87.913506,1.1371230628318116
-0.804443,0.687744,-0.451416,-202.835068,114.013664,89.347832,1.1506071244525649
-0.802734,0.705811,-0.514893,-230.583176,121.574394,89.721672,1.1864509445931593
-0.775391,0.693848,-0.544678,-249.992355,127.647392,90.49987,1.174448965970425
-0.688232,0.632813,-0.517822,-249.992355,134.269714,91.850273,1.0687633987356602
-0.616699,0.541748,-0.457764,-249.626144,144.966125,92.758171,0.9398704335178333
-0.551025,0.418701,-0.357422,-249.992355,157.752991,92.445366,0.7789027950328591
-0.503418,0.275879,-0.150146,-249.992355,168.037399,89.630119,0.5933655927680674
-0.643555,0.052734,0.242432,-249.992355,166.816696,81.710808,0.6897225437848178
-1.018066,-0.19043,0.306885,-249.992355,145.652771,70.297241,1.0802316272360293
-0.748779,-1.521973,-0.923828,-244.667038,122.26104,70.320129,1.931457992593678
-1.396729,-5.585449,7.13501,-98.449699,73.890686,-1.953125,9.168231025183756
-1.314941,-3.491943,4.73291,34.141541,38.574219,9.368896,6.026870897640832
-1.583008,0.782959,1.155273,83.854668,-33.836365,-13.679503,2.1103541949810225
-0.898438,1.519043,0.144531,108.810417,-112.823479,24.192808,1.7707545526283421
-0.856445,1.548096,0.27417,109.718315,-83.82415,12.550353,1.7903263535291547
-0.615234,1.578613,0.208252,72.387695,-23.971556,24.642942,1.707015165143239
-0.312256,1.288574,0.084961,6.454467,20.88928,40.641781,1.3285876465378563
-0.153076,0.933105,0.237793,-42.602535,26.901243,36.697388,0.9750193401415174
-0.129883,0.818359,0.470215,-54.038998,-5.699157,24.131773,0.9527240905923393
-0.099854,0.697754,0.644775,-61.355587,-45.69244,-3.059387,0.955283343546301
-0.161377,0.563721,0.783447,-64.857483,-71.403503,-27.175901,0.9785770811637681
-0.310059,0.521973,0.930176,-57.518002,-87.35656,-34.263611,1.1107744087734466
-0.4104,0.460938,1.11377,-42.709347,-97.976677,-40.023804,1.273332483188896
-0.46582,0.403564,1.25708,-20.240782,-95.687859,-45.707699,1.4000365355575546
-0.483154,0.402344,1.257324,4.577637,-75.561523,-39.764404,1.4057674498394108
-0.521973,0.509521,1.147949,25.085447,-37.902832,-25.459288,1.3600935147154405
-0.569824,0.5896,0.858887,38.421631,8.94928,-14.976501,1.1874402847069827
-0.715576,0.570313,0.563477,46.394344,43.403622,-7.270813,1.074621914569957
-0.891846,0.480469,0.479248,46.981808,48.141476,0.137329,1.1206776490949573
-0.994141,0.32959,0.661621,50.811764,31.684874,9.750366,1.2388253483126668
-0.839111,0.257813,0.885742,70.167542,15.296935,15.61737,1.2470419815924403
-0.705322,0.288818,1.03125,97.442619,1.815796,11.573791,1.282330504709297
-0.804932,0.355225,1.074707,122.833244,-16.685486,5.088806,1.3889188101174237
-0.882324,0.371826,1.031982,144.004822,-51.261898,2.39563,1.4077418312943606
-0.800537,0.381592,0.876221,162.528976,-85.990898,-5.53894,1.2466896902092357
-0.71875,0.43335,0.711182,177.345261,-103.874199,-16.517639,1.1000789163164615
-0.701416,0.487793,0.550049,187.110886,-107.017509,-21.606443,1.0161103868704424
-0.657471,0.540283,0.440918,191.665634,-101.882927,-20.835875,0.9584271065939235
-0.583008,0.57666,0.408447,190.658554,-90.408318,-19.264221,0.9161135494429715
-0.525146,0.609131,0.34668,186.943039,-72.257996,-16.63208,0.8757887410083552
-0.524902,0.641113,0.297119,181.251511,-50.682064,-13.305663,0.8802429713062183
-0.546143,0.664307,0.247803,174.034103,-33.332825,-10.742187,0.8949761413060127
-0.568848,0.700684,0.209717,166.053757,-26.855467,-6.752014,0.9265675016149659
-0.607422,0.743896,0.145508,156.593323,-33.599854,-3.707886,0.9713471691233778
-0.61792,0.790039,0.087891,146.484375,-51.574703,-3.005981,1.0068324467367944
-0.592529,0.825439,0.035889,135.215759,-73.432922,-3.639221,1.0167242393505724
-0.567871,0.844482,-0.022217,124.603264,-89.920036,-4.03595,1.017900248577433
-0.539795,0.865479,-0.071533,114.578239,-98.846428,-3.868103,1.0225211545757869
-0.50708,0.883789,-0.105225,104.331963,-100.128166,-3.52478,1.0243463396459227
-0.51001,0.905518,-0.139404,94.017021,-92.750542,-2.6474,1.04857356615547
-0.536865,0.927979,-0.178223,84.114067,-78.75061,0.25177,1.0867991950654914
-0.542725,0.954102,-0.210449,74.21875,-62.774654,4.989624,1.1176537181211361
-0.541016,0.983154,-0.22876,64.437866,-46.791073,9.33075,1.1452603361559328
-0.564697,0.992432,-0.251709,55.198666,-31.234739,13.587951,1.1692567712500108
-0.557617,1.000488,-0.260742,45.799252,-16.517639,19.15741,1.1746911710730612
-0.54126,1.001953,-0.262451,34.942627,-3.90625,23.681639,1.1686542385196745
-0.527832,1.00415,-0.269531,23.880003,8.964539,28.167723,1.1660063476177993
-0.512451,1.021973,-0.278076,11.58142,21.583555,33.187866,1.1765887564931088
-0.529297,1.019775,-0.276611,-2.365112,32.25708,37.979126,1.1817825562069362
-0.539795,1.019287,-0.291748,-16.120911,38.543701,43.197628,1.1897232980395065
-0.546143,1.036621,-0.295654,-30.746458,40.412899,46.676632,1.2084148963853434
-0.563477,1.029053,-0.293213,-46.630856,39.44397,48.706051,1.2093098319731796
-0.593506,1.012207,-0.316162,-63.064571,36.277771,51.429745,1.215224585469287
-0.610352,1.020264,-0.347168,-80.856316,33.905029,55.007931,1.2385450390777075
-0.56958,0.993896,-0.347168,-100.83007,38.711548,59.326168,1.196986322160784
-0.560303,0.939453,-0.294189,-122.352592,53.665157,62.82806,1.1327217481530933
-0.62085,0.895508,-0.218506,-148.300171,68.786621,65.376282,1.1113659040118156
-0.666016,0.852295,-0.208008,-175.46843,75.737,70.549011,1.101476920931619
-0.657227,0.830811,-0.253174,-201.286301,79.139709,78.063965,1.08917001497746
-0.561279,0.834473,-0.334229,-228.897079,86.433403,85.58654,1.059758617804545
-0.451416,0.830322,-0.373291,-249.992355,102.294914,91.499321,1.0161482172503182
-0.363281,0.735352,-0.306152,-249.992355,126.029961,95.802299,0.8754682723942656
-0.284668,0.600586,-0.122559,-249.618515,149.848938,96.42791,0.6758403081357311
-0.339844,0.438477,0.118164,-249.984726,157.012939,87.623589,0.5672025694238346
-0.436768,0.298096,0.412354,-249.992355,135.757446,71.708679,0.6705694090517401
-0.516357,-0.38208,1.527588,-249.992355,103.675835,59.814449,1.6571465763754876
-2.770752,-4.69165,6.756592,-62.057491,106.315605,31.417845,8.679872223856062
-1.280029,-3.281738,4.141846,104.034416,-59.829708,6.118774,5.4372021140657445
-0.943848,0.328369,1.187744,-0.167847,-173.423752,25.489805,1.5522277722038733
0.274658,1.671875,0.342773,31.517027,-139.015198,66.070557,1.728611107831371
0.695557,2.140137,0.363525,104.49218,-28.900145,28.95355,2.279503530298429
0.505127,1.662598,0.314697,82.130424,95.832817,-8.499146,1.7659047532474677
-0.010986,0.898926,0.295654,31.829832,136.886597,-15.632628,0.9463614179519366
-0.248291,0.611328,0.461182,3.517151,84.57946,-10.208129,0.8050212303964411
-0.225342,0.718506,0.714355,-7.514953,-6.881713,-21.186827,1.0379465087493671
-0.16626,0.813232,0.926025,-17.997742,-86.09771,-38.131714,1.243587943833889
-0.227295,0.782959,1.056885,-18.226624,-125.236504,-43.312069,1.33480100237114
-0.427734,0.626709,1.17334,-2.983093,-132.598877,-44.319149,1.3973000039494023
-0.484131,0.517822,1.233154,18.714905,-135.505676,-48.515316,1.4223892704042027
-0.278564,0.564453,1.167236,36.010742,-124.122612,-44.876095,1.3261391220384835
-0.057861,0.58252,0.837158,47.416683,-79.719543,-39.131165,1.0215238434246163
-0.088623,0.431152,0.540039,59.745785,-11.291503,-45.82214,0.6966980728794935
-0.288574,0.209717,0.522461,73.974609,44.891354,-51.795956,0.6326307533514317
-0.531982,0.195068,0.696533,90.301506,60.478207,-47.07336,0.89789453335957
-0.732422,0.318115,0.898193,107.254021,40.77911,-41.046139,1.2018276933728895
-0.818604,0.443604,0.961182,123.748772,-1.274109,-36.16333,1.3381957460536182
-0.763184,0.496094,0.92334,136.192322,-50.834652,-38.406372,1.2965785091123485
-0.645264,0.5354,0.821045,145.835876,-93.734734,-50.888058,1.1735133922205574
-0.542725,0.603027,0.66333,154.205322,-121.444695,-63.697811,1.047949749393548
-0.496094,0.663086,0.542725,160.316467,-129.379272,-71.754456,0.9901225812276983
-0.488037,0.71167,0.435059,162.925705,-121.429436,-76.301575,0.9664008670060267
-0.504395,0.741699,0.32373,161.766037,-106.147758,-76.538086,0.9535894480991283
-0.522461,0.745605,0.265381,158.164978,-89.660637,-73.287964,0.9483245160318275
-0.529297,0.755615,0.24585,153.633118,-74.729919,-68.29071,0.9547520960615903
-0.525635,0.778564,0.194092,148.384094,-62.728878,-62.469479,0.9592318592420709
-0.532715,0.804932,0.128418,142.227173,-53.88641,-57.754513,0.9737514973405689
-0.533691,0.848877,0.064941,135.734558,-48.286434,-55.328365,1.0048062390784605
-0.550293,0.93042,0.001465,127.960197,-46.157833,-52.200314,1.0809745179577548
-0.57959,0.991455,-0.05957,118.8507,-47.561642,-47.470089,1.1499809433312362
-0.576172,1.02124,-0.097168,110.29052,-52.436825,-42.144772,1.176582734620902
-0.541016,1.024658,-0.119629,100.46386,-57.594296,-36.933899,1.1648748545921146
-0.485107,1.013184,-0.148926,90.431206,-59.028622,-30.85327,1.1331591118554358
-0.450439,1.023193,-0.190918,79.01001,-54.63409,-24.375914,1.1341379504689895
-0.433594,1.035156,-0.22876,66.429138,-46.615597,-18.447876,1.1453745408258382
-0.453125,1.05542,-0.249268,53.680416,-38.55896,-12.817382,1.1753162033465718
-0.495361,1.057617,-0.25708,40.90118,-31.318663,-8.598328,1.1958370981910538
-0.530762,1.040283,-0.234375,29.21295,-24.719236,-4.78363,1.191145944608804
-0.558105,1.004395,-0.202637,18.379211,-17.158508,0.671387,1.1667700119642257
-0.56958,0.963135,-0.180664,9.284973,-8.766174,6.54602,1.13344161098885
-0.550049,0.933838,-0.148682,2.525329,0.175476,11.70349,1.0939440798180682
-0.512695,0.920654,-0.125732,-5.432128,11.07788,17.066956,1.0612579736166885
-0.515625,0.893799,-0.136475,-15.86914,22.125242,21.64459,1.0408511990918778
-0.545166,0.881348,-0.094238,-25.253294,29.83856,25.222776,1.0406061047793254
-0.559326,0.903076,-0.084717,-38.040161,31.433104,27.877806,1.0656307081447118
-0.561768,0.917236,-0.174316,-53.565975,30.982969,29.518126,1.0896289429782966
-0.551514,0.952881,-0.219482,-67.710876,37.338257,32.402039,1.1226407442637203
-0.563965,0.955566,-0.240723,-84.617607,52.482601,36.956787,1.135390005377007
-0.592773,0.945313,-0.27002,-103.294365,73.0896,43.80035,1.1480014363658262
-0.601563,0.935547,-0.280518,-124.732964,96.321098,52.642818,1.1470904848798982
-0.617188,0.913574,-0.32373,-149.681091,120.086662,63.301083,1.1490603090003588
-0.674316,0.900146,-0.378906,-178.245529,140.74707,72.540283,1.1868170229685788
-0.662598,0.861572,-0.389893,-210.205063,155.433655,80.612175,1.1547116402968318
-0.566406,0.830322,-0.387207,-241.531357,169.586166,90.011589,1.0771163546103086
-0.508057,0.805664,-0.403076,-249.992355,185.966476,95.428459,1.0342565725781008
-0.432861,0.743652,-0.353027,-249.961838,192.649826,94.375603,0.9300618286726964
-0.353027,0.62207,-0.212158,-249.763474,177.864059,84.312431,0.7460631103284762
-0.292969,0.466797,0.010498,-249.992355,143.562317,68.252563,0.5512172731092523
-0.285645,0.31958,0.271729,-249.992355,101.234428,54.779049,0.5075047702889106
0.125488,0.10376,-0.210938,-249.992355,65.109253,45.883175,0.2664736677197205
-1.69458,-4.340332,4.94165,-172.355637,119.468681,24.055479,6.791906063037386
-1.026367,-5.837646,6.169922,128.02887,63.552853,-43.327328,8.555669320753871
-1.416748,0.700195,2.535645,65.597534,-57.66296,-52.787777,2.9877991062911176
-0.776367,1.797363,0.267578,-12.374877,-157.394409,56.968685,1.9760712179832993
-0.133545,2.018799,0.269043,93.887321,-102.409355,-45.791622,2.0410212652677093
-0.227783,2.128418,0.000732,114.860527,42.28973,-83.366386,2.140572076253682
-0.753906,1.397217,-0.251709,43.334957,123.367302,10.06317,1.6074660253349058
-0.86499,0.914307,-0.050293,-22.750853,77.659607,37.612915,1.2596405742107548
-0.268066,0.983887,0.324219,-55.458065,-17.227173,27.832029,1.0700518534566443
0.093262,0.822021,0.492676,-81.382744,-71.861267,22.933958,0.9628841914067341
-0.001465,0.626221,0.561035,-83.763115,-78.193665,10.681151,0.840782467877988
-0.091797,0.607422,0.655762,-73.287964,-67.512512,-2.555847,0.8985610585469415
-0.105225,0.552734,0.723389,-67.359924,-53.848263,-3.433227,0.9164490278798925
-0.128906,0.518066,0.753418,-56.426998,-40.65704,-0.511169,0.9233893111337168
-0.176514,0.550049,0.734863,-39.520264,-26.931761,-5.836486,0.934737783213025
-0.239258,0.595703,0.68335,-25.360106,-13.053893,-12.84027,0.9375892902934632
-0.305664,0.610352,0.629395,-16.601563,-5.439758,-13.366698,0.9284923859811668
-0.365479,0.594238,0.590088,-11.169433,-5.950927,-12.672423,0.9137272830713769
-0.393799,0.565186,0.561768,-8.712769,-11.917113,-14.030456,0.8888735302735704
-0.412354,0.536865,0.559326,-7.873535,-19.088745,-16.975403,0.8781260865143456
-0.389893,0.494873,0.61084,-8.018494,-23.117064,-21.575926,0.8775199958849941
-0.374512,0.455322,0.674805,-6.835937,-22.392271,-27.603148,0.8960687193809412
-0.383789,0.40332,0.727539,-3.585815,-15.434264,-33.760071,0.9161189963329001
-0.417969,0.349365,0.78125,1.876831,-5.531311,-40.115356,0.9524208894632666
-0.452393,0.317139,0.804443,9.040833,2.6474,-46.386715,0.9758919571443347
-0.468018,0.310059,0.798828,16.273499,6.866455,-51.895138,0.9763726775104883
-0.466797,0.312012,0.772461,21.690367,7.80487,-57.807919,0.9549591215722273
-0.445068,0.311279,0.721924,25.146482,7.698059,-64.109802,0.9034126422853512
-0.411621,0.30835,0.67627,26.901243,9.750366,-70.983887,0.8496191399921498
-0.384033,0.312012,0.633789,26.30615,15.289306,-78.948975,0.8040655009102182
-0.355713,0.320068,0.592041,23.277281,25.695799,-86.524956,0.7612409662347397
-0.327393,0.31665,0.572754,18.348694,40.267941,-92.39196,0.7317790263904808
-0.327148,0.312256,0.556396,11.436461,56.800838,-97.396843,0.7170119470803816
-0.348389,0.322021,0.52124,2.799988,72.799683,-102.47039,0.7048145552994773
-0.384766,0.323975,0.475098,-6.66809,86.517326,-107.421867,0.6918979585061659
-0.433594,0.298584,0.454346,-16.471863,96.611015,-111.457817,0.6954038032740402
-0.475098,0.2771,0.442383,-25.001524,101.165764,-115.119926,0.7058365521089143
-0.510254,0.254639,0.450439,-31.791685,99.189751,-120.773308,0.7267017665851652
-0.524658,0.246826,0.471924,-37.055969,90.599052,-129.570007,0.747597052573109
-0.494873,0.239258,0.509033,-41.336056,78.75824,-141.113281,0.7491717238270542
-0.448486,0.230469,0.532959,-45.646664,72.395325,-153.152466,0.7336899534803513
-0.429199,0.209229,0.546387,-48.751827,75.325012,-164.75676,0.7256220157981702
-0.460693,0.165283,0.593506,-50.10223,85.578911,-175.84227,0.7692892059388329
-0.548584,0.123047,0.626221,-49.255367,97.213737,-185.752853,0.8415686009506296
-0.620605,0.109863,0.587646,-47.912594,103.210442,-193.435654,0.8617124033632103
-0.651855,0.102539,0.513916,-47.71423,103.393547,-200.149521,0.8363843868712519
-0.650879,0.098145,0.455078,-47.721859,101.188652,-208.938583,0.8002324035866081
-0.627197,0.094238,0.422363,-46.989437,98.457329,-219.871506,0.7620022186463764
-0.618408,0.088379,0.414795,-46.806332,97.961418,-229.476913,0.7498627835344277
-0.660645,0.05249,0.433594,-46.432491,99.754326,-238.357529,0.7919663963584567
-0.733154,-0.00293,0.462646,-44.525143,102.508537,-246.963486,0.8669283095689054
-0.833984,-0.052246,0.495117,-41.740414,103.492729,-249.992355,0.9712877022082591
-0.94458,-0.122314,0.517822,-37.67395,101.615898,-249.992355,1.0841271672087183
-1.008545,-0.173096,0.513428,-31.951902,94.146721,-249.923691,1.1448727236793617
-1.006592,-0.185303,0.464111,-29.067991,82.466118,-249.992355,1.12381656714697
-0.97876,-0.185791,0.379395,-29.312132,70.274353,-249.992355,1.0660347083026893
-0.962891,-0.195313,0.322266,-30.22003,61.370846,-249.992355,1.034002717891012
-0.960693,-0.215088,0.278076,-32.241821,55.580135,-249.992355,1.022995674364755
-0.961182,-0.257813,0.260742,-36.03363,49.278255,-249.992355,1.0287491291160349
-0.986572,-0.336182,0.279053,-40.153503,44.364925,-249.992355,1.0789871292638296
-1.008301,-0.420654,0.305664,-42.259212,43.434139,-249.992355,1.1344827787203293
-0.986328,-0.479736,0.326416,-43.30444,43.701168,-249.992355,1.1443500156577968
-0.944336,-0.528076,0.316895,-45.646664,46.394344,-249.992355,1.127411718804182
-0.878662,-0.565918,0.304688,-48.248287,54.306026,-249.992355,1.08864359195836
-0.835693,-0.592285,0.28833,-50.117489,67.504883,-249.992355,1.064104553309495
-0.837402,-0.627197,0.268555,-51.803585,82.092278,-249.992355,1.0801573841056682
-0.837402,-0.677979,0.244141,-54.038998,93.299858,-249.992355,1.1047635321307452
-0.820313,-0.729004,0.21582,-56.549068,102.004997,-249.992355,1.1184536299663923
-0.79248,-0.773926,0.199463,-57.41119,111.839287,-249.992355,1.1255094367640817
-0.784912,-0.810303,0.193604,-56.823727,123.207085,-249.992355,1.1446223431197733
-0.793945,-0.846436,0.191406,-56.716915,135.612488,-249.992355,1.1761967615824318
-0.80127,-0.890137,0.175537,-58.174129,144.775391,-249.992355,1.2104506309792233
-0.801025,-0.95752,0.136475,-59.852596,148.712158,-249.992355,1.2558308113157601
-0.793213,-1.037109,0.09375,-57.601925,150.093079,-249.992355,1.3090343783682687
-0.786133,-1.104004,0.068115,-52.24609,153.434753,-249.992355,1.3570075824880272
-0.774414,-1.182129,0.057861,-48.110958,160.499573,-249.992355,1.4143881756286003
-0.792236,-1.27124,0.054199,-45.013424,169.364914,-249.992355,1.498875094494868
-0.860352,-1.355469,0.031006,-41.885372,172.248825,-249.992355,1.6057593673714006
-0.92041,-1.427002,0.00293,-37.002563,163.772568,-249.992355,1.6980865293040872
-0.91626,-1.474365,0.003906,-28.70941,144.920349,-249.992355,1.7358858826723027
-0.863281,-1.481689,0.006836,-18.737793,119.789116,-249.954208,1.7148478383162746
-0.760986,-1.475098,-0.017334,-11.657714,95.321648,-241.775497,1.6599139343218974
-0.692871,-1.456787,-0.055908,-5.676269,77.11792,-217.92601,1.6141326743715956
-0.660156,-1.398438,-0.062744,0.785828,63.674923,-188.255295,1.5476988058779397
-0.592529,-1.305176,-0.035889,4.997253,53.939816,-155.838013,1.433828102367226
-0.530762,-1.210938,-0.009033,3.715515,48.46191,-122.909538,1.322180296168794
-0.452393,-1.158203,0.041748,-0.320435,44.662472,-92.422478,1.2441207783659913
-0.349121,-1.129883,0.126465,-6.301879,49.125668,-59.577938,1.1893336212160992
-0.301758,-1.128174,0.184082,-13.206481,69.290161,-24.917601,1.1822523620462766
-0.37793,-1.134766,0.22876,-14.73236,97.976677,5.928039,1.2177257890247706
-0.523926,-1.0979,0.241943,-9.941101,114.166252,29.182432,1.2403303103306798
-0.635742,-1.039307,0.247314,-5.332946,109.001152,40.367123,1.2431778414245487
-0.678711,-0.98584,0.219238,-3.883362,91.644279,43.960567,1.2167967898400291
-0.702637,-0.953613,0.15918,-6.347656,68.054199,48.561092,1.1951630767129648
-0.721436,-0.928223,0.129395,-10.69641,39.810181,57.868954,1.1827133658879483
-0.700684,-0.91333,0.109375,-13.435363,11.528014,65.231323,1.1563272233157014
-0.656006,-0.914551,0.092041,-15.060424,-14.320373,67.016602,1.1292559272892926
-0.615479,-0.917969,0.063721,-14.47296,-34.812927,65.734863,1.107041936984774
-0.594727,-0.902832,0.022705,-9.635925,-50.079342,61.805721,1.0813516272600694
-0.571289,-0.864746,0.050781,0.061035,-64.147949,54.840084,1.0376586510013783
-0.47876,-0.81958,0.138672,7.8125,-78.277588,46.920773,0.9592457649549463
-0.342285,-0.813477,0.186279,7.957458,-86.944572,36.026001,0.9019998429018711
-0.264893,-0.842773,0.166504,5.859375,-85.258476,23.727415,0.8989762026850322
-0.272705,-0.870361,0.100586,6.202697,-73.509216,14.778136,0.9176131160472806
-0.33252,-0.862305,0.026123,8.979797,-57.044979,9.552002,0.9245657762182201
-0.400391,-0.836182,-0.024658,9.887695,-43.945309,4.989624,0.9274272515777181
-0.419922,-0.824707,-0.056885,4.333496,-37.475586,0.114441,0.9272065709204179
-0.407715,-0.859131,-0.078613,-4.875183,-32.432556,-3.639221,0.9542104590471642
-0.412354,-0.910156,-0.092285,-9.765625,-24.482725,-6.561279,1.0034621501965084
-0.423584,-0.928711,-0.092285,-10.169982,-16.616821,-8.079529,1.0249117268340722
-0.425049,-0.924072,-0.075439,-10.673522,-12.695312,-7.621765,1.0199346823723565
-0.433594,-0.919678,-0.054443,-13.786315,-14.450072,-6.484985,1.018221695294792
-0.450684,-0.934082,-0.039795,-18.089294,-24.276731,-4.66156,1.0378867436310186
-0.458008,-0.949707,-0.021973,-21.156309,-42.114254,-3.364563,1.0546077596158678
-0.455811,-0.957275,0.007813,-23.78845,-65.589905,-2.708435,1.0602830453775067
-0.430176,-0.968994,0.049805,-27.008055,-93.353264,-3.265381,1.061358234074151
-0.376465,-0.982178,0.080078,-29.876707,-121.528618,-3.959656,1.0548990501431879
-0.28833,-0.997314,0.099121,-31.73065,-141.143799,-2.548218,1.042877929643254
-0.208984,-1.015869,0.119385,-30.418394,-147.17865,-0.328064,1.0439908599417906
-0.17627,-1.02124,0.135742,-26.679991,-142.173767,0.114441,1.0451928726622661
-0.171875,-1.015869,0.138428,-23.483274,-132.904053,-0.63324,1.0395639239459975
-0.168945,-1.020752,0.135254,-20.614622,-122.077934,-0.617981,1.0434417583387203
-0.171631,-1.023682,0.123291,-16.952515,-109.878532,0.068665,1.0452668118552315
-0.16333,-1.016357,0.110596,-12.08496,-95.375053,0.526428,1.035321068830824
-0.154541,-1.011475,0.098145,-7.186889,-77.148438,0.854492,1.027909060827367
-0.158447,-1.013184,0.078369,-3.27301,-55.694576,1.724243,1.0284886824005406
-0.179443,-1.010498,0.063721,1.319885,-32.218933,2.655029,1.0282832120063032
-0.202881,-0.996338,0.046631,5.676269,-8.872986,4.447937,1.017852916960992
-0.249023,-0.973877,0.036133,7.67517,10.414123,7.217407,1.0058600595246836
-0.297119,-0.964355,0.033203,7.202148,21.057127,10.307311,1.0096349366949422
-0.328613,-0.956055,0.015137,6.690979,23.941038,12.886046,1.0110671568016636
-0.350586,-0.948242,0.002441,5.928039,22.209166,14.465331,1.0109794223627897
-0.364502,-0.942871,-0.007324,4.852295,16.63208,13.938903,1.0109011186169496
-0.366699,-0.94165,-0.015869,3.578186,9.32312,12.893676,1.010655581423266
-0.368896,-0.942139,-0.020752,2.670288,2.174377,12.252807,1.0119984187937252
-0.368896,-0.936523,-0.020508,1.89209,-4.203796,11.390685,1.0067671858026561
-0.369629,-0.927246,-0.014404,0.480652,-10.078429,10.391234,0.9983076767074367
-0.371338,-0.925537,-0.006348,-1.197815,-16.326904,9.674072,0.9972717511877092
-0.36499,-0.928467,0.003174,-2.883911,-22.750853,9.124756,0.9976365793539249
-0.356445,-0.935547,0.016357,-4.615784,-28.129576,8.544922,1.0012835655712122
-0.342041,-0.946533,0.028809,-6.126403,-31.951902,7.820129,1.0068499015498786
-0.327148,-0.955078,0.041504,-6.454467,-33.874512,7.293701,1.0104070377842784
-0.321045,-0.958252,0.055664,-6.889343,-34.217834,7.415771,1.0121340170278834
-0.312012,-0.965576,0.074951,-7.598876,-33.828735,6.790161,1.0174999520004904
-0.29541,-0.976074,0.091064,-7.408142,-33.836365,5.775451,1.0238555433614647
-0.274414,-0.979492,0.104736,-6.301879,-33.164978,5.027771,1.022583615728318
-0.260986,-0.985107,0.116211,-5.393981,-31.181334,4.341125,1.0256970752449281
-0.252441,-0.991943,0.123291,-4.463196,-28.114317,3.440857,1.0309597685705296
-0.24707,-0.998291,0.122559,-3.082275,-24.658201,2.792358,1.0356877975828431
-0.247559,-0.999512,0.117676,-1.358032,-20.584105,2.075195,1.036415620106625
-0.250488,-0.992676,0.11084,0.25177,-16.120911,1.411438,1.0297744339028816
-0.257324,-0.990723,0.099121,1.678467,-11.741637,1.029968,1.028383525901694
-0.26416,-0.993408,0.086426,3.578186,-6.439209,0.831604,1.031556791233522
-0.275146,-0.991455,0.077881,5.470275,-0.75531,0.38147,1.0318690752716644
-0.283203,-0.988281,0.070801,7.293701,4.203796,-0.175476,1.0304931129177914
-0.29126,-0.98291,0.061768,9.170532,9.017944,-0.617981,1.0270149665530683
-0.301025,-0.973145,0.053223,10.803222,13.824462,-0.694275,1.0200293767235333
-0.316162,-0.961182,0.045654,11.810302,17.936707,-0.1297,1.0128738989054857
-0.333008,-0.955322,0.041992,11.772155,20.339964,0.793457,1.0125698888531103
-0.347168,-0.959717,0.035645,11.352538,20.675657,1.182556,1.0212016971871913
-0.352783,-0.958252,0.030273,11.100768,20.095823,1.182556,1.0215768180230012
-0.360107,-0.950195,0.031738,11.146544,18.943787,0.862122,1.0166390166219277
-0.354004,-0.940674,0.035889,10.963439,17.715454,0.457764,1.0057208492484384
-0.351318,-0.931885,0.039307,10.475158,17.425537,0.38147,0.9966840174287938
-0.352295,-0.92334,0.048584,9.620667,17.623901,0.305176,0.9894589065145657
-0.35376,-0.919678,0.055908,8.460999,17.715454,0.389099,0.9869546421938548
-0.355225,-0.921387,0.064453,6.958007,17.349243,0.518799,0.9895923370777484
-0.358154,-0.92749,0.069092,5.439758,16.693115,0.442505,0.9966371919008442
-0.363525,-0.932373,0.073486,4.234314,15.846251,0.328064,1.0034291349916047
-0.367188,-0.936523,0.077637,3.501892,14.549254,0.061035,1.0089251016016998
-0.370605,-0.941162,0.081299,2.807617,12.641906,-0.366211,1.0147627819692642
-0.370605,-0.94751,0.083252,2.02179,10.31494,-0.701904,1.020810541495825
-0.366943,-0.95459,0.080322,1.571655,7.949829,-1.075745,1.0258366619657342
-0.357666,-0.953857,0.084717,1.266479,6.004333,-1.472473,1.022225569086393
-0.356689,-0.951416,0.088867,0.892639,4.745483,-1.564026,1.0199592106873687
-0.356201,-0.953369,0.09375,0.305176,3.440857,-1.335144,1.022047291010548
-0.358887,-0.957031,0.096924,-0.297546,1.869202,-0.923157,1.026694928158311
-0.361816,-0.957031,0.094971,-0.572205,-0.022888,-0.556946,1.0275400934552383
-0.359131,-0.955811,0.088623,-0.770569,-1.983642,-0.328064,1.0248920816412819
-0.354736,-0.954102,0.089111,-0.976562,-3.585815,-0.007629,1.021806746122279
-0.349609,-0.958984,0.088867,-1.068115,-4.730225,0.236511,1.0245848470605057
-0.346924,-0.959717,0.082764,-0.831604,-5.355834,0.50354,1.0238470889546936
-0.341309,-0.953125,0.082031,-0.419617,-5.363464,0.785828,1.0157106793112889
-0.337891,-0.948486,0.079834,-0.37384,-4.875183,0.946045,1.0100343992325211
-0.338135,-0.947998,0.075195,-0.350952,-4.173279,1.083374,1.0093016269946264
-0.341064,-0.95166,0.075439,-0.312805,-3.257751,1.228333,1.0137418065843984
-0.339111,-0.952393,0.072021,-0.175476,-2.326965,1.220703,1.0135263791391913
-0.3396,-0.952881,0.072021,-0.068665,-1.068115,1.060486,1.0141486008480216
-0.340576,-0.947754,0.073242,0.1297,0.297546,0.953674,1.0097494970813305
-0.341553,-0.946289,0.071289,0.244141,1.556396,0.694275,1.00856504244942
-0.341309,-0.95166,0.069336,0.465393,2.410889,0.534058,1.0133884102243325
-0.341309,-0.960205,0.064941,0.831604,3.356933,0.221252,1.021128203991546
-0.34375,-0.9646,0.062012,1.449585,4.646301,-0.137329,1.0258960525530838
-0.34375,-0.9646,0.062988,2.13623,5.973815,-0.556946,1.0259555110451914
-0.349121,-0.964111,0.070313,2.700805,7.186889,-0.854492,1.027783737432637
-0.351318,-0.961426,0.076416,2.937317,7.957458,-1.091003,1.0264519938389716
-0.356445,-0.954834,0.082275,3.15094,8.010864,-1.296997,1.022511702234258
-0.361572,-0.952881,0.085693,2.89154,7.247924,-1.617432,1.02277064955639
-0.364258,-0.952637,0.08667,2.6474,5.851745,-1.815796,1.0235784450802976
-0.361084,-0.949707,0.0896,2.357483,4.318237,-2.037048,1.0199770590091721
-0.360352,-0.944336,0.09082,2.113342,2.677917,-2.059937,1.0148262497590412
-0.357666,-0.9375,0.094482,1.670837,0.869751,-1.930237,1.0078482355394585
-0.355713,-0.936523,0.095459,1.106262,-0.640869,-1.556396,1.0063396487165752
-0.356201,-0.938477,0.092529,0.511169,-1.625061,-1.052856,1.0080574625342547
-0.356445,-0.94165,0.091553,0.030518,-2.510071,-0.686645,1.0110092543265863
-0.356445,-0.947754,0.087158,-0.12207,-3.15094,-0.37384,1.016310582206542
-0.355713,-0.953125,0.084961,0.061035,-3.318786,-0.343323,1.0208806862288071
-0.354492,-0.949219,0.081299,0.38147,-3.189087,-0.411987,1.016509131993412
-0.35376,-0.94873,0.07666,0.640869,-2.952575,-0.396728,1.0154366086073516
-0.356934,-0.952148,0.075928,0.62561,-2.738952,-0.404358,1.0196826738961489
-0.355957,-0.952393,0.080811,0.37384,-2.571106,-0.358582,1.0199452093220498
-0.355225,-0.949219,0.081299,0.221252,-2.235413,-0.152588,1.0167649866055577
-0.359863,-0.946289,0.084473,0.045776,-2.311707,0.015259,1.0159231949409366
-0.361572,-0.946045,0.087158,-0.282288,-2.883911,0.221252,1.0165293749680822
-0.362549,-0.952148,0.086426,-0.526428,-3.746032,0.366211,1.0224954986605075
-0.364502,-0.953613,0.083984,-0.450134,-4.722595,0.442505,1.0243499275291623
-0.359131,-0.953369,0.085205,-0.190735,-5.889892,0.473022,1.0223245166516355
-0.35498,-0.955078,0.081055,-0.114441,-6.91986,0.488281,1.0221324275792252
-0.35083,-0.954346,0.077637,-0.022888,-7.545471,0.511169,1.0197477533120631
-0.3479,-0.956299,0.075195,0.183105,-7.93457,0.38147,1.0203903544359874
-0.343994,-0.956543,0.079102,0.549316,-7.911682,0.183105,1.0195898730808384
-0.339355,-0.950684,0.082275,0.63324,-7.659912,-0.175476,1.0127838167674283
-0.338379,-0.945313,0.082764,0.335693,-7.438659,-0.205994,1.007455654262757
-0.337646,-0.943604,0.083252,-0.228882,-7.186889,-0.274658,1.0056461731821984
-0.33667,-0.947021,0.082764,-0.762939,-6.828308,-0.343323,1.008486659821041
-0.341309,-0.947021,0.081543,-1.243591,-6.477355,-0.556946,1.0099454781180022
-0.342285,-0.949219,0.076172,-1.51062,-6.340026,-0.762939,1.0119179338118285
-0.342041,-0.953125,0.073486,-1.686096,-6.263732,-1.068115,1.0153026659582847
-0.344727,-0.955566,0.073486,-1.701355,-5.851745,-1.319885,1.0185005042124426
-0.347168,-0.952393,0.076416,-1.457214,-5.638122,-1.548767,1.0165714198859812
-0.345947,-0.949951,0.079834,-1.304626,-5.523681,-1.472473,1.014130019655271
-0.345459,-0.947998,0.080811,-1.342773,-5.249023,-1.319885,1.012211710269151
-0.346436,-0.94873,0.08252,-1.411438,-5.180358,-1.213074,1.0133686720024455
-0.349365,-0.950195,0.080811,-1.63269,-5.264282,-1.00708,1.0156066457891066
-0.350586,-0.949219,0.081299,-1.76239,-5.378723,-0.915527,1.0151535749619365
-0.347656,-0.951172,0.079834,-1.708984,-5.378723,-0.75531,1.0158574385591712
-0.345215,-0.950439,0.076172,-1.464844,-5.203247,-0.610352,1.0140561436774593
-0.341553,-0.946533,0.077393,-1.304626,-4.585266,-0.595093,1.0092437011678594
-0.339111,-0.945801,0.081787,-1.251221,-3.875732,-0.511169,1.0080798159327464
-0.345947,-0.95166,0.085938,-1.304626,-3.463745,-0.190735,1.0162290205721345
-0.345703,-0.954346,0.084717,-1.12915,-3.166198,-0.015259,1.018559680143486
-0.345703,-0.955811,0.084961,-0.701904,-2.731323,-0.114441,1.019952745695113
-0.345947,-0.95459,0.087402,-0.37384,-2.410889,-0.099182,1.019097887601088
-0.343994,-0.950195,0.084717,-0.190735,-2.044678,0.030518,1.0140904201056236
-0.343262,-0.950439,0.079834,0.053406,-1.441955,0.061035,1.0136747806476198
-0.343018,-0.951172,0.077148,0.068665,-0.793457,0.274658,1.0140716620693035
-0.342773,-0.954346,0.07666,0.091553,-0.267029,0.404358,1.0169298760706167
-0.345703,-0.953857,0.080078,0.12207,0.068665,0.442505,1.0177260076965706
-0.34375,-0.952393,0.07959,0.267029,0.244141,0.549316,1.0156530200068328
-0.346436,-0.951172,0.078613,0.228882,0.511169,0.511169,1.0153453005992592
-0.344971,-0.951416,0.077881,0.259399,0.961304,0.434875,1.0150186432071089
-0.343262,-0.951172,0.078857,0.305176,1.296997,0.50354,1.0142856602934895
-0.343262,-0.947266,0.077148,0.404358,1.770019,0.37384,1.010491706697289
-0.342285,-0.948242,0.081543,0.419617,2.311707,0.473022,1.0114203738495682
-0.346191,-0.949219,0.085449,0.328064,2.5177,0.686645,1.0139854289105934
-0.347412,-0.950195,0.084717,0.244141,2.365112,0.656128,1.0152549462366585
-0.349121,-0.948975,0.080322,0.061035,2.288818,0.526428,1.0143424702485841
-0.349121,-0.949463,0.080078,-0.061035,2.105713,0.595093,1.0147797529976639
-0.350586,-0.952881,0.076172,-0.328064,1.88446,0.709534,1.0181821630440202
-0.350098,-0.95752,0.074707,-0.38147,1.823425,0.679016,1.0222496250197406
-0.351563,-0.960449,0.073975,-0.114441,1.922607,0.572205,1.025441917026508
-0.355957,-0.960449,0.07666,0.12207,2.105713,0.267029,1.0271535537834642
-0.35498,-0.957031,0.080811,0.473022,2.044678,-0.190735,1.023938256479364
-0.355469,-0.952881,0.081055,0.656128,1.472473,-0.312805,1.0202501277368212
-0.35498,-0.948975,0.080566,0.648498,0.88501,-0.427246,1.0163932464263032
-0.354004,-0.950684,0.080811,0.610352,0.457764,-0.328064,1.0176685696202865
-0.352783,-0.950684,0.078613,0.732422,0.1297,-0.320435,1.0170722278746973
-0.351563,-0.948975,0.079346,0.953674,-0.366211,-0.312805,1.0151088026955535
-0.348633,-0.946777,0.077393,0.930786,-0.564575,-0.175476,1.0118899806139994
-0.34668,-0.94751,0.075439,0.831604,-0.404358,-0.160217,1.0117575130538936
-0.347656,-0.949219,0.072998,0.770569,0.076294,-0.091553,1.0135137454918903
-0.345459,-0.948242,0.074463,0.556946,0.907898,0.053406,1.011953333713566
-0.34668,-0.948242,0.07251,0.411987,1.556396,0.160217,1.012229031921136
-0.348389,-0.951904,0.074219,0.556946,2.197266,0.167847,1.0163683291494279
-0.350586,-0.950684,0.074463,0.656128,2.510071,0.099182,1.015999679931544
-0.351563,-0.950928,0.072266,0.793457,2.830505,0.106812,1.0164068963308936
-0.355225,-0.952881,0.072998,0.740051,3.028869,0.083923,1.0195566236310762
-0.354492,-0.957031,0.075195,0.785828,2.922058,0.015259,1.0233411948367952
-0.356445,-0.952637,0.07666,0.808716,2.799988,-0.053406,1.0200230621873214
-0.352539,-0.947754,0.075928,0.892639,2.662658,-0.12207,1.0140446007060044
-0.35376,-0.951172,0.074951,0.915527,2.708435,-0.083923,1.0175912556547448
-0.353271,-0.957031,0.076172,1.00708,2.906799,-0.083923,1.022991157335194
-0.35498,-0.953125,0.077148,1.342773,3.234863,-0.1297,1.0200048430909532
-0.357666,-0.950928,0.07959,1.342773,3.356933,-0.114441,1.0190797794284803
-0.362305,-0.94873,0.078857,1.243591,2.983093,-0.068665,1.018612758792074
-0.363525,-0.949219,0.079102,1.205444,2.082825,-0.045776,1.019521584857329
-0.362061,-0.947021,0.078125,1.144409,1.075745,-0.144958,1.0168777988465476
-0.361816,-0.946289,0.076904,1.098633,0.328064,-0.25177,1.0160157058790973
-0.358398,-0.945557,0.071777,0.968933,-0.419617,-0.144958,1.0137450884625778
-0.354248,-0.947998,0.067871,0.862122,-0.839233,0.076294,1.0142969615201456
-0.351318,-0.949951,0.067871,0.923157,-0.732422,0.152588,1.0151047789100394
-0.349365,-0.948975,0.069092,1.060486,-0.099182,0.061035,1.0135991112436908
-0.349121,-0.947266,0.070313,1.083374,0.709534,0.106812,1.0119991429670285
-0.350586,-0.953369,0.070068,0.961304,1.426697,0.267029,1.0182006276667679
-0.349609,-0.953613,0.070313,0.930786,1.785278,0.1297,1.0181100749030039
-0.348145,-0.956299,0.068848,0.938415,1.930237,-0.076294,1.0200258651279388
-0.352539,-0.95459,0.072021,0.793457,2.319336,-0.350952,1.0201533409551722
-0.35791,-0.952148,0.072998,0.854492,2.334595,-0.587463,1.0198108108899415
-0.358887,-0.950439,0.074951,0.862122,2.105713,-0.778198,1.018701047359332
-0.358154,-0.950439,0.075439,0.854492,1.708984,-0.87738,1.0184790735002855
-0.359619,-0.950928,0.076172,0.793457,1.434326,-0.732422,1.0195057920036552
-0.35791,-0.952148,0.07251,0.701904,1.296997,-0.679016,1.019775996042268
-0.359619,-0.948975,0.073242,0.846863,1.083374,-0.572205,1.0174692950403958
-0.361816,-0.949707,0.071533,0.938415,0.823975,-0.541687,1.0188087032382478
-0.36084,-0.950684,0.073975,0.900268,0.434875,-0.595093,1.0195478772872808
-0.360596,-0.947266,0.076904,1.060486,-0.106812,-0.617981,1.0164922897828592
-0.357178,-0.945313,0.074707,0.679016,-0.656128,-0.701904,1.0132985381919783
-0.35498,-0.944336,0.075439,0.640869,-0.915527,-0.709534,1.0116680898481476
-0.35498,-0.943604,0.076416,0.572205,-0.961304,-0.595093,1.0110582150756702
-0.358643,-0.946533,0.075195,0.457764,-0.892639,-0.50354,1.0149895613074056
-0.360596,-0.948975,0.075195,0.282288,-0.75531,-0.488281,1.0179574224229617
-0.359375,-0.953613,0.073242,0.274658,-0.778198,-0.465393,1.0217105925642544
-0.359131,-0.953857,0.073486,0.480652,-0.762939,-0.282288,1.0218700718809608
-0.360596,-0.950928,0.072266,0.747681,-0.747681,-0.244141,1.0195665310101152
-0.359375,-0.947754,0.070313,0.88501,-0.953674,-0.068665,1.0160373778114662
-0.356934,-0.95166,0.070801,0.854492,-1.350403,0.144958,1.018857898608535
-0.353271,-0.94873,0.069092,0.785828,-1.312256,0.106812,1.0147229754001827
-0.351563,-0.949463,0.070068,0.801086,-1.052856,0.144958,1.0148822867515228
-0.351074,-0.949707,0.074951,0.87738,-0.823975,0.152588,1.0152901022495984
-0.349365,-0.947998,0.07666,0.976562,-0.564575,0.061035,1.0132289311054041
-0.349121,-0.949219,0.075928,1.13678,-0.205994,0.038147,1.0142323421120034
-0.350342,-0.946289,0.07373,1.075745,0.114441,0.007629,1.0117502168939725
-0.349609,-0.949219,0.074707,0.88501,0.465393,-0.045776,1.0143097646631427
-0.354492,-0.952148,0.076172,0.709534,0.694275,-0.320435,1.0188486470285956
-0.355713,-0.951416,0.077637,0.648498,0.495911,-0.38147,1.018700960632707
-0.352051,-0.94751,0.077637,0.747681,0.305176,-0.366211,1.0137764104919782
-0.354004,-0.947021,0.073242,0.740051,0.389099,-0.198364,1.0136725294793185
-0.361328,-0.952393,0.068848,0.541687,0.648498,-0.137329,1.020955629367408
-0.359131,-0.958008,0.069092,0.343323,0.419617,-0.213623,1.025440445705649
-0.362305,-0.961426,0.067383,0.656128,0.068665,-0.259399,1.029633592687224
-0.366699,-0.959473,0.068115,0.999451,-0.38147,-0.732422,1.0294154883014923
-0.363037,-0.954102,0.071045,0.976562,-1.13678,-1.022339,1.0233053707461912
-0.359375,-0.950195,0.071289,0.892639,-1.88446,-0.991821,1.0183825657241978
-0.358398,-0.949707,0.073242,0.801086,-2.632141,-0.984192,1.0177214269224166
-0.35791,-0.94751,0.07373,0.907898,-2.960205,-1.075745,1.0155347759185798
-0.355713,-0.947266,0.07251,1.029968,-3.14331,-1.029968,1.0144468015746317
-0.351807,-0.946289,0.07251,1.091003,-3.349304,-0.961304,1.0121703102097
-0.347656,-0.948242,0.073975,1.00708,-3.288269,-0.87738,1.0126696823372368
-0.347656,-0.949219,0.073486,0.915527,-2.677917,-0.823975,1.0135490104050224
-0.349365,-0.95166,0.072266,0.915527,-1.983642,-0.709534,1.0163341151319285
-0.351807,-0.950928,0.07251,0.923157,-1.449585,-0.679016,1.0165086947650768
-0.352295,-0.952148,0.06958,1.083374,-1.091003,-0.770569,1.0176143460707499
-0.35376,-0.952148,0.067871,1.037598,-0.88501,-0.640869,1.018007084525938
-0.351563,-0.951904,0.070801,1.060486,-0.740051,-0.473022,1.0172170612932128
-0.35083,-0.953857,0.067139,1.213074,-0.320435,-0.358582,1.018544309625261
-0.353271,-0.952393,0.068848,1.205444,-0.137329,-0.396728,1.0181320508627554
-0.353516,-0.952393,0.070801,1.167297,0.076294,-0.320435,1.0183510054524423
-0.353027,-0.950195,0.072021,1.243591,0.297546,-0.274658,1.0162114077272504
-0.354004,-0.950439,0.076172,1.373291,0.38147,-0.282288,1.0170817559670413
-0.35498,-0.947998,0.075195,1.38855,0.427246,-0.473022,1.0150691091886306
-0.356445,-0.947021,0.076172,1.335144,0.411987,-0.541687,1.0147433104238726
-0.356201,-0.951416,0.073486,1.335144,0.267029,-0.556946,1.0185635717288344
-0.354736,-0.949707,0.072998,1.358032,0.114441,-0.556946,1.0164200527090166
-0.355225,-0.946045,0.075195,1.213074,-0.083923,-0.541687,1.0133312541686454
-0.358643,-0.94458,0.075195,0.938415,-0.274658,-0.473022,1.013168527873818
-0.361328,-0.947754,0.07373,0.740051,-0.717163,-0.312805,1.016971819176913
-0.362061,-0.949463,0.075195,0.473022,-1.426697,-0.320435,1.0189320115272658
-0.358154,-0.948486,0.075195,0.442505,-2.052307,-0.389099,1.0166387106229036
-0.355225,-0.950439,0.072754,0.534058,-2.342224,-0.518799,1.017257213226822
-0.35376,-0.946533,0.071533,0.62561,-2.380371,-0.556946,1.0130092930363472
-0.353516,-0.947266,0.071777,0.450134,-2.159119,-0.640869,1.0136263486813077
-0.354004,-0.948975,0.073242,0.427246,-2.090454,-0.648498,1.015498288134943
-0.349365,-0.950928,0.074463,0.457764,-2.120972,-0.63324,1.0158074142168878
-0.348633,-0.949951,0.070557,0.450134,-1.747131,-0.656128,1.014361947895819
-0.353516,-0.951416,0.071045,0.259399,-1.304626,-0.602722,1.017454352458625
-0.356934,-0.954102,0.074219,0.205994,-1.159668,-0.617981,1.0213818907348025
-0.357422,-0.953369,0.074463,0.274658,-1.342773,-0.62561,1.0208857304390144
-0.35498,-0.95166,0.074219,0.282288,-1.724243,-0.717163,1.018418389445615
-0.35376,-0.948242,0.073975,0.419617,-2.01416,-0.617981,1.014781419217459
-0.353271,-0.948242,0.077148,0.427246,-2.098083,-0.473022,1.0148473303453087
-0.355957,-0.949219,0.078369,0.289917,-2.174377,-0.434875,1.016790930315077
-0.357422,-0.953125,0.074951,0.282288,-2.410889,-0.358582,1.0206935897271032
-0.35498,-0.952148,0.073242,0.37384,-2.838135,-0.389099,1.0188037126296703
-0.35376,-0.951416,0.072021,0.541687,-2.838135,-0.450134,1.0176077668222663
-0.354492,-0.952393,0.072266,0.564575,-2.716064,-0.564575,1.0187930993430414
-0.355225,-0.953613,0.075684,0.595093,-2.838135,-0.549316,1.0204364861420823
-0.353516,-0.953125,0.072266,0.717163,-2.983093,-0.617981,1.0191384609742682
-0.352539,-0.952881,0.070801,0.831604,-2.868652,-0.770569,1.018468815567271
-0.352051,-0.950439,0.07251,0.694275,-2.670288,-0.75531,1.0161357682032457
-0.353027,-0.951172,0.075684,0.564575,-2.555847,-0.785828,1.0173909298637374
-0.353027,-0.950684,0.07373,0.572205,-2.502441,-0.762939,1.0167911503770084
-0.348389,-0.94751,0.075195,0.526428,-2.479553,-0.717163,1.0123262238260944
-0.348877,-0.948486,0.07373,0.663757,-2.304077,-0.701904,1.0133000376122563
-0.352539,-0.950195,0.076172,0.511169,-2.01416,-0.656128,1.0163446551883863
-0.352051,-0.954834,0.077637,0.465393,-2.037048,-0.801086,1.0206249937788119
-0.352539,-0.953125,0.074951,0.549316,-2.296448,-0.999451,1.0189939472572938
-0.353516,-0.952393,0.076904,0.564575,-2.380371,-1.068115,1.0187935089707827
-0.355469,-0.951416,0.075195,0.617981,-2.63977,-1.091003,1.0184325716717821
-0.353516,-0.951904,0.078125,0.534058,-2.906799,-1.098633,1.0184293314202022
-0.352051,-0.954102,0.078125,0.579834,-2.998352,-0.991821,1.0199774745699044
-0.352783,-0.955078,0.078857,0.617981,-2.906799,-1.068115,1.0211994210838546
-0.352295,-0.953369,0.078857,0.679016,-2.799988,-1.228333,1.019432510583707
-0.352051,-0.953857,0.080078,0.671387,-2.815246,-1.13678,1.0198997838680033
-0.353516,-0.953613,0.075928,0.999451,-2.601623,-1.014709,1.019860959743533
-0.350342,-0.95166,0.071777,1.205444,-2.220154,-0.938415,1.0166357313674352
-0.348877,-0.948975,0.074463,1.106262,-1.945495,-1.00708,1.013811348389334
-0.349609,-0.949951,0.077637,1.068115,-1.747131,-0.953674,1.0152146861876064
-0.349365,-0.950928,0.078125,1.113892,-1.663208,-0.953674,1.016082417933703
-0.351318,-0.946777,0.080078,1.098633,-1.777649,-0.88501,1.013026905337168
-0.351318,-0.946045,0.079346,0.907898,-1.754761,-0.602722,1.0122851707226574
-0.351563,-0.950684,0.073975,0.778198,-1.731872,-0.457764,1.0163015848900363
-0.349609,-0.957275,0.072754,0.762939,-1.419067,-0.495911,1.0217118101607714
-0.351563,-0.959717,0.07251,0.999451,-0.915527,-0.808716,1.024651630144607
-0.359619,-0.959473,0.07666,1.13678,-0.617981,-1.098633,1.027516918833943
-0.362793,-0.955566,0.080811,1.228333,-1.243591,-1.472473,1.0253075435819246
-0.358887,-0.952881,0.08374,1.167297,-2.326965,-1.670837,1.0216625991637356
-0.354492,-0.951172,0.080566,1.167297,-3.013611,-1.792908,1.0182748312729721
-0.349854,-0.94873,0.079102,1.174927,-3.280639,-1.724243,1.0142699643684614
-0.348633,-0.947021,0.080811,1.014709,-3.204345,-1.625061,1.0123853815869726
-0.348389,-0.946777,0.080078,0.846863,-3.089905,-1.289368,1.0120148561824573
-0.345703,-0.948242,0.078125,0.968933,-3.044128,-1.182556,1.0123126841040766
-0.344238,-0.949219,0.079102,0.976562,-2.76947,-0.968933,1.0128048365845217
-0.347656,-0.947266,0.082031,0.839233,-2.27356,-0.862122,1.012376735238913
-0.351318,-0.946289,0.080078,0.564575,-1.907349,-0.839233,1.0125708344254243
-0.353027,-0.948486,0.07666,0.442505,-1.861572,-0.747681,1.0149534523932613
-0.353271,-0.951172,0.075439,0.656128,-1.907349,-0.808716,1.0174574269943681
-0.349609,-0.946777,0.071777,0.823975,-1.571655,-0.930786,1.0118127684206204
-0.353516,-0.946289,0.07251,0.610352,-1.083374,-0.869751,1.0127655868348806
-0.354492,-0.951172,0.072754,0.587463,-0.816345,-0.679016,1.0176865412119784
-0.352539,-0.952881,0.077148,0.595093,-0.587463,-0.541687,1.0189297132707438
-0.354004,-0.952637,0.080566,0.587463,-0.419617,-0.495911,1.0194738673163721
-0.355713,-0.948486,0.082031,0.556946,-0.587463,-0.320435,1.0163102457055129
-0.358643,-0.947754,0.084717,0.419617,-1.052856,-0.205994,1.0168772866250873
-0.356934,-0.949707,0.085449,0.297546,-1.502991,-0.091553,1.0181585327472338
-0.351563,-0.94873,0.084473,0.297546,-2.044678,0.045776,1.0152934765859574
-0.349609,-0.949463,0.082031,0.419617,-2.204895,0.099182,1.015103702195495
-0.351563,-0.949219,0.080322,0.335693,-2.14386,0.198364,1.0154136480341398
-0.350586,-0.951172,0.079834,0.091553,-2.197266,0.267029,1.016863896761017
-0.349609,-0.953125,0.077881,0.144958,-2.380371,0.198364,1.01820389346486
-0.351074,-0.954346,0.076172,0.061035,-2.525329,0.007629,1.0197212436622078
-0.349609,-0.953369,0.073486,0.076294,-2.616882,-0.061035,1.0181056405098639
-0.345215,-0.953369,0.07251,0.160217,-2.39563,-0.305176,1.016535068989752
-0.344727,-0.953857,0.070801,0.228882,-1.670837,-0.404358,1.0167067731548758
-0.342529,-0.952637,0.074219,0.190735,-0.854492,-0.228882,1.0150624756984172
-0.345215,-0.95166,0.079346,0.244141,-0.25177,-0.25177,1.015443715594813
-0.348145,-0.951416,0.079346,0.320435,0.061035,-0.190735,1.0162151021299575
-0.349854,-0.95166,0.078613,0.427246,0.144958,-0.083923,1.016973244822596
-0.35083,-0.950439,0.081055,0.37384,0.144958,0.091553,1.0163591366470812
-0.350586,-0.94751,0.077148,0.427246,-0.076294,0.083923,1.013231245767717
-0.350586,-0.948975,0.076416,0.473022,-0.175476,0.053406,1.0145459571044577
-0.354736,-0.951416,0.07666,0.175476,-0.38147,0.068665,1.0182862025737165
-0.351563,-0.954346,0.080322,0.106812,-1.014709,-0.053406,1.0202080446502075
-0.351563,-0.954834,0.078613,0.167847,-1.213074,-0.068665,1.0205314861845272
-0.349609,-0.953369,0.077148,0.259399,-0.999451,-0.091553,1.0183765104056555
-0.349365,-0.953125,0.075928,0.450134,-0.709534,-0.175476,1.0179726077031739
-0.353027,-0.953125,0.078613,0.404358,-0.320435,-0.350952,1.0194387338741844
-0.354492,-0.95459,0.080811,0.404358,-0.427246,-0.37384,1.0214876719202244
-0.355713,-0.954834,0.081543,0.434875,-0.762939,-0.389099,1.022198105444341
-0.351318,-0.955078,0.082031,0.457764,-1.113892,-0.335693,1.0209443707514136
-0.349365,-0.952637,0.080566,0.518799,-1.152039,-0.259399,1.0178723089611976
-0.351807,-0.950928,0.079834,0.572205,-1.045227,-0.137329,1.0170573700578547
-0.352783,-0.949463,0.078369,0.556946,-0.938415,0.0,1.0159121682601306
-0.353271,-0.951904,0.080322,0.488281,-0.869751,-0.045776,1.0185152175304009
-0.351807,-0.950684,0.080078,0.465393,-1.083374,0.022888,1.0168484248839647
-0.349854,-0.950928,0.07959,0.595093,-1.197815,-0.030518,1.0163643296574314
-0.351563,-0.949707,0.07959,0.617981,-1.113892,0.015259,1.0158122350700447
-0.348633,-0.947754,0.077637,0.709534,-0.976562,-0.038147,1.0128228457997974
-0.352051,-0.947998,0.076172,0.663757,-0.831604,-0.106812,1.0141214366085551
-0.35498,-0.949707,0.074463,0.450134,-0.831604,-0.25177,1.016611491484333
-0.355713,-0.953857,0.074219,0.305176,-1.091003,-0.450134,1.0207268854982707
-0.354492,-0.95459,0.075439,0.434875,-1.38092,-0.473022,1.0210767301652701
-0.354004,-0.952637,0.078369,0.480652,-1.319885,-0.556946,1.019302597831478
-0.352295,-0.950195,0.079102,0.434875,-1.25885,-0.701904,1.016483856956912
-0.355469,-0.950195,0.076904,0.488281,-1.274109,-0.511169,1.0174197625375674
-0.358398,-0.950684,0.079102,0.366211,-1.541138,-0.556946,1.0190713030323246
-0.356689,-0.949951,0.077637,0.312805,-1.708984,-0.617981,1.0176745299411791
-0.352051,-0.950439,0.077393,0.343323,-2.128601,-0.701904,1.016495880843105
-0.350342,-0.950928,0.07959,0.259399,-2.380371,-0.640869,1.0165324127877085
-0.351318,-0.948975,0.075439,0.335693,-2.296448,-0.366211,1.0147260371499294
-0.350586,-0.950928,0.075195,0.152588,-2.098083,-0.328064,1.0162818962300766
-0.349854,-0.950928,0.077393,0.114441,-1.937866,-0.297546,1.0161946461918603
-0.351318,-0.953857,0.076416,0.236511,-1.747131,-0.328064,1.0193659395079864
-0.352783,-0.952881,0.079102,0.221252,-1.556396,-0.457764,1.0191639571992328
-0.353271,-0.952393,0.078857,0.236511,-1.617432,-0.640869,1.0188578175285303
-0.351318,-0.950195,0.077148,0.190735,-1.747131,-0.717163,1.0159954178307105
-0.350342,-0.950195,0.077881,0.160217,-1.777649,-0.701904,1.015714283226341
-0.351074,-0.951416,0.075928,0.289917,-1.770019,-0.717163,1.0169613658915466
-0.352539,-0.956543,0.075195,0.267029,-1.541138,-0.648498,1.0222096386725181
-0.353027,-0.959961,0.075928,0.442505,-1.396179,-0.617981,1.0256306574171814
-0.352051,-0.958008,0.074707,0.640869,-1.449585,-0.831604,1.0233769444901522
-0.353516,-0.954346,0.075684,0.717163,-1.625061,-0.846863,1.0205282543016632
-0.351318,-0.951904,0.079834,0.694275,-1.838684,-0.976562,1.017801075798213
-0.348389,-0.950684,0.078613,0.793457,-2.212524,-1.068115,1.0155564814159772
-0.346436,-0.947021,0.080811,0.701904,-2.5177,-1.029968,1.0116309081171848
-0.344238,-0.946045,0.081055,0.617981,-2.586365,-0.991821,1.0099855720226898
-0.341309,-0.949707,0.080078,0.480652,-2.479553,-0.892639,1.012347620836835
-0.337402,-0.948975,0.077148,0.473022,-2.113342,-0.770569,1.0101215145382263
-0.338867,-0.950439,0.076172,0.411987,-1.426697,-0.823975,1.0119126988006426
-0.34668,-0.949951,0.074219,0.236511,-0.930786,-0.907898,1.013953837589266
-0.352051,-0.952148,0.074951,0.167847,-0.823975,-1.037598,1.017911279486577
-0.353271,-0.953369,0.073975,0.25177,-1.243591,-1.220703,1.0194043114618458
-0.353516,-0.955322,0.072021,0.267029,-1.495361,-1.205444,1.0211761407225495
-0.353271,-0.956299,0.074219,0.473022,-1.51062,-1.197815,1.0221627252071952
-0.35083,-0.956299,0.073242,0.617981,-1.419067,-1.113892,1.0212511233114996
-0.352783,-0.956299,0.074707,0.610352,-1.121521,-0.938415,1.0220297247825036
-0.354004,-0.956299,0.077637,0.724792,-0.709534,-0.778198,1.0226700901004193
-0.35376,-0.955322,0.079346,0.915527,-0.419617,-0.701904,1.0218033318599036
-0.356445,-0.952881,0.08252,1.014709,-0.50354,-0.648498,1.0207079839924835
-0.357178,-0.951172,0.081543,0.991821,-1.00708,-0.701904,1.0192907132496598
-0.355957,-0.952148,0.080566,0.946045,-1.76239,-0.62561,1.0196970531040088
-0.354248,-0.952393,0.078125,1.091003,-2.532959,-0.724792,1.0191406122699656
-0.353271,-0.953125,0.075195,1.38855,-3.128052,-0.816345,1.0192653987509828
-0.350098,-0.953369,0.074219,1.480102,-3.242492,-0.984192,1.0183268236308027
-0.351074,-0.950195,0.073242,1.441955,-3.105163,-1.144409,1.0156219188580955
-0.353516,-0.952148,0.075439,1.335144,-2.983093,-1.243591,1.0184549174514304
-0.351807,-0.950195,0.074463,1.251221,-3.204345,-1.319885,1.015964291519638
-0.351074,-0.949219,0.074951,1.289368,-3.52478,-1.472473,1.014833639488759
-0.348877,-0.947266,0.072998,1.022339,-3.822326,-1.480102,1.0121051051590444
-0.34668,-0.947754,0.077148,0.740051,-3.852844,-1.441955,1.0121148555475312
-0.347656,-0.947754,0.074951,0.457764,-3.730774,-1.373291,1.0122845406569243
-0.349365,-0.949707,0.075928,0.289917,-3.768921,-1.197815,1.0147730535730637
-0.346436,-0.951416,0.078369,0.244141,-3.814697,-1.243591,1.0155550242665339
-0.347412,-0.950928,0.073975,0.106812,-3.738403,-1.449585,1.015101699118369
-0.3479,-0.953369,0.070068,0.152588,-3.677368,-1.518249,1.0172789119926748
-0.345459,-0.950439,0.071045,0.175476,-3.555298,-1.571655,1.0137670370588108
-0.345215,-0.950195,0.072754,0.007629,-3.326416,-1.495361,1.0135763803315467
-0.347168,-0.951172,0.074219,-0.022888,-3.067016,-1.480102,1.0152646225339481
-0.343994,-0.951904,0.074463,-0.091553,-3.135681,-1.525879,1.0148880901956627
-0.344727,-0.955322,0.072998,-0.190735,-3.051758,-1.602173,1.018236483444293
-0.341553,-0.953369,0.07373,-0.167847,-2.799988,-1.51062,1.0153851559236033
-0.340332,-0.950928,0.077881,-0.328064,-2.250671,-1.609802,1.0129932781460103
-0.349121,-0.953369,0.083496,-0.38147,-1.419067,-1.754761,1.0187097254949518
-0.350586,-0.953613,0.079834,-0.25177,-1.770019,-1.914978,1.0191475676863484
-0.342529,-0.950195,0.076416,-0.289917,-2.174377,-2.052307,1.0129343803633086
-0.341553,-0.947998,0.075439,-0.328064,-1.808166,-2.288818,1.0104700403940732
-0.345215,-0.950195,0.07666,-0.556946,-1.121521,-2.494812,1.013864236399529
-0.344238,-0.953857,0.074219,-0.518799,-0.701904,-2.555847,1.016784852883834
-0.349609,-0.955811,0.077148,-0.427246,-0.572205,-2.609253,1.0206629877221962
-0.349365,-0.954346,0.074707,-0.350952,-1.091003,-2.777099,1.019025675235909
-0.34668,-0.950684,0.074463,-0.419617,-1.411438,-2.708435,1.0146584788119597
-0.351563,-0.950439,0.073486,-0.656128,-1.586914,-2.388,1.016036922501343
-0.348145,-0.954102,0.073486,-0.999451,-1.983642,-1.89209,1.0182906066663877
-0.348877,-0.955566,0.075195,-1.274109,-2.27356,-1.777649,1.0200371706511484
-0.349121,-0.95459,0.075684,-1.220703,-2.586365,-1.686096,1.0192426642350683
-0.347656,-0.956299,0.078369,-1.159668,-2.799988,-1.777649,1.0205460165509441
-0.344482,-0.958252,0.079346,-0.984192,-2.807617,-2.067566,1.0213767823599673
-0.341797,-0.955811,0.080322,-0.663757,-2.26593,-2.212524,1.0182590439637647
-0.343506,-0.954834,0.081787,-0.389099,-1.625061,-2.388,1.0180341118847638
-0.348145,-0.950195,0.083984,-0.358582,-1.51062,-2.334595,1.0154451197903311
-0.347656,-0.948242,0.079102,-0.366211,-1.533508,-2.166748,1.013057111570715
-0.350586,-0.951172,0.078857,-0.389099,-1.579285,-2.113342,1.0167876589676923
-0.350586,-0.95166,0.075439,-0.366211,-1.998901,-1.846313,1.0169849269861377
-0.349121,-0.951904,0.074463,-0.389099,-2.243042,-1.502991,1.0166373179388999
-0.346436,-0.947998,0.071777,-0.358582,-2.388,-1.403808,1.0118646390842008
-0.350342,-0.950928,0.070557,-0.488281,-2.502441,-1.197815,1.0158650837571888
-0.350098,-0.954834,0.072266,-0.427246,-2.89917,-1.281738,1.0195582140888277
-0.345215,-0.953613,0.07251,-0.282288,-3.707886,-1.228333,1.0167639106960868
-0.338135,-0.952148,0.071289,-0.144958,-4.211426,-1.220703,1.0129181673017815
-0.332275,-0.94873,0.071045,0.144958,-4.096985,-1.213074,1.0077413758251668
-0.32959,-0.946289,0.071777,0.236511,-3.128052,-1.113892,1.0046115554531512
-0.328125,-0.946533,0.068604,0.259399,-1.701355,-0.801086,1.0041400522486892
-0.329834,-0.95166,0.066895,0.267029,-1.014709,-0.221252,1.0094167445515256
-0.32959,-0.95752,0.063721,0.328064,-0.823975,0.106812,1.0146597874859336
-0.328857,-0.965332,0.061523,0.289917,-0.274658,0.343323,1.021664267850256
-0.334717,-0.970947,0.064941,0.335693,0.282288,0.465393,1.0290728255954484
-0.3396,-0.96582,0.068604,0.282288,-0.228882,0.350952,1.0260813521431915
-0.335938,-0.959961,0.069092,0.480652,-0.999451,0.343323,1.0193886235528626
-0.334961,-0.961182,0.06665,0.770569,-1.182556,0.366211,1.0200548667326674
-0.335449,-0.961182,0.068604,0.930786,-1.220703,0.312805,1.0203447346563808
-0.330566,-0.958984,0.070068,1.13678,-1.13678,0.518799,1.0167761391948573
-0.327881,-0.959229,0.06958,1.350403,-0.968933,0.602722,1.0161041290153288
-0.328125,-0.960938,0.068848,1.693725,-0.473022,0.778198,1.0177464824665325
-0.328369,-0.958984,0.068848,1.869202,0.190735,1.075745,1.0159805901300476
-0.329346,-0.955566,0.06958,1.861572,0.740051,1.174927,1.013122176478237
-0.327637,-0.953369,0.070313,1.64032,1.289368,1.25885,1.0105455813069493
-0.332764,-0.95752,0.071777,1.480102,1.655578,1.312256,1.0162324378925325
-0.335449,-0.965088,0.069336,1.564026,1.617432,1.182556,1.0240743919466984
-0.332031,-0.97168,0.05957,2.220154,1.647949,0.869751,1.0285694882996483
-0.325684,-0.980713,0.051025,2.89154,2.593994,0.37384,1.034635977941034
-0.328613,-0.98877,0.048096,3.707886,4.325867,-0.366211,1.0430560109049754
-0.325928,-0.986328,0.049072,4.692078,5.928039,-1.121521,1.0399423281855587
-0.317627,-0.974854,0.050049,5.798339,7.43103,-1.792908,1.0265145565680012
-0.314453,-0.96167,0.055664,6.538391,9.315491,-2.044678,1.0133056592188756
-0.315186,-0.953125,0.058105,6.523132,10.803222,-1.991272,1.0055673379968146
-0.312744,-0.949951,0.064697,6.111145,12.138366,-1.976013,1.0021982906321483
-0.318359,-0.950439,0.071045,5.332946,12.96234,-2.250671,1.0048552819321797
-0.322266,-0.949707,0.080322,4.615784,12.847899,-2.914428,1.006106547185237
-0.323975,-0.950684,0.087402,4.02832,12.46643,-3.974914,1.008166146071668
-0.335449,-0.948975,0.091553,3.27301,11.306762,-5.241394,1.010673801993007
-0.345459,-0.945068,0.094238,2.548218,9.391785,-6.599426,1.0106316074361616
-0.357178,-0.942871,0.094238,1.724243,7.17926,-8.18634,1.0126512958412683
-0.363525,-0.941406,0.095947,0.778198,4.570007,-9.750366,1.0137068162294263
-0.368896,-0.943604,0.095459,-0.190735,1.991272,-10.688781,1.0176370611927417
-0.37207,-0.947754,0.094238,-0.976562,-0.358582,-10.932921,1.0225236085587461
-0.374756,-0.94751,0.087158,-1.167297,-2.342224,-10.856627,1.0226503686989017
-0.37207,-0.947754,0.075928,-1.373291,-3.845215,-10.635375,1.0209989180209742
-0.364746,-0.943359,0.068359,-1.625061,-5.203247,-10.086059,1.0137252094517526
-0.356201,-0.945313,0.062744,-1.976013,-5.905151,-9.346008,1.0121425936625728
-0.354492,-0.949707,0.059326,-2.281189,-6.256103,-8.476257,1.0154445027617214
-0.355469,-0.959473,0.052002,-2.456665,-6.91986,-7.43103,1.0245246974543856
-0.352051,-0.961914,0.052734,-2.388,-8.041382,-6.614685,1.0256701832231452
-0.343506,-0.960449,0.055176,-1.907349,-9.056091,-6.240844,1.0215199677994553
-0.331543,-0.958496,0.054932,-1.411438,-9.597778,-6.072998,1.0157031394502036
-0.322266,-0.955811,0.060547,-1.113892,-9.407043,-5.981445,1.0104929399486173
-0.317871,-0.952393,0.067383,-0.961304,-8.590698,-5.950927,1.0062976039815459
-0.31665,-0.951416,0.072998,-0.991821,-7.438659,-5.851745,1.0053796972089701
-0.318359,-0.953857,0.080078,-1.060486,-6.988525,-5.79071,1.0087656394891729
-0.314209,-0.959473,0.085205,-1.335144,-6.713867,-5.653381,1.013200683692525
-0.309082,-0.958496,0.091064,-1.358032,-6.156921,-5.653381,1.0112066637616663
-0.315186,-0.957275,0.095947,-1.342773,-5.531311,-5.760192,1.0123850389204692
-0.321533,-0.961426,0.098633,-1.365662,-5.41687,-5.653381,1.0185538239356817
-0.320313,-0.96167,0.095947,-1.266479,-5.622863,-5.569458,1.0181431302513415
-0.318848,-0.961914,0.093262,-0.892639,-5.66101,-5.523681,1.0176641838759974
-0.316406,-0.963623,0.089355,-0.732422,-5.233764,-5.355834,1.0181681388601787
-0.320313,-0.967529,0.080078,-0.793457,-4.470825,-5.058288,1.0223136846848917
-0.319336,-0.97168,0.072754,-0.686645,-3.64685,-4.959106,1.0253929236209893
-0.321289,-0.970947,0.074219,-0.572205,-2.76947,-4.79126,1.0254136522842867
-0.323975,-0.96875,0.07251,-0.25177,-2.189636,-4.631042,1.024057646436469
-0.326416,-0.967529,0.074951,0.320435,-1.922607,-4.585266,1.0238542002150501
-0.321533,-0.960693,0.074219,1.037598,-2.235413,-4.501343,1.015786872478179
-0.314453,-0.957275,0.072266,1.373291,-2.166748,-4.402161,1.0101873537072221
-0.317139,-0.95459,0.072266,1.525879,-1.235962,-4.211426,1.0084847981883516
-0.323486,-0.95752,0.074219,1.724243,-0.732422,-3.822326,1.0134082112145135
-0.319336,-0.957031,0.07251,1.869202,-1.152039,-3.326416,1.0115045802946223
-0.315918,-0.95752,0.071045,2.120972,-1.449585,-2.952575,1.010789852120113
-0.320557,-0.956299,0.073242,2.334595,-1.525879,-2.76947,1.0112511845303322
-0.322021,-0.957764,0.074951,2.243042,-2.098083,-2.540588,1.013226063886041
-0.316162,-0.961426,0.07959,2.166748,-2.792358,-2.342224,1.0152009317470114
-0.312012,-0.964355,0.080811,2.220154,-2.960205,-2.380371,1.0167902792070742
-0.309326,-0.965332,0.085205,2.243042,-2.601623,-2.357483,1.0172552956485406
-0.311768,-0.965332,0.08667,2.571106,-2.13623,-2.357483,1.0181241795321434
-0.309814,-0.96875,0.088867,2.822876,-1.815796,-2.334595,1.0209596567862023
-0.309326,-0.965576,0.086426,3.082275,-1.457214,-2.235413,1.0175898188995407
-0.308838,-0.963623,0.090332,3.128052,-1.205444,-2.105713,1.015928179841961
-0.306885,-0.9646,0.088623,3.082275,-1.152039,-1.922607,1.016112985525724
-0.310059,-0.968262,0.08667,3.036499,-1.289368,-1.846313,1.0203820720813357
-0.311279,-0.972412,0.085205,2.990722,-1.754761,-1.739502,1.0245680092653684
-0.309082,-0.969238,0.081543,3.036499,-2.128601,-1.792908,1.0205896551587226
-0.303711,-0.96582,0.081787,3.158569,-2.39563,-1.831055,1.015744927277513
-0.298584,-0.964111,0.080566,3.326416,-1.876831,-1.976013,1.0124985460399436
-0.30249,-0.963623,0.080566,3.440857,-1.152039,-2.082825,1.0131931536410024
-0.305908,-0.963379,0.084717,3.616333,-1.029968,-2.113342,1.0143252792837218
-0.303955,-0.96167,0.07959,3.845215,-1.281738,-2.090454,1.011697780478439
-0.30127,-0.962402,0.08374,4.074097,-1.548767,-1.976013,1.0119256939637415
-0.300537,-0.961914,0.083008,4.249573,-1.747131,-1.678467,1.0111831485092106
-0.300537,-0.960693,0.077637,4.081726,-2.090454,-1.487732,1.009594489083117
-0.298096,-0.960449,0.080078,3.959656,-2.525329,-1.274109,1.0088290206477013
-0.295654,-0.958496,0.080566,3.913879,-2.693176,-1.159668,1.0062886017877772
-0.290039,-0.954834,0.08374,3.585815,-2.464294,-1.25885,1.0014204794575554
-0.291016,-0.956543,0.083252,3.303528,-2.098083,-1.052856,1.00329243922647
-0.286621,-0.957764,0.081299,2.89917,-1.846313,-1.083374,1.0030319061415742
-0.282471,-0.96167,0.087402,2.609253,-0.984192,-1.228333,1.006100474279284
-0.286621,-0.962646,0.090088,2.235413,0.259399,-1.159668,1.008441751764077
-0.290527,-0.966309,0.089844,1.754761,1.274109,-1.113892,1.013030584704134
-0.295166,-0.970703,0.090332,1.426697,1.953125,-1.152039,1.0186005851112594
-0.302979,-0.968018,0.091064,1.38092,2.601623,-1.495361,1.0184045241754378
-0.30835,-0.971191,0.096436,1.586914,2.861023,-1.831055,1.0235192148059558
-0.3125,-0.971436,0.095947,1.76239,2.372742,-2.166748,1.0249634036905904
-0.309814,-0.970703,0.092285,2.13623,1.403808,-2.334595,1.0231156093179303
-0.310547,-0.967041,0.088623,2.456665,0.686645,-2.342224,1.0195399800983775
-0.308838,-0.96875,0.0896,2.5177,-0.038147,-2.281189,1.020727991555047
-0.307617,-0.969238,0.086182,2.616882,-0.579834,-2.059937,1.0205282242334113
-0.302979,-0.969971,0.089844,2.571106,-1.274109,-1.831055,1.0201529099198807
-0.301514,-0.969482,0.085693,2.76947,-1.876831,-1.579285,1.0188961334547304
-0.297363,-0.967773,0.082275,2.838135,-1.968384,-1.533508,1.0157649870531076
-0.294189,-0.963623,0.084961,2.967834,-2.075195,-1.441955,1.0111057439115851
-0.290283,-0.961182,0.08667,2.990722,-2.334595,-1.434326,1.0077930075729837
-0.286133,-0.962891,0.086914,2.914428,-2.342224,-1.548767,1.0082585060221412
-0.28418,-0.962646,0.087402,2.929687,-2.044678,-1.747131,1.0075141206553881
-0.281982,-0.961426,0.090576,2.929687,-1.739502,-1.823425,1.0060108416791542
-0.2854,-0.963379,0.094238,2.853393,-1.548767,-1.708984,1.0091744439317714
-0.282471,-0.962891,0.093262,2.815246,-1.350403,-1.808166,1.0077930067062382
-0.28125,-0.963135,0.091553,2.807617,-0.946045,-1.823425,1.007527936354124
-0.282959,-0.965332,0.093506,2.792358,-0.564575,-1.678467,1.0102846321413583
-0.287109,-0.967041,0.094482,2.89917,-0.305176,-1.609802,1.0131765502053431
-0.2854,-0.971191,0.093506,2.960205,-0.236511,-1.571655,1.0165670123100592
-0.284424,-0.97583,0.093994,2.998352,-0.328064,-1.594543,1.0207722922924582
-0.2854,-0.974365,0.094971,3.166198,-0.114441,-1.670837,1.0197351636900633
-0.286865,-0.975342,0.09668,3.601074,0.160217,-1.815796,1.0212397209220763
-0.287109,-0.974854,0.100098,3.799438,0.320435,-1.953125,1.0211716353292428
-0.288086,-0.973389,0.10083,4.058838,0.198364,-2.037048,1.0201207661924152
-0.290527,-0.977783,0.105469,4.119873,-0.305176,-2.235413,1.0254702544584118
-0.291016,-0.97998,0.109619,4.417419,-1.037598,-2.830505,1.0281378496179392
-0.286133,-0.973633,0.11792,4.959106,-2.197266,-3.173828,1.0216351789058558
-0.280518,-0.970947,0.120117,4.570007,-3.318786,-3.211975,1.0177703664491318
-0.282715,-0.979736,0.118164,3.715515,-3.471374,-3.280639,1.0265345253896725
-0.289795,-0.983154,0.11792,3.890991,-3.921509,-3.799438,1.0317354584102458
-0.285889,-0.977295,0.110107,4.112244,-4.890442,-4.554749,1.0241882584735094
-0.282959,-0.970215,0.096436,3.822326,-4.951477,-4.501343,1.0152255138647768
-0.280029,-0.968018,0.085449,3.15094,-3.135681,-3.77655,1.0113241917239004
-0.281982,-0.971436,0.083984,2.311707,0.213623,-3.265381,1.015014809091966
-0.285156,-0.977783,0.089355,2.189636,3.105163,-2.731323,1.0224274328528162
-0.289551,-0.979492,0.098877,2.624511,4.447937,-2.372742,1.0261681250136354
-0.294189,-0.976807,0.105713,3.440857,4.310608,-2.418518,1.0256092439808644
-0.297119,-0.969971,0.106445,3.807068,2.883911,-2.494812,1.0200264599641522
-0.293945,-0.966797,0.108643,3.601074,0.831604,-2.540588,1.0163185542353343
-0.286621,-0.966064,0.109863,3.356933,-1.541138,-2.723694,1.0136573032864706
-0.277588,-0.968994,0.109131,3.067016,-3.601074,-3.005981,1.0138609593731283
-0.266602,-0.966309,0.109131,3.120422,-4.402161,-3.158569,1.0083349071841161
-0.262207,-0.963623,0.109863,3.288269,-4.005432,-3.578186,1.0046848638986257
-0.255615,-0.959229,0.109375,3.746032,-3.059387,-3.639221,0.9987102649372339
-0.249023,-0.951416,0.108398,4.074097,-1.556396,-3.65448,0.9894215410981307
-0.250732,-0.949463,0.104492,4.074097,0.793457,-3.730774,0.9875551135288602
-0.253174,-0.950195,0.104248,4.249573,3.479004,-3.578186,0.9888555292887834
-0.26001,-0.952637,0.105957,4.501343,5.470275,-3.440857,0.9931512169443282
-0.269287,-0.951904,0.105713,4.524231,6.568908,-3.318786,0.994892934920135
-0.2771,-0.956055,0.108398,4.447937,6.652832,-3.089905,1.0012870215023264
-0.281738,-0.962646,0.112793,4.356384,6.431579,-3.128052,1.0093492372855888
-0.289307,-0.967529,0.115234,4.455566,5.783081,-3.448486,1.0164102423952643
-0.291016,-0.967529,0.11792,4.371643,4.463196,-3.738403,1.0172058810766875
-0.289307,-0.968262,0.118408,4.173279,3.02124,-4.089355,1.0174725034894063
-0.287109,-0.968018,0.115234,4.066467,1.983642,-4.249573,1.0162525773453173
-0.28418,-0.969482,0.118408,3.723144,1.533508,-4.325867,1.0171893015501097
-0.284668,-0.971924,0.128174,3.52478,1.564026,-4.341125,1.0208333391283808
-0.288574,-0.97168,0.140869,3.433227,1.838684,-4.058838,1.0233675053650082
-0.283203,-0.96875,0.147949,3.059387,1.38092,-3.463745,1.0200830399090066
-0.283447,-0.970215,0.142578,2.281189,0.976562,-2.540588,1.0207780533093374
-0.287598,-0.967285,0.135742,1.922607,1.770019,-1.068115,1.0182233406247374
-0.290039,-0.965088,0.119873,1.922607,3.242492,0.076294,1.014833486535599
-0.294922,-0.966797,0.107178,1.846313,4.394531,0.236511,1.0164460383989895
-0.296143,-0.971436,0.097412,1.319885,4.966736,0.007629,1.0202341281730385
-0.291504,-0.973145,0.0979,0.785828,5.447387,0.076294,1.0205734579348025
-0.297119,-0.973633,0.101563,0.602722,4.859924,-0.38147,1.0230131777347737
-0.304932,-0.959717,0.108643,1.174927,1.396179,-0.816345,1.0128393486441964
-0.296143,-0.955078,0.115234,1.235962,-3.64685,-1.00708,1.006555282778348
-0.281982,-0.955078,0.114258,1.411438,-6.980896,-1.029968,1.002368557453794
-0.276367,-0.946045,0.108643,1.518249,-7.904052,-1.235962,0.9915559299217569
-0.267822,-0.938477,0.105713,1.251221,-6.828308,-0.63324,0.9816531676625915
-0.260986,-0.939697,0.106934,0.335693,-4.264832,0.389099,0.9811111172344343
-0.259521,-0.94873,0.110107,-0.427246,-1.167297,0.701904,0.9897289092423237
-0.255127,-0.963867,0.113037,-0.671387,1.434326,0.274658,1.003447429209423
-0.259766,-0.97168,0.121094,-0.411987,3.814697,-0.495911,1.0130667075726059
-0.271973,-0.975586,0.126709,-0.076294,5.134582,-1.602173,1.0206823829213474
-0.274414,-0.981934,0.133789,0.160217,4.745483,-2.792358,1.0282980697604172
-0.277832,-0.984375,0.14502,0.572205,4.219055,-3.578186,1.0330612572587359
-0.275146,-0.982666,0.156738,0.999451,4.180908,-4.241943,1.0324265540540887
-0.279785,-0.980957,0.158203,1.51062,3.578186,-4.776001,1.032271510448196
-0.284912,-0.970703,0.150391,1.708984,2.326965,-5.119323,1.0227690916497232
-0.282471,-0.962158,0.141357,1.197815,1.25885,-5.073547,1.0126794578019247
-0.281738,-0.961182,0.131592,0.320435,1.068115,-4.745483,1.0102294750362415
-0.286133,-0.954346,0.125732,-0.595093,0.862122,-4.585266,1.004219556286871
-0.289551,-0.954102,0.122559,-1.625061,-0.213623,-4.66156,1.004575092507275
-0.294434,-0.961426,0.121094,-2.250671,-2.14386,-4.875183,1.0127660592002479
-0.294189,-0.969238,0.119629,-2.27356,-4.249573,-5.401611,1.0199414522441963
-0.291016,-0.975098,0.118164,-1.991272,-6.332397,-6.141662,1.0244360169166253
-0.286865,-0.976318,0.11377,-1.38092,-8.239746,-6.896972,1.0239296744645112
-0.280518,-0.972656,0.115234,-0.854492,-9.254456,-7.202148,1.0188370416391426
-0.27832,-0.974609,0.115723,-0.526428,-9.147644,-7.110595,1.0201551538908187
-0.27832,-0.97583,0.115234,-0.213623,-8.43811,-6.835937,1.021266412869825
-0.280518,-0.980469,0.120361,0.167847,-7.202148,-6.523132,1.026886838267002
-0.285889,-0.978271,0.123047,0.938415,-6.835937,-5.805969,1.0265901002693334
-0.283203,-0.970215,0.125488,1.396179,-7.064819,-5.050659,1.0184637075409217
-0.279541,-0.974854,0.134033,1.449585,-7.4234,-4.417419,1.0229605745511408
-0.273193,-0.972656,0.136719,1.663208,-8.529663,-4.112244,1.0195029154180972
-0.263184,-0.971191,0.140137,1.976013,-9.857178,-4.28009,1.015931176362848
-0.263428,-0.971191,0.143311,2.326965,-11.054992,-4.493713,1.0164370675973993
-0.259033,-0.968994,0.141113,2.63977,-12.863158,-4.844666,1.0128970065579226
-0.250977,-0.966553,0.132568,2.6474,-14.663695,-4.959106,1.0073670785577618
-0.243408,-0.967773,0.124268,2.151489,-15.411376,-4.91333,1.0056214843652655
-0.237793,-0.971191,0.116699,1.800537,-14.72473,-4.722595,1.0066658462126348
-0.234375,-0.970459,0.111816,1.472473,-13.557433,-4.592896,1.0046019754917865
-0.229492,-0.974854,0.111572,1.045227,-12.359618,-4.623413,1.007697975865785
-0.233887,-0.975098,0.117188,0.648498,-10.620116,-5.004883,1.0095802423368834
-0.244873,-0.969727,0.121826,0.167847,-9.819031,-5.439758,1.007558839440159
-0.247559,-0.970215,0.122559,-0.541687,-10.330199,-5.477905,1.008773172317246
-0.242188,-0.968994,0.124756,-1.029968,-10.848998,-5.722045,1.0065626949753304
-0.239502,-0.965576,0.129639,-1.411438,-10.833739,-5.859375,1.0032469736316179
-0.240234,-0.96582,0.134277,-1.914978,-10.757445,-5.676269,1.0042663789478368
-0.237061,-0.963135,0.133789,-2.471924,-11.116027,-5.691528,1.0008628489793194
-0.235596,-0.96167,0.13208,-2.799988,-11.795043,-5.401611,0.998879267237037
-0.234619,-0.962402,0.125,-2.906799,-12.512206,-4.989624,0.9984431304611194
-0.229248,-0.959473,0.115967,-3.303528,-12.725829,-4.714966,0.9932730884917803
-0.223145,-0.955322,0.116211,-3.753662,-12.229918,-4.310608,0.9878961540718741
-0.22583,-0.955566,0.116943,-4.203796,-11.405944,-3.936767,0.9888282128383069
-0.227783,-0.950684,0.114014,-4.524231,-11.314391,-3.532409,0.9842176360648085
-0.230713,-0.950684,0.113281,-4.981995,-11.726378,-3.074646,0.9848152827743891
-0.232178,-0.958496,0.113037,-5.348205,-11.665343,-2.426147,0.9926724379517142
-0.241211,-0.968018,0.109863,-5.218505,-11.779784,-1.968384,1.0036490789185233
-0.245117,-0.973877,0.114014,-4.959106,-12.451171,-1.953125,1.0107017102063298
-0.246582,-0.984863,0.113281,-4.547119,-12.878417,-1.876831,1.0215627227214197
-0.250244,-0.994141,0.116699,-3.578186,-13.053893,-1.953125,1.0317737368328388
-0.244873,-0.992676,0.118652,-2.326965,-13.34381,-2.120972,1.0292942845508277
-0.237061,-0.98877,0.11792,-1.541138,-13.389586,-2.098083,1.0236059578866274
-0.234619,-0.984863,0.115723,-1.274109,-12.763976,-1.579285,1.0190157097213959
-0.233643,-0.986816,0.114746,-1.190186,-12.08496,-0.961304,1.0205692106961683
-0.226074,-0.984375,0.115967,-0.961304,-11.474608,-0.480652,1.016637565305355
-0.219971,-0.98291,0.12085,-0.778198,-9.841919,0.244141,1.0144476484476663
-0.220947,-0.987061,0.125488,-0.305176,-8.224487,0.686645,1.0192419892616278
-0.224609,-0.986328,0.132813,0.297546,-7.469177,1.205444,1.0202604664662842
-0.225586,-0.984131,0.133301,1.029968,-7.377624,1.502991,1.0184164301296401
-0.22583,-0.975586,0.133057,1.831055,-7.537841,1.419067,1.0101838434389059
-0.222168,-0.977539,0.140137,2.388,-7.545471,1.701355,1.012215142898979
-0.217773,-0.982666,0.145264,2.914428,-6.660461,1.983642,1.0169361714389946
-0.220215,-0.982666,0.13623,4.051208,-5.485534,1.564026,1.0162114576607568
-0.2229,-0.96875,0.126221,5.264282,-5.638122,0.511169,1.0020442671563967
-0.218506,-0.954102,0.117188,5.195617,-6.393432,-0.297546,0.9857933484174053
-0.214355,-0.948242,0.10376,3.829956,-5.760192,-0.488281,0.9776896717205312
-0.223145,-0.949219,0.103271,1.914978,-3.227234,-0.450134,0.9805484691880356
-0.237793,-0.956787,0.10376,0.282288,-1.098633,-0.518799,0.9913389994436818
-0.253906,-0.963867,0.10791,-0.556946,-1.190186,-1.068115,1.0025728994068213
-0.261963,-0.964844,0.10791,-1.121521,-3.890991,-1.930237,1.005580989182373
-0.260742,-0.966309,0.100098,-2.319336,-7.743835,-2.326965,1.0058623582026518
-0.255127,-0.968262,0.095947,-3.425598,-11.039733,-2.26593,1.005896074941144
-0.249512,-0.972412,0.096191,-4.386902,-12.985229,-2.174377,1.0085108052812324
-0.250488,-0.977051,0.105225,-4.974365,-14.198302,-2.098083,1.0141228699570877
-0.248535,-0.984131,0.118164,-5.455017,-15.510558,-1.800537,1.0218836539851295
-0.246826,-0.986572,0.126221,-5.355834,-16.75415,-1.197815,1.0247824775536514
-0.23584,-0.983398,0.131104,-5.126953,-17.799377,-0.541687,1.0197452578070663
-0.21582,-0.974609,0.134521,-4.875183,-17.76886,0.0,1.0072422125397644
-0.210938,-0.973633,0.13501,-4.714966,-16.166687,0.770569,1.005327687191097
-0.213623,-0.976318,0.137207,-5.027771,-14.236449,1.564026,1.008790059478185
-0.206787,-0.97998,0.137207,-5.15747,-12.489318,2.418518,1.0109141529417816
-0.200439,-0.982178,0.132813,-4.646301,-10.719298,2.815246,1.0111818379371733
-0.197998,-0.983887,0.129639,-3.913879,-8.377075,2.777099,1.011950150498531
-0.197021,-0.98584,0.125244,-2.693176,-6.072998,2.563476,1.0131060357025814
-0.200684,-0.985352,0.116699,-1.541138,-4.577637,2.548218,1.0123296342402508
-0.203369,-0.983887,0.109863,-0.549316,-3.158569,2.388,1.0106742589474613
-0.209473,-0.986572,0.101563,0.114441,-0.595093,2.220154,1.0136657693155078
-0.224854,-0.988281,0.09668,0.587463,2.27356,2.380371,1.018138339655766
-0.234863,-0.983887,0.090576,1.022339,4.02832,2.487183,1.0155778007193736
-0.238525,-0.984619,0.09082,1.266479,4.943848,2.670288,1.0171612572183428
-0.243896,-0.983154,0.100098,1.426697,5.195617,2.792358,1.0178883318596397
-0.250977,-0.976807,0.108887,1.64032,3.967285,2.700805,1.0143952624825296
-0.251465,-0.967529,0.113037,1.495361,1.220703,2.822876,1.006043923213594
-0.249268,-0.969727,0.114014,0.923157,-1.159668,3.242492,1.0077222745126755
-0.25,-0.974121,0.118408,0.518799,-2.418518,3.532409,1.0126362511311748
-0.246094,-0.975342,0.124756,0.198364,-3.601074,3.730774,1.0136164626405788
-0.233398,-0.973877,0.12793,-0.068665,-4.516602,3.52478,1.0095925526830118
-0.220703,-0.977539,0.133301,-0.213623,-4.364014,3.067016,1.010970557103915
-0.219727,-0.980713,0.138184,-0.12207,-4.051208,2.243042,1.0144815231210471
-0.219971,-0.978516,0.133789,0.068665,-4.508972,1.159668,1.0118202901790416
-0.214844,-0.972168,0.120605,0.289917,-5.104064,0.236511,1.002902852017582
-0.206787,-0.965332,0.110352,-0.061035,-3.814697,0.083923,0.9933802381248582
-0.206055,-0.9646,0.0979,-0.663757,0.076294,0.244141,0.9912094798906032
-0.215332,-0.964111,0.093018,-0.999451,4.882813,0.63324,0.9922349716014851
-0.231201,-0.965576,0.092285,-1.296997,8.491516,1.052856,0.9971496554690275
-0.248535,-0.969727,0.092285,-1.678467,9.811401,1.487732,1.005314190678218
-0.26709,-0.977295,0.098389,-1.724243,8.903503,1.960754,1.017901262621282
-0.273682,-0.977295,0.107422,-1.251221,6.42395,2.304077,1.020562021747331
-0.264648,-0.978516,0.116455,-0.686645,3.662109,2.5177,1.0203400870224595
-0.258545,-0.984375,0.128174,0.221252,1.213074,2.044678,1.025801263367325
-0.25415,-0.982178,0.129639,1.449585,-2.26593,0.785828,1.0227766699064855
-0.238525,-0.966797,0.121094,2.342224,-6.736755,-0.793457,1.0031223114206962
-0.212158,-0.949951,0.103027,1.663208,-8.041382,-0.831604,0.978791337361544
-0.198242,-0.949463,0.089844,0.175476,-4.104614,0.190735,0.9740902541700126
-0.200684,-0.96167,0.085205,-1.029968,2.189636,0.823975,0.9860746162339846
-0.211426,-0.96582,0.087158,-1.716614,7.499694,0.709534,0.9925249331074761
-0.221191,-0.971436,0.091553,-2.044678,10.69641,0.87738,1.0004975324237437
-0.239014,-0.981934,0.097168,-2.403259,11.558532,1.052856,1.0152653312193813
-0.257324,-0.995361,0.096436,-2.349854,10.2005,0.587463,1.0325982100473543
-0.266113,-1.001953,0.097656,-1.594543,6.179809,-0.411987,1.0412793272287701
-0.259033,-1.001221,0.091309,-1.220703,1.281738,-0.938415,1.0382094776156687
-0.244629,-0.998291,0.082031,-1.25885,-1.243591,-0.953674,1.0310952202793882
-0.236572,-0.999512,0.081543,-1.602173,-0.473022,-0.411987,1.0303590685663906
-0.235107,-1.008545,0.092529,-1.953125,2.288818,0.473022,1.0397114668575125
-0.233887,-1.008789,0.104004,-1.235962,5.218505,1.13678,1.0407570356745133
-0.231934,-1.006836,0.115967,-0.282288,7.720947,1.754761,1.0396924816218496
-0.239746,-1.006592,0.125732,0.732422,9.780884,2.39563,1.0423598873728785
-0.246582,-1.005371,0.129395,1.701355,11.108397,2.914428,1.0432241352604914
-0.253174,-0.999512,0.126709,2.700805,11.291503,3.578186,1.0388341942297625
-0.253662,-0.990479,0.119629,3.440857,11.192321,4.417419,1.0294193301691978
-0.24585,-0.986816,0.115479,3.845215,11.83319,5.371093,1.0235152367195126
-0.250244,-0.980957,0.112549,4.386902,13.267516,6.072998,1.0186098236253172
-0.258789,-0.976074,0.113037,5.050659,15.029906,6.851196,1.0161050946462182
-0.266602,-0.972168,0.117676,5.783081,16.220093,7.415771,1.0149063442525128
-0.274658,-0.964844,0.119873,6.439209,16.311646,7.690429,1.0103120792255234
-0.279541,-0.96167,0.12085,7.026672,16.029358,7.751464,1.0087403442318545
-0.28418,-0.960693,0.123291,7.476806,15.510558,7.484436,1.0094008041060796
-0.288086,-0.96167,0.118652,7.919311,13.877868,6.935119,1.0108813132113978
-0.286865,-0.952148,0.112061,8.31604,11.466979,5.714416,1.0007172477028663
-0.281494,-0.9375,0.101807,7.827758,9.475708,4.486084,0.9841289485047171
-0.282227,-0.930176,0.096191,6.187438,8.636475,4.081726,0.9767968975104292
-0.283691,-0.93457,0.099121,4.257202,8.277893,3.967285,0.9816957986168627
-0.282959,-0.943848,0.100586,2.922058,7.797241,3.40271,0.9904707901705129
-0.287354,-0.944092,0.09668,2.426147,6.988525,2.6474,0.9915790680424834
-0.292969,-0.943848,0.106934,2.029419,5.889892,2.01416,0.9940396181345088
-0.291748,-0.949463,0.115234,1.396179,4.478455,1.739502,0.9999378773848903
-0.292725,-0.954346,0.118896,1.174927,2.89917,1.319885,1.005286263786092
-0.292236,-0.954102,0.123047,0.900268,0.320435,0.518799,1.005411890873089
-0.2854,-0.953369,0.124268,0.419617,-2.708435,-0.144958,1.0028998683742063
-0.271484,-0.951904,0.118896,-0.480652,-4.745483,-0.137329,0.9969759507069365
-0.260254,-0.955078,0.115479,-1.708984,-3.936767,0.434875,0.9966150360299608
-0.262451,-0.959961,0.109863,-2.655029,-1.449585,1.235962,1.0012369987625307
-0.265381,-0.966553,0.106689,-3.044128,1.564026,2.02179,1.0079852775169882
-0.272461,-0.969238,0.106689,-3.02124,4.180908,2.76947,1.0124425118919098
-0.277588,-0.973145,0.108887,-2.89917,6.179809,3.234863,1.0178028628069387
-0.285889,-0.97876,0.111816,-2.029419,8.079529,3.509521,1.0257711615058205
-0.289795,-0.973145,0.112793,-0.938415,9.559631,3.723144,1.0216235088813297
-0.29126,-0.967529,0.118652,-0.022888,11.413573,4.127502,1.017360826130533
-0.295654,-0.968506,0.129639,0.457764,13.763427,4.623413,1.0208924674386621
-0.304932,-0.971436,0.140381,1.266479,15.312194,4.943848,1.0278026327466767
-0.311035,-0.963135,0.144775,2.510071,15.068053,4.417419,1.0224145930467736
-0.30835,-0.952393,0.142334,3.311157,13.191222,3.829956,1.0111335799512349
-0.297852,-0.947998,0.134277,2.861023,10.910033,3.509521,1.002719469561153
-0.29248,-0.949951,0.122803,1.914978,9.849548,3.128052,1.0015148673933902
-0.290283,-0.950439,0.110596,0.946045,9.925842,2.563476,0.999914990399684
-0.289795,-0.950928,0.106445,0.068665,9.811401,1.945495,0.9997878481127884
-0.290527,-0.95166,0.100586,-0.923157,8.972168,1.38855,1.0000901143022063
-0.287109,-0.952637,0.093994,-1.777649,8.06427,0.808716,0.9993916668083639
-0.287109,-0.953857,0.092041,-2.571106,7.598876,0.259399,1.0003730804110034
-0.29126,-0.953857,0.090088,-3.204345,7.652282,-0.045776,1.0013947332560722
-0.298584,-0.957275,0.094238,-3.738403,7.759094,0.114441,1.0071785498733579
-0.303467,-0.962158,0.097168,-4.089355,7.705688,0.457764,1.0135491390539484
-0.308105,-0.964844,0.10791,-4.478455,7.400512,0.717163,1.018576066605239
-0.312012,-0.967529,0.111816,-4.562378,6.607055,0.892639,1.0227251203725272
-0.314209,-0.969971,0.111816,-4.379272,5.40924,0.839233,1.0257065147389872
-0.312256,-0.969482,0.11377,-4.196167,3.959656,0.87738,1.0248623179530019
-0.308838,-0.969238,0.118408,-3.768921,2.708435,1.075745,1.0241209232078017
-0.30542,-0.972168,0.119385,-3.341675,1.411438,1.441955,1.0259847829519695
-0.303711,-0.970947,0.118408,-3.02124,0.267029,1.770019,1.0242064746885755
-0.300293,-0.972412,0.116699,-2.983093,-0.556946,2.258301,1.0243923272818867
-0.299316,-0.974854,0.111328,-3.112793,-0.961304,2.708435,1.0258285981371351
-0.297852,-0.977295,0.104004,-2.960205,-1.312256,2.967834,1.0269557745808726
-0.299072,-0.976563,0.0979,-2.502441,-1.647949,3.15094,1.0260135301997728
-0.295166,-0.973145,0.095215,-2.281189,-2.151489,3.471374,1.0213716536139037
-0.295166,-0.973633,0.092041,-2.13623,-2.502441,3.623962,1.0215457561587733
-0.297607,-0.973877,0.087891,-2.159119,-2.777099,3.608703,1.0221209152830208
-0.292969,-0.976318,0.085938,-2.037048,-3.128052,3.326416,1.0229433082673742
-0.288086,-0.974609,0.091064,-1.792908,-3.074646,3.02124,1.0203670410068133
-0.288818,-0.9729,0.093994,-1.808166,-3.089905,2.792358,1.0192080843282199
-0.287842,-0.971436,0.093262,-1.861572,-2.998352,2.578735,1.0174668150382105
-0.281738,-0.971924,0.097412,-1.831055,-2.609253,2.388,1.0166128369069516
-0.281738,-0.972412,0.09668,-1.670837,-1.869202,2.311707,1.0170095480318757
-0.282227,-0.975586,0.0979,-1.76239,-0.999451,2.174377,1.0202962966339728
-0.282471,-0.979492,0.096436,-1.625061,-0.083923,2.166748,1.023960129107086
-0.286133,-0.985107,0.097168,-1.121521,0.984192,2.105713,1.0304123035765829
-0.289307,-0.983154,0.097168,-0.526428,1.88446,1.838684,1.0294328284006684
-0.293701,-0.981201,0.096924,-0.1297,2.807617,1.747131,1.0287905236626163
-0.29541,-0.97583,0.096191,0.404358,3.15094,1.777649,1.0240917759073158
-0.29834,-0.974121,0.089844,0.801086,3.227234,1.792908,1.0227367318019824
-0.303467,-0.972412,0.086182,1.152039,2.89917,1.831055,1.0223036021441967
-0.306152,-0.964355,0.083496,1.296997,1.922607,2.01416,1.0152247018000495
-0.302734,-0.962402,0.079102,1.266479,0.534058,2.151489,1.0119894321404745
-0.302734,-0.962158,0.076172,1.174927,-0.892639,2.189636,1.0115325329933782
-0.303711,-0.962158,0.074707,0.984192,-2.044678,2.14386,1.0117161283354141
-0.300537,-0.963379,0.076904,0.701904,-3.105163,2.105713,1.0120947639554312
-0.300049,-0.963867,0.07373,0.663757,-4.051208,2.075195,1.01217839780841
-0.299072,-0.963623,0.073975,0.816345,-4.53186,1.846313,1.0116746749513896
-0.298828,-0.962158,0.073486,0.961304,-4.623413,1.64032,1.0101714620518638
-0.296143,-0.962402,0.072754,0.991821,-4.707336,1.25885,1.0095600183094615
-0.294922,-0.963379,0.073242,0.816345,-4.722595,1.068115,1.0101695274997162
-0.296631,-0.963379,0.077148,0.663757,-4.867554,0.907898,1.0109603660411224
-0.294922,-0.965332,0.080566,0.480652,-5.332946,0.701904,1.0125886315103483
-0.295166,-0.966797,0.085449,0.244141,-5.996704,0.328064,1.0144559814826861
-0.297607,-0.966797,0.088867,0.167847,-6.973266,0.091553,1.015462313110142
-0.293213,-0.967285,0.09082,0.1297,-7.919311,-0.091553,1.0148213670365833
-0.289307,-0.972412,0.090332,-0.030518,-8.674622,-0.228882,1.018549708270048
-0.286377,-0.974609,0.085449,-0.053406,-8.659363,-0.289917,1.0193998335349088
-0.286621,-0.977295,0.081787,0.022888,-8.003235,-0.366211,1.0217368682958445
-0.290771,-0.981445,0.080566,0.320435,-7.362365,-0.564575,1.0267779423137215
-0.293701,-0.98291,0.081055,0.610352,-7.026672,-0.900268,1.0290492012173178
-0.297119,-0.981934,0.07959,0.968933,-6.874084,-1.197815,1.0289842800631115
-0.300049,-0.982666,0.077148,1.518249,-7.064819,-1.602173,1.0303463902304895
-0.300049,-0.980469,0.075195,2.120972,-7.400512,-2.250671,1.0281065851296742
-0.299072,-0.97168,0.075684,2.601623,-7.575988,-2.525329,1.0194773913334223
-0.298828,-0.968018,0.074219,2.616882,-7.698059,-2.76947,1.0158077977004312
-0.296631,-0.968262,0.074463,2.6474,-7.667541,-2.777099,1.015414195869843
-0.296631,-0.9646,0.075439,2.792358,-7.492065,-2.754211,1.0119951348114278
-0.297852,-0.960449,0.079102,2.700805,-7.30133,-2.63977,1.0086799402729292
-0.300537,-0.959229,0.077393,2.662658,-7.324218,-2.449036,1.008182741004328
-0.297852,-0.960205,0.079102,2.563476,-7.469177,-2.227783,1.0084476101082296
-0.295898,-0.958984,0.078369,2.471924,-7.408142,-2.006531,1.0066516968748425
-0.294434,-0.955322,0.078369,2.319336,-7.278442,-1.815796,1.0027328678172467
-0.291016,-0.954346,0.080078,2.029419,-6.980896,-1.731872,1.0009391020716496
-0.292725,-0.949707,0.080566,1.625061,-6.820678,-1.625061,0.9970567645976832
-0.291016,-0.950439,0.085693,0.930786,-6.54602,-1.518249,0.9976812593338616
-0.288086,-0.950684,0.087646,0.160217,-5.996704,-1.25885,0.9972338906034031
-0.28833,-0.955811,0.085938,-0.518799,-5.424499,-1.068115,1.0020450072052651
-0.287598,-0.957275,0.085205,-0.938415,-4.997253,-0.999451,1.003168942528625
-0.288818,-0.957764,0.081055,-1.365662,-4.653931,-1.068115,1.0036421821769947
-0.28833,-0.963379,0.083008,-1.457214,-4.173279,-1.152039,1.0090211170262988
-0.289795,-0.963623,0.080322,-1.472473,-3.616333,-1.121521,1.0094563149725697
-0.287109,-0.962158,0.080322,-1.281738,-3.326416,-1.060486,1.0072890441819566
-0.287598,-0.963379,0.081299,-1.434326,-2.845764,-1.045227,1.0086730067995278
-0.288818,-0.966064,0.083496,-1.747131,-1.968384,-0.900268,1.0117643358193646
-0.29126,-0.968506,0.080811,-1.701355,-1.144409,-0.679016,1.0145770928603701
-0.293213,-0.967285,0.078857,-1.693725,-0.511169,-0.656128,1.0138207736296392
-0.29541,-0.964844,0.083008,-1.731872,-0.221252,-0.50354,1.0124630069785268
-0.299072,-0.961914,0.079102,-1.838684,-0.312805,-0.305176,1.0104354165328926
-0.299316,-0.962402,0.078613,-1.960754,-0.801086,-0.061035,1.0109340637395696
-0.298828,-0.965576,0.079102,-2.182007,-1.373291,0.205994,1.013850241290103
-0.296631,-0.967041,0.07666,-2.227783,-1.991272,0.457764,1.0144136244363047
-0.291992,-0.9646,0.07251,-1.960754,-2.548218,0.648498,1.0104306943892787
-0.289307,-0.966553,0.076904,-1.754761,-2.906799,0.869751,1.0118485396906
-0.288086,-0.968994,0.078125,-1.434326,-3.074646,0.938415,1.0139262453734
-0.287354,-0.969971,0.075195,-1.091003,-2.838135,0.923157,1.0144310475246703
-0.288574,-0.972412,0.078613,-0.869751,-2.037048,0.907898,1.0173691832314364
-0.28833,-0.973389,0.077148,-0.717163,-1.304626,0.854492,1.0181218729233745
-0.288086,-0.975342,0.077881,-0.541687,-0.709534,0.648498,1.0199759852668102
-0.284424,-0.971436,0.075928,-0.213623,-0.457764,0.434875,1.0150615622000472
-0.284912,-0.968994,0.075684,-0.114441,-0.061035,0.305176,1.0128436639659648
-0.2854,-0.969971,0.076416,-0.038147,0.419617,0.167847,1.0139705646107289
-0.282715,-0.969727,0.07666,0.198364,0.694275,0.198364,1.0130029522928352
-0.275879,-0.97168,0.072998,0.228882,1.327515,0.267029,1.0127190889111355
-0.279053,-0.968018,0.071777,0.1297,2.349854,0.259399,1.009990773651918
-0.284668,-0.965332,0.07373,0.152588,3.349304,0.297546,1.0091272731167262
-0.286865,-0.964355,0.077148,-0.022888,4.112244,0.465393,1.0090708142414981
-0.289307,-0.963867,0.078857,-0.091553,4.730225,0.518799,1.0094337820714145
-0.290771,-0.966064,0.078125,-0.267029,5.462646,0.495911,1.0118947287944533
-0.296143,-0.966309,0.075195,-0.350952,6.065368,0.534058,1.0134633925085799
-0.302002,-0.970459,0.072754,-0.343323,6.385803,0.343323,1.0189646820184692
-0.305664,-0.972412,0.075439,-0.335693,6.431579,0.343323,1.0221089087572812
-0.307861,-0.967285,0.073975,-0.061035,6.095886,0.183105,1.0177872897472242
-0.30835,-0.963623,0.072998,0.175476,5.561828,0.068665,1.0143853886137162
-0.305176,-0.958984,0.075928,0.114441,5.386352,0.297546,1.0092312739981852
-0.305176,-0.959961,0.077148,-0.053406,5.401611,0.442505,1.0102521103175186
-0.304199,-0.963379,0.079346,0.015259,5.249023,0.785828,1.0133764931939164
-0.304199,-0.9646,0.081055,0.38147,5.355834,0.968933,1.0146724124691673
-0.307129,-0.96582,0.07666,0.587463,5.40924,0.946045,1.016372594396858
-0.310791,-0.966309,0.079346,0.709534,5.477905,0.785828,1.0181551536372047
-0.309814,-0.968262,0.076172,0.930786,5.523681,0.694275,1.0194695624804107
-0.311035,-0.96875,0.075439,1.182556,5.500793,0.556946,1.0202501538573763
-0.313232,-0.967529,0.073975,1.472473,5.546569,0.427246,1.019656291252106
-0.313721,-0.966309,0.069824,1.770019,5.561828,0.343323,1.0183561951979276
-0.3125,-0.965088,0.074463,1.869202,5.607605,0.289917,1.0171508423596767
-0.30957,-0.964355,0.078613,1.876831,5.821228,0.396728,1.0158711309482122
-0.308838,-0.95874,0.080322,1.792908,6.050109,0.511169,1.0104528299371525
-0.309326,-0.957275,0.083496,1.571655,6.156921,0.63324,1.0094699509727865
-0.313721,-0.959717,0.086426,1.274109,5.973815,0.87738,1.013383954582862
-0.311523,-0.962891,0.087646,1.152039,5.569458,0.999451,1.0158186249158851
-0.309814,-0.962402,0.088379,1.281738,5.187988,1.00708,1.0148956457887677
-0.310791,-0.959961,0.082275,1.296997,5.279541,0.87738,1.0123662098405892
-0.311523,-0.96167,0.08252,1.373291,5.493164,0.87738,1.0142313931391596
-0.310303,-0.962402,0.079346,1.25885,5.554199,0.892639,1.014298451703935
-0.311523,-0.963623,0.074951,1.266479,5.767822,0.946045,1.0154966854003022
-0.313477,-0.960693,0.074463,1.121521,6.088256,0.846863,1.0132835773597637
-0.31543,-0.958496,0.074951,0.961304,6.141662,0.976562,1.0118440192623566
-0.318848,-0.959961,0.07373,0.816345,5.821228,1.113892,1.014211655190868
-0.320557,-0.958008,0.070801,0.610352,5.149841,1.075745,1.0126938826289018
-0.322754,-0.957275,0.069092,0.030518,4.28772,1.182556,1.0125805027774335
-0.323242,-0.957764,0.071289,-0.37384,3.196716,1.235962,1.0133505769382085
-0.32373,-0.958008,0.069824,-0.656128,1.991272,1.251221,1.0136349599042054
-0.321289,-0.956543,0.071289,-0.923157,0.854492,1.213074,1.0115746407907822
-0.319824,-0.960205,0.074707,-1.190186,0.076294,1.213074,1.0148212497036115
-0.316895,-0.962158,0.075684,-1.174927,-0.389099,1.296997,1.015824062446347
-0.314941,-0.960205,0.074951,-1.205444,-0.595093,1.342773,1.013310972953022
-0.314941,-0.959961,0.071533,-1.335144,-0.587463,1.396179,1.012832624420738
-0.316895,-0.962646,0.071289,-1.441955,-0.663757,1.350403,1.0159684462925016
-0.315186,-0.963623,0.069824,-1.434326,-0.801086,1.266479,1.0162612320171425
-0.313965,-0.962158,0.068604,-1.296997,-0.701904,1.220703,1.014410443067795
-0.311035,-0.961426,0.07251,-1.411438,-0.465393,1.266479,1.0130846089053964
-0.309326,-0.96167,0.07373,-1.495361,-0.1297,1.342773,1.0128809782378185
-0.307617,-0.964111,0.070801,-1.464844,0.038147,1.487732,1.0144708081610825
-0.309082,-0.96582,0.068848,-1.319885,0.656128,1.411438,1.0164054320142135
-0.312256,-0.967773,0.069092,-1.068115,1.289368,1.396179,1.0192458454803728
-0.313721,-0.969971,0.068115,-0.671387,1.525879,1.319885,1.0217163304494061
-0.312744,-0.967285,0.070068,-0.473022,1.708984,1.304626,1.0189988250164963
-0.318115,-0.967285,0.067627,-0.343323,1.724243,1.251221,1.020495387338424
-0.321289,-0.96875,0.068848,-0.190735,1.38092,1.022339,1.022958078869804
-0.316895,-0.967529,0.071533,0.0,0.961304,0.88501,1.0206134316943904
-0.314209,-0.964844,0.067627,0.312805,0.526428,0.762939,1.0169683629031927
-0.3125,-0.962158,0.068115,0.457764,0.587463,0.717163,1.0139250071819907
-0.310303,-0.962402,0.066895,0.450134,1.174927,0.747681,1.0134004649880521
-0.306885,-0.96167,0.068848,0.549316,1.922607,0.801086,1.0117942672445817
-0.309082,-0.961914,0.068848,0.732422,2.723694,0.75531,1.012694560676614
-0.310303,-0.962646,0.065674,0.686645,3.433227,0.869751,1.0135523407308573
-0.314453,-0.963867,0.064453,0.724792,3.89862,0.915527,1.015910661479148
-0.317871,-0.9646,0.066162,0.747681,4.203796,0.892639,1.0177782385593632
-0.316162,-0.962158,0.065918,0.564575,4.325867,0.999451,1.0149145825792434
-0.321045,-0.961426,0.062988,0.244141,3.967285,0.961304,1.0155674933971646
-0.322754,-0.961182,0.060791,0.022888,3.570556,0.87738,1.0157443218256255
-0.32373,-0.960693,0.064453,0.022888,3.135681,0.862122,1.015818065579659
-0.325928,-0.960205,0.0625,-0.091553,2.418518,0.724792,1.0159374750490306
-0.325195,-0.961914,0.060303,-0.198364,1.533508,0.595093,1.0171857171775467
-0.322998,-0.964111,0.061523,-0.053406,0.892639,0.457764,1.0186377215938942
-0.320313,-0.962158,0.064941,0.205994,0.564575,0.457764,1.0161524336505818
-0.319336,-0.958008,0.065674,0.12207,0.419617,0.595093,1.0119623922043743
-0.322266,-0.961914,0.064209,-0.198364,0.137329,0.686645,1.0164923579806195
-0.320801,-0.960693,0.063721,-0.480652,-0.152588,0.595093,1.0148421984185523
-0.320313,-0.959961,0.065918,-0.63324,-0.297546,0.488281,1.0141354555551245
-0.31958,-0.962158,0.0625,-0.740051,-0.335693,0.480652,1.0157684989031703
-0.31543,-0.963135,0.060547,-0.709534,-0.228882,0.450134,1.0152788052224866
-0.312988,-0.965332,0.0625,-0.617981,0.343323,0.419617,1.016726909434387
-0.316162,-0.96875,0.059082,-0.320435,1.144409,0.50354,1.0207475963567096
-0.320068,-0.966797,0.059814,-0.221252,1.792908,0.541687,1.0201557128345653
-0.322998,-0.964355,0.060303,-0.053406,2.059937,0.488281,1.018795723311597
-0.323486,-0.963623,0.063965,0.297546,2.098083,0.442505,1.018481221991844
-0.323242,-0.962158,0.060791,0.671387,1.831055,0.671387,1.0168229704373324
-0.320557,-0.960938,0.063965,0.778198,1.609802,0.709534,1.015012389736204
-0.319092,-0.959229,0.063721,0.831604,1.724243,0.717163,1.0129167511429553
-0.319092,-0.958008,0.062988,0.694275,1.899719,0.770569,1.0117146438952043
-0.318604,-0.959717,0.063477,0.839233,2.120972,0.892639,1.0132100268128026
-0.321533,-0.959961,0.066162,0.747681,2.555847,0.892639,1.014537333888704
-0.325195,-0.963623,0.065674,0.75531,2.532959,0.762939,1.0191340188758298
-0.325684,-0.965332,0.063232,0.892639,2.349854,0.63324,1.020751793485566
-0.325928,-0.963867,0.061279,0.854492,1.937866,0.518799,1.0193251545576614
-0.327393,-0.961914,0.061523,0.900268,1.38092,0.427246,1.0179635550323007
-0.327393,-0.959717,0.0625,0.862122,0.808716,0.488281,1.0159474132739352
-0.326904,-0.962891,0.060791,0.62561,0.267029,0.518799,1.0186858440058937
-0.326904,-0.965332,0.056396,0.434875,-0.213623,0.541687,1.0207412033693946
-0.327637,-0.965088,0.056152,0.434875,-0.656128,0.404358,1.0207320405556983
-0.324707,-0.963379,0.060059,0.686645,-1.228333,0.335693,1.018401108095921
-0.320313,-0.958496,0.061768,0.679016,-1.754761,0.160217,1.012487178096098
-0.31958,-0.959229,0.065186,0.549316,-2.174377,0.030518,1.0131637900344643
-0.317627,-0.959473,0.064453,0.38147,-2.311707,0.015259,1.0127336955325423
-0.31543,-0.958496,0.063232,0.183105,-2.220154,-0.076294,1.011043496957475
-0.31543,-0.959961,0.061279,0.167847,-2.067566,-0.205994,1.012312363977641
-0.316162,-0.962891,0.059326,0.083923,-1.724243,-0.549316,1.0152029661112107
-0.317871,-0.962646,0.058594,0.068665,-1.312256,-0.663757,1.0154617426535575
-0.319336,-0.959961,0.061035,0.099182,-1.098633,-0.839233,1.0135215210551771
-0.32251,-0.960449,0.059082,0.083923,-0.930786,-0.953674,1.0148722404445794
-0.326416,-0.958496,0.058838,-0.106812,-1.152039,-0.930786,1.0142602709935946
-0.329102,-0.958496,0.060791,-0.144958,-1.319885,-0.808716,1.01524295323878
-0.328369,-0.959961,0.060547,-0.282288,-1.64032,-0.724792,1.016374567219684
-0.326416,-0.960938,0.059082,-0.343323,-1.838684,-0.602722,1.016582474580395
-0.325928,-0.958252,0.063232,-0.396728,-2.067566,-0.511169,1.0141371911689265
-0.326172,-0.958984,0.063965,-0.366211,-2.14386,-0.434875,1.0149532043720044
-0.324951,-0.958252,0.061523,-0.320435,-2.281189,-0.495911,1.0137184655682268
-0.323242,-0.959229,0.062256,-0.25177,-2.334595,-0.427246,1.0141407567694931
-0.323242,-0.958008,0.061035,-0.205994,-2.090454,-0.572205,1.0129116397065443
-0.327148,-0.957031,0.05957,-0.198364,-2.01416,-0.556946,1.0131548419491465
-0.326416,-0.95874,0.060547,-0.205994,-2.037048,-0.534058,1.0145914112907717
-0.326172,-0.96167,0.063721,-0.190735,-2.197266,-0.534058,1.0174761561456858
-0.32666,-0.962646,0.061768,-0.114441,-2.342224,-0.62561,1.018434761160478
-0.326904,-0.962646,0.060059,0.061035,-2.494812,-0.534058,1.0184108355732475
-0.329346,-0.964844,0.059082,0.12207,-2.677917,-0.473022,1.0212166345962057
-0.329346,-0.962646,0.059326,0.221252,-2.967834,-0.450134,1.0191543962069731
-0.327393,-0.962402,0.058105,0.350952,-3.120422,-0.442505,1.0182239326778761
-0.324707,-0.963623,0.058838,0.549316,-3.166198,-0.289917,1.0185606669325102
-0.322754,-0.962158,0.060547,0.564575,-3.173828,-0.297546,1.016653382765729
-0.320313,-0.962891,0.061035,0.595093,-3.173828,-0.320435,1.0166045283565286
-0.31958,-0.960938,0.061035,0.717163,-2.815246,-0.473022,1.0145237737327795
-0.320313,-0.959229,0.061279,0.717163,-2.311707,-0.556946,1.0131514241469535
-0.317383,-0.957275,0.061035,0.701904,-2.044678,-0.572205,1.0103626406093011
-0.319092,-0.958984,0.05957,0.663757,-1.785278,-0.602722,1.0124320232094597
-0.319824,-0.960693,0.060791,0.495911,-1.617432,-0.656128,1.014353970222427
-0.322754,-0.959229,0.05835,0.465393,-1.525879,-0.724792,1.013752998248094
-0.32251,-0.959961,0.059326,0.38147,-1.487732,-0.892639,1.014424662504318
-0.325195,-0.958984,0.060791,0.175476,-1.480102,-0.892639,1.0144445011739183
-0.326904,-0.95752,0.05957,0.045776,-1.708984,-0.785828,1.0135380409811958
-0.326416,-0.95752,0.059326,-0.022888,-1.869202,-0.87738,1.0133664340859134
-0.32666,-0.957031,0.058594,-0.175476,-1.853943,-0.793457,1.012940446125536
-0.32959,-0.958008,0.061523,-0.282288,-2.304077,-0.709534,1.014984716975088
-0.330811,-0.956543,0.062988,-0.366211,-2.799988,-0.770569,1.0140896985543242
-0.328369,-0.958252,0.061523,-0.442505,-3.288269,-0.656128,1.0148192820369546
-0.330078,-0.958252,0.0625,-0.457764,-3.738403,-0.717163,1.0154332235986765
-0.327393,-0.959473,0.059326,-0.663757,-4.188538,-0.740051,1.0155265572371803
-0.325195,-0.960938,0.057617,-0.709534,-4.417419,-0.778198,1.0161069562590346
-0.321045,-0.962158,0.061035,-0.610352,-4.356384,-0.808716,1.0161413190171926
-0.318604,-0.961182,0.061768,-0.63324,-4.074097,-0.831604,1.0144923024666082
-0.31958,-0.958252,0.061035,-0.640869,-3.684997,-0.801086,1.0119800112299648
-0.318604,-0.958496,0.0625,-0.610352,-3.173828,-0.770569,1.0119927573021459
-0.318115,-0.959961,0.060791,-0.724792,-2.716064,-0.747681,1.0131228061923194
-0.317627,-0.960205,0.057373,-0.656128,-2.288818,-0.778198,1.0130015865155395
-0.319824,-0.962402,0.057129,-0.785828,-1.998901,-0.724792,1.0157601701292485
-0.320801,-0.967041,0.056885,-0.961304,-1.930237,-0.709534,1.020449646237873
-0.31958,-0.969238,0.054688,-0.740051,-1.907349,-1.029968,1.022029576082806
-0.322998,-0.963867,0.059326,-0.602722,-1.914978,-1.197815,1.0182764241447408
-0.32251,-0.958984,0.05957,-0.579834,-1.968384,-1.426697,1.0135144780692578
-0.321289,-0.958984,0.064209,-0.663757,-2.006531,-1.548767,1.0134099513316415
-0.319824,-0.957275,0.064453,-0.740051,-2.334595,-1.396179,1.0113441579452565
-0.318115,-0.956299,0.064697,-0.846863,-2.571106,-1.312256,1.0098963473718479
-0.319824,-0.956299,0.065186,-1.037598,-2.540588,-1.235962,1.0104674081696055
-0.319824,-0.95752,0.063721,-0.976562,-2.365112,-1.235962,1.011529686769993
-0.321045,-0.957764,0.063721,-1.098633,-2.151489,-1.174927,1.0121472904483813
-0.322998,-0.959473,0.061279,-1.205444,-1.89209,-0.991821,1.0142343228140134
-0.324219,-0.961426,0.060791,-1.274109,-1.731872,-0.953674,1.0164415669963522
-0.326172,-0.961914,0.059814,-1.350403,-1.831055,-0.87738,1.0174696219425916
-0.329102,-0.965088,0.059326,-1.296997,-2.243042,-0.923157,1.021382665030105
-0.326416,-0.966553,0.058594,-0.991821,-2.357483,-0.976562,1.021863671778677
-0.324707,-0.963867,0.05835,-0.724792,-2.212524,-0.915527,1.0187634426293477
-0.323242,-0.965332,0.062012,-0.411987,-1.991272,-0.785828,1.0199003622570195
-0.323975,-0.9646,0.062988,-0.167847,-1.609802,-0.770569,1.0195000974835657
-0.327148,-0.968018,0.063477,0.152588,-1.441955,-0.663757,1.0237743851830832
-0.325195,-0.966553,0.065918,0.442505,-1.495361,-0.656128,1.0219205803573974
-0.32666,-0.96167,0.067627,0.480652,-1.678467,-0.709534,1.0178847457492426
-0.325439,-0.96167,0.068115,0.511169,-1.89209,-0.579834,1.0175261101544275
-0.324951,-0.961426,0.065674,0.465393,-2.090454,-0.534058,1.0169789477432658
-0.324951,-0.959473,0.060791,0.289917,-2.304077,-0.38147,1.0148286238626696
-0.321777,-0.961914,0.0625,0.335693,-2.39563,-0.411987,1.0162308945928578
-0.323975,-0.96167,0.059814,0.564575,-2.593994,-0.526428,1.0165366221248502
-0.324707,-0.963623,0.05542,0.717163,-2.632141,-0.480652,1.0183689402068388
-0.322998,-0.963867,0.056396,0.846863,-2.731323,-0.450134,1.0181099206416762
-0.320313,-0.962158,0.057617,1.091003,-2.845764,-0.511169,1.0157106643242453
-0.318848,-0.959473,0.05957,1.197815,-3.044128,-0.679016,1.0128183794407564
-0.318359,-0.959473,0.059326,1.052856,-3.067016,-0.740051,1.0126502184298387
-0.314941,-0.959473,0.058594,1.00708,-2.838135,-0.701904,1.0115381990048622
-0.313721,-0.96167,0.057861,0.999451,-2.578735,-0.717163,1.0132018308619464
-0.315186,-0.962158,0.056885,0.778198,-2.075195,-0.701904,1.0140641669958563
-0.318848,-0.960205,0.060059,0.778198,-1.663208,-0.709534,1.0135407108794399
-0.319824,-0.961426,0.060303,0.831604,-1.731872,-0.732422,1.015019111278699
-0.319824,-0.961182,0.057861,0.846863,-1.701355,-0.656128,1.0146458118087316
-0.320313,-0.962158,0.057129,0.801086,-1.831055,-0.579834,1.0156830989900343
-0.320557,-0.962158,0.055664,0.846863,-2.052307,-0.564575,1.0156787327245755
-0.320313,-0.959717,0.057129,0.923157,-1.89209,-0.572205,1.0133710380206256
-0.318115,-0.958252,0.057617,0.793457,-1.754761,-0.511169,1.0113178369919122
-0.318115,-0.960938,0.061279,0.785828,-1.800537,-0.419617,1.0140779599764507
-0.318115,-0.959717,0.0625,0.709534,-1.754761,-0.350952,1.0129956186055298
-0.318359,-0.95874,0.0625,0.610352,-1.625061,-0.38147,1.012146773191023
-0.317627,-0.961426,0.062256,0.434875,-1.426697,-0.427246,1.0144469794627022
-0.317871,-0.963135,0.063477,0.450134,-1.358032,-0.50354,1.0162186430070055
-0.315674,-0.961914,0.062744,0.526428,-1.197815,-0.595093,1.0143300386008491
-0.316895,-0.95874,0.060547,0.526428,-0.846863,-0.617981,1.0115684691774454
-0.320557,-0.95874,0.060791,0.343323,-0.732422,-0.511169,1.0127362556608706
-0.321045,-0.962402,0.057129,0.289917,-0.778198,-0.282288,1.0161452771479085
-0.319092,-0.963135,0.056152,0.389099,-0.778198,-0.267029,1.0161701529729161
-0.320557,-0.962158,0.05835,0.602722,-0.602722,-0.335693,1.015829478659189
-0.325928,-0.959717,0.062744,0.572205,-0.564575,-0.37384,1.015491305137075
-0.324707,-0.962402,0.062744,0.465393,-0.88501,-0.427246,1.0176389610215402
-0.321533,-0.960693,0.063965,0.37384,-1.068115,-0.473022,1.0150891741925927
-0.32373,-0.961426,0.064453,0.350952,-1.205444,-0.617981,1.016511316014239
-0.324707,-0.963135,0.064697,0.335693,-1.251221,-0.656128,1.018454400492727
-0.326904,-0.962402,0.063477,0.328064,-1.548767,-0.518799,1.0183875315168582
-0.323486,-0.961182,0.066162,0.328064,-1.968384,-0.694275,1.0163126682099362
-0.322021,-0.962402,0.0625,0.442505,-2.14386,-0.663757,1.0167700743260493
-0.323486,-0.964355,0.061279,0.442505,-2.204895,-0.610352,1.0190087703557806
-0.322266,-0.96582,0.059326,0.747681,-2.02179,-0.495911,1.0198937304601887
-0.316895,-0.967285,0.055176,0.907898,-1.724243,-0.442505,1.0193660300529932
-0.316895,-0.965332,0.057617,1.213074,-1.182556,-0.366211,1.0176482840048422
-0.319092,-0.965576,0.061035,1.358032,-0.534058,-0.259399,1.0187649323887233
-0.318604,-0.962891,0.05957,1.64032,-0.106812,-0.175476,1.0159803992189023
-0.317139,-0.962158,0.057129,1.693725,0.144958,-0.068665,1.0146865944349515
-0.314697,-0.963135,0.059082,1.686096,0.587463,-0.030518,1.0149649810500854
-0.315186,-0.962891,0.062744,1.800537,0.892639,-0.183105,1.0151049709330557
-0.314453,-0.958984,0.062744,1.907349,1.113892,-0.25177,1.0111715042469305
-0.317627,-0.955322,0.065186,1.663208,1.167297,-0.12207,1.0088489725469318
-0.316406,-0.95166,0.065186,1.579285,1.152039,-0.167847,1.0049968791155524
-0.316406,-0.951904,0.062012,1.197815,1.296997,-0.160217,1.0050270992346424
-0.321533,-0.954102,0.060059,0.87738,1.289368,-0.152588,1.0086134938488578
-0.322021,-0.956543,0.059082,0.579834,1.045227,-0.259399,1.0110206318438808
-0.322998,-0.963379,0.057129,0.366211,0.709534,-0.526428,1.01768881701923
-0.328369,-0.966553,0.059326,0.366211,0.50354,-0.816345,1.0225314059949453
-0.333496,-0.9646,0.061523,0.404358,0.053406,-1.106262,1.0224763183296717
-0.335693,-0.962402,0.062744,0.167847,-0.740051,-1.25885,1.021197438984744
-0.332764,-0.95752,0.064209,-0.076294,-1.770019,-1.289368,1.015725959979856
-0.330322,-0.955811,0.062744,-0.328064,-2.624511,-1.403808,1.0132246053768137
-0.334961,-0.957031,0.0625,-0.572205,-3.341675,-1.373291,1.0158806310202
-0.330566,-0.957031,0.062012,-0.709534,-4.40979,-1.190186,1.0144100272872898
-0.321289,-0.956543,0.058838,-0.75531,-5.264282,-1.12915,1.0107734872927763
-0.31958,-0.955078,0.058594,-0.747681,-5.455017,-1.121521,1.0088303223634785
-0.320068,-0.952393,0.060547,-0.991821,-5.386352,-1.037598,1.0065594320664826
-0.31958,-0.953857,0.05835,-1.502991,-5.15747,-0.915527,1.007660297594879
-0.321045,-0.957275,0.05957,-1.785278,-5.0354,-0.740051,1.0114316104166412
-0.313477,-0.957031,0.05835,-1.716614,-5.142211,-0.740051,1.0087521434871898
-0.310303,-0.958008,0.056396,-1.670837,-4.837036,-0.770569,1.0085870258381275
-0.311768,-0.958984,0.057129,-1.693725,-4.257202,-0.839233,1.0100065943948089
-0.311768,-0.959717,0.055908,-1.670837,-3.547668,-0.801086,1.0106343109042955
-0.310791,-0.963135,0.058594,-1.708984,-3.059387,-0.808716,1.0137323762916917
-0.311768,-0.966309,0.05835,-1.548767,-2.433777,-0.892639,1.0170334762459887
-0.314209,-0.964355,0.062012,-1.38092,-1.838684,-0.762939,1.0161463230509669
-0.316162,-0.95874,0.060303,-1.441955,-1.64032,-0.610352,1.0113245026464057
-0.314453,-0.95459,0.05957,-1.663208,-1.647949,-0.541687,1.0068124662562539
-0.312012,-0.95752,0.058838,-1.899719,-1.487732,-0.343323,1.0087903393609596
-0.308594,-0.958008,0.058105,-2.220154,-1.350403,-0.106812,1.0081595984391558
-0.308838,-0.95874,0.054688,-2.540588,-1.190186,-0.083923,1.0087388538110347
-0.30957,-0.956543,0.057373,-2.738952,-0.854492,-0.12207,1.0070252017094705
-0.30957,-0.954346,0.056641,-3.211975,-0.671387,-0.061035,1.0048970472127978
-0.306152,-0.948242,0.053955,-3.65448,-0.419617,-0.12207,0.9978993334465155
-0.306641,-0.943604,0.053467,-4.341125,0.099182,0.015259,0.993617598367702
-0.30957,-0.944824,0.049316,-4.943848,0.572205,0.244141,0.9954687557789044
-0.309082,-0.947266,0.044922,-5.996704,1.167297,0.465393,0.9974279640976585
-0.313965,-0.95459,0.041748,-6.843566,1.533508,0.75531,1.0057628869813202
-0.318359,-0.958984,0.041504,-7.247924,1.823425,0.63324,1.0112988416650144
-0.322021,-0.961182,0.044678,-7.591247,1.770019,0.389099,1.0146745711059286
-0.327393,-0.968506,0.046143,-7.736206,1.342773,0.175476,1.0233861563134417
-0.334473,-0.972656,0.046143,-7.4234,0.907898,-0.236511,1.029592666307409
-0.337646,-0.971436,0.046387,-7.011413,0.526428,-0.602722,1.0294874827704317
-0.340576,-0.970459,0.045166,-6.584167,-0.061035,-0.892639,1.0294768817282882
-0.34375,-0.968506,0.047119,-6.187438,-0.831604,-0.991821,1.0287799252984091
-0.34375,-0.967773,0.047363,-5.905151,-1.541138,-0.923157,1.028101111660716
-0.339355,-0.968018,0.045166,-5.554199,-2.342224,-0.900268,1.0267719473695218
-0.341064,-0.969971,0.045898,-4.997253,-2.738952,-0.717163,1.029210872144771
-0.339844,-0.969727,0.046143,-4.234314,-3.089905,-0.62561,1.0285881465941555
-0.332275,-0.964111,0.045654,-3.326416,-3.616333,-0.480652,1.0207844942307853
-0.325195,-0.9646,0.04248,-2.929687,-3.692627,-0.358582,1.0188275116156806
-0.323242,-0.965088,0.039551,-2.540588,-3.372192,-0.076294,1.0185502049035187
-0.327393,-0.962646,0.036865,-2.166748,-2.624511,0.091553,1.017463771340287
-0.32666,-0.963379,0.031738,-1.800537,-2.250671,0.549316,1.0177490623356034
-0.325684,-0.963135,0.029297,-1.647949,-2.288818,0.907898,1.0171319532341907
-0.320557,-0.96167,0.030273,-1.342773,-2.13623,1.045227,1.014141229650979
-0.313965,-0.959229,0.02832,-1.029968,-1.800537,1.106262,1.0097011033300893
-0.311279,-0.958252,0.028564,-0.953674,-1.075745,1.106262,1.00794712829642
-0.313232,-0.956543,0.032471,-0.793457,-0.465393,1.052856,1.0070467528938267
-0.313477,-0.959717,0.037598,-0.846863,-0.030518,1.052856,1.0103158710136153
-0.311768,-0.96167,0.036865,-0.831604,0.076294,0.991821,1.0116162824653427
-0.310547,-0.962158,0.039795,-0.869751,0.450134,0.770569,1.0118157432052537
-0.315186,-0.964844,0.04126,-0.961304,0.953674,0.595093,1.0158585268294007
-0.31665,-0.966553,0.037598,-0.640869,1.022339,0.450134,1.0177944458057335
-0.313721,-0.966797,0.037109,-0.457764,1.13678,0.289917,1.0171009698800804
-0.318115,-0.967285,0.032715,-0.289917,1.220703,0.205994,1.0187775496520326
-0.320068,-0.966797,0.028076,-0.228882,1.38092,0.198364,1.0187876253709602
-0.321777,-0.963867,0.027588,-0.175476,1.419067,0.190735,1.0165338799872832
-0.323486,-0.962646,0.031006,-0.038147,1.533508,0.320435,1.0160176600571469
-0.322998,-0.963135,0.025635,0.076294,1.304626,0.50354,1.0161761114363985
-0.325195,-0.961182,0.025391,0.175476,0.930786,0.518799,1.0150208510321352
-0.324219,-0.960693,0.02832,0.37384,0.831604,0.50354,1.0143229380281213
-0.324707,-0.959229,0.02832,0.389099,0.511169,0.617981,1.0130927562123815
-0.322754,-0.961182,0.030762,0.38147,0.137329,0.701904,1.0143901036011738
-0.321533,-0.963135,0.030273,0.442505,-0.152588,0.701904,1.0158390388457217
-0.323486,-0.960693,0.026367,0.717163,-0.389099,0.778198,1.0140362178610782
-0.326172,-0.957031,0.024658,0.679016,-0.640869,0.907898,1.0113874260188327
-0.321533,-0.959961,0.026611,0.587463,-1.022339,1.106262,1.012727375422922
-0.320313,-0.964844,0.022217,0.473022,-1.358032,1.358032,1.0168667353168752
-0.319824,-0.970215,0.025391,0.511169,-1.266479,1.502991,1.021885140356782
-0.320801,-0.970947,0.026123,0.88501,-1.426697,1.327515,1.0229045749917243
-0.319336,-0.969482,0.022949,1.174927,-1.724243,1.083374,1.020978690189467
-0.317383,-0.966309,0.022705,1.495361,-2.059937,0.907898,1.0173497772128326
-0.313965,-0.964111,0.020264,1.586914,-1.991272,0.778198,1.014147263094468
-0.311523,-0.966797,0.022949,1.838684,-1.800537,0.75531,1.0160067299673758
-0.309814,-0.963379,0.02417,2.037048,-1.304626,0.465393,1.012258860735237
-0.310791,-0.964844,0.024658,2.075195,-0.679016,0.312805,1.0139640067482671
-0.311523,-0.964111,0.024414,2.182007,-0.175476,0.236511,1.0134853937013597
-0.311768,-0.962402,0.025879,2.13623,0.320435,0.053406,1.0119716488464487
-0.314209,-0.961426,0.024414,2.288818,0.923157,-0.152588,1.0117624684445454
-0.310303,-0.957275,0.023438,2.235413,1.480102,-0.289917,1.0065846796360454
-0.314209,-0.95874,0.021729,1.861572,2.029419,-0.198364,1.0091490636779088
-0.318848,-0.958984,0.018311,1.64032,2.464294,-0.25177,1.010766863367117
-0.320557,-0.961914,0.020508,1.342773,2.410889,-0.411987,1.0141281534939262
-0.325439,-0.96582,0.021729,1.152039,1.991272,-0.50354,1.019407163287565
-0.328369,-0.964355,0.023193,0.961304,1.487732,-0.991821,1.0189919928218278
-0.331543,-0.965576,0.024414,0.923157,0.457764,-1.63269,1.0212021425853943
-0.332031,-0.961426,0.026611,0.961304,-0.602722,-2.227783,1.017493333520176
-0.335449,-0.959717,0.02832,0.938415,-1.747131,-2.624511,1.0170470854832632
-0.337646,-0.958252,0.028076,0.778198,-2.830505,-2.883911,1.0163857430109888
-0.337646,-0.958252,0.032471,0.541687,-3.845215,-3.013611,1.0165166416055371
-0.338379,-0.960205,0.033691,0.541687,-4.837036,-3.059387,1.0186407969186193
