ax,ay,az,gx,gy,gz,acc_mag
0.163574,-0.941162,-0.048828,0.259399,-1.518249,-0.022888,0.956517923148333
0.165527,-0.936523,-0.045654,-0.030518,-0.480652,-0.099182,0.9521338167369122
0.169189,-0.938965,-0.043457,0.282288,0.427246,-0.167847,0.9550752325314483
0.169922,-0.939941,-0.047852,-0.007629,1.182556,-0.518799,0.9563746041531007
0.172363,-0.937256,-0.049561,-0.320435,1.724243,-0.991821,0.9542610261485062
0.171631,-0.934326,-0.048584,-0.213623,1.937866,-1.426697,0.9512006515415136
0.170654,-0.931152,-0.047119,-0.076294,2.197266,-1.747131,0.9478328096141218
0.171875,-0.933105,-0.043945,-0.022888,2.693176,-1.808166,0.9498195195272625
0.173828,-0.9375,-0.042969,0.144958,3.15094,-1.625061,0.9544468337969381
0.178467,-0.937988,-0.051025,-0.038147,3.494262,-1.289368,0.9561775509067341
0.178955,-0.93457,-0.052734,-0.267029,3.463745,-1.121521,0.9530093659985719
0.179688,-0.933594,-0.051025,-0.411987,3.341675,-1.00708,0.952097203443535
0.180664,-0.937256,-0.044434,-0.793457,3.540039,-0.915527,0.9555431286906938
0.180664,-0.936279,-0.043945,-1.12915,3.967285,-0.900268,0.9545622084296025
0.182861,-0.933838,-0.047119,-1.335144,4.379272,-1.152039,0.9527390806123153
0.181396,-0.932861,-0.047363,-1.533508,4.508972,-1.480102,0.9515132200374308
0.179932,-0.932861,-0.044434,-1.487732,4.676819,-1.76239,0.9510938703939795
0.18457,-0.94043,-0.043945,-1.312256,4.852295,-1.953125,0.9593778363215402
0.186035,-0.946045,-0.047363,-1.38855,4.730225,-1.998901,0.9653255497597689
0.182861,-0.943115,-0.047607,-1.533508,4.432678,-1.998901,0.9618578247303496
0.180664,-0.940186,-0.046143,-1.434326,4.524231,-1.861572,0.9584979770145579
0.182861,-0.938965,-0.044922,-1.51062,5.218505,-1.678467,0.9576593353745371
0.185791,-0.939209,-0.049561,-1.464844,5.699157,-1.518249,0.9586908438506128
0.186768,-0.939453,-0.048584,-1.525879,5.401611,-1.51062,0.9590696690486046
0.186523,-0.937256,-0.051514,-1.800537,4.928589,-1.396179,0.9570231612980952
0.185791,-0.939209,-0.050049,-1.625061,4.78363,-1.464844,0.9587161956298641
0.187988,-0.938965,-0.04834,-1.625061,4.631042,-1.617432,0.9588177694270169
0.188232,-0.938232,-0.04834,-1.63269,4.348755,-1.731872,0.9581478629355701
0.187012,-0.941162,-0.048828,-1.495361,3.791809,-1.800537,0.960803607389148
0.183105,-0.947021,-0.046631,-1.487732,3.356933,-1.579285,0.9656866291023192
0.185303,-0.949463,-0.048096,-1.434326,3.570556,-1.281738,0.968571326952228
0.186768,-0.94751,-0.046631,-1.304626,3.967285,-1.167297,0.9668670726035714
0.188477,-0.939453,-0.053955,-1.312256,4.066467,-1.113892,0.9596909193917592
0.188477,-0.937744,-0.055176,-1.152039,3.616333,-0.900268,0.9580875638692947
0.187988,-0.942139,-0.056885,-0.976562,3.14331,-0.610352,0.9623935196633443
0.186035,-0.943359,-0.056885,-0.968933,2.914428,-0.686645,0.9632087662241243
0.185303,-0.942139,-0.057617,-1.060486,2.861023,-0.839233,0.9619162207900436
0.188232,-0.947754,-0.056641,-1.029968,2.76947,-0.709534,0.9679241360876378
0.188477,-0.949463,-0.056396,-1.167297,2.540588,-0.640869,0.9696308971531383
0.187744,-0.948242,-0.05957,-1.342773,2.151489,-0.564575,0.9684829812650297
0.192139,-0.942139,-0.060547,-1.38855,1.808166,-0.312805,0.963436157641491
0.19751,-0.938232,-0.062256,-1.533508,0.87738,-0.282288,0.9608149121761173
0.19458,-0.932617,-0.058838,-1.609802,-0.50354,-0.610352,0.9545144081327427
0.184082,-0.925537,-0.05249,-1.708984,-1.289368,-1.014709,0.945124394560314
0.176025,-0.924316,-0.04834,-1.815796,-0.87738,-1.693725,0.9421685751928898
0.170898,-0.921631,-0.04126,-1.655578,0.183105,-2.372742,0.9382495479162246
0.163574,-0.918213,-0.036133,-1.548767,1.358032,-2.838135,0.9333687162820489
0.156738,-0.916504,-0.032471,-0.953674,2.693176,-3.196716,0.9303766702260972
0.157471,-0.91626,-0.034912,0.1297,4.447937,-3.173828,0.9303485106050312
0.168701,-0.920654,-0.039551,0.648498,6.04248,-2.845764,0.9368180702345573
0.175049,-0.921387,-0.043701,0.915527,6.317138,-2.227783,0.9388854741506015
0.174072,-0.924316,-0.044434,1.235962,5.851745,-1.091003,0.941613248311641
0.178955,-0.927979,-0.047852,1.472473,5.798339,0.053406,0.9462873402777827
0.185303,-0.927246,-0.055664,1.434326,5.966186,0.953674,0.9472174128577874
0.191406,-0.925781,-0.059814,1.487732,5.493164,1.289368,0.9472509864829912
0.196777,-0.927246,-0.05957,1.373291,4.516602,1.251221,0.949765716977087
0.198486,-0.929199,-0.0625,1.00708,3.39508,0.984192,0.9522151667543424
0.198486,-0.931152,-0.065186,0.457764,2.449036,0.686645,0.954300766999587
0.19751,-0.931641,-0.062012,0.106812,1.701355,0.106812,0.9543639982339024
0.195068,-0.929443,-0.059326,-0.12207,1.213074,-0.701904,0.9515436874621155
0.194336,-0.926514,-0.057129,-0.213623,0.953674,-1.541138,0.9483978045804407
0.189453,-0.921387,-0.053467,-0.328064,0.88501,-2.243042,0.9421810670285197
0.1875,-0.923584,-0.048828,-0.534058,0.946045,-2.601623,0.9436884171377754
0.189453,-0.927734,-0.046143,-0.411987,1.152039,-2.822876,0.948004214344008
0.186768,-0.932129,-0.043213,-0.396728,1.403808,-2.792358,0.9516376000526671
0.181885,-0.929443,-0.042725,-0.839233,1.670837,-2.479553,0.9480357952624996
0.178223,-0.926025,-0.043457,-1.014709,2.479553,-2.204895,0.9440202588943736
0.177246,-0.930664,-0.031982,-0.87738,4.241943,-1.968384,0.9479316819982335
0.191406,-0.938232,-0.027588,-0.022888,6.050109,-1.502991,0.9579544041362302
0.201416,-0.950684,-0.034912,0.915527,6.759643,-1.419067,0.9724131429881026
0.193848,-0.955078,-0.035156,0.816345,5.66101,-1.304626,0.975185611831922
0.192627,-0.948242,-0.041992,0.732422,5.226135,-0.602722,0.9685202010061535
0.198486,-0.948486,-0.050049,1.304626,5.53894,-0.488281,0.9703232898333422
0.20166,-0.941406,-0.047852,1.213074,5.096435,-0.709534,0.9639511535031222
0.205078,-0.934326,-0.048584,1.38855,4.341125,-0.846863,0.9578008485149718
0.199219,-0.934814,-0.045898,1.869202,4.058838,-1.075745,0.9569075456704268
0.196777,-0.932617,-0.051758,1.953125,4.03595,-1.220703,0.9545546327906015
0.197266,-0.931641,-0.059814,2.159119,3.822326,-1.617432,0.9541732244372612
0.19043,-0.936035,-0.058838,1.63269,3.051758,-1.953125,0.9570198620556419
0.184814,-0.93335,-0.044678,0.740051,2.441406,-1.88446,0.9525201104333704
0.181641,-0.928467,-0.04541,0.892639,2.937317,-0.869751,0.9471570572349657
0.19165,-0.921875,-0.050049,1.647949,3.501892,-0.282288,0.9429147047989017
0.203857,-0.914795,-0.052979,1.670837,2.868652,0.167847,0.9387301757773636
0.202148,-0.919922,-0.052002,1.823425,1.13678,1.213074,0.9433050980419856
0.202881,-0.929932,-0.048828,1.724243,-0.083923,2.159119,0.953057395107451
0.200684,-0.931396,-0.038574,0.740051,-0.595093,2.861023,0.9535515351295911
0.198975,-0.932861,-0.0354,0.915527,-0.419617,2.906799,0.9545018889169367
0.198975,-0.940918,-0.035156,2.006531,0.938415,2.166748,0.9623687846584593
0.20459,-0.949219,-0.040283,2.082825,2.128601,1.579285,0.9718520968491039
0.210938,-0.94458,-0.045898,2.044678,1.89209,1.00708,0.9689338690787932
0.21167,-0.944336,-0.046387,2.197266,0.732422,0.297546,0.9688789519671691
0.213623,-0.940186,-0.032471,2.037048,-0.450134,-0.015259,0.9646962561169189
0.22168,-0.944824,-0.025879,2.578735,-1.091003,-0.343323,0.9708265221021725
0.21167,-0.955322,-0.036865,2.754211,-1.464844,-0.63324,0.9791850391059905
0.206299,-0.950928,-0.044678,1.976013,-1.495361,-0.495911,0.9740736431446033
0.204346,-0.946533,-0.042236,1.220703,-0.923157,-0.366211,0.9692604848548195
0.204834,-0.945313,-0.047607,1.068115,-0.473022,-0.282288,0.9684214278783798
0.206055,-0.948242,-0.050781,1.373291,-0.282288,-0.244141,0.9716996776525142
0.210205,-0.944824,-0.046387,0.953674,-0.411987,0.022888,0.9690357510277936
0.205322,-0.945068,-0.045166,0.724792,-0.839233,-0.114441,0.9681686918424909
0.199951,-0.94458,-0.044922,0.686645,-1.144409,-0.480652,0.9665556191368398
0.19873,-0.944092,-0.039307,0.244141,-1.319885,-0.572205,0.9655818751473124
0.197266,-0.940918,-0.0354,0.091553,-1.091003,-0.556946,0.9620258403390213
0.19751,-0.942139,-0.031006,0.358582,-0.38147,-0.549316,0.9631186154659248
0.197998,-0.94165,-0.028809,0.37384,0.152588,-0.724792,0.9626722645765795
0.192139,-0.937988,-0.032227,0.717163,0.236511,-0.976562,0.9580070265890538
0.194336,-0.942627,-0.032959,1.045227,0.564575,-0.907898,0.9630152842535782
0.197998,-0.941895,-0.028809,1.152039,0.595093,-0.717163,0.9629119157586534
0.197754,-0.942871,-0.03418,1.518249,0.076294,-0.640869,0.9639920329323266
0.195801,-0.938721,-0.041016,1.403808,-0.297546,-0.389099,0.9598007395798359
0.194092,-0.933594,-0.039551,1.419067,-0.350952,-0.213623,0.9543761013882316
0.195557,-0.93335,-0.035156,1.449585,-0.106812,-0.022888,0.9542644848704158
0.196777,-0.931152,-0.03418,1.060486,0.053406,0.289917,0.9523305661549459
0.197754,-0.933105,-0.032471,1.25885,0.38147,0.099182,0.9543824974201905
0.201172,-0.935791,-0.028809,1.228333,0.87738,0.091553,0.9576037425501218
0.204102,-0.931641,-0.033203,0.686645,0.656128,0.411987,0.9543138993507325
0.205566,-0.934814,-0.036621,1.106262,0.114441,0.205994,0.9578495145861902
0.208008,-0.941162,-0.0354,1.037598,-0.312805,0.358582,0.9645239231392865
0.207764,-0.94458,-0.033936,0.717163,-0.801086,0.434875,0.9677545702253232
0.203369,-0.940674,-0.033447,0.404358,-1.426697,0.495911,0.9629876563310664
0.200684,-0.938721,-0.033936,0.320435,-1.808166,0.762939,0.9605325792460139
0.201172,-0.941406,-0.033691,0.640869,-1.449585,0.62561,0.9632499747734229
0.200684,-0.946289,-0.0354,0.343323,-1.12915,0.617981,0.9679824891892416
0.193848,-0.944092,-0.037842,-0.12207,-0.694275,0.648498,0.9645303357240766
0.187256,-0.943359,-0.040771,-0.396728,0.595093,0.457764,0.9626283222812426
0.178711,-0.94751,-0.054932,-1.228333,3.295898,0.221252,0.9657796571915355
0.160889,-0.951172,-0.057129,-2.410889,8.31604,-0.411987,0.9663732025185715
0.149658,-0.943848,-0.050049,-4.104614,16.906738,-1.480102,0.956949040685553
0.155273,-0.935547,-0.049805,-5.050659,27.893064,-2.433777,0.9496517423576919
0.16748,-0.943359,-0.043945,-5.386352,38.05542,-3.746032,0.9591177802053301
0.168213,-0.94873,-0.042969,-6.04248,46.867367,-5.867004,0.9644846091203322
0.185791,-0.941406,-0.042969,-7.278442,55.679317,-8.422852,0.96052583904755
0.244141,-0.95166,-0.045654,-7.148742,64.620972,-12.33673,0.983537427451035
0.260498,-0.976074,-0.066895,-7.591247,68.191528,-18.226624,1.0124498024618307
0.224609,-0.979004,-0.081543,-10.505675,70.274353,-23.841856,1.0077436656938112
0.222656,-0.976563,-0.081055,-13.076781,79.360962,-30.59387,1.0048984527453508
0.249268,-0.995361,-0.084961,-14.335631,92.323296,-38.703918,1.0296098424480995
0.291016,-1.013428,-0.084961,-16.204834,101.615898,-46.669003,1.0578019639615914
0.344482,-1.023193,-0.081299,-18.943787,107.170097,-55.580135,1.0826824515867983
0.380127,-1.033203,-0.081299,-21.629332,112.144463,-67.497253,1.1039087384104722
0.4021,-1.041992,-0.085205,-24.04022,118.148796,-80.955498,1.1201301844379519
0.441406,-1.041992,-0.080078,-27.503965,125.045769,-94.612114,1.1344598146183935
0.516113,-1.046631,-0.081299,-30.677794,129.814148,-107.269279,1.1697942581202048
0.58252,-1.057373,-0.09082,-33.26416,129.135132,-119.819633,1.2106260710595158
0.636963,-1.066895,-0.099121,-37.071228,122.940056,-132.400513,1.246519866281721
0.684326,-1.071777,-0.110107,-40.573116,113.281242,-144.073486,1.2763743821677085
0.717529,-1.074463,-0.101563,-43.495174,101.21154,-155.784607,1.2960068083073484
0.746338,-1.070313,-0.106201,-47.195431,89.74456,-166.534409,1.3091481889434826
0.77417,-1.051758,-0.115234,-51.399227,79.605103,-175.140366,1.3110350697902784
0.814453,-1.018066,-0.11084,-54.809566,68.946838,-182.723984,1.3084638226427967
0.845215,-0.986816,-0.121582,-56.495663,57.487484,-191.238388,1.3049813779533408
0.841553,-0.961182,-0.131104,-57.891842,47.225948,-198.043808,1.2842392875741655
0.849609,-0.929688,-0.126953,-61.347958,40.023804,-202.774033,1.2658089486308746
0.863525,-0.880371,-0.123047,-64.216614,35.15625,-207.283005,1.239301854866279
0.89624,-0.830811,-0.101807,-65.177917,29.777525,-212.211594,1.226318767927002
0.947754,-0.804932,-0.089355,-65.338135,22.720335,-216.911301,1.2466505064231113
0.992188,-0.789795,-0.102295,-66.215515,15.037536,-221.817001,1.272272547999838
1.02832,-0.754639,-0.106934,-67.550659,6.240844,-226.379379,1.2799831729663478
1.038086,-0.726318,-0.104736,-67.466736,-4.356384,-231.246933,1.2712710215434002
0.994629,-0.69873,-0.111572,-67.169189,-14.366149,-234.985336,1.2206386736970936
0.968262,-0.654053,-0.116699,-67.672729,-19.393921,-237.236008,1.1742807518025662
0.954834,-0.61084,-0.125977,-67.405701,-20.301817,-240.165695,1.14048396643048
0.944092,-0.552979,-0.121094,-66.841125,-20.423887,-242.37059,1.1007993621641503
0.934326,-0.49292,-0.110596,-67.588806,-21.545408,-242.469772,1.0621519081054271
0.931396,-0.435303,-0.097656,-68.367004,-26.092527,-241.729721,1.0327264424623783
0.935547,-0.390381,-0.0979,-68.595886,-34.133911,-241.523727,1.0184448558316743
0.910645,-0.355469,-0.093506,-68.374634,-43.380733,-241.683945,0.982026424299265
0.899902,-0.326416,-0.089111,-68.511963,-49.926754,-240.417465,0.9614113505576061
0.888916,-0.290283,-0.090576,-68.702698,-52.215572,-239.128098,0.9394891627480331
0.855713,-0.240967,-0.059326,-67.5354,-53.062435,-238.182053,0.8909710476407188
0.8479,-0.19751,-0.0271,-65.322876,-51.399227,-235.641464,0.8710218252719044
0.830811,-0.161133,-0.010742,-62.606808,-48.042294,-233.360275,0.8463605330909517
0.840088,-0.121826,0.001709,-59.906002,-46.302792,-230.384811,0.8488771069483497
0.821289,-0.091064,0.01709,-57.922359,-45.906063,-227.081284,0.8264988455630172
0.79126,-0.045654,0.026123,-56.129452,-48.240658,-222.877487,0.7930063596497824
0.807861,-0.013428,0.050293,-53.596493,-48.194881,-216.835007,0.8095363440599811
0.829834,0.002197,0.080811,-49.736019,-47.363277,-214.02739,0.8337623834678559
0.810547,0.039063,0.117432,-44.540401,-45.906063,-211.654648,0.8199406269980772
0.757813,0.097168,0.165771,-39.68811,-40.550228,-208.259567,0.7817942105400882
0.71167,0.154297,0.201172,-33.592224,-29.090879,-203.712448,0.7554812550242395
0.72583,0.194336,0.243896,-25.321959,-18.112183,-198.822006,0.7899879294090512
0.772461,0.220459,0.296387,-15.846251,-12.733459,-194.168076,0.8562379464675692
0.763428,0.240967,0.343506,-5.973815,-12.382506,-189.559921,0.8711393564229549
0.712402,0.268311,0.381836,5.714416,-10.208129,-184.486374,0.8516490669407206
0.665283,0.298096,0.442871,19.897461,-2.029419,-179.183945,0.8529932109612597
0.665527,0.325928,0.515625,36.857605,9.567261,-173.858627,0.9027870122780899
0.685303,0.344238,0.572021,57.220455,20.706175,-169.700607,0.9567382227621095
0.705078,0.353027,0.624268,80.581657,29.342649,-166.648849,1.0057204306550602
0.738281,0.345947,0.674072,104.606621,36.521912,-163.253769,1.057880533403465
0.721191,0.33667,0.651611,128.128052,41.297909,-160.202026,1.0286204560973888
0.675537,0.334717,0.588379,152.893066,47.866817,-156.997681,0.9563344373695847
0.700195,0.323486,0.619385,178.245529,56.77795,-152.755737,0.9892188880354035
0.764893,0.362061,0.711914,203.68956,62.782284,-146.339417,1.1058801981073718
0.794678,0.425293,0.825928,234.573349,68.229675,-140.853882,1.2225155707462378
0.780762,0.447266,0.90918,249.992355,78.178406,-139.48822,1.2791577102922063
0.653076,0.4021,0.851318,249.992355,92.39959,-138.99231,1.145833761459314
0.456787,0.31958,0.682617,249.633774,106.903069,-133.903503,0.8813351850788665
0.351318,0.205322,0.427734,249.992355,115.142815,-119.598381,0.590370930486927
0.289551,0.057129,0.128418,249.992355,105.293266,-98.464958,0.32186128528606855
0.321777,-0.08374,-0.157227,249.992355,76.011658,-73.234558,0.3677949902568005
0.98999,-0.213135,0.982422,249.992355,33.576965,-47.760006,1.410907408162917
0.772949,-2.420654,-0.9021,232.17009,-43.685909,-35.568237,2.696442165950718
1.227539,-6.44043,-7.554443,92.758171,-169.845566,85.937492,10.002779594776143
-0.008301,-3.139893,-3.591309,-7.347106,-89.645378,-1.342773,4.770377059681027
1.211914,0.869629,-0.967285,-168.472275,-26.06201,-50.926205,1.7778161919225508
1.444824,1.668457,-0.672852,-200.736984,-60.081478,-66.688538,2.3073783750674703
1.313477,1.117432,-0.290771,-131.401062,-110.03112,-20.858763,1.7488350061094957
0.755859,1.07373,0.104492,-99.876396,-104.377739,-4.692078,1.3172461876372996
0.324707,1.096191,0.185547,-42.381283,-72.341919,-19.218445,1.1582301297838007
0.079346,1.006348,0.031982,3.105163,-23.567198,-18.196106,1.009977689428831
-0.048584,0.748535,-0.16626,30.937193,32.905579,-11.32965,0.7683146743886908
0.059814,0.448242,-0.44043,45.661922,67.695618,3.807068,0.631250497077032
0.316895,0.304199,-0.754395,36.102295,70.43457,19.706726,0.8729669459097521
0.615479,0.263916,-0.918213,9.971619,45.06683,22.78137,1.1364775263356508
0.894531,0.245605,-0.947754,-21.965025,-2.090454,19.058228,1.3261769001539727
0.978027,0.272705,-0.844971,-52.558895,-57.739254,13.023376,1.3209393705219783
0.916748,0.263672,-0.758301,-78.88031,-102.798454,12.268065,1.2185935440863782
0.829102,0.217773,-0.752686,-103.027336,-119.834892,17.219543,1.1407766742570606
0.820557,0.203125,-0.804199,-124.710075,-108.489983,17.799377,1.166751724864806
0.836914,0.232422,-0.833008,-142.082214,-84.32769,14.083861,1.2034730398077058
0.86377,0.276367,-0.810791,-155.784607,-61.546322,8.682251,1.2164947091007012
0.849121,0.310303,-0.76123,-165.977463,-46.859737,3.845215,1.181848356325802
0.80957,0.3479,-0.705322,-173.57634,-41.564938,2.563476,1.128679369255946
0.768311,0.360352,-0.640869,-179.992661,-43.319698,3.494262,1.0634229787746736
0.712891,0.367432,-0.553711,-185.951218,-52.040096,4.173279,0.974584898316201
0.657471,0.391602,-0.457031,-191.474899,-64.758301,5.91278,0.8913459357656824
0.614746,0.432373,-0.354248,-195.899948,-77.194214,8.94928,0.8308734567604142
0.585693,0.493408,-0.257568,-198.226913,-88.073723,11.497497,0.8079783532601601
0.591309,0.570801,-0.171143,-198.196396,-94.253532,13.938903,0.8394939198892389
0.621826,0.639404,-0.0979,-196.487411,-95.375053,16.471863,0.8972677746871331
0.654541,0.681885,-0.042969,-192.329391,-92.90313,18.310547,0.9461698625865231
0.678711,0.697754,0.005371,-185.53923,-87.379448,18.264771,0.9734156941810626
0.696289,0.710693,0.059814,-176.521286,-80.741875,15.480041,0.996734983015044
0.69751,0.732178,0.134766,-166.114792,-74.356079,11.07788,1.0201797383500615
0.657959,0.783203,0.22583,-154.678345,-67.581177,5.401611,1.047528602850538
0.618896,0.865967,0.322021,-141.799927,-58.280941,-0.862122,1.1120380516628017
0.626465,0.935547,0.383301,-128.562927,-45.791622,-7.461547,1.1893806127707818
0.644287,0.970703,0.434326,-114.379875,-33.500671,-14.793395,1.2433861535556843
0.625244,0.985352,0.471436,-99.95269,-23.910521,-22.590635,1.258610553561347
0.608643,0.995117,0.496338,-84.968559,-14.60266,-29.563902,1.2676969493463333
0.603027,0.992432,0.523682,-67.909241,-4.425049,-37.025452,1.2738939023627516
0.598389,0.991455,0.554443,-49.568172,6.271362,-45.127865,1.2839234605672567
0.596191,1.006836,0.587158,-29.777525,16.906738,-52.177425,1.3091665120759086
0.589111,1.011719,0.624756,-9.475708,28.732298,-58.784481,1.3270068442996066
0.56543,1.018555,0.667725,10.765075,42.648312,-64.430237,1.3427665651743046
0.584229,1.026855,0.716553,33.638,59.783932,-68.67981,1.3817390916070227
0.601074,0.997559,0.76123,60.302731,79.25415,-73.158264,1.3913608535735795
0.599365,0.954834,0.791504,90.469353,102.394096,-77.636719,1.3774704907173148
0.58667,0.904297,0.808838,125.854485,129.203796,-82.046501,1.3476474551428501
0.563477,0.836182,0.771729,164.62706,153.564453,-86.60125,1.269752856304722
0.526855,0.75293,0.689941,204.612717,170.92894,-88.203423,1.1491293919337369
0.507324,0.695068,0.631592,242.286667,179.672226,-87.036125,1.067429445005149
0.466797,0.663818,0.597168,249.992355,179.702744,-82.458488,1.0075531730668115
0.364014,0.633545,0.529297,249.816879,173.744186,-72.685242,0.9022420813894684
0.260254,0.577393,0.426758,249.763474,164.428696,-58.937069,0.7636996867414574
0.208496,0.500732,0.24585,249.992355,149.078369,-42.297359,0.595521066243672
0.205811,0.392334,-0.049072,249.992355,121.932976,-23.262022,0.44574902855867227
0.29248,0.198975,-0.474854,249.992355,80.108643,-5.0354,0.5921333653333513
0.490234,-0.034912,-0.91748,249.992355,22.15576,9.155273,1.0408255247158382
0.73291,-0.31665,0.218262,249.992355,-38.894653,9.864807,0.8276850797519549
3.758057,-5.356934,-6.002441,125.976555,-112.785332,15.747069,8.87969775691076
0.377197,-4.177979,-5.061035,-8.651733,-215.103134,12.290954,6.573572953308954
0.652588,0.377197,-2.019287,-47.668453,-220.024094,19.134521,2.1553813265689206
0.654053,1.633057,-1.092529,-135.353088,-158.653259,-76.408386,2.070816290234119
0.550537,1.291016,-0.644043,-134.635925,-99.418633,-21.339415,1.5442165283644647
0.115723,1.381592,-0.391357,-116.706841,-19.371033,16.677856,1.4406070139500222
0.118408,1.183105,-0.254395,-68.17627,30.693052,-14.457702,1.2159254547520584
-0.199219,0.917725,-0.256104,-19.958496,55.908199,-29.190062,0.973394393040149
-0.371094,0.769775,-0.32666,10.95581,82.069389,-13.801574,0.9148612261217545
-0.131592,0.529053,-0.499756,24.147032,100.364677,10.765075,0.7395739251819252
0.24585,0.334473,-0.734863,14.404296,75.683594,28.472898,0.8440012079363395
0.584229,0.236572,-0.834717,-6.706237,6.362915,42.121883,1.0459647726926562
0.668701,0.250977,-0.906982,-34.416199,-77.415466,49.21722,1.1544552092887796
0.454834,0.32959,-0.954102,-64.872742,-133.300781,51.536556,1.107164920894805
0.279053,0.403564,-0.876221,-93.269341,-135.543823,56.602474,1.0042398716173342
0.429443,0.42627,-0.760254,-117.309563,-96.282951,60.966488,0.9716550559046148
0.574219,0.456543,-0.736328,-135.017395,-54.64172,55.992123,1.0393930413438413
0.67749,0.530273,-0.696777,-149.169922,-32.188416,52.421566,1.1071044857455867
0.718018,0.589844,-0.610107,-160.041809,-29.571531,50.23193,1.1116187944205513
0.65625,0.628906,-0.507568,-165.901169,-32.676697,44.258114,1.0410629634945237
0.605713,0.648193,-0.439697,-168.632492,-28.854368,40.06958,0.9901393111209149
0.597168,0.663086,-0.397949,-167.892441,-23.53668,38.337708,0.9770650286552068
0.592285,0.668945,-0.338867,-163.681015,-24.337767,36.224365,0.9555730102608591
0.573242,0.680908,-0.265625,-159.332275,-32.035828,34.599304,0.9288696009952097
0.537109,0.695557,-0.191162,-156.3797,-41.046139,33.477783,0.8993489469466232
0.525391,0.715332,-0.131836,-154.11377,-48.294064,32.676697,0.8972827335912578
0.548584,0.748291,-0.062012,-151.077271,-54.542538,31.204222,0.9299082287414173
0.551025,0.785156,0.020996,-147.521973,-59.318539,28.213499,0.9594474070927494
0.513184,0.834717,0.091309,-142.63916,-60.676571,25.733946,0.9840973637938474
0.48877,0.881348,0.142578,-134.658813,-55.099483,24.353025,1.0178403097185726
0.486328,0.915039,0.187744,-124.282829,-44.43359,21.659849,1.0531187514430649
0.489502,0.954346,0.218262,-112.709038,-33.821106,17.189026,1.0945441043484727
0.463379,0.999268,0.22998,-100.616447,-24.589537,12.039184,1.125232168872273
0.429688,1.027832,0.23877,-86.822502,-14.678954,6.752014,1.139333801161012
0.415771,1.036133,0.237061,-71.807861,-3.471374,1.670837,1.141330379798505
0.415527,1.044678,0.238525,-56.198116,5.149841,-3.128052,1.1493080470604913
0.408447,1.045166,0.256104,-39.81781,11.016845,-6.599426,1.1509952989395744
0.386475,1.044189,0.263184,-24.116514,16.609192,-9.346008,1.1440976405892986
0.371582,1.050293,0.264893,-8.621216,23.994444,-11.672973,1.1451449122368749
0.373047,1.048584,0.296387,8.850098,32.814026,-13.587951,1.1517541938425924
0.382568,1.050781,0.342041,26.893614,42.144772,-14.816283,1.1693977211650448
0.378906,1.033691,0.354736,45.684811,51.017757,-14.991759,1.156686850453916
0.381592,1.001709,0.364258,66.673279,60.31036,-16.105652,1.1321295269133298
0.397949,0.981689,0.386475,90.057365,72.662354,-18.836975,1.127581316334658
0.435547,0.954102,0.415283,114.601128,87.120049,-21.949766,1.128038911430807
0.504883,0.925781,0.464355,140.74707,101.440422,-24.345396,1.1522165029520275
0.536133,0.890381,0.476074,169.425949,113.945,-28.434752,1.1431812508635715
0.515381,0.844238,0.455811,201.103195,123.435966,-32.432556,1.0890909252794276
0.457031,0.795166,0.429932,234.413132,129.608154,-33.103943,1.0129204446258353
0.405029,0.758789,0.401123,249.992355,132.30896,-31.654356,0.9490568468174074
0.340576,0.72876,0.371582,249.992355,128.28064,-30.082701,0.8860904762494629
0.259766,0.699951,0.318604,249.633774,114.616386,-22.666929,0.8117378184937548
0.205811,0.626709,0.212158,249.992355,91.224663,-9.353638,0.6929165572895484
0.227051,0.478271,0.045654,249.992355,60.501095,4.173279,0.5313940099003751
0.292969,0.339111,-0.135986,249.992355,22.514341,16.990662,0.46831538249132926
0.23291,0.335693,0.791748,249.992355,-18.295288,27.687071,0.8909555285495455
1.359131,-1.728516,-2.092285,248.214706,-18.287659,28.121946,3.0352365902252165
1.555908,-7.659912,-6.608154,92.788689,-23.056028,81.649773,10.235370088078104
1.686035,-2.546143,-3.684082,-81.916801,-60.882565,74.577332,4.785187392401472
1.76001,1.786377,-1.063477,-35.041809,-154.014587,-82.18383,2.723923882151996
0.88623,1.798584,-0.948486,-97.328178,-133.262634,-34.881592,2.2180923583457925
0.419189,1.947998,-0.525635,-114.19677,-37.54425,-24.612425,2.0607541772249305
0.230957,1.479004,-0.065186,-78.941345,64.079285,-49.59869,1.4983468164817517
0.305908,1.110107,0.191406,-40.695187,74.760437,-43.273922,1.167284675111003
0.19873,0.960449,0.14209,-8.850098,17.356873,-41.885372,0.9910325234829581
-0.118408,0.823975,-0.038818,26.245115,-34.736633,-26.176451,0.8333439219271958
-0.249756,0.65918,-0.254395,56.114193,-48.835751,-6.721496,0.7494085320844699
-0.152588,0.529053,-0.42749,62.919613,-32.966614,2.716064,0.6970852707187264
0.035156,0.417969,-0.520752,56.587215,-18.547058,13.46588,0.6686678359252821
0.158447,0.344727,-0.599609,50.895687,-22.224424,23.612974,0.7095583902815891
0.16748,0.339111,-0.65918,44.593807,-37.17041,27.084349,0.7599763766861442
0.128906,0.342285,-0.648682,34.240723,-40.550228,31.059263,0.7446906170920915
0.175049,0.348633,-0.590332,21.39282,-23.529051,38.299561,0.707586737661186
0.286133,0.378418,-0.523193,11.993407,-0.549316,42.503353,0.7062600028757114
0.366211,0.423096,-0.462158,7.8125,16.563416,44.769283,0.7257483990344037
0.411621,0.436523,-0.440186,6.835937,27.473448,49.21722,0.7441423867553844
0.482422,0.395508,-0.437012,7.469177,34.408569,54.626461,0.7616672845094504
0.552979,0.351807,-0.443604,8.972168,37.452698,58.822628,0.7914154714851106
0.581299,0.327148,-0.4729,11.817931,38.284302,62.088009,0.8176605354944068
0.550293,0.307861,-0.511963,14.915465,40.504452,65.238953,0.8122234264899036
0.490234,0.283203,-0.547363,17.364502,46.173092,68.527222,0.7874894080138475
0.44751,0.255859,-0.570068,17.997742,55.183407,73.219299,0.768574363744329
0.422852,0.226074,-0.581299,17.105103,65.963745,78.079224,0.7535395110948065
0.420166,0.211182,-0.588867,16.197205,74.714661,82.94677,0.7535924948995976
0.450439,0.203613,-0.60083,14.892577,78.979492,89.225761,0.7780425665668942
0.507324,0.201416,-0.615234,13.694762,78.407288,95.825188,0.8224712279393122
0.551514,0.214111,-0.621826,13.107299,75.065613,101.829521,0.8582999398770804
0.598633,0.224365,-0.649414,13.008117,72.059631,107.208244,0.9112846236549809
0.654785,0.20874,-0.683838,12.535094,71.655273,111.442558,0.9695102856953091
0.67041,0.193848,-0.717773,11.482238,75.805664,112.129204,1.0011117293953757
0.669678,0.217285,-0.719482,11.047362,83.343498,109.992973,1.0066457883650037
0.664795,0.250732,-0.699951,10.047912,91.964714,108.184807,0.9973717111739234
0.635498,0.275391,-0.671631,7.873535,99.159233,108.070366,0.9647725695965863
0.613281,0.273438,-0.637695,6.16455,103.446953,109.489433,0.9260328492175641
0.604736,0.251709,-0.589355,4.821777,103.363029,113.05999,0.8811369736891081
0.655273,0.23291,-0.565674,5.378723,96.160881,118.85833,0.8964467897789584
0.733154,0.201904,-0.566895,8.117676,84.815971,123.13842,0.948498789644457
0.810791,0.162354,-0.568848,9.307861,74.493408,123.786919,1.0036577674192533
0.850342,0.147949,-0.564453,9.460449,68.16864,121.398918,1.0312989929084582
0.873535,0.172119,-0.572754,9.689331,66.200256,117.355339,1.058647954185904
0.840332,0.191406,-0.553955,10.665893,69.068909,113.723747,1.0245292914724302
0.810059,0.18042,-0.503906,10.803222,74.569702,111.274712,0.9709110240990159
0.807617,0.153564,-0.458984,10.307311,81.863396,110.519402,0.9415378022368512
0.799316,0.130615,-0.431152,10.902404,86.692802,109.268181,0.9175284154646111
0.846436,0.090332,-0.430664,11.32965,86.959831,108.421318,0.953983885197229
0.906006,0.032227,-0.437012,10.536193,83.396904,107.76519,1.0064119135368976
0.930664,0.00708,-0.45166,8.880615,72.883606,104.293816,1.0344961879562438
0.940918,0.009277,-0.455566,6.393432,60.874935,101.890556,1.0454439850173707
0.913818,0.017578,-0.456543,2.777099,47.172543,101.524345,1.0216671836057962
0.884277,0.01709,-0.443359,-0.770569,30.654905,104.217522,0.9893457857139737
0.858643,0.012939,-0.409424,-3.356933,16.555786,108.90197,0.9513481123889405
0.786621,0.000732,-0.391602,-5.821228,3.723144,112.258904,0.8787065834901887
0.715088,-0.015625,-0.383789,-8.415222,-3.730774,118.537895,0.8117197699267894
0.691162,-0.038086,-0.361328,-9.750366,0.534058,125.16021,0.7808414546013807
0.689697,-0.087402,-0.341064,-9.155273,13.656615,126.136772,0.7743679445257273
0.738525,-0.145508,-0.322754,-6.774902,31.372068,123.207085,0.8190005483545172
0.8396,-0.182373,-0.29248,-3.707886,48.164364,118.217461,0.9075971691940208
0.942383,-0.202393,-0.267822,-0.045776,53.558346,111.434929,1.000388558921982
0.898926,-0.196289,-0.253906,2.906799,43.220516,108.039848,0.9544975546500892
0.819092,-0.179199,-0.243896,5.92041,26.741026,113.43383,0.8732177534160652
0.818604,-0.178223,-0.229004,10.810851,20.950315,120.422356,0.8685152724972659
0.855957,-0.195313,-0.209961,16.342163,19.020081,118.247978,0.9027143376168343
0.817871,-0.211914,-0.218262,19.683838,9.498596,116.737358,0.8726160763365525
0.731934,-0.22168,-0.241211,21.003721,-1.441955,125.038139,0.8019053243849924
0.658936,-0.228271,-0.249756,22.28546,-2.761841,134.338379,0.7407309640301261
0.632813,-0.261719,-0.247803,24.54376,2.578735,137.619019,0.728255075326633
0.624756,-0.304443,-0.240234,25.863646,10.246276,140.357971,0.7353352803592386
0.626953,-0.331055,-0.242676,25.817869,17.921448,144.668579,0.7493724829549053
0.675049,-0.361572,-0.244629,25.482176,26.229856,149.482727,0.8039084594815507
0.719482,-0.413574,-0.236572,25.260923,35.03418,151.611328,0.862939229021372
0.723877,-0.460449,-0.230713,25.711058,41.061398,150.917053,0.8883916259730277
0.693115,-0.487549,-0.223877,26.664732,46.623226,151.931763,0.8764892137128671
0.645752,-0.506836,-0.212158,27.359007,54.542538,156.028748,0.8478734536261882
0.608887,-0.520996,-0.200195,27.610777,63.766476,161.056503,0.8259892546577103
0.571777,-0.541992,-0.1875,27.656553,72.944641,166.397079,0.8098398087233055
0.536377,-0.562256,-0.171631,27.481077,81.764214,172.592148,0.7957947573501599
0.50293,-0.582275,-0.153076,26.924131,90.62957,179.656967,0.7844839209958353
0.47168,-0.605225,-0.132324,25.917051,100.257866,188.209518,0.778645595891353
0.441406,-0.639404,-0.111328,24.963377,111.251823,197.593674,0.7849016853313542
0.423584,-0.686035,-0.081543,24.154661,123.870842,207.290634,0.8103805816590128
0.416992,-0.742188,-0.049805,23.178099,138.092041,217.575058,0.85276367971027
0.421387,-0.804932,-0.020264,21.728514,152.908325,227.714523,0.9087866405757734
0.440186,-0.880127,0.003906,19.721985,166.969284,237.152084,0.9840744420830164
0.479736,-0.961914,0.020264,17.181396,178.894028,245.513901,1.0750980433374437
0.52002,-1.048828,0.023438,13.290404,187.515244,249.992355,1.1709014962105053
0.551514,-1.133789,0.021729,7.17926,191.238388,249.992355,1.2609985480396082
0.579102,-1.21582,0.039063,0.87738,190.467819,249.908432,1.3472577024359518
0.599365,-1.289795,0.054443,-5.065917,186.958298,249.992355,1.4232967313596279
0.604492,-1.345703,0.073242,-11.650084,180.976852,249.992355,1.4770550202470456
0.596191,-1.369385,0.085693,-17.875671,172.500595,249.992355,1.4959954134137579
0.603271,-1.379639,0.076904,-21.492002,160.980209,247.276291,1.5077313736133504
0.625244,-1.379395,0.06665,-23.53668,144.691467,235.69487,1.5159494873052333
0.636963,-1.355469,0.055908,-25.741575,120.185844,218.635544,1.4987140413681324
0.603027,-1.303223,0.039307,-26.679991,91.308586,197.685226,1.4365155031210068
0.550537,-1.24585,0.032715,-24.383543,64.582825,173.492416,1.362462286485024
0.49707,-1.186279,0.02002,-18.257141,41.213985,146.949768,1.2863659087293164
0.441895,-1.130371,0.009766,-9.513855,18.920898,118.766777,1.2137154375808195
0.355713,-1.088867,-0.006836,0.030518,-2.227783,91.712944,1.145517268727975
0.253662,-1.064697,-0.013672,9.651184,-20.355223,67.337036,1.0945825851149835
0.168945,-1.057373,-0.020508,18.440247,-34.980774,48.011776,1.0709811633348179
0.116699,-1.053955,-0.028076,25.466917,-47.08099,35.148621,1.0607676750363388
0.109619,-1.044189,-0.029053,30.494688,-56.800838,26.451109,1.0503290292527385
0.133789,-1.027832,-0.024658,32.897949,-63.323971,18.379211,1.0367960907087759
0.178467,-0.998779,-0.008057,32.76825,-67.253113,9.353638,1.014630413588613
0.218018,-0.970459,0.008301,31.036375,-69.824219,1.060486,0.9946815699539225
0.245605,-0.947021,0.025635,29.617308,-69.366455,-3.242492,0.9786867444136556
0.257813,-0.925293,0.04541,29.449461,-63.873287,-6.378173,0.9616115363898252
0.287842,-0.90332,0.071777,30.143736,-52.688595,-11.123656,0.9507849268330877
0.335938,-0.889404,0.103027,31.135557,-36.895752,-17.250061,0.956299313912229
0.388916,-0.891113,0.112793,31.944273,-20.286558,-23.79608,0.9788055448729335
0.412598,-0.894531,0.091797,31.867979,-6.484985,-26.657103,0.9893682371968487
0.35791,-0.889648,0.034424,27.9541,7.980346,-26.290892,0.9595614330411577
0.258057,-0.886963,-0.038574,21.286009,26.771544,-24.665831,0.924545689565421
0.19043,-0.876465,-0.0979,14.183043,49.751278,-21.575926,0.9022410382625035
0.196045,-0.868652,-0.141113,9.567261,66.390991,-17.127991,0.9016112343454911
0.224121,-0.88208,-0.166016,6.202697,64.247131,-11.940001,0.9251252138478336
0.214355,-0.887695,-0.193115,0.907898,44.68536,-6.935119,0.9334044580325295
0.165771,-0.895264,-0.213623,-0.968933,21.873472,-2.357483,0.9352071643577159
0.164063,-0.906006,-0.185547,1.00708,5.348205,1.38092,0.9392503549182187
0.22168,-0.917236,-0.146973,2.792358,-7.705688,3.944397,0.95502092376293
0.264893,-0.924072,-0.118896,2.258301,-22.514341,6.622314,0.9686142789826092
0.275146,-0.931396,-0.095215,-0.030518,-37.750244,8.407593,0.9758430849050477
0.264404,-0.947754,-0.076172,-3.753662,-49.606319,9.155273,0.9868886934786516
0.254639,-0.965332,-0.060059,-8.499146,-56.816097,8.552551,1.000156974692473
0.244873,-0.977783,-0.052246,-10.879516,-61.210629,6.019592,1.00933246541167
0.223877,-0.999756,-0.034424,-11.32965,-64.346313,1.983642,1.0250941334536063
0.192383,-1.012695,-0.017578,-12.313842,-65.002441,-2.693176,1.0309565305084398
0.176758,-1.02002,-0.000488,-11.642455,-63.507076,-8.850098,1.0352219226368808
0.16748,-1.020264,0.013184,-10.734557,-62.004086,-14.595031,1.0340029003595688
0.163574,-1.019287,0.021729,-11.093139,-62.049862,-18.867493,1.0325573065384799
0.166748,-1.014648,0.029297,-10.795592,-64.056396,-22.834776,1.028675737838217
0.15918,-1.012451,0.031006,-10.345458,-66.78772,-26.863096,1.0253568509728699
0.14502,-1.008301,0.029297,-10.787963,-67.375183,-30.883787,1.019097650478108
0.132813,-1.003174,0.027832,-11.665343,-63.034054,-34.645081,1.0123102229400827
0.134033,-0.992676,0.026367,-11.734008,-54.00848,-38.146973,1.0020307903223333
0.143799,-0.984375,0.024658,-11.718749,-42.16766,-41.839596,0.9951282882071035
0.151367,-0.976563,0.029785,-11.947631,-29.800413,-45.81451,0.9886730540896722
0.158936,-0.966797,0.0354,-12.20703,-18.52417,-48.71368,0.9804133063687988
0.169189,-0.960449,0.033691,-12.20703,-8.865356,-50.971981,0.9758187755946285
0.179199,-0.957764,0.039551,-12.222289,-0.976562,-53.146358,0.975186363162447
0.188721,-0.954834,0.047119,-12.367248,5.210876,-54.656979,0.9744453722800472
0.190918,-0.949707,0.049316,-12.329101,10.353087,-55.458065,0.9699614097627801
0.192383,-0.942383,0.05127,-12.283324,14.923095,-56.182858,0.9631851069643883
0.201904,-0.9375,0.056641,-12.069701,18.753052,-56.579586,0.9606662678042776
0.208496,-0.929688,0.060791,-11.657714,21.041868,-56.243893,0.9547177096089712
0.213379,-0.927734,0.060547,-11.062621,21.759031,-55.3894,0.9538799251509594
0.219971,-0.925781,0.0625,-10.45227,20.942686,-54.298397,0.9536057627772601
0.2229,-0.922119,0.063477,-9.979248,19.348145,-52.886959,0.9507981855735738
0.220215,-0.919678,0.060791,-9.353638,17.463684,-50.994869,0.9476274666713708
0.219727,-0.916748,0.062012,-8.491516,15.632628,-48.927303,0.9447498812791669
0.221924,-0.91626,0.061035,-7.461547,13.870238,-46.661373,0.9447263734018437
0.220703,-0.915283,0.060059,-6.217956,11.924743,-44.296261,0.9434298425314942
0.222412,-0.913086,0.061035,-5.020141,9.872437,-41.854855,0.9417634588180834
0.218506,-0.910156,0.055664,-3.486633,7.797241,-39.329529,0.9376712095761498
0.214355,-0.907227,0.053955,-2.220154,5.92041,-36.750793,0.933766586240373
0.213135,-0.903564,0.051514,-0.694275,4.440308,-34.294128,0.9297892893107557
0.21167,-0.902588,0.049561,1.13678,3.128052,-31.837461,0.9283994718681178
0.210693,-0.90332,0.047363,2.990722,1.63269,-29.46472,0.92877436248962
0.211182,-0.903076,0.046387,4.844666,-0.038147,-27.206419,0.9285988653175278
0.210938,-0.904541,0.040283,6.507873,-2.029419,-25.039671,0.9296838067934712
0.210205,-0.905518,0.040771,8.201599,-3.860473,-22.773741,0.9304897983266663
0.208252,-0.905762,0.040527,9.83429,-5.500793,-20.698545,0.930277449945445
0.208252,-0.901367,0.037354,11.322021,-7.110595,-18.684387,0.9258653711577078
0.206299,-0.898926,0.036133,12.573241,-8.865356,-16.807556,0.9230020718102424
0.204346,-0.896973,0.031006,13.946532,-10.734557,-14.968871,0.9204777142772116
0.202393,-0.892822,0.033447,15.182494,-12.573241,-13.175963,0.9160855592912706
0.201904,-0.895264,0.030762,16.227722,-14.152526,-11.482238,0.9182642079249305
0.198975,-0.895508,0.029297,17.066956,-15.815734,-9.82666,0.9178147650250567
0.19873,-0.897217,0.022949,17.730713,-17.227173,-8.491516,0.9192489404889189
0.198486,-0.901611,0.019531,18.470764,-18.608093,-6.996154,0.9234070323957903
0.198975,-0.905762,0.016357,19.187927,-19.813538,-5.111694,0.9275038559046533
0.197266,-0.907227,0.011963,19.645691,-21.011351,-3.334045,0.9285029981933285
0.194092,-0.910889,0.004395,20.370481,-21.125792,-1.647949,0.9313483724203312
0.187256,-0.918213,-0.002441,20.668028,-18.821716,0.038147,0.9371157246498428
0.186768,-0.922852,-0.014648,20.03479,-13.85498,1.853943,0.9416754555747963
0.19165,-0.924561,-0.029297,19.615173,-7.598876,3.860473,0.9446698256163366
0.197266,-0.929443,-0.049072,18.814087,-0.923157,5.53894,0.9514127527992254
0.194336,-0.935791,-0.07251,17.227173,7.80487,6.980896,0.9585035089539319
0.188965,-0.936523,-0.088135,15.396117,21.179197,8.148193,0.9594534272068656
0.203857,-0.936035,-0.096191,13.389586,38.497925,8.605957,0.962793802511732
0.234131,-0.941406,-0.09668,10.490417,54.595943,9.58252,0.9748895344586482
0.263672,-0.946533,-0.077393,6.355285,66.055298,11.184691,0.9856151988083381
0.290039,-0.946533,-0.053467,2.63977,72.372437,12.359618,0.9914161899520302
0.306641,-0.944092,-0.02417,-0.045776,73.883057,13.534545,0.9929363505507289
0.33252,-0.937256,-0.000732,-2.609253,69.656372,14.900207,0.9944942914667735
0.358398,-0.93335,0.019531,-4.844666,57.685848,17.028809,0.999986404340079
0.368164,-0.929199,0.035156,-6.401062,38.330078,18.424988,1.0000957238349737
0.354248,-0.926025,0.043213,-7.156372,14.961242,19.462585,0.9924118648514839
0.327393,-0.922363,0.046387,-7.911682,-4.173279,20.286558,0.9798425557134166
0.318848,-0.916992,0.045654,-8.613586,-18.249512,20.606993,0.9719170041130055
0.31665,-0.915283,0.043945,-8.857727,-28.793333,19.66095,0.9695057274786982
0.314453,-0.921143,0.035889,-9.147644,-36.186218,19.226074,0.9739985297622373
0.294922,-0.922852,0.031738,-9.513855,-39.901733,20.866392,0.9693513814051126
0.268799,-0.92334,0.025879,-9.765625,-39.779663,21.888731,0.9620183889313135
0.253174,-0.929199,0.023926,-9.353638,-37.376404,22.109983,0.9633692487063307
0.244141,-0.928955,0.020752,-8.674622,-35.751343,23.056028,0.9607251768377885
0.239502,-0.928467,0.018555,-7.522583,-34.78241,22.994993,0.9590393454483502
0.234131,-0.929443,0.016602,-6.050109,-32.302856,22.933958,0.9586225752682856
0.224365,-0.927979,0.014648,-5.348205,-26.985167,24.284361,0.9548294306157514
0.223633,-0.924072,0.009277,-4.768372,-19.981384,24.734495,0.9507927442939392
0.231201,-0.920654,0.008789,-3.639221,-13.298034,23.994444,0.949281273721335
0.239258,-0.921875,0.012451,-2.319336,-8.377075,23.521421,0.9524982591007712
0.240967,-0.923828,0.022461,-1.571655,-5.622863,23.277281,0.9550014477444524
0.240723,-0.919678,0.029053,-0.915527,-4.684448,22.78137,0.9511042336263675
0.238525,-0.920654,0.032471,-0.358582,-4.478455,21.980284,0.9516051330157903
0.241455,-0.919678,0.039795,-0.045776,-4.478455,21.331785,0.9516784029986181
0.242676,-0.918213,0.046631,0.236511,-5.149841,20.523069,0.9508844327813974
0.24707,-0.91748,0.048828,0.358582,-6.507873,19.287109,0.9514185771173485
0.246826,-0.917236,0.048096,0.343323,-8.308411,18.051147,0.9510826353098873
0.24292,-0.919189,0.045654,0.572205,-9.819031,17.150879,0.9518418103009555
0.23877,-0.923584,0.042236,0.610352,-10.421752,16.12854,0.9548834471557248
0.236328,-0.927734,0.041504,0.541687,-9.895325,15.060424,0.9582608623730804
0.233643,-0.930908,0.035156,0.37384,-8.354187,13.931273,0.9604242293117141
0.233887,-0.928467,0.034912,0.244141,-6.362915,12.611388,0.9581090473437771
0.234375,-0.929932,0.03125,0.389099,-4.28009,11.367797,0.9595216140082514
0.237793,-0.934326,0.028564,0.427246,-2.281189,10.223388,0.9645343369839148
0.239258,-0.936523,0.032227,0.442505,-0.518799,9.094238,0.9671392348684857
0.239746,-0.937744,0.033447,0.564575,0.968933,7.827758,0.9684836890010073
0.239502,-0.938965,0.035156,0.488281,2.082825,6.607055,0.9696661402591101
0.24292,-0.94043,0.034912,0.488281,2.868652,5.271911,0.9719246673708822
0.240479,-0.94043,0.032959,0.640869,3.196716,3.974914,0.9712492110792162
0.241211,-0.943359,0.034668,0.793457,3.219604,2.700805,0.9743258282658834
0.24292,-0.945801,0.033936,0.709534,3.166198,1.518249,0.9770881792842445
0.239014,-0.944824,0.032959,0.62561,2.944946,0.305176,0.9751442861715388
0.241455,-0.942627,0.028564,0.564575,2.738952,-0.854492,0.9734793681686326
0.239502,-0.941406,0.027832,0.709534,2.372742,-1.937866,0.9717927171285037
0.237549,-0.939453,0.030518,0.823975,1.861572,-3.051758,0.9695013228118877
0.234131,-0.938721,0.02417,1.052856,1.304626,-4.165649,0.9677802590991408
0.228027,-0.936035,0.02124,1.197815,1.068115,-5.210876,0.9636435915596595
0.227295,-0.932617,0.020996,1.525879,0.900268,-5.943298,0.9601449462086441
0.22998,-0.931641,0.016113,1.808166,0.061035,-6.683349,0.9597423519101365
0.230713,-0.932129,0.008057,2.037048,-1.464844,-7.339477,0.9602905165932859
0.226318,-0.931885,0.00708,2.212524,-3.89862,-7.713317,0.9589992788052554
0.217041,-0.931885,0.005127,2.090454,-6.561279,-7.873535,0.9568399735770867
0.211914,-0.929199,-0.000732,1.922607,-8.460999,-7.80487,0.9530576377223993
0.207764,-0.92627,-0.006348,1.899719,-9.513855,-7.507324,0.9493062149275123
0.209473,-0.926758,-0.007813,1.88446,-10.620116,-7.095336,0.9501686014923877
0.209961,-0.927979,-0.011719,1.63269,-12.329101,-6.835937,0.9515072153814704
0.20459,-0.927002,-0.015137,1.197815,-14.335631,-6.29425,0.9494308320636107
0.198975,-0.926514,-0.016602,0.915527,-15.815734,-5.599975,0.9477841891617521
0.194336,-0.925537,-0.015137,0.587463,-16.410828,-4.966736,0.9458405510623872
0.192139,-0.928467,-0.017822,0.427246,-16.067505,-4.585266,0.9483069065940626
0.187988,-0.928955,-0.017334,0.350952,-15.068053,-4.264832,0.947943747131126
0.181152,-0.930176,-0.015137,0.190735,-12.931823,-4.02832,0.947772423553777
0.18042,-0.933838,-0.012695,0.061035,-9.780884,-3.77655,0.9511918574446482
0.180908,-0.935303,-0.01123,-0.144958,-6.072998,-3.761291,0.9527043188592146
0.183105,-0.937012,-0.005859,-0.610352,-2.044678,-3.746032,0.9547529822158191
0.188232,-0.936768,-0.001709,-1.091003,1.976013,-3.662109,0.9554938473527709
0.194336,-0.937988,0.001953,-1.480102,5.111694,-3.52478,0.9579101123012534
0.199707,-0.940674,0.007324,-2.006531,7.118225,-3.379822,0.961667354702758
0.208984,-0.94043,0.009766,-2.578735,7.720947,-3.417969,0.9634200910879946
0.210205,-0.94043,0.009277,-2.937317,7.453918,-3.326416,0.9636808546681832
0.213623,-0.939453,0.01709,-3.044128,6.736755,-3.295898,0.963586422402267
0.214111,-0.938232,0.01709,-3.14331,5.760192,-3.52478,0.962504480116846
0.215332,-0.934326,0.018799,-3.14331,4.623413,-3.669739,0.9590027877441233
0.216309,-0.932617,0.02124,-3.067016,3.52478,-3.738403,0.9576091007138561
0.217041,-0.931152,0.021729,-3.02124,2.731323,-3.837585,0.9563592380617233
0.21582,-0.929688,0.025146,-2.906799,1.983642,-3.936767,0.9547409968467887
0.216797,-0.927734,0.025635,-2.670288,1.64032,-3.982544,0.9530731699035494
0.216553,-0.925293,0.02417,-2.311707,1.525879,-4.058838,0.950603243502777
0.216064,-0.925293,0.025391,-1.937866,1.480102,-3.952026,0.9505237981376374
0.216553,-0.927002,0.024902,-1.533508,1.411438,-3.860473,0.9522856816192292
0.217773,-0.924072,0.025879,-1.243591,1.319885,-3.753662,0.9497388395522213
0.217041,-0.921631,0.022217,-0.915527,1.25885,-3.555298,0.9471029991141406
0.217773,-0.920654,0.02124,-0.595093,1.152039,-3.334045,0.9462980528591401
0.216797,-0.920898,0.02417,-0.221252,1.159668,-3.189087,0.946381664294591
0.218994,-0.919434,0.026611,0.038147,1.289368,-3.051758,0.9455291628040882
0.217529,-0.920898,0.0271,0.427246,1.38092,-2.822876,0.9466289675712444
0.219727,-0.925537,0.029053,0.701904,1.319885,-2.418518,0.9517051905432691
0.222656,-0.929443,0.027344,0.816345,1.037598,-1.960754,0.9561316221739556
0.224854,-0.93042,0.023682,0.839233,0.648498,-1.586914,0.9574975377722912
0.225586,-0.927734,0.022217,0.892639,0.297546,-1.182556,0.9550251374916787
0.224854,-0.925537,0.018311,1.091003,0.106812,-0.938415,0.9526349523327391
0.223633,-0.925293,0.017822,1.289368,0.282288,-0.846863,0.9521010861363409
0.225098,-0.924316,0.018799,1.350403,0.785828,-0.75531,0.9515159377861203
0.223389,-0.926025,0.014404,1.403808,1.251221,-0.823975,0.9526974447126433
0.222412,-0.927734,0.014648,1.457214,1.686096,-1.00708,0.9541341815510017
0.225586,-0.927246,0.012939,1.502991,1.89209,-1.235962,0.9543802206840836
0.225342,-0.92627,0.01001,1.373291,1.953125,-1.480102,0.9533390425048164
0.223389,-0.931396,0.010254,1.25885,2.342224,-1.693725,0.9578654908978609
0.22583,-0.932129,0.008301,1.235962,2.830505,-1.983642,0.9591311527325134
0.227783,-0.933838,0.005371,1.014709,3.318786,-2.281189,0.9612322055434888
0.226074,-0.93457,0.003662,0.976562,3.555298,-2.372742,0.9615320840304811
0.225098,-0.933105,-0.000244,0.869751,3.90625,-2.555847,0.9598719238341124
0.227539,-0.935303,0.001953,0.778198,4.554749,-2.708435,0.9625848079722638
0.227295,-0.937256,0.00293,0.50354,5.149841,-2.76947,0.9644275045129105
0.228027,-0.933594,0.001465,0.053406,5.439758,-2.655029,0.9610391333291273
0.229004,-0.933594,0.003174,-0.144958,5.500793,-2.677917,0.9612755396492725
0.229492,-0.932861,0.003418,-0.144958,5.523681,-2.670288,0.9606809595849186
0.233398,-0.932861,0.001465,-0.38147,5.40924,-2.555847,0.9616165649311581
0.233887,-0.932861,0.004883,-0.602722,5.096435,-2.334595,0.9617466494763577
0.231689,-0.932373,0.007813,-0.762939,4.66156,-2.281189,0.9607602441915465
0.231689,-0.928711,0.008545,-0.900268,4.196167,-2.067566,0.9572131065060694
0.231445,-0.927734,0.013672,-0.976562,3.639221,-1.792908,0.9562656986240801
0.230713,-0.927734,0.016846,-0.961304,3.028869,-1.602173,0.9561394515660359
0.230469,-0.927979,0.017578,-1.106262,2.365112,-1.274109,0.9563315170410311
0.234375,-0.926758,0.018799,-1.12915,1.754761,-1.152039,0.9561199891174746
0.234375,-0.928223,0.020752,-1.113892,1.068115,-0.907898,0.9575804007277927
0.231445,-0.924805,0.019775,-0.953674,0.37384,-0.511169,0.9535313978443499
0.228516,-0.924805,0.020752,-0.854492,0.221252,-0.480652,0.952845473193319
0.227783,-0.927002,0.019775,-0.587463,0.679016,-0.419617,0.9547820975060225
0.22876,-0.924805,0.021729,-0.38147,1.327515,-0.343323,0.9529257972507618
0.226563,-0.925049,0.022217,-0.228882,1.89209,-0.389099,0.9526489597217854
0.229004,-0.925049,0.018799,-0.053406,2.494812,-0.335693,0.9531588990393994
0.231934,-0.925781,0.02124,0.152588,3.097534,-0.343323,0.9546281883105066
0.233643,-0.926025,0.018311,0.190735,3.349304,-0.427246,0.9552207309281975
0.232178,-0.926025,0.016602,0.305176,3.540039,-0.312805,0.9548322107642787
0.233643,-0.928711,0.016846,0.274658,3.852844,-0.007629,0.9577979748809243
0.234619,-0.927734,0.014404,0.083923,4.043579,0.030518,0.9570495938732746
0.241699,-0.927734,0.013916,0.114441,4.142761,0.0,0.9588026055518413
0.242432,-0.929199,0.013428,0.1297,4.058838,-0.144958,0.96039802551286
0.241455,-0.930176,0.011475,0.099182,3.639221,-0.389099,0.9610721011589088
0.240967,-0.928711,0.009277,0.183105,3.211975,-0.457764,0.9595078318278595
0.242676,-0.930176,0.006592,0.091553,2.624511,-0.473022,0.9613337019037665
0.243408,-0.927979,0.009277,0.030518,1.815796,-0.579834,0.9594157293029962
0.24585,-0.927734,0.009521,0.083923,0.724792,-0.75531,0.9598037542628179
0.242188,-0.929443,0.00708,0.267029,-0.259399,-0.938415,0.9605047860333649
0.241455,-0.928711,0.009521,0.38147,-1.13678,-1.091003,0.9596328923015299
0.239502,-0.928711,0.011963,0.389099,-1.838684,-1.25885,0.9591707058151848
0.236084,-0.927979,0.01416,0.137329,-2.532959,-1.289368,0.957643558479354
0.230957,-0.927246,0.012695,-0.106812,-3.097534,-1.358032,0.9556607365535115
0.227783,-0.926514,0.015625,-0.244141,-3.013611,-1.350403,0.9542313283004283
0.229248,-0.926025,0.016602,-0.350952,-2.220154,-1.304626,0.9541239817408428
0.231689,-0.925049,0.019775,-0.549316,-1.571655,-1.296997,0.9538272882167924
0.226563,-0.922852,0.018555,-0.762939,-1.045227,-1.174927,0.9504372124964384
0.222412,-0.921631,0.019775,-0.732422,-0.389099,-1.068115,0.9482941782643189
0.224121,-0.922363,0.022217,-0.488281,0.564575,-0.946045,0.9494615955893109
0.227783,-0.922607,0.023682,-0.289917,1.319885,-0.87738,0.9506048646319879
0.230713,-0.922119,0.020996,-0.114441,1.434326,-0.740051,0.9507748264158028
0.230713,-0.923096,0.021729,0.1297,1.281738,-0.63324,0.9517388628326575
0.232422,-0.921387,0.02124,0.244141,1.228333,-0.495911,0.9504867844704628
0.231934,-0.918457,0.022705,0.228882,1.213074,-0.305176,0.9475611633187591
0.233154,-0.92041,0.021973,0.434875,1.182556,-0.320435,0.9497358414554017
0.232422,-0.920166,0.019775,0.602722,1.243591,-0.274658,0.9492715650776652
0.23291,-0.921143,0.02002,0.679016,1.304626,-0.106812,0.9503432511198256
0.234619,-0.923584,0.018799,0.63324,1.174927,-0.053406,0.9531038152363046
0.235352,-0.927002,0.019775,0.617981,1.12915,0.114441,0.9566160789642834
0.235596,-0.929443,0.019287,0.511169,1.495361,0.221252,0.9590316750942067
0.235107,-0.931641,0.017822,0.320435,2.189636,0.190735,0.9610139842967949
0.23877,-0.926025,0.015381,0.221252,2.807617,0.061035,0.9564360870889388
0.237549,-0.924561,0.015869,0.434875,3.036499,-0.045776,0.9547221560658368
0.235596,-0.930664,0.014893,0.450134,3.738403,-0.015259,0.9601368431432054
0.23584,-0.930908,0.019287,0.205994,4.608154,-0.25177,0.9605114254567719
0.238525,-0.928467,0.020996,-0.083923,5.088806,-0.732422,0.9588461700033014
0.241455,-0.930908,0.018066,-0.091553,5.317688,-0.854492,0.9618818024294877
0.243408,-0.935547,0.015869,-0.328064,5.279541,-0.938415,0.9668233907151813
0.240967,-0.93335,0.014893,-0.671387,5.149841,-0.999451,0.9640690426717373
0.24292,-0.931641,0.012207,-0.732422,4.760742,-0.961304,0.9628676389462885
0.245117,-0.927979,0.010498,-1.014709,4.379272,-0.762939,0.9598633111719606
0.245361,-0.926758,0.01123,-1.205444,3.593445,-0.656128,0.9587536303894759
0.242188,-0.925293,0.012207,-1.113892,2.975464,-0.579834,0.9565412557971559
0.238281,-0.923584,0.010742,-1.121521,2.746582,-0.671387,0.9538871162674334
0.238037,-0.925537,0.012207,-0.907898,2.830505,-0.75531,0.955734985540971
0.238525,-0.924805,0.015137,-0.846863,2.815246,-0.87738,0.9551898200980787
0.238525,-0.922852,0.017578,-1.022339,2.593994,-1.00708,0.9533409545451197
0.239502,-0.922363,0.015869,-1.190186,2.311707,-0.938415,0.9530826495818713
0.240723,-0.922607,0.015381,-1.121521,2.037048,-1.029968,0.9536182749606888
0.240723,-0.925293,0.01416,-1.022339,1.708984,-0.88501,0.9561983079769594
0.240479,-0.924805,0.014648,-0.961304,1.38855,-0.839233,0.9556720155837984
0.241699,-0.927246,0.014893,-0.946045,1.289368,-0.968933,0.9583451114113328
0.242188,-0.92627,0.018555,-0.930786,1.251221,-0.785828,0.9575883396684611
0.241455,-0.929199,0.020264,-0.984192,0.87738,-0.686645,0.9602717991912498
0.236816,-0.928467,0.019287,-1.152039,1.121521,-0.938415,0.9583865484834395
0.239258,-0.924072,0.016113,-1.281738,1.609802,-0.892639,0.954679569550433
0.240723,-0.920898,0.017578,-1.220703,1.76239,-0.762939,0.9520029806765313
0.241211,-0.920898,0.013916,-1.068115,1.808166,-0.976562,0.9520659262787425
0.241943,-0.924561,0.014404,-0.770569,1.586914,-0.999451,0.9558017227364679
0.243408,-0.92627,0.015625,-0.602722,1.38092,-1.00708,0.9578453465925489
0.246826,-0.92627,0.013916,-0.648498,0.808716,-0.946045,0.9586932993569945
0.245117,-0.924316,0.015625,-0.572205,0.228882,-0.831604,0.9563924676459973
0.243896,-0.923584,0.014648,-0.343323,-0.053406,-0.709534,0.9553571205449823
0.245117,-0.924316,0.014893,-0.297546,-0.465393,-0.572205,0.956380788699773
0.246094,-0.924072,0.01416,-0.328064,-1.068115,-0.50354,0.9563847675595842
0.244629,-0.924316,0.016357,-0.427246,-1.670837,-0.587463,0.9562797534958063
0.24292,-0.925537,0.013916,-0.320435,-2.250671,-0.518799,0.956986164907832
0.242188,-0.925293,0.013428,-0.236511,-2.716064,-0.572205,0.9565576168621522
0.239502,-0.925049,0.012207,-0.289917,-2.944946,-0.610352,0.955628521578338
0.238525,-0.924316,0.014648,-0.144958,-3.128052,-0.709534,0.9547087552678042
0.238037,-0.926758,0.015381,-0.068665,-3.425598,-0.75531,0.956963206760845
0.236572,-0.928711,0.016357,-0.091553,-3.700256,-0.671387,0.9585082076612593
0.236328,-0.926758,0.018311,-0.167847,-3.852844,-0.556946,0.9565911388200289
0.234863,-0.922607,0.017822,-0.015259,-3.875732,-0.457764,0.9521984713818857
0.233154,-0.924072,0.017822,0.305176,-3.715515,-0.419617,0.9531985483539094
0.234131,-0.927734,0.017822,0.457764,-3.440857,-0.259399,0.9569876298056312
0.236572,-0.928711,0.016357,0.442505,-3.14331,-0.053406,0.9585082076612593
0.234863,-0.929199,0.015625,0.389099,-2.960205,-0.045776,0.9585486690799795
0.233643,-0.927979,0.01416,0.160217,-2.868652,0.12207,0.9570447123776401
0.234619,-0.926514,0.016846,-0.068665,-2.76947,0.289917,0.955906928039022
0.235352,-0.926025,0.013916,-0.366211,-2.357483,0.228882,0.9555660728515847
0.234619,-0.929199,0.012451,-0.396728,-1.983642,0.053406,0.9584424261075885
0.234863,-0.927246,0.013428,-0.480652,-1.800537,-0.091553,0.9566222266229235
0.235596,-0.926758,0.009766,-0.732422,-1.480102,-0.297546,0.9562851251253467
0.238037,-0.926025,0.01001,-0.846863,-1.365662,-0.480652,0.9561820507068725
0.23999,-0.924072,0.012207,-0.953674,-1.533508,-0.587463,0.9548053582448099
0.238281,-0.925781,0.009766,-1.098633,-1.693725,-0.495911,0.9560040113294503
0.236816,-0.925293,0.012451,-1.426697,-1.754761,-0.602722,0.9551983988188004
0.235107,-0.924072,0.011719,-1.602173,-1.518249,-0.640869,0.9535836080774459
0.235596,-0.922852,0.012695,-1.64032,-1.190186,-0.526428,0.9525347511482193
0.235107,-0.923584,0.013428,-1.655578,-0.984192,-0.450134,0.9531332633420155
0.234863,-0.920898,0.011719,-1.670837,-0.63324,-0.549316,0.9504478366191381
0.234375,-0.92041,0.012695,-1.51062,-0.137329,-0.686645,0.9498670284571414
0.239014,-0.923584,0.014404,-1.243591,0.015259,-0.732422,0.9541187412832849
0.239258,-0.925537,0.012939,-0.87738,0.068665,-0.701904,0.9560494478080097
0.240723,-0.92749,0.013916,-0.778198,-0.282288,-0.602722,0.958320884612769
0.240723,-0.92627,0.012451,-0.770569,-0.869751,-0.541687,0.9571200045083167
0.240234,-0.925781,0.009033,-0.541687,-1.373291,-0.663757,0.9564854571847916
0.23877,-0.926514,0.01123,-0.457764,-1.63269,-0.679016,0.9568518265625038
0.239746,-0.93042,0.011719,-0.282288,-1.876831,-0.686645,0.9608833726717306
0.239258,-0.929932,0.011719,-0.389099,-2.235413,-0.717163,0.9602891492404774
0.240723,-0.927246,0.010254,-0.579834,-2.738952,-0.717163,0.9580385439850528
0.238037,-0.925781,0.009277,-0.62561,-3.257751,-0.694275,0.9559383536918058
0.236328,-0.923096,0.008057,-0.778198,-3.662109,-0.747681,0.9529019173288509
0.234619,-0.925293,0.007813,-1.075745,-3.807068,-0.823975,0.9546068583343617
0.233154,-0.924805,0.008057,-1.083374,-3.707886,-0.732422,0.9537766987036327
0.230469,-0.924561,0.00415,-0.976562,-3.356933,-0.663757,0.9528621228603853
0.231934,-0.921387,0.005615,-1.022339,-3.074646,-0.701904,0.950146784633827
0.232666,-0.921875,0.007324,-1.205444,-2.883911,-0.617981,0.9508105090694992
0.22998,-0.917236,0.009033,-1.068115,-2.601623,-0.495911,0.9456713357107744
0.229736,-0.917236,0.006104,-0.648498,-2.197266,-0.671387,0.9455885829513807
0.229492,-0.922607,0.005859,0.312805,-1.304626,-0.808716,0.9507389664855438
0.232666,-0.935791,0.010254,1.00708,-0.465393,-0.839233,0.9643357339396897
0.237549,-0.938965,0.012939,0.747681,0.083923,-0.671387,0.9686342015162381
0.239746,-0.937744,0.007813,0.076294,0.267029,-0.289917,0.9679374964433396
0.240234,-0.934326,0.004883,-0.434875,-0.137329,0.099182,0.9647286109165624
0.240723,-0.927979,0.000732,-0.869751,-0.671387,0.175476,0.9586934457865037
0.239014,-0.922607,0.000732,-1.281738,-1.083374,0.1297,0.9530644807509091
0.23877,-0.922119,0.005859,-1.281738,-1.029968,-0.12207,0.9525486291743851
0.23877,-0.925293,0.005615,-1.411438,-0.869751,-0.312805,0.9556201007586644
0.237549,-0.925049,0.005615,-1.365662,-0.88501,-0.556946,0.9550794249835979
0.239502,-0.927002,0.005127,-1.457214,-0.862122,-0.831604,0.9574550653357055
0.237061,-0.925049,0.003906,-1.731872,-0.961304,-0.869751,0.954949646294505
0.237793,-0.921143,0.004395,-1.953125,-1.106262,-0.862122,0.9513512775641814
0.237061,-0.919434,0.003418,-1.953125,-1.174927,-0.88501,0.9495096001626313
0.235107,-0.922119,0.001221,-1.731872,-0.953674,-0.801086,0.9516197993164076
0.23291,-0.920654,0.002686,-1.586914,-0.526428,-0.831604,0.9496620822229347
0.233154,-0.918701,0.002686,-1.190186,0.045776,-0.915527,0.9478288504329249
0.236328,-0.919922,0.000732,-0.907898,0.610352,-0.88501,0.9497936331077399
0.237305,-0.925537,0.003418,-0.587463,1.220703,-0.88501,0.955481074704256
0.237061,-0.92627,0.003906,-0.62561,1.564026,-0.88501,0.9561324633422924
0.240234,-0.922852,0.003662,-0.648498,1.647949,-0.862122,0.9536150160856319
0.243408,-0.920654,-0.000244,-0.511169,1.64032,-0.854492,0.9522874049970419
0.243896,-0.922607,-0.003174,-0.350952,1.182556,-0.930786,0.9543055116371276
0.246582,-0.926025,0.0,-0.198364,0.709534,-1.014709,0.9582927440761513
0.24707,-0.928711,-0.000732,-0.167847,0.175476,-1.037598,0.9610141738002618
0.246094,-0.928955,-0.001221,-0.267029,-0.511169,-0.869751,0.9610000726857413
0.248291,-0.928467,0.000244,-0.236511,-1.480102,-0.671387,0.9610928416682751
0.247803,-0.932861,0.000732,-0.37384,-2.571106,-0.602722,0.9652131930066021
0.24707,-0.929688,0.000488,-0.465393,-3.822326,-0.50354,0.9619582113522395
0.24707,-0.927734,0.0,-0.62561,-5.142211,-0.541687,0.9600697681189633
0.242432,-0.926758,-0.001709,-0.778198,-6.561279,-0.427246,0.9579439367045443
0.241211,-0.926758,-0.002686,-0.785828,-7.705688,-0.305176,0.9576379021744074
0.236328,-0.925049,-0.005127,-0.801086,-8.430481,-0.289917,0.9547737229909504
0.231689,-0.924805,-0.003906,-0.663757,-8.773804,-0.1297,0.9533935900676068
0.22583,-0.924316,-0.002686,-0.62561,-8.613586,0.015259,0.9515074730930914
0.22583,-0.926025,-0.001953,-0.541687,-8.110046,0.038147,0.9531659371452591
0.227295,-0.928711,-0.002441,-0.518799,-7.469177,0.144958,0.9561239966798238
0.225342,-0.92749,-0.002197,-0.617981,-6.774902,0.198364,0.9544744857108545
0.222412,-0.929688,-0.002197,-0.816345,-5.973815,0.38147,0.9559245273017112
0.225098,-0.928711,-0.001709,-0.831604,-5.218505,0.534058,0.9556025072204446
0.223389,-0.929688,-0.003662,-0.831604,-4.508972,0.541687,0.9561568035155112
0.2229,-0.929199,-0.003418,-0.75531,-3.845215,0.579834,0.9555662584692911
0.221436,-0.927246,-0.004639,-0.762939,-3.14331,0.640869,0.9533312996713158
0.2229,-0.930908,-0.002441,-0.808716,-2.586365,0.663757,0.9572251944788123
0.2229,-0.928955,-0.005371,-0.946045,-2.075195,0.747681,0.9553379766689901
0.223633,-0.927979,-0.007568,-1.098633,-1.708984,0.808716,0.9545753075341935
0.223145,-0.928223,-0.010986,-1.213074,-1.358032,0.770569,0.9547315439169275
0.223877,-0.927246,-0.009766,-1.152039,-0.900268,0.801086,0.9539399511504904
0.224609,-0.925537,-0.011475,-1.205444,-0.38147,0.75531,0.952470270861511
0.226074,-0.927246,-0.014404,-1.220703,0.236511,0.656128,0.9545166699476757
0.225342,-0.92749,-0.011475,-1.113892,0.701904,0.511169,0.9545409329562563
0.226318,-0.92749,-0.011963,-1.235962,1.296997,0.434875,0.9547778016863401
0.226563,-0.925293,-0.012939,-1.335144,2.044678,0.38147,0.9527147246363941
0.226563,-0.925537,-0.011963,-1.441955,2.525329,0.198364,0.9529389511962454
0.22876,-0.924805,-0.012451,-1.426697,3.120422,0.137329,0.9527593888416949
0.228271,-0.924316,-0.011963,-1.541138,3.570556,0.152588,0.9521611369227375
0.231689,-0.921387,-0.012695,-1.602173,3.875732,0.022888,0.9501552291678449
0.230225,-0.921631,-0.011719,-1.541138,4.173279,-0.068665,0.9500234658928167
0.233398,-0.923828,-0.011719,-1.647949,4.394531,-0.114441,0.9529271404199798
0.23291,-0.923096,-0.009277,-1.556396,4.478455,-0.228882,0.9520710877056399
0.236084,-0.924072,-0.009277,-1.556396,4.592896,-0.358582,0.9537980808163748
0.237549,-0.926758,-0.009033,-1.617432,4.623413,-0.442505,0.9567609487505225
0.237549,-0.92627,-0.007813,-1.564026,4.302979,-0.495911,0.9562775137322848
0.237793,-0.92749,-0.008789,-1.663208,3.723144,-0.534058,0.9575283063544389
0.238525,-0.927979,-0.007813,-1.716614,3.089905,-0.556946,0.9581754761185448
0.237305,-0.930176,-0.009766,-1.63269,2.685547,-0.595093,0.9600189731234482
0.238037,-0.926758,-0.008301,-1.51062,2.342224,-0.610352,0.9568755982540259
0.238037,-0.92334,-0.009033,-1.350403,2.01416,-0.671387,0.9535722122933323
0.240967,-0.922363,-0.010254,-1.190186,1.464844,-0.610352,0.9533749227738267
0.239258,-0.922363,-0.009277,-1.182556,0.709534,-0.556946,0.9529343928424454
0.237549,-0.921143,-0.009277,-0.915527,-0.076294,-0.62561,0.9513253999442042
0.238281,-0.924072,-0.009277,-0.747681,-0.709534,-0.511169,0.9543442559548415
0.235352,-0.924805,-0.01001,-0.480652,-1.266479,-0.442505,0.9543348741552935
0.234863,-0.922607,-0.011475,-0.244141,-1.586914,-0.541687,0.9521008249355737
0.234619,-0.921143,-0.01123,-0.198364,-1.953125,-0.526428,0.9506190690860351
0.231934,-0.921631,-0.013672,-0.068665,-2.433777,-0.541687,0.9504651514395465
0.231201,-0.919922,-0.014893,0.190735,-2.571106,-0.534058,0.9486475583344955
0.230713,-0.922363,-0.011963,0.465393,-2.540588,-0.549316,0.9508549339972948
0.229004,-0.927246,-0.009766,0.801086,-2.388,-0.457764,0.9551561920900686
0.227783,-0.93335,-0.009766,0.75531,-2.037048,-0.427246,0.9607927416175666
0.229736,-0.93457,-0.009033,0.442505,-1.716614,-0.289917,0.9624350937517813
0.231689,-0.932617,-0.012695,0.236511,-1.808166,-0.076294,0.9610491269623006
0.232178,-0.926514,-0.013184,0.25177,-2.311707,0.068665,0.9552531778204142
0.230469,-0.928223,-0.014893,0.297546,-2.861023,0.198364,0.9565227122964723
0.229248,-0.92749,-0.012207,0.350952,-3.456115,0.167847,0.9554796473253631
0.22583,-0.925049,-0.010986,0.343323,-3.715515,-0.015259,0.9522791258328621
0.221191,-0.92334,-0.013672,0.450134,-3.623962,-0.289917,0.949562603341665
0.217529,-0.924805,-0.011719,0.679016,-3.097534,-0.526428,0.9501160396641033
0.217529,-0.926025,-0.012451,0.663757,-2.235413,-0.701904,0.9513128790608272
0.219971,-0.925049,-0.012695,0.740051,-1.51062,-0.686645,0.9509279974146307
0.21875,-0.924805,-0.01123,0.747681,-0.831604,-0.640869,0.9503904268378338
0.219482,-0.924316,-0.012451,0.740051,-0.228882,-0.549316,0.9500986493943668
0.219727,-0.92627,-0.012451,0.923157,0.495911,-0.549316,0.952056245623125
0.219727,-0.925781,-0.011963,1.075745,1.327515,-0.595093,0.9515742366515605
0.223389,-0.925049,-0.012939,1.289368,2.037048,-0.701904,0.9517277527964602
0.223633,-0.926758,-0.010498,1.472473,2.63977,-0.740051,0.9534161301640537
0.22583,-0.928955,-0.010986,1.419067,3.303528,-0.854492,0.9560738847604823
0.229248,-0.928955,-0.012939,1.556396,3.807068,-0.938415,0.9569114145259215
0.22998,-0.925293,-0.015137,1.327515,3.890991,-1.174927,0.9535654487333317
0.233643,-0.925293,-0.014893,1.556396,3.875732,-1.289368,0.9544516691519797
0.235107,-0.928223,-0.013184,1.998901,3.77655,-1.274109,0.957625739542333
0.238037,-0.929443,-0.011719,2.243042,3.486633,-1.396179,0.9595119793827485
0.236572,-0.929443,-0.01001,1.930237,2.906799,-1.449585,0.9591302317897189
0.236084,-0.926025,-0.01001,1.38092,2.220154,-1.304626,0.9556977324347903
0.233887,-0.921875,-0.009277,1.197815,1.609802,-1.213074,0.951127072016668
0.234619,-0.923584,-0.009521,1.38855,1.304626,-1.197815,0.9529659645853046
0.236084,-0.924072,-0.009277,1.571655,1.243591,-1.319885,0.9537980808163748
0.23584,-0.924072,-0.006836,1.708984,1.075745,-1.396179,0.9537170952017165
0.235107,-0.923584,-0.006104,1.831055,0.915527,-1.464844,0.9530582171730119
0.235107,-0.924072,-0.004883,2.059937,0.587463,-1.533508,0.9535240984484871
0.233154,-0.926514,-0.003662,2.243042,0.183105,-1.556396,0.9554069238581014
0.235107,-0.927979,-0.002686,2.197266,0.106812,-1.571655,0.9573022200360762
0.233887,-0.928711,-0.002686,1.876831,0.427246,-1.739502,0.957713143319021
0.231934,-0.930176,-0.001953,1.663208,0.984192,-1.655578,0.9586576998809324
0.231445,-0.928711,-0.001709,1.350403,1.525879,-1.556396,0.9571174589500496
0.230225,-0.927979,0.000244,1.159668,2.098083,-1.594543,0.9561112040981427
0.233398,-0.929443,0.001221,1.083374,2.662658,-1.541138,0.9583007917632126
0.236572,-0.928223,-0.001953,1.083374,3.028869,-1.602173,0.9578977310349994
0.239258,-0.929199,-0.001709,1.052856,3.097534,-1.655578,0.9595092979466119
0.241943,-0.925781,0.000488,1.159668,2.677917,-1.602173,0.956873614096449
0.240479,-0.924805,-0.001953,1.289368,1.89209,-1.533508,0.9555617466574308
0.243164,-0.925049,-0.000488,1.335144,1.00708,-1.411438,0.95647510236336
0.241211,-0.924072,0.00415,1.434326,0.160217,-1.441955,0.9550439938583981
0.23999,-0.923828,0.001465,1.747131,-0.328064,-1.502991,0.9544922838394242
0.239258,-0.922607,0.000977,1.899719,-0.671387,-1.502991,0.9531259211363418
0.239258,-0.922852,0.001709,1.922607,-1.098633,-1.457214,0.9533641094298653
0.237305,-0.924316,0.000244,1.838684,-1.281738,-1.502991,0.9542922982068963
0.236328,-0.922363,0.003418,1.876831,-1.235962,-1.533508,0.9521639092493477
0.235596,-0.92334,0.00293,2.029419,-1.029968,-1.586914,0.952927497617736
0.235107,-0.926758,0.003906,1.976013,-0.892639,-1.625061,0.9561228733008116
0.236328,-0.925537,0.005859,1.76239,-0.854492,-1.693725,0.95525074709942
0.234619,-0.924072,0.00708,1.419067,-1.022339,-1.564026,0.9534176748650091
0.235596,-0.925537,0.006836,1.144409,-1.037598,-1.518249,0.9550764076664234
0.233643,-0.922852,0.00708,1.098633,-0.701904,-1.541138,0.9519952687660795
0.234375,-0.925049,0.006592,0.961304,-0.144958,-1.396179,0.9543011827981772
0.234619,-0.925293,0.008057,0.694275,0.450134,-1.396179,0.9546088865388799
0.236328,-0.92627,0.007324,0.595093,1.228333,-1.213074,0.9559710651792763
0.239014,-0.924316,0.009766,0.389099,1.63269,-1.159668,0.9547686289400171
0.242676,-0.924805,0.009521,0.396728,1.991272,-1.235962,0.9561624226259888
0.243164,-0.925781,0.008789,0.549316,2.13623,-1.312256,0.9572232954634984
0.243164,-0.924072,0.005859,0.717163,2.006531,-1.365662,0.9555480730769123
0.246826,-0.925537,0.008545,0.617981,1.274109,-1.373291,0.9579221417578779
0.245117,-0.924316,0.007568,0.617981,0.556946,-1.274109,0.9562947694978782
0.24292,-0.924072,0.005859,0.656128,-0.007629,-1.434326,0.9554860100833502
0.242676,-0.923828,0.008057,0.694275,-0.25177,-1.411438,0.9552040252265481
0.239258,-0.921387,0.008301,0.869751,-0.282288,-1.312256,0.9519807250853348
0.242676,-0.924561,0.007568,1.121521,-0.137329,-1.403808,0.9559089696833061
0.244629,-0.924316,0.006104,1.045227,-0.366211,-1.266479,0.9561593352119719
0.243652,-0.922607,0.007568,0.869751,-0.801086,-1.205444,0.9542679121593683
0.241455,-0.923584,0.01001,0.892639,-1.014709,-1.113892,0.9546769726881443
0.243652,-0.926758,0.010986,0.88501,-1.029968,-1.037598,0.958314864678619
0.23999,-0.92334,0.01001,0.793457,-0.984192,-1.022339,0.95407135781345
0.23877,-0.923828,0.01001,0.862122,-1.037598,-1.113892,0.9542376468071253
0.236816,-0.923828,0.008057,1.12915,-0.686645,-1.235962,0.9537320937710967
0.237549,-0.922119,0.008789,1.068115,-0.396728,-1.197815,0.9522658368769722
0.236816,-0.920898,0.010254,1.014709,-0.076294,-1.243591,0.9509153951724622
0.23584,-0.921631,0.009277,1.289368,0.282288,-1.205444,0.9513728335883888
0.235596,-0.926514,0.00708,1.419067,0.869751,-1.205444,0.9560249964368086
0.239746,-0.930176,0.009521,1.296997,1.525879,-1.022339,0.9606228109580783
0.241455,-0.931396,0.010498,1.159668,1.983642,-0.823975,0.9622417751506115
0.24292,-0.928711,0.006836,0.862122,1.899719,-0.480652,0.9599796762520548
0.242432,-0.929443,0.005615,0.732422,1.914978,-0.259399,0.9605566579322637
0.242432,-0.930664,0.007324,0.62561,1.907349,-0.236511,0.9617496537540319
0.243408,-0.929199,0.009277,0.38147,1.754761,-0.213623,0.9605958040684959
0.243896,-0.925781,0.00708,0.007629,1.480102,-0.228882,0.9573953442423876
0.243896,-0.923096,0.009277,0.190735,1.472473,-0.396728,0.9548180699803498
0.241211,-0.923828,0.005615,0.335693,1.724243,-0.610352,0.9548154001324025
0.239746,-0.923584,0.004883,0.267029,2.13623,-0.854492,0.9542061586790351
0.241943,-0.919922,0.005371,0.183105,2.449036,-0.907898,0.9512211882490844
0.24707,-0.919189,0.005127,0.358582,2.27356,-0.923157,0.9518289177945795
0.249023,-0.919434,0.004639,0.564575,1.678467,-0.846863,0.9525717060704668
0.250244,-0.919189,0.004639,0.732422,0.518799,-0.762939,0.9526552354225531
0.247559,-0.918945,0.006348,0.946045,-0.579834,-0.732422,0.9517277281922598
0.24707,-0.917969,0.007813,1.068115,-1.243591,-0.724792,0.9506690869224685
0.247314,-0.921631,0.007813,1.113892,-1.663208,-0.579834,0.9542688078974393
0.246338,-0.923584,0.01123,1.037598,-2.044678,-0.396728,0.955937198878671
0.245117,-0.922119,0.010742,0.892639,-2.464294,-0.282288,0.9542018572681569
0.241943,-0.919922,0.010986,0.732422,-2.174377,-0.358582,0.9512694642050695
0.241211,-0.918701,0.012939,0.709534,-1.586914,-0.228882,0.9499272033387611
0.244141,-0.919189,0.013428,0.907898,-1.113892,-0.099182,0.9511538029078158
0.245605,-0.921875,0.010254,1.014709,-1.029968,-0.205994,0.9540861995469802
0.248047,-0.925049,0.013916,1.12915,-0.762939,-0.358582,0.9578291192410053
0.252441,-0.924072,0.011475,0.900268,-0.701904,-0.274658,0.9580016676864399
0.246582,-0.917969,0.014893,0.785828,-1.464844,-0.1297,0.950626934782515
0.23584,-0.921387,0.009521,1.045227,-1.724243,0.152588,0.9511388746182126
0.240234,-0.925293,0.012451,1.167297,-0.312805,0.602722,0.9560515352249586
0.256104,-0.920654,0.009521,1.228333,0.167847,0.274658,0.9556587759095816
0.259766,-0.916748,0.009766,1.472473,-0.831604,-0.213623,0.9528906784180439
0.256348,-0.916016,0.005371,1.617432,-1.770019,-0.404358,0.9512247142505288
0.253906,-0.916016,0.001709,1.876831,-2.418518,-0.572205,0.9505558846133141
0.256348,-0.917236,0.002197,2.304077,-2.967834,-0.534058,0.9523870030659807
0.262695,-0.918457,0.003906,2.388,-3.669739,-0.396728,0.9552942901064572
0.262451,-0.91626,0.004395,2.540588,-5.310058,-0.205994,0.9531171129646137
0.256104,-0.917236,0.005615,2.624511,-6.965637,-0.053406,0.9523353751368265
0.256592,-0.914307,0.006104,2.876281,-7.759094,0.152588,0.949649410850657
0.257324,-0.915039,0.005859,2.89917,-8.178711,0.442505,0.9505505459353543
0.257324,-0.91748,0.005859,2.738952,-9.017944,0.617981,0.9529005820425339
0.258301,-0.917236,0.008545,2.662658,-9.95636,0.679016,0.9529503152431401
0.255615,-0.918213,0.008301,3.120422,-11.032104,0.602722,0.9531647539617691
0.253906,-0.923828,0.009521,3.456115,-11.894225,0.366211,0.9581320785053593
0.250977,-0.926758,0.009033,3.105163,-12.702941,0.450134,0.9601830243146354
0.245117,-0.924561,0.008789,2.845764,-13.09204,0.572205,0.9565420183823604
0.241943,-0.923584,0.009766,2.716064,-12.878417,0.366211,0.9547979865191379
0.240234,-0.923096,0.010254,2.616882,-12.199401,0.190735,0.9538992318311196
0.234863,-0.923584,0.01123,2.616882,-11.070251,-0.091553,0.9530446719461789
0.231445,-0.920166,0.01001,2.502441,-9.689331,-0.37384,0.9488795791252966
0.229248,-0.916504,0.009521,2.258301,-8.255005,-0.541687,0.9447882709692156
0.231689,-0.915771,0.009521,2.059937,-6.782531,-0.75531,0.9446729416062472
0.229492,-0.909912,0.014404,2.204895,-6.217956,-0.831604,0.9385168624079164
0.224365,-0.914551,0.010986,2.784729,-6.103515,-0.274658,0.9417345045298064
0.230957,-0.918213,0.012207,2.853393,-5.523681,0.228882,0.9468924226473671
0.243408,-0.916504,0.015137,2.563476,-5.53894,0.267029,0.9483966286575465
0.244873,-0.919434,0.011475,2.27356,-6.629943,0.579834,0.9515531210132201
0.243652,-0.927246,0.011719,2.319336,-7.240295,0.62561,0.9587954821446543
0.242676,-0.925293,0.012207,1.51062,-7.194519,0.953674,0.9566649296770526
0.239746,-0.924316,0.013672,0.984192,-6.996154,1.594543,0.9550000711811492
0.241943,-0.935303,0.016602,1.426697,-5.897521,1.586914,0.9662317234814846
0.248291,-0.942139,0.015869,0.831604,-4.081726,1.739502,0.9744363197064239
0.256592,-0.941162,0.013916,0.38147,-3.364563,1.098633,0.9756121256749529
0.250244,-0.938477,0.013672,0.205994,-3.280639,0.320435,0.9713640216978391
0.245361,-0.940186,0.011963,0.289917,-2.006531,0.175476,0.9717483461709621
0.250488,-0.940918,0.013428,0.053406,-0.25177,0.091553,0.9737819222248891
0.256104,-0.939941,0.010742,-0.083923,0.419617,-0.465393,0.9742657403711782
0.260254,-0.936035,0.01001,-0.488281,0.602722,-0.976562,0.9715934673725425
0.259277,-0.932617,0.007813,-0.488281,0.480652,-1.319885,0.968018633285021
0.257568,-0.931396,0.008789,-0.663757,-0.312805,-1.411438,0.9663938275677262
0.253662,-0.928467,0.009277,-0.709534,-1.403808,-1.091003,0.9625390605383244
0.257324,-0.922852,0.008301,-0.671387,-2.441406,-0.862122,0.9580920422803855
0.252441,-0.919434,0.00415,-0.389099,-3.662109,-0.541687,0.9534686997154128
0.245117,-0.914551,0.001221,0.007629,-4.53186,-0.396728,0.9468301675226661
0.246094,-0.914063,0.001709,0.694275,-4.722595,-0.160217,0.9466130917571339
0.246338,-0.914551,0.002441,1.464844,-4.692078,0.25177,0.9471493548147515
0.248291,-0.916992,0.001465,1.754761,-5.027771,0.511169,0.9500131025254337
0.250732,-0.914063,0.000977,2.01416,-5.302429,0.617981,0.9478283907554151
0.251953,-0.912598,0.004395,2.365112,-5.691528,0.679016,0.9467495655335683
0.253662,-0.909424,0.00293,2.601623,-6.072998,0.480652,0.944142471727652
0.249756,-0.910645,0.005615,2.571106,-6.149292,0.244141,0.9442901586832301
0.247803,-0.913574,0.006592,2.555847,-6.088256,0.091553,0.9466082794635805
0.249512,-0.921875,0.013184,2.586365,-5.874633,-0.076294,0.9551353682201283
0.246582,-0.926514,0.01416,2.14386,-5.500793,-0.160217,0.9588698454534901
0.246338,-0.92749,0.016846,1.869202,-4.936218,-0.274658,0.9597936747343151
0.248047,-0.92627,0.01709,1.876831,-4.295349,-0.213623,0.9590596932459419
0.246582,-0.925049,0.01709,1.89209,-3.784179,-0.091553,0.9575021687834446
0.248291,-0.922852,0.017822,1.945495,-3.440857,-0.175476,0.9558356858105895
0.248291,-0.920654,0.01709,1.998901,-3.128052,-0.274658,0.9537003074850087
0.248291,-0.916748,0.019531,2.01416,-2.967834,-0.37384,0.9499772503307645
0.247314,-0.912598,0.015381,1.899719,-3.005981,-0.450134,0.9456404704542842
0.24707,-0.911133,0.013184,1.89209,-3.059387,-0.427246,0.9441296237514211
0.249512,-0.915039,0.009766,2.189636,-3.288269,-0.259399,0.9484977514053474
0.248047,-0.920654,0.007324,2.388,-3.707886,-0.12207,0.9535117948410496
0.24707,-0.920654,0.006592,2.510071,-3.799438,0.022888,0.9532527613807369
0.248291,-0.923584,0.002441,2.487183,-3.471374,0.350952,0.956379518924365
0.249268,-0.92334,0.001221,2.220154,-3.013611,0.62561,0.9563957247212056
0.253906,-0.922607,0.000732,1.968384,-2.777099,0.701904,0.9569077641596393
0.253418,-0.920898,0.002197,1.701355,-2.609253,0.732422,0.9551327844530308
0.25415,-0.920898,0.001953,1.823425,-2.365112,0.663757,0.9553267310784306
0.255127,-0.919678,0.005127,1.831055,-2.296448,0.724792,0.9544232268454074
0.258301,-0.919922,0.006348,1.998901,-2.922058,0.709534,0.9555188066118846
0.256836,-0.917236,0.006348,2.220154,-4.089355,0.610352,0.9525370899319354
0.255371,-0.914063,0.006104,2.441406,-5.325317,0.656128,0.9490852303276034
0.255859,-0.918213,0.009033,2.738952,-6.576538,0.854492,0.9532368731532577
0.257324,-0.926025,0.011475,2.853393,-7.743835,1.144409,0.9611813654175783
0.257568,-0.928711,0.015625,2.853393,-8.750916,1.434326,0.9638929073138778
0.255127,-0.931396,0.019775,2.6474,-9.635925,1.838684,0.9659085596318111
0.252197,-0.931641,0.02002,2.510071,-9.963989,2.128601,0.9653802774502906
0.253906,-0.935059,0.01709,2.372742,-9.773254,2.456665,0.9690694806963017
0.249268,-0.932129,0.017822,2.227783,-9.44519,2.502441,0.965047476629518
0.248779,-0.928711,0.017334,2.479553,-8.834839,2.26593,0.9616109295957487
0.253418,-0.92749,0.015625,2.693176,-8.18634,2.090454,0.9616145399529897
0.254883,-0.924072,0.017334,2.883911,-8.06427,1.846313,0.958736080696351
0.251221,-0.926758,0.015869,3.036499,-8.338928,1.564026,0.9603354656400023
0.248535,-0.924072,0.013672,3.089905,-8.56781,1.296997,0.9570086890896028
0.246094,-0.924561,0.010986,3.189087,-8.514404,1.106262,0.956815547403469
0.243164,-0.921143,0.010986,2.990722,-8.377075,1.022339,0.9527611713021265
0.243652,-0.921143,0.009521,2.952575,-8.132935,1.075745,0.9528700714126769
0.242432,-0.919678,0.008301,2.89154,-7.835388,1.197815,0.9511308032594675
0.241455,-0.918457,0.009277,2.578735,-7.453918,1.426697,0.9497103982809707
0.241211,-0.917725,0.010742,2.235413,-6.912231,1.64032,0.9489559066205342
0.236328,-0.918945,0.012939,1.846313,-6.118774,1.785278,0.9489353267372862
0.237793,-0.916748,0.010498,1.365662,-5.424499,1.899719,0.9471444527404466
0.236572,-0.916748,0.012451,0.915527,-4.859924,2.006531,0.9468623099949643
0.236816,-0.919678,0.013184,0.419617,-4.486084,2.113342,0.9497701087084179
0.237061,-0.921875,0.014893,-0.083923,-4.333496,2.227783,0.9519838416669686
0.236816,-0.92749,0.016846,-0.190735,-3.814697,2.128601,0.9573940179842363
0.237549,-0.929199,0.018066,-0.556946,-2.914428,2.235413,0.959253193561533
0.241211,-0.93042,0.020752,-1.167297,-2.166748,2.433777,0.9614025007378544
0.240967,-0.937256,0.026611,-1.251221,-1.586914,2.471924,0.9681022931209284
0.240967,-0.944824,0.029541,-1.312256,-1.152039,2.593994,0.9755153288113929
0.241943,-0.950928,0.030273,-1.434326,-0.900268,2.937317,0.9816908530499814
0.242676,-0.956787,0.03125,-1.564026,-0.679016,3.028869,0.9875776257312637
0.247314,-0.965576,0.032227,-1.701355,-0.488281,3.318786,0.9972661660264024
0.249268,-0.967773,0.035645,-2.189636,-0.984192,3.921509,0.9999948406756907
0.244873,-0.962158,0.035156,-2.471924,-1.815796,4.02832,0.9934519351377801
0.240234,-0.949707,0.03125,-1.922607,-2.113342,3.921509,0.9801185250289884
0.235596,-0.937744,0.026611,-0.785828,-1.548767,3.295898,0.967252516188508
0.230713,-0.927246,0.020508,0.541687,-0.930786,2.632141,0.9557375219949251
0.231445,-0.917725,0.014648,1.319885,-0.854492,2.01416,0.9465730439612149
0.230957,-0.911133,0.011719,1.739502,-1.88446,1.586914,0.9400222414916575
0.227295,-0.90918,0.003174,2.365112,-3.669739,1.266479,0.937166668048432
0.222412,-0.909668,0.000977,2.532959,-5.371093,1.281738,0.936463519042253
0.217773,-0.91333,-0.003662,2.456665,-6.202697,1.663208,0.9389409878544018
0.212646,-0.916992,-0.00708,2.189636,-6.355285,2.227783,0.941351568639475
0.209473,-0.921143,-0.005127,1.678467,-6.057739,2.967834,0.944674362045991
0.210449,-0.929199,-0.003174,1.083374,-4.974365,3.669739,0.9527379689494904
0.211182,-0.93457,0.001709,0.37384,-3.189087,4.356384,0.9581345639861867
0.209473,-0.937012,0.002197,-0.488281,-1.296997,4.920959,0.9601433500691446
0.20874,-0.935059,0.006592,-1.13678,0.854492,5.1651,0.958097685805054
0.212891,-0.935303,0.009033,-1.686096,3.013611,4.966736,0.9592684060152299
0.218994,-0.934814,0.01123,-2.151489,4.692078,4.615784,0.9601883666927027
0.225342,-0.935059,0.01709,-2.197266,5.615234,4.188538,0.9619804668209225
0.227539,-0.941895,0.018555,-2.128601,5.584716,3.921509,0.9691668976863582
0.228271,-0.937988,0.015625,-2.159119,5.065917,3.463745,0.965491210840368
0.231445,-0.933105,0.017578,-2.044678,4.142761,3.242492,0.9615408026360608
0.230713,-0.930176,0.016113,-1.602173,2.906799,3.242492,0.9584964830994426
0.229736,-0.925293,0.016846,-0.991821,1.678467,3.39508,0.9535352920899153
0.229248,-0.918945,0.018555,-0.740051,0.640869,3.608703,0.9472902652059716
0.226807,-0.91626,0.01709,-0.205994,-0.015259,3.959656,0.9440687850728886
0.228027,-0.919434,0.018555,0.526428,-0.740051,4.341125,0.947470042328516
0.229492,-0.92334,0.018066,1.00708,-1.64032,4.959106,0.951603758935409
0.231934,-0.927002,0.015381,1.228333,-2.609253,5.516052,0.9557000907821449
0.234619,-0.92749,0.012207,1.251221,-3.585815,6.057739,0.9567825176653262
0.234619,-0.928711,0.008301,1.502991,-4.53186,6.42395,0.9579243724235227
0.237305,-0.929443,0.008301,1.434326,-5.516052,6.652832,0.9592949806368216
0.239014,-0.934814,0.005127,1.304626,-6.385803,6.698608,0.9648995765990366
0.231201,-0.935059,0.004883,1.213074,-7.04956,6.54602,0.9632305433129703
0.227783,-0.933594,0.003662,1.083374,-7.56073,6.16455,0.960987129033995
0.229492,-0.935547,0.000488,0.915527,-7.354736,6.034851,0.9632834501936592
0.226074,-0.936523,0.002197,0.656128,-7.110595,5.66101,0.9634259752643168
0.220215,-0.942627,0.004639,0.648498,-6.622314,4.829407,0.9680195388911321
0.217773,-0.94165,0.006592,0.75531,-5.279541,4.554749,0.9665263868581137
0.224121,-0.940674,0.006592,1.00708,-4.333496,4.066467,0.9670270168826722
0.227051,-0.937256,0.005127,1.13678,-4.577637,2.960205,0.9643792056374919
0.22583,-0.93042,0.006104,1.350403,-5.638122,2.39563,0.9574538234901985
0.223145,-0.93042,0.007568,1.487732,-6.774902,1.968384,0.9568345426713022
0.22168,-0.929199,0.009277,1.670837,-7.858276,1.426697,0.9553213421304897
0.22168,-0.930908,0.009521,1.998901,-8.804321,1.022339,0.9569860899224188
0.218262,-0.933105,0.01123,2.182007,-9.819031,0.984192,0.9583576339597863
0.21582,-0.927246,0.009033,2.120972,-10.932921,0.961304,0.9520740580464316
0.215576,-0.924316,0.008057,2.182007,-11.848449,0.999451,0.9491564649102908
0.212402,-0.932129,0.010498,2.365112,-12.374877,1.319885,0.9560801693629044
0.215332,-0.942871,0.012939,2.426147,-12.794494,1.548767,0.9672336897492767
0.214111,-0.948486,0.016113,2.182007,-13.397216,1.785278,0.9724859080140956
0.209961,-0.953125,0.023193,2.02179,-14.137267,1.785278,0.9762524276000547
0.207031,-0.95166,0.0271,1.792908,-14.465331,1.464844,0.9742961564950361
0.199951,-0.949463,0.029053,1.724243,-14.549254,0.770569,0.9707236824034942
0.191895,-0.938477,0.031494,1.815796,-14.160155,-0.099182,0.9584125638731997
0.186523,-0.925293,0.025635,2.235413,-13.511657,-0.808716,0.9442537363457981
0.181885,-0.91333,0.020508,2.922058,-13.526916,-1.304626,0.931490429467206
0.179199,-0.907227,0.016113,3.684997,-14.442443,-1.838684,0.9248960697824378
0.179199,-0.911133,0.012451,4.447937,-15.998839,-2.075195,0.928671444963718
0.177002,-0.913574,0.005615,4.753113,-18.096924,-2.120972,0.9305797599910499
0.171387,-0.917969,-0.002441,4.730225,-20.530699,-1.785278,0.933834325354878
0.162354,-0.923828,-0.006104,4.516602,-22.544859,-0.999451,0.9380054657175512
0.155762,-0.923828,-0.017578,4.295349,-23.880003,0.267029,0.9370319953512793
0.151367,-0.933594,-0.021484,4.03595,-24.162291,1.602173,0.9460292214202477
0.148926,-0.945068,-0.026855,3.700256,-23.28491,2.792358,0.9571069266936688
0.149658,-0.949707,-0.033203,3.242492,-21.026609,3.547668,0.9619996580155317
0.148682,-0.950928,-0.038818,2.906799,-18.363953,4.104614,0.9632638451805404
0.155762,-0.952637,-0.038818,3.013611,-16.136169,4.524231,0.9660672293049796
0.163574,-0.952148,-0.040527,3.341675,-14.564513,4.333496,0.9669460714584862
0.167969,-0.954346,-0.032471,3.540039,-14.373778,4.089355,0.9695587854885335
0.173584,-0.952637,-0.029297,3.746032,-15.480041,3.807068,0.968765695632334
0.18042,-0.95166,-0.021729,4.013062,-17.791748,3.219604,0.9688551395544125
0.184326,-0.952637,-0.022705,4.447937,-20.530699,2.761841,0.9705714013250133
0.175781,-0.95166,-0.019043,4.257202,-22.90344,2.357483,0.9679454279090325
0.173096,-0.947266,-0.008789,3.936767,-24.932859,2.052307,0.9629913532804956
0.165771,-0.939697,-0.005615,3.936767,-26.092527,2.296448,0.9542232466645318
0.161621,-0.937988,-0.001465,4.257202,-26.458738,2.799988,0.9518114214538509
0.163818,-0.933594,0.002441,4.417419,-26.473997,3.341675,0.9478607769292915
0.162109,-0.935303,0.006348,4.91333,-26.397703,3.967285,0.9492688379979615
0.170654,-0.939209,0.017822,5.249023,-26.43585,4.402161,0.9547533488189501
0.176514,-0.946533,0.023193,5.447387,-26.275633,4.722595,0.9631302235596181
0.177979,-0.95459,0.026611,5.294799,-25.741575,4.768372,0.9714045181395854
0.193848,-0.956543,0.038086,5.081176,-24.810789,4.524231,0.9767303114724146
0.208984,-0.962158,0.03125,5.081176,-24.772642,3.189087,0.9850882659538687
0.19458,-0.959229,0.030518,4.844666,-25.787352,2.319336,0.9792410322106606
0.172363,-0.950195,0.022949,4.577637,-26.527403,2.220154,0.9659742224278037
0.153564,-0.94043,0.016846,4.608154,-26.092527,2.258301,0.9530342463479473
0.143555,-0.941895,0.02124,4.829407,-24.459837,1.747131,0.9530085868710733
0.156738,-0.943848,0.018799,5.004883,-21.591185,0.953674,0.9569583325040856
0.182861,-0.940674,0.022705,4.890442,-18.417358,-0.366211,0.9585516348230804
0.195068,-0.941406,0.012695,4.722595,-17.852783,-2.113342,0.9614873605435487
0.173828,-0.939941,0.008789,4.379272,-19.088745,-2.754211,0.9559197160776631
0.158691,-0.936768,0.000977,3.929138,-20.973204,-2.532959,0.9501147687695419
0.154297,-0.935303,-0.003662,3.52478,-22.90344,-2.14386,0.9479518322478205
0.151855,-0.932861,-0.004395,3.135681,-24.192808,-2.189636,0.9451502009580277
0.149414,-0.938232,-0.010254,2.952575,-24.650572,-1.976013,0.9501099798107585
0.150391,-0.945313,-0.01416,2.975464,-24.513243,-1.831055,0.9573059210356948
0.145996,-0.953125,-0.020508,2.6474,-23.742674,-1.548767,0.9644597843896862
0.143799,-0.957031,-0.026123,2.01416,-22.28546,-1.13678,0.9681264888902689
0.147705,-0.958984,-0.028809,1.586914,-21.026609,-0.534058,0.9707198554485222
0.152588,-0.958984,-0.030518,1.274109,-20.545958,0.152588,0.9715270239802904
0.156006,-0.956299,-0.035645,0.923157,-20.820616,0.419617,0.9695959031792575
0.147217,-0.953125,-0.03833,0.862122,-21.087645,0.442505,0.9651887378197075
0.148682,-0.954346,-0.040527,0.579834,-20.858763,0.595093,0.966708364797264
0.153076,-0.954346,-0.04541,0.213623,-19.851685,0.62561,0.9676107779432803
0.155273,-0.955811,-0.047852,-0.205994,-19.294739,0.473022,0.9695226589172632
0.161621,-0.958496,-0.046631,-0.289917,-18.943787,0.541687,0.9731445832033389
0.165771,-0.96167,-0.045166,-0.37384,-18.585205,0.579834,0.9768977330800804
0.179932,-0.961182,-0.041748,-0.526428,-18.753052,0.549316,0.9787692563888589
0.185059,-0.964111,-0.038818,-0.709534,-19.828796,0.62561,0.9824783411994383
0.187256,-0.95752,-0.037598,-0.823975,-22.300718,0.770569,0.9763825938329709
0.185547,-0.954346,-0.038086,-0.663757,-24.787901,0.953674,0.9729617260308856
0.185303,-0.952393,-0.038574,-0.358582,-26.80969,0.740051,0.971018836961467
0.185547,-0.951416,-0.037354,0.030518,-28.434752,0.610352,0.9700594907432224
0.187988,-0.948242,-0.035645,0.1297,-29.891966,0.419617,0.9673535779294973
0.186035,-0.943848,-0.03418,0.160217,-31.166075,0.259399,0.9626143260563911
0.182129,-0.937988,-0.032959,0.465393,-31.967161,-0.350952,0.9560746605082681
0.182861,-0.934814,-0.030762,0.732422,-32.615662,-0.587463,0.9530276284352936
0.183594,-0.931641,-0.028076,0.839233,-33.302307,-0.656128,0.9499736688419317
0.179688,-0.930664,-0.024902,1.289368,-34.27124,-1.037598,0.94817897458444
0.179443,-0.934814,-0.022705,1.609802,-35.140991,-1.38092,0.9521515225372483
0.178467,-0.936768,-0.023193,1.808166,-35.934448,-1.411438,0.9538986692316958
0.174805,-0.933105,-0.019287,1.998901,-36.155701,-1.495361,0.9495334209068156
0.17334,-0.930664,-0.013428,2.456665,-36.04126,-1.655578,0.9467642513741212
0.171143,-0.927979,-0.009277,3.15094,-35.720825,-1.876831,0.9436742094700904
0.172607,-0.930908,-0.006592,3.807068,-35.53009,-2.044678,0.9467979379872983
0.172119,-0.931396,-0.00415,4.592896,-35.690308,-2.189636,0.9471751060268634
0.171387,-0.926758,-0.000977,5.378723,-36.262512,-2.212524,0.942472731097298
0.168945,-0.926025,0.000488,6.301879,-37.078857,-2.182007,0.941310231429575
0.165527,-0.93042,0.000244,7.255554,-38.017273,-2.174377,0.9450294300523133
0.165039,-0.936035,-0.000244,7.949829,-39.207458,-2.098083,0.9504732780473104
0.164795,-0.938232,-0.005371,8.598328,-40.840145,-1.976013,0.9526098495659174
0.163086,-0.938232,-0.010254,8.827209,-42.984005,-1.747131,0.9523557495684057
0.150635,-0.940186,-0.017822,8.804321,-45.089718,-1.449585,0.9523435522462469
0.137939,-0.941162,-0.015137,8.804321,-45.547482,-1.266479,0.9513370626302752
0.167236,-0.94043,-0.017578,8.544922,-42.655941,-1.487732,0.9553457231180762
0.188477,-0.942627,-0.02417,8.758545,-39.672852,-3.456115,0.9615890128105666
0.1875,-0.949951,-0.036621,8.81958,-41.572567,-4.478455,0.9689707168134649
0.157227,-0.948242,-0.039795,7.781982,-43.769833,-3.738403,0.9620118825243273
0.137207,-0.944824,-0.043457,7.164001,-43.945309,-3.578186,0.9557231098356888
0.141846,-0.947021,-0.043701,6.858825,-41.831966,-3.593445,0.9585816812134478
0.136719,-0.947998,-0.043945,6.446838,-39.428711,-4.470825,0.9588135668574992
0.14624,-0.94873,-0.039795,6.004333,-36.315918,-4.798889,0.9607592791771516
0.166992,-0.94873,-0.032715,5.607605,-32.646179,-5.722045,0.9638699145574573
0.175293,-0.957764,-0.033936,5.615234,-32.12738,-7.362365,0.9742644238814224
0.16333,-0.964111,-0.03418,5.119323,-33.103943,-7.43103,0.9784451858029657
0.154053,-0.962158,-0.032715,4.295349,-33.790588,-7.034301,0.9749618530988788
0.142334,-0.959717,-0.030029,3.936767,-33.27179,-7.156372,0.9706788493039292
0.146729,-0.951172,-0.030518,3.829956,-31.799314,-7.545471,0.9629064966802332
0.154297,-0.949219,-0.032471,4.058838,-31.494139,-8.056641,0.9622258778535319
0.154785,-0.95166,-0.032715,4.28009,-31.944273,-8.224487,0.9647203859409211
0.148438,-0.951172,-0.035156,4.15802,-32.165527,-8.18634,0.9633265063123718
0.143799,-0.948975,-0.036377,4.371643,-32.119751,-8.140564,0.9604972613990109
0.145508,-0.947021,-0.035645,4.463196,-31.753538,-7.93457,0.9587971206308454
0.152588,-0.946045,-0.040039,4.417419,-31.944273,-7.8125,0.9591075858786645
0.14624,-0.945313,-0.044678,4.447937,-32.928467,-7.728576,0.9576006105120234
0.138428,-0.945313,-0.042725,4.524231,-33.210754,-7.415771,0.9563495201954147
0.140137,-0.942871,-0.043213,4.600525,-31.990049,-7.202148,0.954207244145107
0.146484,-0.943359,-0.040039,4.798889,-30.09796,-7.331848,0.9555034728654835
0.153564,-0.939697,-0.040527,5.073547,-28.32794,-7.339477,0.9530240246887798
0.158203,-0.939697,-0.04126,5.233764,-27.107237,-7.286071,0.9538139381546067
0.163086,-0.942139,-0.043701,5.41687,-26.657103,-7.255554,0.9571482205583417
0.167236,-0.944092,-0.044678,5.622863,-26.870726,-7.400512,0.9598300411239482
0.170898,-0.943115,-0.047852,5.424499,-27.214048,-7.453918,0.9596675692827178
0.171875,-0.941162,-0.050049,5.126953,-28.068541,-7.629394,0.9580354003219297
0.171631,-0.942627,-0.050049,5.012512,-28.884886,-7.598876,0.9594309582721416
0.169678,-0.937256,-0.054443,5.020141,-29.426573,-7.583618,0.9540458445321167
0.168457,-0.937988,-0.053955,5.149841,-29.541014,-7.621765,0.9545210270172156
0.165283,-0.939453,-0.054932,5.310058,-29.090879,-7.690429,0.9554621572422426
0.166748,-0.936035,-0.05957,5.477905,-28.320311,-7.858276,0.9526358179435622
0.171387,-0.932617,-0.058838,5.638122,-27.870176,-7.873535,0.9500578312408146
0.168945,-0.932373,-0.055908,5.859375,-27.8244,-7.789611,0.9492036286371855
0.168945,-0.928955,-0.056396,5.989074,-27.877806,-7.438659,0.9458754219589385
0.168701,-0.930908,-0.055908,6.004333,-28.144835,-7.186889,0.9477211806902913
0.169922,-0.932617,-0.052979,6.072998,-28.480528,-6.759643,0.9494496980956917
0.170898,-0.931152,-0.055176,5.767822,-28.182981,-6.492614,0.9483114280045347
0.165771,-0.932373,-0.055664,5.66101,-27.57263,-6.263732,0.9486294937782611
0.164551,-0.931641,-0.053711,5.691528,-26.885984,-5.722045,0.9475847487180237
0.162598,-0.927002,-0.052979,5.706787,-25.711058,-5.348205,0.9426439370456906
0.165283,-0.925293,-0.048828,5.706787,-24.528502,-5.249023,0.9412065551843549
0.168457,-0.926514,-0.044189,5.760192,-23.330687,-5.012512,0.9427399539459436
0.171143,-0.927246,-0.04126,6.034851,-22.5296,-4.859924,0.9438100754733444
0.173584,-0.929443,-0.042236,6.42395,-22.018431,-4.91333,0.9464563249305273
0.174561,-0.934326,-0.039063,6.660461,-21.682737,-4.890442,0.9512951881335256
0.175781,-0.931396,-0.036865,6.958007,-21.430967,-4.753113,0.9485549520201768
0.175537,-0.931396,-0.030762,7.164001,-21.057127,-4.837036,0.9482921742949268
0.177246,-0.934082,-0.027588,7.354736,-20.706175,-4.936218,0.9511500538737302
0.179932,-0.936523,-0.027832,7.698059,-20.675657,-4.928589,0.9540573747825651
0.181396,-0.937012,-0.028076,7.774353,-21.171568,-5.203247,0.9548215847664945
0.182129,-0.936768,-0.027344,7.797241,-21.942137,-5.470275,0.9547004518701141
0.176758,-0.938477,-0.031738,7.835388,-22.78137,-5.485534,0.9555049820576552
0.174805,-0.937988,-0.0354,7.904052,-23.16284,-5.615234,0.9547939234038935
0.170898,-0.935791,-0.036865,8.033752,-23.16284,-5.523681,0.9519821165914831
0.167236,-0.938477,-0.039551,7.919311,-22.3999,-5.477905,0.9540813596470691
0.167725,-0.941162,-0.040771,8.087158,-20.973204,-5.569458,0.9568593733198207
0.169434,-0.942139,-0.043457,8.102417,-19.744873,-5.615234,0.9582391593574121
0.169189,-0.943604,-0.044678,7.820129,-18.684387,-5.584716,0.9596924248013006
0.169434,-0.940186,-0.049072,7.453918,-18.013,-5.477905,0.9565906418818867
0.168213,-0.936279,-0.051514,7.369995,-17.814636,-5.393981,0.9526634617775576
0.16333,-0.935791,-0.059082,7.17926,-17.547607,-5.187988,0.9517731700909624
0.161621,-0.942139,-0.059814,7.026672,-17.044067,-4.776001,0.9577708272640172
0.162354,-0.944092,-0.061035,6.515502,-16.143799,-4.417419,0.9598925965987029
0.164307,-0.941162,-0.062256,6.034851,-15.289306,-4.249573,0.9574228480817658
0.162598,-0.939941,-0.066406,5.760192,-14.625548,-3.852844,0.9562096788471658
0.163086,-0.938721,-0.067627,5.714416,-14.122008,-3.65448,0.9551793393735022
0.160156,-0.938477,-0.065918,5.706787,-13.542174,-3.532409,0.9543239526434406
0.158691,-0.943115,-0.066162,5.722045,-12.542724,-3.27301,0.9586585142531203
0.155762,-0.945801,-0.06543,5.722045,-11.535644,-2.883911,0.960771782029947
0.158936,-0.946533,-0.058594,5.439758,-10.57434,-2.76947,0.9615709173123946
0.163818,-0.945557,-0.05542,4.852295,-9.742737,-2.525329,0.9612417769598863
0.168945,-0.942383,-0.056641,4.020691,-9.590149,-2.197266,0.9590809843777531
0.167725,-0.942871,-0.056885,3.219604,-9.567261,-1.861572,0.9593608817806779
0.161133,-0.944824,-0.052734,2.76947,-9.19342,-1.708984,0.9599151574076742
0.158447,-0.942871,-0.050049,2.281189,-8.056641,-1.289368,0.9574006877222305
0.157959,-0.936523,-0.046143,1.998901,-6.629943,-0.839233,0.9508709437452593
0.156738,-0.934814,-0.044678,1.861572,-5.0354,-0.511169,0.9489152432772908
0.157959,-0.932373,-0.042236,2.082825,-4.325867,-0.114441,0.94660146656658
0.15918,-0.93457,-0.042725,2.098083,-3.555298,0.328064,0.9489914556649074
0.167236,-0.933838,-0.046387,2.113342,-2.479553,0.183105,0.9498279021533321
0.175293,-0.932373,-0.044189,2.380371,-2.243042,-0.083923,0.9497366554466559
0.173828,-0.93457,-0.043701,2.174377,-2.212524,0.198364,0.9516023517651687
0.171875,-0.936768,-0.040771,2.365112,-1.548767,0.236511,0.9532772817444041
0.173828,-0.940186,-0.04248,2.426147,-0.457764,0.160217,0.9570634454308659
0.173096,-0.942627,-0.042969,2.197266,0.747681,0.63324,0.9593509375124413
0.181885,-0.945313,-0.04126,2.174377,1.686096,0.930786,0.9635357849057812
0.186523,-0.951172,-0.039307,2.540588,1.655578,0.976562,0.9700845547487086
0.186523,-0.952393,-0.041016,2.609253,1.304626,0.968933,0.9713524428517181
0.186035,-0.947266,-0.043945,2.319336,1.495361,1.052856,0.9663607292341716
0.188965,-0.947998,-0.042236,2.777099,1.808166,0.999451,0.9675700795937212
0.189453,-0.949463,-0.041992,3.14331,1.747131,0.87738,0.9690901689946091
0.1875,-0.949707,-0.048096,2.616882,1.64032,0.854492,0.9692331304000085
0.186035,-0.94873,-0.052246,1.869202,1.998901,0.900268,0.9682082826752723
0.187988,-0.951172,-0.053223,1.655578,2.708435,0.701904,0.9710305605165062
0.188477,-0.94873,-0.053711,0.801086,3.471374,0.640869,0.9687605813357602
0.185547,-0.94873,-0.055176,0.572205,4.447937,0.427246,0.9682771778189342
0.185303,-0.949707,-0.057129,-0.183105,5.455017,0.328064,0.9693009389756104
0.188477,-0.946533,-0.058594,-0.88501,6.477355,0.198364,0.9668927326513526
0.187012,-0.943604,-0.05957,-1.411438,7.591247,-0.007629,0.9638000735941038
0.186279,-0.940674,-0.059082,-1.670837,9.025574,-0.37384,0.9607591388277293
0.188232,-0.939941,-0.061523,-2.227783,10.627746,-0.747681,0.9605755820517197
0.188965,-0.939209,-0.058838,-2.990722,12.275695,-0.88501,0.9598349999609308
0.19165,-0.938232,-0.059082,-3.341675,14.09912,-1.13678,0.9594267512676514
0.195068,-0.938721,-0.056641,-3.555298,15.419005,-1.617432,0.9604461688954774
0.200928,-0.939941,-0.051758,-3.730774,16.174316,-1.983642,0.9625694963113053
0.205322,-0.94043,-0.049316,-3.883362,16.693115,-2.212524,0.9638453073185551
0.210205,-0.939453,-0.042969,-3.601074,16.708374,-2.723694,0.9636412279448198
0.212646,-0.9375,-0.040283,-3.692627,16.120911,-3.211975,0.9621576229521855
0.214111,-0.936035,-0.039063,-4.058838,15.075683,-3.219604,0.9610051818356652
0.213135,-0.936523,-0.036621,-3.753662,13.85498,-3.486633,0.9611674960146125
0.212646,-0.937012,-0.031006,-3.997802,12.557982,-3.883362,0.9613382242977754
0.208496,-0.932129,-0.029053,-4.364014,11.550902,-3.829956,0.9556040662669869
0.206299,-0.928955,-0.030273,-4.493713,10.772704,-3.684997,0.9520678147878963
0.205566,-0.93042,-0.028809,-4.440308,10.475158,-3.77655,0.9532936143901312
0.204102,-0.932617,-0.0271,-4.318237,10.749816,-3.761291,0.9550740835626313
0.204102,-0.93335,-0.023926,-4.676819,10.95581,-3.585815,0.9557051335950855
0.202393,-0.932373,-0.023438,-4.66156,11.383056,-3.585815,0.9543750192780613
0.20166,-0.93335,-0.018555,-4.760742,12.023925,-3.303528,0.9550671526782816
0.201172,-0.935547,-0.016602,-4.997253,12.428283,-2.89917,0.9570757489336986
0.198975,-0.936523,-0.017334,-5.1651,12.802123,-2.532959,0.9575838593616749
0.197998,-0.935059,-0.017334,-5.081176,13.320922,-2.311707,0.955949271165055
0.194092,-0.934326,-0.014648,-4.745483,14.488219,-2.235413,0.9543853218925782
0.194336,-0.933594,-0.012939,-4.707336,15.846251,-1.861572,0.9536936905804715
0.197021,-0.934082,-0.012451,-4.608154,16.555786,-1.441955,0.9547153945370317
0.197754,-0.936279,-0.012939,-4.547119,16.540527,-0.999451,0.957022689426954
0.196045,-0.93335,-0.009033,-4.28772,16.120911,-0.572205,0.9537596445719435
0.196045,-0.928467,-0.008057,-3.997802,15.762328,-0.091553,0.9489728802041711
0.196045,-0.923584,-0.008057,-3.707886,15.327453,0.198364,0.9441959342901238
0.195313,-0.925537,-0.006836,-3.15094,14.785766,0.801086,0.9459453669393387
0.194336,-0.923828,-0.012451,-2.426147,14.030456,1.335144,0.9441290599706166
0.19873,-0.92627,-0.01416,-2.151489,13.206481,1.792908,0.9474546065115732
0.201416,-0.93042,-0.014648,-2.098083,12.153625,2.204895,0.9520842112754523
0.200439,-0.93335,-0.015381,-2.311707,11.20758,2.532959,0.9547536804757549
0.19873,-0.936035,-0.018799,-2.708435,10.681151,2.754211,0.9570833487873457
0.19458,-0.938721,-0.019531,-3.250122,10.688781,2.830505,0.958874315122686
0.194336,-0.940674,-0.023438,-3.90625,11.276244,2.960205,0.9608243309866794
0.193604,-0.942383,-0.024902,-4.486084,12.504577,2.952575,0.9623867918404742
0.194092,-0.943848,-0.026123,-5.012512,14.450072,2.906799,0.9639518466692204
0.196777,-0.945557,-0.026123,-5.462646,16.609192,2.685547,0.9661685355604372
0.203369,-0.945313,-0.023926,-5.805969,18.875122,2.548218,0.9672373398530476
0.206055,-0.942627,-0.024902,-6.111145,20.820616,2.296448,0.9652069383080502
0.210693,-0.940918,-0.030518,-6.111145,22.102354,1.831055,0.9647018043400769
0.219727,-0.941895,-0.027832,-6.034851,22.827147,1.213074,0.9675850173385283
0.222656,-0.936523,-0.02417,-6.240844,22.705076,0.87738,0.9629305337172562
0.22583,-0.930176,-0.022217,-6.187438,22.193907,0.686645,0.9574550511460055
0.226807,-0.927734,-0.021729,-5.737304,21.301268,0.396728,0.9553030615705154
0.230469,-0.930664,-0.022705,-5.638122,19.935608,0.289917,0.9590448153668316
0.230225,-0.92749,-0.025879,-5.546569,18.264771,0.076294,0.9559869106666681
0.230469,-0.923828,-0.029053,-5.561828,16.578674,-0.167847,0.9525850147645616
0.22583,-0.919922,-0.029785,-5.40924,15.602111,-0.183105,0.9477039734057254
0.223145,-0.920166,-0.02832,-5.325317,15.3656,-0.396728,0.9472598275980039
0.224121,-0.922119,-0.024902,-5.065917,15.930175,-0.923157,0.9492912000045086
0.228027,-0.924805,-0.025391,-5.027771,16.853333,-1.182556,0.9528406496550197
0.229492,-0.924316,-0.027832,-5.104064,17.654419,-1.335144,0.9527860547594093
0.232178,-0.924316,-0.025391,-5.027771,18.066406,-1.502991,0.953368446310764
0.233154,-0.923096,-0.026611,-4.989624,18.051147,-1.63269,0.9524574312025709
0.237549,-0.922852,-0.023438,-4.91333,17.64679,-1.731872,0.9532233112702395
0.234131,-0.921143,-0.02417,-4.829407,17.066956,-1.861572,0.9507396807275902
0.22998,-0.921631,-0.024658,-4.585266,16.441345,-1.983642,0.9502118277126421
0.228516,-0.922363,-0.024414,-4.005432,16.212463,-1.770019,0.9505625226259449
0.231934,-0.923096,-0.023926,-3.65448,16.136169,-1.678467,0.9520882622152214
0.232178,-0.922363,-0.022949,-3.334045,15.762328,-1.808166,0.951413045976352
0.23584,-0.921631,-0.018066,-3.02124,15.296935,-1.808166,0.9514991256522519
0.239502,-0.921631,-0.020752,-2.746582,14.419555,-1.853943,0.9524681378760131
0.238281,-0.922852,-0.021973,-2.365112,13.160705,-1.983642,0.953371103817396
0.235596,-0.923096,-0.021484,-1.708984,11.718749,-2.052307,0.9529287815403626
0.237305,-0.922119,-0.021484,-1.174927,10.19287,-2.128601,0.9524067804473045
0.239502,-0.924805,-0.023193,-0.823975,8.262634,-1.930237,0.9555958409693923
0.236328,-0.925049,-0.022949,-0.526428,6.202697,-1.800537,0.955035723198876
0.235352,-0.923096,-0.023438,-0.259399,4.089355,-1.701355,0.9529145444183335
0.227783,-0.921875,-0.022949,0.099182,2.410889,-1.731872,0.9498764484473757
0.223633,-0.922119,-0.022461,0.358582,1.350403,-1.571655,0.9491152013169951
0.223633,-0.925293,-0.02124,0.495911,0.778198,-1.571655,0.9521711989647661
0.220947,-0.924561,-0.022217,0.518799,0.396728,-1.38855,0.950854465530346
0.216797,-0.926758,-0.020264,0.473022,0.419617,-1.373291,0.9519936761706981
0.217285,-0.926025,-0.019287,0.564575,0.892639,-1.281738,0.9513711474598123
0.213379,-0.926758,-0.020752,0.762939,1.38855,-1.220703,0.9512316404057425
0.213379,-0.931641,-0.019775,0.656128,1.846313,-1.091003,0.9559689331495036
0.212402,-0.932861,-0.020996,0.579834,2.670288,-0.984192,0.9569666070145814
0.213623,-0.929688,-0.02417,0.564575,3.379822,-0.87738,0.9542215426058038
0.216797,-0.929688,-0.020752,0.640869,4.013062,-0.793457,0.9548567233135031
0.216553,-0.930908,-0.023438,0.770569,4.379272,-0.762939,0.9560513825715644
0.218262,-0.92749,-0.025391,0.846863,4.470825,-0.854492,0.9531635240739126
0.216064,-0.924561,-0.024902,0.88501,4.524231,-0.801086,0.9497982967035685
0.218994,-0.925781,-0.021973,1.12915,4.53186,-0.892639,0.9515837560225584
0.219482,-0.926514,-0.023438,1.296997,4.737854,-0.923157,0.9524441612840092
0.220459,-0.925781,-0.025146,1.327515,4.821777,-1.045227,0.9520004999778099
0.220459,-0.925781,-0.024902,1.289368,4.737854,-0.991821,0.9519940862452876
0.219971,-0.927002,-0.027344,1.281738,4.592896,-0.915527,0.9531356898054967
0.222412,-0.927002,-0.025635,1.411438,4.318237,-1.091003,0.9536545281038622
0.223877,-0.926025,-0.020508,1.480102,3.761291,-1.098633,0.9529238111297251
0.224609,-0.927734,-0.022461,1.525879,2.937317,-1.113892,0.9548005415572406
0.223877,-0.925293,-0.021484,1.274109,2.059937,-1.152039,0.9522340097024471
0.219971,-0.925049,-0.022217,1.205444,1.25885,-1.251221,0.9511027748519084
0.216797,-0.922119,-0.021484,0.930786,0.556946,-1.319885,0.9475051195777255
0.217529,-0.922363,-0.020752,1.00708,0.190735,-1.579285,0.9478939893859439
0.212891,-0.925537,-0.022217,0.686645,0.007629,-1.655578,0.9499657421923173
0.211426,-0.925049,-0.01709,0.37384,0.045776,-1.823425,0.9490567285347068
0.209473,-0.926758,-0.019775,-0.25177,0.320435,-1.899719,0.9503422430461564
0.204346,-0.929443,-0.016357,-0.534058,0.88501,-2.128601,0.9517820808430888
0.203125,-0.929932,-0.016846,-1.312256,1.770019,-2.426147,0.952006868654318
0.203369,-0.928955,-0.021729,-2.006531,2.822876,-2.281189,0.9512037066932614
0.199219,-0.935303,-0.021729,-1.63269,4.768372,-2.479553,0.9565312651508052
0.201904,-0.935547,-0.021973,-2.082825,6.858825,-2.944946,0.9573380944859554
0.202881,-0.932861,-0.019775,-2.281189,8.354187,-2.960205,0.9548724501769857
0.202148,-0.937012,-0.016846,-2.311707,9.841919,-3.044128,0.9587174191408019
0.199951,-0.943115,-0.016846,-2.868652,11.466979,-3.135681,0.9642251258611757
0.20166,-0.945557,-0.016846,-2.89154,13.694762,-3.311157,0.966968760387325
0.206055,-0.948486,-0.015869,-3.265381,15.754699,-3.166198,0.9707400168850566
0.212891,-0.946045,-0.018066,-3.784179,17.00592,-3.089905,0.9698711771477695
0.212402,-0.944824,-0.018311,-4.249573,17.730713,-3.059387,0.9685774585963686
0.209961,-0.942139,-0.019775,-4.364014,18.516541,-2.960205,0.9654535553132527
0.209961,-0.940918,-0.019775,-4.264832,19.485474,-2.952575,0.9642620778968756
0.216309,-0.939453,-0.021973,-4.852295,20.545958,-2.845764,0.9642843643962086
0.219238,-0.934326,-0.022461,-5.172729,21.339415,-2.784729,0.9599660782762066
0.219971,-0.930664,-0.02124,-5.187988,21.919249,-2.738952,0.9565426594444182
0.221924,-0.927734,-0.02417,-5.15747,22.789,-2.685547,0.9542142450372452
0.224365,-0.922852,-0.022705,-5.233764,23.712156,-2.571106,0.950005781116094
0.231934,-0.921143,-0.020508,-5.180358,24.009703,-2.63977,0.950114932452385
0.237549,-0.922607,-0.019531,-4.745483,24.116514,-2.510071,0.952898034320042
0.244141,-0.917969,-0.019287,-4.394531,23.498533,-2.349854,0.9500757344606797
0.249023,-0.915527,-0.02002,-4.364014,21.926878,-2.13623,0.9490010235284259
0.250732,-0.916016,-0.020508,-3.921509,19.927979,-1.861572,0.9499328534922877
0.253418,-0.918457,-0.017822,-3.40271,18.013,-1.663208,0.9529436327805543
0.255127,-0.919189,-0.015869,-3.234863,16.105652,-1.243591,0.954070243226881
0.258545,-0.921143,-0.014893,-3.242492,14.060973,-0.770569,0.9568551326731753
0.258545,-0.919922,-0.017822,-2.983093,12.481688,-0.518799,0.9557298921729925
0.258789,-0.922119,-0.018311,-2.677917,11.291503,-0.38147,0.9579198762960293
0.259766,-0.92334,-0.016357,-2.525329,10.147094,-0.045776,0.9593240754849219
0.259277,-0.922852,-0.02002,-2.304077,8.69751,0.083923,0.9587915190660585
0.258301,-0.921631,-0.018066,-1.846313,7.644653,0.167847,0.9573136827174257
0.258057,-0.92041,-0.020752,-1.434326,6.896972,0.083923,0.956126889514671
0.258789,-0.920166,-0.021973,-1.098633,6.034851,-0.038147,0.9561171616522737
0.258789,-0.918945,-0.022705,-0.671387,4.951477,-0.1297,0.9549592538799757
0.25708,-0.916504,-0.021484,-0.236511,3.89862,-0.396728,0.9521193573665017
0.259521,-0.915039,-0.023926,-0.289917,2.571106,-0.534058,0.951430488495087
0.259277,-0.918213,-0.02832,-0.335693,1.159668,-0.579834,0.9545374264522056
0.254883,-0.916748,-0.0271,-0.236511,0.061035,-0.534058,0.951906849010448
0.253174,-0.916992,-0.028076,0.167847,-0.526428,-0.846863,0.9517140663644728
0.251221,-0.919189,-0.030273,0.556946,-0.679016,-0.961304,0.9533818034192808
0.252197,-0.92041,-0.031738,0.701904,-0.923157,-1.174927,0.9548639670408555
0.252197,-0.919922,-0.031494,0.679016,-1.335144,-1.304626,0.9543855012147869
0.251953,-0.919678,-0.032471,0.564575,-1.808166,-1.205444,0.954118600454891
0.249512,-0.921875,-0.031738,0.396728,-2.357483,-1.190186,0.9555715851850138
0.24707,-0.924561,-0.033447,0.411987,-2.63977,-1.411438,0.9575882880601662
0.246582,-0.923096,-0.034668,-0.137329,-2.777099,-1.274109,0.9560914068037638
0.24585,-0.921875,-0.033447,-0.335693,-3.028869,-1.243591,0.9546802815257053
0.247559,-0.924072,-0.031494,-0.297546,-3.128052,-1.373291,0.957176259474189
0.245605,-0.925781,-0.031494,-0.450134,-3.112793,-1.541138,0.9583236134114613
0.248047,-0.923828,-0.029785,-0.762939,-3.433227,-1.617432,0.9570123478921262
0.248047,-0.923828,-0.030273,-0.823975,-4.013062,-1.708984,0.9570276601655775
0.243164,-0.925049,-0.029297,-1.014709,-4.547119,-1.64032,0.956923558862462
0.241455,-0.926025,-0.028809,-1.289368,-5.027771,-1.754761,0.9574198536331906
0.23999,-0.925537,-0.030029,-1.335144,-5.371093,-1.914978,0.956616788118419
0.238037,-0.926025,-0.031982,-1.502991,-5.462646,-1.953125,0.9566643937755811
0.236084,-0.922363,-0.031494,-1.457214,-5.393981,-1.983642,0.9526179878949379
0.236816,-0.923584,-0.030273,-0.862122,-4.623413,-2.227783,0.95394217719996
0.236328,-0.926758,-0.030762,-0.671387,-3.829956,-2.449036,0.9569104528596184
0.23877,-0.923584,-0.031006,-0.869751,-3.486633,-2.349854,0.9544526651395553
0.235596,-0.922607,-0.033691,-0.816345,-3.356933,-2.388,0.9528086036271922
0.233154,-0.923584,-0.035645,-0.663757,-3.074646,-2.571106,0.9532254501412558
0.237061,-0.923584,-0.035156,-0.579834,-2.723694,-2.578735,0.9541704601972333
0.23877,-0.924561,-0.033447,-0.785828,-2.738952,-2.426147,0.9554804327823778
0.237061,-0.922363,-0.038574,-0.961304,-3.051758,-2.189636,0.9531208606289131
0.234619,-0.924072,-0.036377,-0.808716,-3.227234,-2.166748,0.9540851232851292
0.233887,-0.928467,-0.035645,-0.732422,-3.02124,-2.166748,0.958136036731215
0.237793,-0.924316,-0.035889,-0.869751,-2.731323,-1.853943,0.9550882676622093
0.238281,-0.924316,-0.037842,-0.587463,-2.655029,-1.686096,0.9552852557121354
0.239258,-0.924316,-0.036133,-0.610352,-2.990722,-1.464844,0.9554632657036062
0.239014,-0.925049,-0.036133,-0.457764,-3.303528,-1.190186,0.9561113629101999
0.241211,-0.924316,-0.037598,-0.480652,-3.631592,-1.106262,0.9560106819387533
0.241943,-0.925781,-0.036621,-0.411987,-3.944397,-1.060486,0.9575740038508773
0.241211,-0.925293,-0.0354,-0.37384,-4.249573,-0.953674,0.9568714868622641
0.242188,-0.927979,-0.03833,-0.404358,-4.707336,-0.946045,0.9598277140638314
0.240234,-0.925293,-0.03418,-0.648498,-5.020141,-0.892639,0.9565812997362012
0.238525,-0.922852,-0.03418,-0.740051,-4.997253,-0.915527,0.953791519111488
0.239258,-0.923584,-0.035156,-0.717163,-4.943848,-0.953674,0.9547186705810251
0.238037,-0.925537,-0.03418,-0.709534,-4.920959,-1.052856,0.9562680712739499
0.236816,-0.923584,-0.035645,-0.564575,-4.852295,-1.106262,0.9541277634242701
0.234863,-0.92041,-0.037109,-0.694275,-4.814148,-1.045227,0.9506273059143631
0.233887,-0.921143,-0.037354,-0.473022,-4.524231,-1.060486,0.9511061331597016
0.234863,-0.920898,-0.035156,-0.411987,-4.325867,-1.113892,0.9510256040238875
0.231201,-0.918457,-0.037598,-0.50354,-4.074097,-1.045227,0.9478558819008299
0.231201,-0.918457,-0.033691,-0.152588,-3.723144,-0.846863,0.9477089462123907
0.232178,-0.921631,-0.0354,-0.007629,-3.089905,-0.75531,0.9510854240524349
0.233398,-0.925049,-0.033203,0.091553,-2.555847,-0.732422,0.9546165293006402
0.235596,-0.930664,-0.033691,-0.015259,-2.166748,-0.709534,0.9606123253388955
0.23999,-0.928467,-0.034668,-0.221252,-1.747131,-0.488281,0.9596082744604697
0.243408,-0.927246,-0.038086,-0.457764,-1.487732,-0.289917,0.959418126979056
0.242676,-0.926514,-0.039795,-0.511169,-1.564026,-0.297546,0.9585945311741559
0.24292,-0.925781,-0.041504,-0.404358,-1.800537,-0.38147,0.9580204425673807
0.243164,-0.924316,-0.041504,-0.434875,-2.372742,-0.518799,0.9566668076023125
0.243896,-0.92334,-0.043213,-0.457764,-2.960205,-0.50354,0.9559860761459865
0.242188,-0.922852,-0.042236,-0.350952,-3.303528,-0.595093,0.9550365024144365
0.23999,-0.921875,-0.041748,-0.343323,-3.562927,-0.671387,0.9535153964299685
0.236084,-0.92041,-0.041992,-0.358582,-3.799438,-0.663757,0.9511327726558474
0.236572,-0.919678,-0.039063,-0.305176,-3.982544,-0.556946,0.9504208819449412
0.236572,-0.918945,-0.040771,-0.244141,-3.913879,-0.511169,0.9497833956487132
0.233643,-0.920898,-0.039795,-0.167847,-3.64685,-0.526428,0.95090789242597
0.233887,-0.921875,-0.039795,-0.137329,-3.40271,-0.534058,0.9519140120930041
0.23291,-0.920654,-0.041016,-0.213623,-3.189087,-0.587463,0.9505436171328489
0.235352,-0.922119,-0.038086,-0.213623,-2.975464,-0.671387,0.9524413669412937
0.233398,-0.923584,-0.036621,-0.083923,-2.708435,-0.63324,0.953322153891852
0.233154,-0.92627,-0.037109,-0.083923,-2.510071,-0.671387,0.9558838729139644
0.232178,-0.930908,-0.038086,-0.1297,-2.075195,-0.656128,0.9601806452662958
0.233398,-0.929199,-0.036865,-0.12207,-1.579285,-0.587463,0.9587723589205104
0.234131,-0.925537,-0.038574,-0.221252,-1.235962,-0.732422,0.9554705735950219
0.236084,-0.921875,-0.040771,-0.267029,-0.930786,-0.778198,0.9524974777509911
0.23584,-0.923096,-0.044189,-0.25177,-0.63324,-0.915527,0.9537711457876046
0.23584,-0.923584,-0.043213,-0.289917,-0.389099,-1.13678,0.9541987602302782
0.235596,-0.924072,-0.042969,-0.572205,-0.030518,-1.25885,0.95459984881677
0.234619,-0.924561,-0.041992,-0.747681,0.518799,-1.403808,0.9547892154533376
0.234619,-0.924316,-0.043701,-0.88501,1.113892,-1.403808,0.9546286819585927
0.237061,-0.922852,-0.042725,-0.976562,1.434326,-1.38092,0.9537710192965605
0.237793,-0.922119,-0.040283,-1.174927,1.564026,-1.38092,0.9531378080314515
0.240234,-0.920898,-0.04126,-1.060486,1.579285,-1.312256,0.9526110899837351
0.240479,-0.921631,-0.042725,-1.022339,1.457214,-1.159668,0.9534460001630926
0.239502,-0.922607,-0.041016,-0.961304,1.441955,-1.098633,0.9540687589000072
0.240967,-0.921631,-0.040527,-0.991821,1.487732,-0.862122,0.9534732471228545
0.241699,-0.923096,-0.037354,-0.823975,1.434326,-0.732422,0.9549450000565478
0.240967,-0.923828,-0.039063,-0.839233,1.487732,-0.717163,0.9555360729150941
0.240479,-0.920898,-0.039307,-0.63324,1.541138,-0.679016,0.9525903191267482
0.244385,-0.922119,-0.038086,-0.488281,1.495361,-0.549316,0.9547135810189358
0.246094,-0.922119,-0.036377,-0.312805,1.091003,-0.404358,0.9550858564160607
0.246094,-0.921387,-0.037842,-0.289917,0.38147,-0.244141,0.9544361044978338
0.243896,-0.920654,-0.041504,-0.350952,-0.427246,0.053406,0.9533161220434698
0.243408,-0.919678,-0.041016,-0.274658,-0.915527,0.205994,0.9522275938051785
0.240723,-0.92041,-0.038818,-0.160217,-1.327515,0.297546,0.9521601587721469
0.23999,-0.920166,-0.037842,-0.312805,-2.075195,0.686645,0.9516998920983442
0.237793,-0.919189,-0.035889,-0.465393,-2.975464,1.068115,0.950127332988058
0.232178,-0.918945,-0.039307,-0.480652,-3.517151,1.464844,0.9486366938707358
0.229248,-0.919922,-0.040527,-0.175476,-3.303528,1.724243,0.9489223199593316
0.229004,-0.921875,-0.037109,0.198364,-2.365112,2.02179,0.950617391762848
0.230957,-0.921387,-0.036621,0.648498,-1.365662,2.365112,0.9505978315034176
0.231689,-0.924561,-0.034424,0.999451,-0.480652,2.731323,0.9537703325318941
0.235352,-0.925049,-0.033691,1.113892,-0.106812,3.013611,0.9551132392475774
0.238525,-0.924316,-0.032227,1.060486,-0.244141,3.356933,0.9551402111784426
0.239014,-0.927002,-0.030029,1.029968,-0.770569,3.700256,0.9577902385392116
0.237061,-0.926758,-0.029541,0.816345,-1.670837,3.837585,0.9570532790633968
0.239014,-0.921143,-0.028564,0.656128,-3.013611,3.990173,0.952075638140689
0.237549,-0.914551,-0.025391,0.595093,-4.737854,4.40979,0.9452395261958738
0.234131,-0.913818,-0.028564,0.610352,-6.576538,4.776001,0.9437672193825128
0.230469,-0.912354,-0.027832,0.846863,-7.652282,4.91333,0.941424665866048
0.221924,-0.915039,-0.027588,1.00708,-7.789611,4.951477,0.9419701327754506
0.218506,-0.913574,-0.025879,1.190186,-6.958007,5.187988,0.9396978493925587
0.218506,-0.913086,-0.026367,1.609802,-5.737304,5.569458,0.9392369957156712
0.220947,-0.913818,-0.028564,2.502441,-4.859924,6.065368,0.9405832318455396
0.22168,-0.911621,-0.020508,3.471374,-4.188538,6.378173,0.9384111295722147
0.234619,-0.89917,-0.015869,4.135132,-3.967285,6.652832,0.9294108828833456
0.241455,-0.895752,-0.026367,4.936218,-4.165649,6.736755,0.9280987992762408
0.224121,-0.89209,-0.031494,5.0354,-5.348205,6.820678,0.9203513800592685
0.215576,-0.873535,-0.029053,4.53949,-5.882263,7.202148,0.9002113556326647
0.216797,-0.857422,-0.034424,4.852295,-4.333496,7.225036,0.8850753849639024
0.223145,-0.854248,-0.044434,4.981995,-2.456665,6.576538,0.8840292511478339
0.220947,-0.863037,-0.048828,4.486084,-0.282288,6.568908,0.8922077189545046
0.222412,-0.884277,-0.047363,3.494262,2.342224,7.621765,0.9130477338244699
0.240234,-0.905762,-0.031982,2.410889,5.493164,8.583069,0.9376246710299383
0.252197,-0.927979,-0.02417,1.571655,8.422852,9.254456,0.9619420669406241
0.260742,-0.953369,-0.026123,0.88501,10.19287,10.925292,0.9887270866391797
0.270508,-0.972412,-0.021973,-0.366211,10.963439,12.954711,1.0095754001247257
0.27832,-0.983154,-0.023682,-1.487732,11.276244,14.465331,1.0220639154377773
0.278564,-0.985596,-0.028076,-2.540588,12.145995,15.213012,1.0245904738421103
0.272705,-0.979248,-0.035156,-3.929138,14.259337,15.274047,1.0171187771666592
0.263916,-0.971436,-0.041504,-4.806519,18.074036,14.72473,1.0075029226597807
0.25708,-0.957031,-0.044189,-6.240844,23.910521,13.504027,0.9919431077849172
0.259521,-0.94043,-0.044678,-7.446289,30.570982,11.45935,0.9766042484164197
0.263916,-0.929199,-0.041748,-7.415771,36.697388,8.750916,0.9668533147075621
0.267578,-0.918457,-0.048584,-7.698059,41.221615,6.019592,0.9578735052129795
0.272949,-0.904053,-0.05542,-8.560181,43.403622,3.295898,0.9459832767073634
0.275635,-0.893311,-0.056152,-8.499146,42.907711,0.724792,0.9365533850507402
0.275635,-0.886475,-0.05249,-8.354187,40.023804,-1.449585,0.9298213693769357
0.276367,-0.878418,-0.05249,-8.544922,35.163879,-3.036499,0.9223622398564459
0.275635,-0.875244,-0.053955,-8.674622,29.541014,-4.089355,0.9192050123808072
0.272705,-0.881104,-0.05542,-8.712769,24.375914,-4.920959,0.9240041408137736
0.268311,-0.893311,-0.046143,-8.834839,21.01898,-5.53894,0.9338760688073123
0.264404,-0.905762,-0.040771,-8.964539,19.538879,-5.683898,0.944445101793111
0.266846,-0.916016,-0.040283,-8.68988,18.844604,-5.439758,0.9549423124257298
0.266846,-0.920898,-0.034912,-8.81958,18.028259,-4.981995,0.9594158440759669
0.269775,-0.919678,-0.038818,-8.972168,17.059326,-4.53186,0.9592147889982723
0.262207,-0.918945,-0.046875,-9.239197,16.777039,-4.28009,0.9567704476513684
0.254395,-0.921387,-0.052734,-9.880066,18.089294,-4.150391,0.9573148356470821
0.247803,-0.922852,-0.065186,-10.887145,21.720884,-4.646301,0.9577637262441088
0.245605,-0.925293,-0.066895,-11.650084,26.870726,-5.66101,0.9596686370299907
0.249023,-0.925781,-0.070068,-12.115478,32.12738,-7.339477,0.9612452544038903
0.258545,-0.92749,-0.07666,-12.451171,36.483765,-9.727478,0.9658985312780013
0.263184,-0.931396,-0.080566,-13.145446,39.44397,-12.21466,0.9712132654715956
0.270996,-0.936035,-0.08374,-13.435363,41.549679,-14.86206,0.9780658162112609
0.278564,-0.936768,-0.085693,-13.587951,42.709347,-17.448425,0.9810583459555299
0.287109,-0.937012,-0.081787,-13.908385,42.808529,-19.760132,0.9834186185923063
0.296143,-0.940918,-0.091064,-13.885497,42.449947,-21.171568,0.9906159756782646
0.308838,-0.947021,-0.098877,-13.679503,42.221066,-22.377012,1.0010026702332018
0.31665,-0.947754,-0.098145,-13.961791,42.304989,-24.345396,1.0040604105535682
0.31958,-0.947754,-0.10083,-14.381408,43.075558,-26.962278,1.0052540523748212
0.323242,-0.943848,-0.103027,-14.526366,45.265194,-29.273985,1.0029700894827323
0.348389,-0.945557,-0.098389,-14.244079,47.286983,-31.448362,1.0124886818582222
0.374756,-0.950195,-0.095215,-13.488769,46.348568,-34.576416,1.02585500621969
0.385986,-0.945557,-0.088135,-13.069152,41.229244,-37.628174,1.0251004880839731
0.374268,-0.932617,-0.081055,-12.313842,33.241272,-39.69574,1.0081770268846637
0.355469,-0.923096,-0.07251,-11.238097,23.818968,-40.603634,0.9918276741838776
0.352783,-0.911621,-0.060303,-9.986877,13.816833,-40.351864,0.9793595583538255
0.369629,-0.909668,-0.047363,-8.68988,3.39508,-40.473934,0.9830385148273694
