ax,ay,az,gx,gy,gz,acc_mag
-0.283447,-0.965332,-0.134033,-1.815796,-6.401062,-0.12207,1.0149743430855778
-0.289795,-0.960938,-0.13208,-1.609802,-6.66809,-0.709534,1.012337941731416
-0.299316,-0.966553,-0.130859,-1.144409,-7.04956,-0.869751,1.0202641067615776
-0.306885,-0.974365,-0.134277,-0.709534,-7.30133,-1.182556,1.030337745197661
-0.314209,-0.978271,-0.139893,-0.267029,-7.247924,-1.602173,1.0369722737715796
-0.320801,-0.978271,-0.146729,-0.205994,-6.591796,-1.63269,1.039931166223515
-0.323975,-0.972412,-0.152344,-0.030518,-5.813598,-1.64032,1.0362208223660632
-0.325439,-0.96875,-0.155273,-0.183105,-4.91333,-1.869202,1.0336811934779504
-0.32666,-0.967529,-0.153564,-0.541687,-4.112244,-2.044678,1.0326669470535987
-0.324219,-0.965088,-0.155029,-1.029968,-3.616333,-2.120972,1.0298285287104838
-0.314209,-0.954346,-0.163818,-1.518249,-3.219604,-1.976013,1.0180078194793005
-0.298584,-0.925781,-0.154053,-2.792358,-4.173279,-1.770019,0.9848630320130815
-0.298584,-0.931152,-0.140137,-2.532959,-6.530761,-0.656128,0.9878435255287145
-0.308594,-0.964111,-0.131348,-1.457214,-7.102966,-0.198364,1.0207803751351217
-0.306396,-0.974365,-0.138916,-1.327515,-5.256652,-0.770569,1.0308071192502506
-0.300049,-0.974609,-0.151855,-0.801086,-2.76947,-0.88501,1.0309956577537076
-0.293701,-0.974609,-0.159912,-0.244141,-0.869751,-1.411438,1.0303857666068568
-0.288818,-0.966309,-0.15918,-0.663757,-0.205994,-2.510071,1.021032415256734
-0.290527,-0.953613,-0.153809,-1.266479,-0.991821,-3.265381,1.0086827548734043
-0.293457,-0.947021,-0.146484,-1.525879,-2.525329,-3.540039,1.0022092334168549
-0.299561,-0.945801,-0.145264,-1.487732,-4.081726,-3.349304,1.002685371399224
-0.308594,-0.948242,-0.146973,-1.518249,-5.0354,-2.853393,1.007965381413965
-0.314697,-0.952637,-0.148926,-1.228333,-4.753113,-2.441406,1.0142634810807298
-0.31543,-0.961182,-0.147461,-1.052856,-3.837585,-1.716614,1.0223070324247017
-0.310791,-0.970459,-0.148438,-0.984192,-2.983093,-0.869751,1.0297648062572347
-0.305664,-0.971191,-0.154297,-1.12915,-2.777099,-0.144958,1.029781531969767
-0.296387,-0.963623,-0.162598,-1.304626,-2.89917,0.221252,1.0212015714353362
-0.291016,-0.960449,-0.163574,-1.251221,-2.990722,0.549316,1.01681318212
-0.291016,-0.956787,-0.164795,-1.350403,-2.6474,0.495911,1.0135526960400234
-0.287354,-0.957031,-0.164551,-1.190186,-1.853943,0.12207,1.012698221524063
-0.279053,-0.957764,-0.156982,-1.220703,-1.373291,-0.320435,1.0098642506936266
-0.277832,-0.955566,-0.151367,-1.167297,-1.525879,-0.724792,1.0065828178888214
-0.278809,-0.955566,-0.150879,-0.968933,-1.838684,-1.052856,1.0067796737509156
-0.28125,-0.955078,-0.148193,-0.793457,-2.098083,-1.419067,1.006596599354975
-0.282227,-0.958252,-0.149414,-0.663757,-2.365112,-1.76239,1.010061145886228
-0.283203,-0.959473,-0.149414,-0.358582,-2.853393,-1.968384,1.0114924222820456
-0.285889,-0.959961,-0.15332,-0.38147,-3.318786,-2.159119,1.0132939673372183
-0.287842,-0.953369,-0.154541,-0.518799,-3.616333,-2.182007,1.007793822071757
-0.29248,-0.949219,-0.153564,-0.534058,-3.936767,-2.059937,1.0050587855727644
-0.296143,-0.953369,-0.154053,-0.244141,-3.768921,-2.01416,1.0101215042850045
-0.297363,-0.956543,-0.157227,-0.236511,-3.379822,-2.113342,1.0139623238301314
-0.294189,-0.952881,-0.158203,-0.389099,-3.189087,-1.976013,1.0097314281981125
-0.293213,-0.95459,-0.160156,-0.312805,-3.082275,-1.724243,1.0113683185689575
-0.29126,-0.958496,-0.163086,-0.427246,-3.211975,-1.625061,1.0149601041479415
-0.286865,-0.963867,-0.167236,-0.75531,-4.005432,-1.579285,1.01946015204617
-0.279541,-0.968506,-0.162354,-1.403808,-6.187438,-1.205444,1.0210317644583835
-0.27417,-0.968018,-0.15625,-2.182007,-9.58252,-0.778198,1.018156225598017
-0.273438,-0.970459,-0.154785,-2.601623,-13.099669,-0.602722,1.020057550704861
-0.279541,-0.968262,-0.161133,-3.013611,-15.556334,-0.427246,1.0206068366486676
-0.25415,-0.966797,-0.195068,-3.784179,-17.272949,-0.366211,1.0184989869081855
-0.209229,-0.967285,-0.215088,-5.41687,-22.689817,-0.282288,1.0127585563252477
-0.205322,-0.963867,-0.204102,-7.736206,-34.179688,-0.076294,1.0064066493108041
-0.230713,-0.958984,-0.181885,-9.872437,-46.089169,-0.541687,1.0029760484926846
-0.258301,-0.961426,-0.155029,-11.192321,-53.848263,-1.770019,1.0075184121980103
-0.289063,-0.967285,-0.140869,-11.558532,-58.280941,-2.906799,1.0193339807712682
-0.315918,-0.975586,-0.146729,-11.558532,-59.341427,-3.578186,1.035906185694921
-0.318604,-0.977783,-0.166992,-11.20758,-56.632992,-3.204345,1.0418514442899238
-0.278809,-0.987793,-0.216309,-11.856078,-54.092403,-2.189636,1.0489323394819134
-0.220947,-0.994629,-0.25708,-14.961242,-58.479305,-0.465393,1.05080661915026
-0.218506,-0.988281,-0.245605,-19.91272,-72.662354,2.487183,1.0415210142008657
-0.282959,-0.989258,-0.220947,-24.29199,-87.913506,6.378173,1.052385273107715
-0.333496,-0.996826,-0.183105,-27.534483,-96.878044,11.131286,1.0669625566611978
-0.364502,-0.993896,-0.147461,-30.227659,-102.180473,16.151428,1.0688478438678726
-0.391357,-0.993652,-0.162842,-32.432556,-105.171196,20.378111,1.080287978048909
-0.361328,-1.008545,-0.240967,-34.858704,-105.087273,25.184629,1.0980828910870073
-0.320313,-1.037109,-0.293945,-39.260864,-107.482903,31.379698,1.1245439781862692
-0.346191,-1.060059,-0.290283,-45.326229,-115.020744,38.322449,1.152318320626293
-0.403809,-1.057861,-0.257813,-50.643917,-121.147148,45.524593,1.1612920161488238
-0.463379,-1.050049,-0.226074,-54.412838,-122.077934,51.788326,1.1698001767472939
-0.496094,-1.04248,-0.214844,-57.746883,-118.873589,56.991573,1.1743218262350403
-0.502197,-1.036865,-0.254639,-61.538692,-113.739006,61.470028,1.1798863823923895
-0.475586,-1.037598,-0.31958,-66.673279,-110.298149,67.047119,1.1852944905802947
-0.48584,-1.038574,-0.338379,-73.158264,-111.93084,74.073792,1.1954818303583707
-0.54248,-1.042969,-0.328125,-79.521179,-114.524834,81.718437,1.2205469679557606
-0.585693,-1.038818,-0.309326,-85.014336,-114.06707,88.012688,1.232015300898897
-0.610352,-1.022461,-0.299072,-88.806145,-113.784782,94.482414,1.2277622414820388
-0.657471,-1.009033,-0.311768,-90.705864,-115.943901,101.821892,1.2440317507017256
-0.692627,-1.015869,-0.341064,-91.63665,-120.201103,109.565727,1.275949308705483
-0.699463,-1.025879,-0.377686,-92.620842,-125.984184,117.568962,1.2978146730585227
-0.723877,-1.015381,-0.392822,-95.443718,-131.797791,125.305168,1.3074041494404094
-0.781006,-0.988281,-0.389893,-98.869316,-133.140564,133.270264,1.3185925293455898
-0.830811,-0.964844,-0.38208,-101.46331,-130.355835,141.448975,1.3293441948784372
-0.876953,-0.942383,-0.34668,-103.828423,-127.319328,149.353027,1.3331613950673789
-0.919922,-0.922119,-0.295898,-105.255119,-126.060478,156.608582,1.3357078882184532
-0.941895,-0.888672,-0.255127,-105.270378,-127.349846,163.818344,1.3198461655579412
-0.97168,-0.85083,-0.228271,-103.157036,-130.485535,171.241745,1.3115568461721359
-1.03418,-0.818359,-0.237549,-99.685661,-132.17926,178.550705,1.3400258403038354
-1.104004,-0.794678,-0.279297,-96.755974,-125.190727,186.218246,1.3886485408154938
-1.16626,-0.765625,-0.297119,-95.42083,-106.834404,192.634567,1.4264023725393897
-1.204346,-0.729736,-0.282959,-95.489494,-80.886833,197.395309,1.4363250722218144
-1.192627,-0.695801,-0.242676,-95.16143,-54.26025,201.255783,1.4019236190698838
-1.151611,-0.658691,-0.190186,-93.994133,-34.194946,204.635605,1.3402434269184087
-1.150146,-0.608398,-0.139893,-91.682426,-22.28546,207.962021,1.308645864689527
-1.13501,-0.570801,-0.122803,-88.081352,-15.975951,213.01268,1.2763784934375855
-1.125732,-0.536621,-0.130615,-83.801262,-15.571593,218.498215,1.253911843667648
-1.128906,-0.494385,-0.154053,-79.101563,-18.676758,223.793015,1.242005479806752
-1.154297,-0.459229,-0.173828,-74.356079,-21.499632,229.186996,1.2543958754053681
-1.182617,-0.442871,-0.174316,-71.151733,-21.972654,234.909042,1.2747955754496483
-1.208008,-0.408203,-0.165283,-68.80188,-18.234253,239.166245,1.2857804973485947
-1.168457,-0.354248,-0.157227,-66.101074,-7.095336,241.470322,1.2310579742164869
-1.09375,-0.295166,-0.128418,-64.056396,7.232666,240.768417,1.1401329803053677
-1.023682,-0.241943,-0.09668,-62.103268,15.73944,239.280685,1.0563182639588318
-0.984863,-0.195557,-0.062012,-58.876034,13.671874,239.784225,1.0060035572312853
-0.969482,-0.144287,-0.048096,-54.122921,7.072448,241.37114,0.9813395497527856
-0.942383,-0.091309,-0.064209,-48.126217,3.64685,240.013107,0.9489709415208666
-0.88623,-0.040771,-0.092529,-41.755672,4.348755,235.908493,0.8919795419077726
-0.87207,0.002197,-0.108154,-34.507751,6.721496,230.308517,0.8787537763361248
-0.869385,0.02417,-0.085205,-26.618956,12.199401,225.219711,0.873884637209054
-0.835938,0.04248,-0.050049,-19.439697,20.919798,219.245895,0.8385116532553378
-0.800781,0.071777,-0.02124,-12.695312,28.091429,209.289536,0.8042718976129901
-0.778809,0.10083,-0.006104,-6.156921,29.266356,199.493393,0.7853326723096398
-0.738525,0.114014,-0.011719,0.396728,23.803709,192.245468,0.7473658426647554
-0.689209,0.139648,-0.001953,5.844116,13.809203,184.349045,0.703217195320194
-0.674316,0.202393,0.043701,10.513305,-0.846863,174.667343,0.7053898012489265
-0.679199,0.268066,0.12207,15.99121,-21.224974,167.190536,0.7403186792571156
-0.712891,0.325195,0.2229,21.369932,-41.709896,161.239609,0.8146470253465607
-0.761719,0.368896,0.321045,26.55792,-49.85046,151.687622,0.9051905798239397
-0.743896,0.395752,0.388428,32.997131,-40.939327,140.007019,0.9278346919058372
-0.68042,0.403564,0.473145,41.542049,-30.250547,129.699707,0.9217925306276895
-0.668701,0.416016,0.577881,51.597591,-31.532286,122.123711,0.9768197325085115
-0.725586,0.426514,0.693359,64.476013,-45.860287,117.34771,1.0904750975941633
-0.820557,0.42041,0.766602,80.879204,-68.649292,115.486137,1.199056706229109
-0.892822,0.405029,0.82251,99.411003,-97.152702,114.685051,1.2797274376307635
-0.968506,0.401611,0.924316,119.674675,-128.105164,114.204399,1.397732211553057
-0.986328,0.44165,1.095703,142.791748,-151.420593,111.717216,1.538981062356844
-0.951172,0.506104,1.254883,171.981796,-165.237411,105.339043,1.6539651677375191
-0.94165,0.500244,1.361816,207.313522,-175.781235,100.311272,1.7295929000467134
-0.990967,0.458984,1.365723,243.049606,-180.969223,96.855156,1.7486798506513421
-1.055176,0.381836,1.253906,249.992355,-183.677658,94.848625,1.6826988377924315
-1.09668,0.251221,1.053711,249.793991,-194.274887,100.021355,1.5414687427132607
-1.144775,0.130615,0.805176,249.778732,-208.267197,103.256218,1.4056594430465723
-1.196289,0.020508,0.600098,249.992355,-215.263351,103.973381,1.3385236490958985
-1.223145,-0.08252,0.451416,249.992355,-208.328232,103.317253,1.3063956699564645
-1.130615,-0.094482,1.277588,249.992355,-189.239487,100.646965,1.7086392902813043
-3.773926,-5.63501,-5.275146,105.720512,-124.641411,48.736568,8.592032383254384
-0.633301,-5.124512,-3.970215,45.516964,-4.623413,-67.527771,6.513393934115302
-1.536621,1.517822,0.550049,-45.31097,48.33984,108.482353,2.2287982465279352
-1.084717,3.264404,0.531982,-86.654655,249.992355,147.117615,3.480797220986738
0.043213,0.466797,0.294189,10.009766,177.803024,178.855881,0.5534563851822472
-0.074219,-0.115723,-0.428711,-19.02771,1.12915,12.199401,0.45021483117618416
-0.296387,0.313721,-0.927246,-26.93939,-78.430176,15.99121,1.0227664758516481
-0.512207,0.260498,-0.841309,-11.802672,-87.303154,-17.951965,1.018830728008338
-0.894043,0.285645,-1.006348,-12.298583,-59.745785,-58.79974,1.3760967440474525
-1.084961,0.204834,-1.182373,3.753662,21.995543,-49.194332,1.6177463491555157
-0.855225,0.11377,-1.01001,7.797241,87.387077,-43.16711,1.3283349026600935
-0.809326,0.264893,-0.594971,-7.614135,78.872681,-39.550781,1.0388298063523207
-1.070557,0.557617,-0.324951,-25.878904,57.373043,-31.196592,1.2500488635805402
-1.248535,0.655273,-0.197998,-28.350828,72.967529,-17.959595,1.423876946494324
-1.342529,0.462891,-0.345215,-30.441282,98.686211,-10.025024,1.461446403378174
-1.333984,0.256104,-0.717285,-50.071712,103.668205,-11.83319,1.5360990665634167
-1.306885,0.203857,-1.007568,-80.833427,87.10479,-10.69641,1.6627385104994712
-1.306152,0.235596,-1.056885,-112.075798,68.786621,-2.059937,1.6966273679111155
-1.279053,0.297607,-0.945801,-138.09967,63.575741,7.980346,1.6183590562230001
-1.259521,0.348145,-0.819824,-157.119751,69.015503,13.099669,1.5426307015750722
-1.196777,0.387695,-0.670166,-169.822678,76.873779,15.686034,1.4253789209575116
-1.105713,0.417236,-0.521729,-179.046616,78.918457,17.585754,1.291854584504773
-1.025146,0.431885,-0.406982,-186.164841,75.4776,17.608643,1.1845181817367767
-0.993896,0.440674,-0.316895,-190.788254,72.402954,17.616272,1.1324510029652497
-1.001465,0.442383,-0.240967,-193.534836,76.049805,19.638062,1.1210262976411394
-1.020752,0.442139,-0.153564,-194.320663,91.674797,20.309446,1.122944096080032
-0.989258,0.460938,-0.035889,-193.222031,118.026726,18.692017,1.0919630262646258
-0.912354,0.5,0.092773,-189.605698,140.945435,16.181946,1.0445078510212358
-0.840576,0.548828,0.202148,-183.998093,148.643494,14.976501,1.0240332022273497
-0.793701,0.613525,0.293457,-177.864059,144.096375,13.679503,1.0452230450363214
-0.739746,0.69458,0.370605,-169.731125,135.345459,11.322021,1.080284030679432
-0.676514,0.751709,0.415283,-159.645081,124.15313,9.07135,1.0932509240636388
-0.626465,0.787842,0.468262,-149.421692,109.603874,7.850646,1.1101453570740185
-0.589111,0.821533,0.5354,-138.824463,94.169609,8.377075,1.143949911670087
-0.562256,0.848389,0.597168,-127.16674,80.299377,10.177611,1.1800446284276709
-0.53418,0.870361,0.639893,-114.288322,70.930481,12.069701,1.2051305299302646
-0.49292,0.882813,0.687256,-101.119987,64.13269,13.046264,1.222558681170356
-0.49707,0.89209,0.756592,-88.172905,55.664059,13.298034,1.270958145441462
-0.494629,0.915039,0.834473,-73.814392,46.852108,14.244079,1.3335289299040347
-0.437744,0.936523,0.933105,-57.472225,33.39386,16.647339,1.3926162716592105
-0.413574,0.949463,1.006348,-39.932251,13.336181,17.250061,1.4440428452608323
-0.464111,0.935791,1.054932,-19.897461,-5.851745,16.792297,1.484582547595788
-0.501465,0.901855,1.077637,3.417969,-20.721434,17.036438,1.4920157810891277
-0.554688,0.868164,1.054443,28.419493,-36.2854,16.723633,1.4741904722555361
-0.623779,0.839355,1.031738,54.054256,-52.421566,18.280029,1.4690474320150455
-0.636719,0.845459,1.049316,78.857422,-67.184448,21.224974,1.4903946032839759
-0.669678,0.856201,1.080811,103.301994,-85.479729,23.406981,1.5328735087429752
-0.695557,0.837402,1.105713,126.441948,-109.596245,26.275633,1.5516581093211224
-0.727539,0.830322,1.138916,148.086548,-138.908386,27.587889,1.5861517188658216
-0.765869,0.824951,1.168701,169.448837,-169.937119,27.732847,1.6226402882225623
-0.774902,0.836182,1.219971,193.122849,-198.471054,27.976988,1.669731321970394
-0.81958,0.829834,1.22583,219.573959,-224.525436,25.3067,1.6920387208500873
-0.917969,0.78418,1.257813,246.681198,-248.443588,24.902342,1.7434732290259005
-1.039551,0.750977,1.272949,249.992355,-249.992355,25.039671,1.8069399250475926
-1.101318,0.629883,1.170898,249.725327,-249.68718,24.818419,1.7264576615767326
-1.208252,0.41748,0.973877,249.877914,-249.923691,24.742125,1.6070466256562066
-1.410156,0.149658,0.700195,249.992355,-249.992355,25.81024,1.581521577255587
-1.619385,-0.12915,0.41748,249.992355,-249.992355,34.088135,1.6773124488672349
-3.051514,-1.889648,-1.587402,237.9608,-249.992355,42.716976,3.924583081768559
-1.938721,-6.340332,-6.361084,163.658127,-82.008354,-153.915405,9.188135754391148
-1.169678,2.356445,0.874512,-24.29962,-177.688583,-34.667969,2.772318686560584
-5.111084,4.806396,1.223389,-89.263908,-34.500122,123.39782,7.121888991636489
-0.673096,0.757813,0.291992,114.585869,249.992355,244.178757,1.0547976565431874
0.972412,-0.759277,-0.265625,52.078243,210.975632,188.911423,1.261999723097434
0.114502,-0.437012,-1.37793,-45.387264,-95.138542,58.219906,1.450096990220999
-1.273438,0.134277,-1.979004,-57.144161,-196.968063,15.602111,2.357144773786498
-1.486816,0.208984,-1.961914,-14.320373,31.051634,-28.411863,2.4705065621260753
-0.701904,0.165771,-1.716309,-8.842468,215.66008,-40.664669,1.8616836017803886
-0.438965,-0.025146,-1.38501,-24.528502,203.376755,-23.979185,1.4531260415535192
-0.672119,0.073486,-0.855713,-54.298397,113.258354,-25.962828,1.090591069432535
-0.736572,0.558105,-0.172363,-80.352776,57.708736,-19.752502,0.9400683517585303
-0.920898,0.839111,0.25293,-89.599602,60.073849,-16.830444,1.271272583526051
-1.047607,0.768066,0.031006,-91.728203,106.155388,-31.10504,1.2993718400985146
-0.979492,0.468506,-0.532715,-97.831718,155.929565,-42.358395,1.2094162729701465
-0.910645,0.309082,-0.757568,-122.459404,167.335495,-49.995419,1.224220271590452
-0.988037,0.352783,-0.740479,-154.243469,145.698547,-50.163265,1.2841269827781832
-1.106445,0.465576,-0.638672,-176.528915,140.037537,-46.646114,1.3597365455796941
-1.052979,0.528564,-0.47998,-184.204086,147.712708,-36.773682,1.2722128269031878
-0.952393,0.551514,-0.316406,-189.94902,138.114929,-30.403135,1.1451344355493813
-0.88208,0.573975,-0.171143,-196.601852,110.885612,-27.488707,1.0662093384856466
-0.848389,0.581787,-0.027588,-200.386032,82.534782,-25.085447,1.0290777941603833
-0.83374,0.570313,0.0625,-202.072128,61.889645,-24.42169,1.0120699361057022
-0.820068,0.574951,0.131592,-200.996384,52.642818,-23.178099,1.0101468365980264
-0.803955,0.591064,0.202637,-196.228012,59.242245,-21.179197,1.0182151284920098
-0.748047,0.609619,0.268555,-187.980637,82.077019,-22.033689,1.0016643287024851
-0.660645,0.651611,0.335205,-178.153976,112.815849,-27.091978,0.9866159857670056
-0.586426,0.726807,0.424316,-167.922958,139.129639,-32.562256,1.0257621247545652
-0.537598,0.802979,0.501465,-157.463074,154.899597,-37.010193,1.0886937265686802
-0.514893,0.858887,0.558594,-146.759033,161.514267,-41.976925,1.146659904703221
-0.531738,0.888428,0.596924,-136.245728,159.263611,-45.272823,1.1951434531486167
-0.540527,0.898438,0.599121,-124.999992,149.223328,-44.921871,1.2076035153203224
-0.530273,0.890869,0.564209,-112.892143,132.957458,-41.564938,1.1803257285050597
-0.508057,0.895752,0.546143,-100.227348,111.976616,-37.261963,1.1656610730405301
-0.519775,0.903809,0.572266,-86.791985,87.257378,-32.424927,1.1893381074622977
-0.558105,0.928467,0.591309,-73.196411,63.636776,-28.213499,1.2341711771853208
-0.578613,0.945801,0.612549,-58.197018,45.463558,-23.429869,1.2667078640203508
-0.602051,0.940674,0.65918,-42.900082,27.687071,-19.805908,1.2968620795123127
-0.603027,0.931152,0.714844,-28.236387,6.500244,-15.747069,1.3197301065630807
-0.628174,0.938232,0.754639,-14.10675,-16.220093,-11.83319,1.3580728553435562
-0.628174,0.947266,0.774414,1.838684,-36.384583,-8.049011,1.3753663120885287
-0.612793,0.945068,0.792236,18.730164,-57.014462,-4.318237,1.3770645101697305
-0.643311,0.925781,0.810303,35.461426,-79.963684,-1.945495,1.3883481027793425
-0.72876,0.912354,0.869385,52.917477,-98.602287,-0.137329,1.455785436505325
-0.801758,0.891846,0.89917,73.127747,-106.521599,1.174927,1.4989035549961178
-0.839111,0.862061,0.957031,97.114555,-110.122673,1.747131,1.5372588503576747
-0.878662,0.843994,1.068115,123.451225,-117.942802,3.860473,1.6202599900957253
-0.889648,0.844971,1.180664,152.076721,-131.919861,5.981445,1.7027674637603927
-0.924561,0.853027,1.299316,185.173019,-154.708862,7.125854,1.8085049552893129
-1.027588,0.824707,1.380615,222.190842,-184.211716,9.719849,1.9084487186765065
-1.131592,0.751465,1.406982,249.992355,-215.02684,15.068053,1.9557091933651587
-1.209229,0.661377,1.380859,249.992355,-244.13298,20.019531,1.9510063783727107
-1.291504,0.538818,1.307617,249.481186,-249.992355,25.93231,1.9152466258497887
-1.355713,0.40332,1.192139,249.984726,-249.839767,32.394409,1.8498162492772086
-1.375732,0.244141,0.991211,249.992355,-249.816879,36.102295,1.713109047966883
-1.456787,0.037109,0.732666,249.992355,-249.992355,38.711548,1.6310747710653857
-2.240723,-3.458984,-3.820557,246.398911,-232.025131,4.547119,5.619792315133541
-1.635742,-5.031982,-4.61377,163.475021,-66.15448,-237.548813,7.020211417883937
-5.643799,4.672119,-0.658447,-146.858215,21.781919,-108.26873,7.356270492197184
-0.989014,4.55127,1.228516,71.739197,249.992355,249.282822,4.816789269560378
1.642334,-0.298096,1.299316,195.327744,249.992355,249.992355,2.115264584071695
0.843018,-0.819336,-0.019531,35.919189,0.740051,61.073299,1.175743292211782
-0.422119,0.681641,-1.172607,-32.447815,-249.992355,4.150391,1.4205020519136886
-0.900391,0.62207,-1.188232,-3.890991,-249.992355,62.210079,1.6154164551610215
-1.414795,-0.027344,-1.171875,22.361753,-198.989853,40.199276,1.8373033505619043
-1.047363,0.009277,-1.036377,26.954649,-57.647701,-15.136718,1.4734763664976105
-0.496582,0.215088,-0.5625,35.003662,3.959656,-20.790098,0.7805528684643981
-0.409424,0.563721,-0.190186,10.116576,-28.335569,-24.261473,0.7222050208998827
-0.506592,0.905273,-0.077148,-7.80487,-30.807493,-29.632566,1.0402434680866783
-0.495117,0.960205,-0.044678,1.266479,19.111633,-31.066893,1.08126343200813
-0.405518,0.739502,-0.027344,8.537292,49.789425,-39.764404,0.843833959179174
-0.454346,0.525635,-0.111328,-2.334595,27.992247,-43.891903,0.7036450557809668
-0.581055,0.455566,-0.193848,-17.471313,-5.53894,-42.030331,0.7633756221448259
-0.641357,0.477295,-0.240479,-25.444029,-14.717101,-43.457027,0.8348529618531636
-0.601074,0.499512,-0.271729,-27.839659,-4.455566,-49.240108,0.8274290550016963
-0.550293,0.469727,-0.290771,-29.731749,-0.473022,-54.176327,0.7797522778543197
-0.564697,0.458008,-0.26709,-33.14209,-14.549254,-57.853695,0.7745909229864497
-0.596436,0.497314,-0.245605,-36.521912,-34.385681,-62.294003,0.8144807749216675
-0.60791,0.526367,-0.245361,-37.506104,-44.769283,-67.596436,0.8407251674060912
-0.604736,0.508789,-0.237549,-37.185669,-43.136593,-75.004578,0.8252280918739983
-0.662598,0.466064,-0.224609,-36.888123,-33.546448,-84.297173,0.8406550806252229
-0.697021,0.422852,-0.250977,-37.284851,-20.904539,-93.208305,0.8530132137745581
-0.697754,0.387695,-0.298096,-37.910461,-7.843017,-101.753227,0.8520735195726951
-0.736572,0.338135,-0.335205,-38.475037,2.815246,-111.602776,0.8770609907150129
-0.720215,0.290283,-0.333496,-39.741516,11.840819,-118.873589,0.8450996676901489
-0.688477,0.293213,-0.302979,-41.885372,19.035339,-126.983635,0.8073231802314362
-0.663818,0.336182,-0.280762,-43.380733,19.927979,-138.839722,0.7952986702440789
-0.644287,0.34668,-0.268066,-42.823788,12.855529,-148.735046,0.7791996798799394
-0.655029,0.330078,-0.26001,-41.740414,-2.182007,-155.502319,0.7782157008342867
-0.733643,0.306641,-0.222412,-40.252682,-23.986814,-161.170944,0.8256681246566323
-0.91333,0.255859,-0.157715,-38.42926,-48.782345,-163.345322,0.9615141902260206
-1.076172,0.198242,-0.105469,-38.94043,-61.050411,-160.667404,1.099349705102521
-1.145264,0.189209,-0.074707,-39.749146,-49.179073,-160.873398,1.1631899291285153
-1.083008,0.19873,-0.084473,-38.719177,-18.768311,-166.862473,1.1043258706980472
-0.997559,0.197754,-0.150635,-36.621094,16.227722,-175.628647,1.0280668782827311
-0.947266,0.174072,-0.251465,-34.500122,43.04504,-180.915817,0.9954137743496421
-0.919678,0.202881,-0.260742,-32.394409,53.672787,-182.243332,0.9772178438858963
-0.923096,0.234863,-0.208984,-27.503965,43.350216,-180.061325,0.9751621230549309
-0.963623,0.250488,-0.124268,-21.423338,11.482238,-173.286423,1.003372343697493
-0.949707,0.218994,-0.028564,-16.601563,-33.988953,-163.085922,0.9750475167811054
-0.93335,0.17334,0.040039,-15.61737,-83.465569,-157.264709,0.9501537242051941
-1.08374,0.146973,0.093262,-16.555786,-123.069756,-159.713745,1.0976298333103924
-1.301025,0.120117,0.139648,-16.838074,-133.247375,-159.660339,1.3139998889718372
-1.361328,0.091797,0.093994,-15.174865,-102.203362,-156.333923,1.367653276539416
-1.27002,0.057129,-0.026123,-12.33673,-47.279354,-159.637451,1.2715726224522135
-1.164551,0.043701,-0.093262,-9.681702,2.5177,-164.077744,1.1690964928721665
-1.143066,0.021484,-0.107178,-7.102966,29.281614,-160.461426,1.1482807001321582
-1.162354,-0.022949,-0.120605,-6.896972,32.585144,-149.963379,1.1688195087103912
-1.187256,-0.074707,-0.125977,-8.68988,21.781919,-138.122559,1.1962558881418308
-1.173828,-0.112061,-0.143799,-12.374877,6.881713,-130.462646,1.1879006665988534
-1.14917,-0.132324,-0.161621,-17.227173,-4.951477,-129.295349,1.1679994338684416
-1.139648,-0.14917,-0.186035,-21.65222,-12.001037,-130.393982,1.1643273912559988
-1.12207,-0.166992,-0.204102,-26.031492,-13.961791,-130.218506,1.1526426329821398
-1.082764,-0.184082,-0.203857,-30.09033,-12.741088,-130.104065,1.1170594159976452
-1.054932,-0.207764,-0.203369,-34.156799,-10.002136,-129.562378,1.0942606428456614
-1.060791,-0.217041,-0.205078,-39.672852,-0.930786,-129.844666,1.1020169360976264
-1.049805,-0.201416,-0.147705,-41.023251,14.572143,-131.393433,1.0791087573113287
-1.031006,-0.230957,-0.084717,-36.872864,25.344847,-130.828857,1.059948809129007
-1.080811,-0.291992,-0.037109,-34.095764,30.120848,-129.402161,1.120173568544625
-1.105957,-0.338623,-0.061035,-35.03418,40.878292,-128.318787,1.158245092026295
-1.05835,-0.335449,-0.069092,-33.805847,59.242245,-131.782532,1.11238682955391
-0.990479,-0.344727,-0.073242,-26.916502,70.808411,-134.803772,1.0513085867308418
-1.003662,-0.38623,-0.08667,-21.049498,74.34082,-136.46698,1.0788988423591899
-1.053223,-0.419189,-0.128418,-20.309446,83.526604,-139.48822,1.1408283342264953
-1.004395,-0.430908,-0.163574,-18.722534,99.845879,-142.120361,1.1051006623674604
-0.907715,-0.452881,-0.175537,-13.72528,109.191887,-142.501831,1.0294954879721427
-0.870361,-0.473145,-0.178711,-9.20105,107.498161,-144.226074,1.0066439702630718
-0.867188,-0.485352,-0.19165,-5.989074,104.331963,-147.491455,1.012082661519305
-0.872559,-0.501709,-0.20752,-1.861572,106.727592,-150.947571,1.0276846206701742
-0.877686,-0.532715,-0.2146,3.631592,110.069267,-153.060913,1.0488904355656028
-0.840576,-0.57959,-0.223145,9.513855,110.397331,-151.924133,1.0451250025241001
-0.786377,-0.618408,-0.236328,14.884948,107.398979,-151.763916,1.0279436580751884
-0.739502,-0.640381,-0.24707,19.752502,102.584831,-155.410767,1.0089571933759132
-0.679199,-0.652832,-0.257568,24.559019,96.29821,-159.591675,0.9766484405603687
-0.606689,-0.673828,-0.259277,29.762266,85.723869,-162.246689,0.9430483969733473
-0.549072,-0.695313,-0.256836,35.194397,68.489075,-164.436325,0.9224450986638716
-0.516113,-0.717285,-0.253906,40.519711,46.783443,-166.694626,0.9194230021214392
-0.5,-0.74292,-0.246338,45.898434,24.223326,-169.219955,0.9287693667665833
-0.505371,-0.774658,-0.240967,51.292416,2.227783,-172.332748,0.955803305965197
-0.536865,-0.82373,-0.233887,56.221004,-18.043518,-174.758896,1.0106721871576363
-0.560059,-0.880127,-0.218262,60.195919,-34.973145,-175.994858,1.0657991932132431
-0.577393,-0.928467,-0.195801,62.995907,-47.996517,-177.597031,1.1107527529288417
-0.58252,-0.9646,-0.18335,64.704895,-57.868954,-180.541977,1.1416654207341135
-0.598389,-0.998047,-0.172119,65.689087,-64.651489,-183.219894,1.1763469554901733
-0.620117,-1.037354,-0.162354,66.223145,-67.726135,-184.524521,1.2194290616190022
-0.630615,-1.073975,-0.155762,66.299438,-65.635681,-184.814438,1.2551332118520329
-0.641357,-1.104248,-0.150146,66.551208,-58.2962,-184.013351,1.285786245170246
-0.645752,-1.132324,-0.153076,66.917419,-46.234127,-182.533249,1.312473065725922
-0.63916,-1.155762,-0.162598,67.123413,-30.105589,-180.366501,1.3306950874817265
-0.62915,-1.176025,-0.171631,67.077637,-11.657714,-176.544174,1.3447385334279673
-0.615234,-1.188477,-0.182617,66.932678,7.606506,-170.722946,1.3506810959564068
-0.601074,-1.189697,-0.185791,66.497803,26.481627,-163.482651,1.345803552144963
-0.582764,-1.18042,-0.186035,65.872192,44.395443,-154.380798,1.3295165577460855
-0.557861,-1.170898,-0.201904,64.697266,59.898373,-143.341064,1.3126218979359594
-0.522705,-1.156006,-0.200439,62.683102,70.701599,-130.783081,1.2844244554593316
-0.495117,-1.138184,-0.194824,60.447689,75.973511,-116.706841,1.256407598083122
-0.449219,-1.119385,-0.199707,56.739803,73.84491,-101.615898,1.2225806206688374
-0.392578,-1.084229,-0.193848,51.99432,61.088558,-85.372917,1.1692934010029306
-0.371094,-1.060547,-0.178711,48.263546,43.022152,-69.778442,1.1377206676359535
-0.330078,-1.045166,-0.179688,41.976925,22.636412,-56.449886,1.1106805260667894
-0.292236,-1.024658,-0.211182,34.202576,-1.899719,-42.007442,1.086242944181457
-0.288086,-1.001953,-0.253418,27.809141,-33.401489,-26.771544,1.0729044879806404
-0.271484,-0.983398,-0.259033,22.27783,-71.609497,-14.152526,1.0525555965121274
-0.293945,-0.975586,-0.23999,17.967224,-109.260551,-4.875183,1.0467888547940314
-0.349609,-0.973633,-0.208008,13.96942,-135.887146,2.220154,1.0552037716166485
-0.404785,-0.965576,-0.183838,10.19287,-145.500183,8.094788,1.0630072051707835
-0.458496,-0.951904,-0.161133,7.743835,-140.029907,12.474059,1.0687860641498839
-0.502686,-0.942627,-0.142578,6.744384,-124.305717,15.075683,1.0777603452572377
-0.537109,-0.941162,-0.131836,6.54602,-102.157585,15.937804,1.0916284711480366
-0.557129,-0.938232,-0.130127,6.309509,-77.293396,15.602111,1.0989108446976033
-0.558105,-0.929199,-0.135254,5.950927,-52.87933,14.625548,1.0923303608075718
-0.554688,-0.924316,-0.145752,5.752563,-30.654905,12.96997,1.087787888654769
-0.543945,-0.921631,-0.159912,5.767822,-11.184691,10.810851,1.082059014532017
-0.53125,-0.918701,-0.171875,5.53894,4.669189,8.201599,1.0750716745994193
-0.509521,-0.916748,-0.182617,5.027771,16.433716,5.706787,1.0646067413059153
-0.478027,-0.915039,-0.198242,4.211426,23.719786,3.532409,1.0512402555144091
-0.432861,-0.92041,-0.212158,3.311157,25.360106,1.197815,1.0390063668645153
-0.397949,-0.92627,-0.223389,2.357483,22.621153,-1.449585,1.0325900274658866
-0.378418,-0.936035,-0.22876,1.831055,20.179747,-3.265381,1.0352259857388626
-0.368652,-0.943359,-0.223877,1.716614,20.271299,-4.005432,1.0372807773761161
-0.37085,-0.950928,-0.212646,1.556396,23.117064,-4.15802,1.0425987267400627
-0.372314,-0.961426,-0.201172,1.770019,28.861998,-3.662109,1.0504417364404368
-0.36792,-0.969238,-0.192871,2.227783,36.468506,-2.906799,1.0545077760192194
-0.358643,-0.974365,-0.186035,2.601623,44.509884,-1.747131,1.054808502003563
-0.346191,-0.984619,-0.178955,2.746582,52.398678,-0.648498,1.0589370499075947
-0.333496,-0.995361,-0.171875,2.677917,59.898373,0.213623,1.0637218235807706
-0.319336,-1.001709,-0.168701,2.357483,67.420959,1.342773,1.0648269479018644
-0.307129,-1.004395,-0.165039,1.876831,74.653625,2.693176,1.063191144708702
-0.297119,-1.005371,-0.161865,1.235962,81.695549,4.142761,1.0607784057129934
-0.286133,-1.002686,-0.158936,0.617981,88.36364,5.828857,1.054756825235561
-0.273193,-1.005371,-0.152832,-0.137329,94.352715,7.530212,1.0529781019157045
-0.265625,-1.006836,-0.145508,-0.984192,99.616997,9.170532,1.0514028483816278
-0.260986,-1.000977,-0.144043,-1.663208,103.897087,10.734557,1.0444218652316697
-0.261719,-0.996338,-0.142822,-2.685547,107.833855,12.062072,1.039992485015637
-0.26123,-0.993164,-0.134766,-3.341675,111.877434,12.802123,1.0357498339618503
-0.253906,-0.987305,-0.122559,-3.662109,116.172783,12.748717,1.0267717021529177
-0.248291,-0.986084,-0.108887,-4.058838,120.040886,12.229918,1.0226761239542066
-0.244385,-0.981445,-0.096436,-4.318237,122.459404,11.566161,1.016001091705122
-0.229736,-0.981689,-0.090576,-4.570007,122.642509,10.971068,1.0122726580289523
-0.213623,-0.981445,-0.08252,-4.905701,119.789116,10.169982,1.0078088234154334
-0.207031,-0.98291,-0.074707,-5.546569,113.372795,9.925842,1.0072512292918783
-0.20459,-0.983887,-0.067383,-6.324768,104.347221,9.765625,1.0071897366226483
-0.200439,-0.984619,-0.063721,-7.232666,93.460075,9.788513,1.0068320285544157
-0.205566,-0.980225,-0.063965,-8.270264,80.810539,10.162353,1.0035885373030125
-0.212158,-0.975586,-0.062012,-8.934021,67.123413,11.032104,1.0003122255096155
-0.2146,-0.974854,-0.057373,-9.315491,52.986141,11.871337,0.9998425588286388
-0.219482,-0.971924,-0.050537,-9.712219,38.673401,12.390136,0.9976786047966549
-0.229248,-0.973877,-0.056641,-10.299682,24.368284,13.023376,1.0020974301503822
-0.250244,-0.973389,-0.064697,-11.215209,11.611938,14.236449,1.0071215947769168
-0.280273,-0.971924,-0.070068,-12.039184,2.571106,16.288757,1.0139520407440383
-0.304443,-0.971924,-0.074219,-12.5885,-2.89154,18.745422,1.021190610016563
-0.336182,-0.967529,-0.080566,-13.061522,-6.576538,21.278379,1.0274344666795054
-0.362793,-0.960449,-0.071533,-12.664794,-6.904602,23.269651,1.0291734608602185
-0.339844,-0.95752,-0.063477,-11.07788,-2.052307,24.108885,1.0180215244605588
-0.287842,-0.959961,-0.068848,-10.238647,2.311707,23.445127,1.0045487472437562
-0.266846,-0.956299,-0.082031,-9.750366,1.075745,22.888182,0.9962146606419723
-0.307129,-0.954834,-0.099609,-8.613586,-1.281738,24.383543,1.0079474902384546
-0.370361,-0.954102,-0.100342,-7.400512,3.578186,26.268003,1.0283707569203824
-0.380127,-0.949951,-0.090332,-4.722595,19.020081,27.397154,1.0271627469656404
-0.329834,-0.951172,-0.078857,-1.426697,38.040161,25.497435,1.0098203145060016
-0.279785,-0.95459,-0.069092,0.968933,52.742001,19.638062,0.9971436299696249
-0.246094,-0.954834,-0.070068,2.983093,63.453671,14.73236,0.9885240255127843
-0.205322,-0.958496,-0.078369,4.478455,72.227478,11.436461,0.9833683978352162
-0.145508,-0.963135,-0.09082,5.439758,78.018188,7.408142,0.9782892612560969
-0.095947,-0.97168,-0.109863,6.378173,77.62146,3.929138,0.9825669076342842
-0.069336,-0.968262,-0.132568,6.752014,70.304871,1.991272,0.9797515277681377
-0.058105,-0.970215,-0.155762,6.42395,57.685848,0.1297,0.9843551888896609
-0.052979,-0.970947,-0.175537,5.981445,42.030331,-1.579285,0.9881083390089368
-0.05542,-0.977783,-0.187012,5.378723,25.039671,-2.868652,0.9970478722874845
-0.072021,-0.980225,-0.200928,4.638672,9.597778,-3.723144,1.0031949642267948
-0.094727,-0.985596,-0.208252,4.28772,-1.861572,-4.478455,1.0118011540065568
-0.108887,-0.989746,-0.210449,3.829956,-9.490967,-5.615234,1.0177142550274119
-0.118896,-0.992676,-0.209473,3.128052,-15.274047,-6.561279,1.0214797293735203
-0.12915,-0.992432,-0.206055,2.555847,-20.774839,-6.690979,1.0217923762433343
-0.142822,-0.991699,-0.203369,2.044678,-26.329039,-6.103515,1.0223619615605815
-0.164795,-0.993408,-0.201172,1.548767,-30.868528,-5.523681,1.026882184124839
-0.189453,-0.992676,-0.196777,1.426697,-33.226013,-4.905701,1.0295723713824103
-0.20752,-0.989502,-0.192139,1.358032,-33.52356,-4.440308,1.0291239739336557
-0.218018,-0.986084,-0.188477,1.289368,-32.844543,-3.868103,1.0273349419293591
-0.228027,-0.980713,-0.180908,1.373291,-32.524109,-3.40271,1.02299658140289
-0.238037,-0.973633,-0.177246,1.304626,-32.554626,-3.334045,1.017859998513548
-0.24585,-0.970459,-0.174805,1.358032,-32.554626,-3.532409,1.0162626044512313
-0.253906,-0.969482,-0.17334,1.403808,-32.730103,-3.791809,1.0170596643068683
-0.263184,-0.963623,-0.169678,1.518249,-33.638,-4.203796,1.0132254081244707
-0.277588,-0.960938,-0.169922,1.76239,-34.889221,-4.096985,1.0145592263007617
-0.290283,-0.958008,-0.173828,1.88446,-36.003113,-4.051208,1.0160018315618333
-0.302002,-0.953369,-0.175293,2.067566,-36.53717,-4.371643,1.0153055175729127
-0.313232,-0.949463,-0.175537,2.555847,-36.4151,-4.699707,1.0150899036843979
-0.322754,-0.949707,-0.176514,2.906799,-35.194397,-4.943848,1.018464885286184
-0.330811,-0.946533,-0.18042,3.334045,-32.836914,-5.41687,1.0187796691188924
-0.335938,-0.945557,-0.181885,3.730774,-29.861448,-5.996704,1.0198110282390556
-0.337402,-0.948975,-0.185547,4.051208,-26.771544,-6.515502,1.024119792523316
-0.337646,-0.947754,-0.191895,4.150391,-24.16992,-6.881713,1.0242393064401503
-0.341064,-0.950195,-0.195068,4.135132,-22.308348,-6.874084,1.0282250311799457
-0.343506,-0.952637,-0.19751,4.173279,-21.209715,-6.652832,1.0317576391309151
-0.344971,-0.955322,-0.200195,4.051208,-20.462034,-6.317138,1.035240625434493
-0.3479,-0.954102,-0.204834,3.746032,-19.439697,-5.897521,1.0360028976600404
-0.352051,-0.951904,-0.20459,3.494262,-17.166138,-5.310058,1.035334825028599
-0.356689,-0.94873,-0.201172,3.410339,-12.641906,-4.890442,1.033337229177871
-0.350342,-0.947754,-0.194824,3.425598,-6.034851,-4.745483,1.0290449710561729
-0.332764,-0.94873,-0.189453,3.349304,0.656128,-4.53186,1.0230898942932631
-0.314209,-0.950928,-0.188232,3.013611,5.096435,-4.127502,1.0190302462091103
-0.300049,-0.955322,-0.187744,2.334595,6.996154,-3.364563,1.0187822807749456
-0.290527,-0.957764,-0.1875,1.51062,7.240295,-2.746582,1.0182701347997003
-0.285889,-0.96167,-0.189941,0.732422,6.881713,-2.120972,1.021087309049525
-0.286621,-0.961182,-0.186279,-0.083923,6.538391,-1.495361,1.0201579782592498
-0.287842,-0.960449,-0.180664,-0.63324,6.698608,-0.938415,1.0188006573716961
-0.281738,-0.956055,-0.170654,-0.900268,7.530212,-0.617981,1.011207323640904
-0.276855,-0.955078,-0.163574,-0.976562,8.308411,-0.190735,1.0077594606774973
-0.269043,-0.95166,-0.154541,-0.968933,8.842468,0.320435,1.0009614438778347
-0.265381,-0.950439,-0.146484,-0.907898,9.368896,0.648498,0.9976066008893486
-0.262451,-0.952637,-0.140137,-0.87738,9.986877,0.907898,0.9980161120638283
-0.258545,-0.955078,-0.134766,-0.579834,10.276793,1.152039,0.99858969445163
-0.254395,-0.955322,-0.131104,-0.411987,10.429381,1.350403,0.9972688697262138
-0.250977,-0.953613,-0.128418,-0.297546,9.925842,1.266479,0.9944135915312099
-0.249023,-0.954834,-0.121582,0.015259,8.575439,1.274109,0.9942346829642386
-0.247803,-0.959473,-0.117188,0.190735,6.904602,1.113892,0.9978616095842149
-0.247803,-0.960693,-0.119141,0.274658,5.332946,0.724792,0.9992657028733649
-0.247559,-0.958008,-0.120605,0.473022,3.990173,0.37384,0.9968000564656886
-0.246338,-0.955566,-0.126221,0.968933,2.723694,0.160217,0.9948469889591063
-0.247559,-0.956787,-0.127686,1.480102,1.38092,-0.068665,0.9965091752944375
-0.252441,-0.959229,-0.129639,1.808166,0.1297,0.022888,1.0003264483372416
-0.257568,-0.962158,-0.132324,2.243042,-0.823975,-0.1297,1.0047880037918446
-0.262939,-0.966797,-0.138672,2.624511,-1.686096,-0.061035,1.0114659067482206
-0.269287,-0.969238,-0.141357,2.685547,-2.220154,0.12207,1.0158344306342448
-0.271729,-0.969971,-0.148926,2.624511,-2.441406,0.228882,1.0182629050289518
-0.275879,-0.970459,-0.152344,2.586365,-2.342224,0.343323,1.0203472877692183
-0.275879,-0.969971,-0.157715,2.578735,-1.998901,0.343323,1.0206992626170552
-0.275391,-0.969971,-0.162109,2.182007,-1.472473,0.350952,1.021255732714877
-0.275879,-0.967773,-0.167236,1.930237,-0.816345,0.335693,1.020128267359551
-0.271729,-0.96582,-0.169678,1.747131,-0.495911,0.312805,1.017563533900955
-0.269043,-0.965088,-0.173828,1.556396,-0.694275,0.297546,1.0168555242398007
-0.268311,-0.965088,-0.17749,1.373291,-0.984192,0.289917,1.0172946183702143
-0.268555,-0.966797,-0.174805,1.014709,-1.121521,0.305176,1.0185160849289518
-0.268311,-0.966064,-0.17334,0.823975,-1.083374,0.289917,1.0175053810260661
-0.267334,-0.966797,-0.171631,0.740051,-0.862122,0.236511,1.017654709086535
-0.271484,-0.965332,-0.167969,0.587463,-0.518799,0.205994,1.016751207248361
-0.27002,-0.966064,-0.169189,0.366211,-0.030518,0.25177,1.0172587528338108
-0.266357,-0.966309,-0.16748,0.205994,0.587463,0.114441,1.0162424343285414
-0.265137,-0.966797,-0.163574,-0.030518,1.182556,0.099182,1.0157512104122741
-0.265381,-0.968262,-0.160645,-0.106812,1.51062,0.099182,1.0167424412455692
-0.263184,-0.966797,-0.157471,-0.236511,1.686096,0.228882,1.014277759248422
-0.261963,-0.966797,-0.156982,-0.411987,1.792908,0.343323,1.0138857928297447
-0.258789,-0.971436,-0.15332,-0.480652,1.876831,0.450134,1.0169398561453868
-0.257568,-0.971924,-0.151123,-0.595093,1.579285,0.564575,1.016767277959416
-0.256836,-0.973877,-0.1521,-0.75531,1.304626,0.564575,1.018594891026359
-0.256348,-0.972168,-0.151367,-0.846863,1.113892,0.572205,1.0167285212961228
-0.254883,-0.974365,-0.150635,-0.823975,0.831604,0.587463,1.0183532786508815
-0.252441,-0.972168,-0.152832,-0.892639,0.404358,0.640869,1.0159698317022017
-0.249268,-0.970703,-0.154297,-0.930786,-0.106812,0.572205,1.0140051352148074
-0.251221,-0.9729,-0.155029,-1.029968,-0.75531,0.534058,1.0167007385076496
-0.250732,-0.9729,-0.153564,-1.098633,-1.579285,0.450134,1.0163576378027568
-0.25,-0.973633,-0.155029,-1.342773,-2.311707,0.411987,1.0171013762305114
-0.252197,-0.972412,-0.15625,-1.426697,-3.02124,0.343323,1.016662425317765
-0.251953,-0.970703,-0.158203,-1.419067,-3.52478,0.190735,1.0152698250351972
-0.253174,-0.968994,-0.162109,-1.487732,-3.753662,0.175476,1.0145569349193766
-0.252686,-0.96582,-0.165039,-1.457214,-3.913879,0.099182,1.0118776400914293
-0.256104,-0.964355,-0.165039,-1.419067,-4.089355,0.068665,1.011339555422411
-0.256348,-0.962646,-0.16748,-1.365662,-4.15802,-0.061035,1.0101738309914785
-0.258545,-0.963623,-0.169678,-1.419067,-4.203796,-0.190735,1.0120303487731976
-0.26123,-0.963135,-0.168213,-1.25885,-4.28772,-0.427246,1.0120107482107095
-0.265381,-0.963135,-0.169434,-1.342773,-4.211426,-0.549316,1.0132936315510919
-0.269775,-0.964111,-0.172119,-1.091003,-4.081726,-0.686645,1.0158314432557205
-0.269775,-0.965332,-0.173828,-0.900268,-4.03595,-0.892639,1.017280981063246
-0.275146,-0.967285,-0.173096,-1.167297,-4.089355,-1.083374,1.0204449116718648
-0.276611,-0.966309,-0.173096,-1.182556,-4.104614,-1.159668,1.0199161504839502
-0.279053,-0.966064,-0.174316,-1.190186,-3.852844,-1.152039,1.0205568562118428
-0.283447,-0.964844,-0.173584,-1.274109,-3.356933,-1.220703,1.0204888785288158
-0.281738,-0.962402,-0.173584,-1.251221,-2.738952,-1.182556,1.0177059080618527
-0.282227,-0.964111,-0.170166,-1.121521,-2.044678,-0.976562,1.0188810369253125
-0.281006,-0.961182,-0.171875,-1.190186,-1.327515,-0.87738,1.0160591640180212
-0.277344,-0.958252,-0.170654,-1.098633,-0.480652,-0.717163,1.012071824306951
-0.270752,-0.955322,-0.172852,-0.953674,0.190735,-0.526428,1.0078812346164603
-0.267334,-0.957275,-0.172363,-0.823975,0.518799,-0.427246,1.0087377741266557
-0.264404,-0.95874,-0.170898,-0.785828,0.617981,-0.312805,1.0091075211393483
-0.261963,-0.956787,-0.16748,-0.724792,0.617981,-0.297546,1.0060395256340577
-0.257324,-0.955322,-0.167725,-0.434875,0.427246,-0.473022,1.0034876383319329
-0.258789,-0.958008,-0.167236,-0.228882,0.061035,-0.87738,1.0063393832505017
-0.258301,-0.958984,-0.16748,-0.160217,-0.358582,-1.052856,1.0071838309151908
-0.260254,-0.958008,-0.168213,0.0,-0.62561,-1.174927,1.006879876623324
-0.263428,-0.957764,-0.167969,0.267029,-0.694275,-1.396179,1.0074322686121384
-0.262695,-0.960449,-0.171631,0.473022,-0.434875,-1.457214,1.0104098894938627
-0.263428,-0.964111,-0.169678,0.62561,-0.244141,-1.419067,1.0137529063775848
-0.263428,-0.966797,-0.168945,0.709534,-0.320435,-1.411438,1.0161855949667857
-0.264648,-0.966797,-0.169678,0.793457,-0.343323,-1.487732,1.0166246243314196
-0.268311,-0.966797,-0.170166,0.839233,-0.335693,-1.495361,1.0176658093332998
-0.268555,-0.968262,-0.170898,0.816345,-0.091553,-1.373291,1.0192444334275266
-0.267822,-0.968018,-0.170898,0.984192,0.244141,-1.335144,1.0188197084921355
-0.266602,-0.966553,-0.174316,0.953674,0.549316,-1.304626,1.0176872781306643
-0.266602,-0.966553,-0.175781,1.022339,0.579834,-1.167297,1.0179392359929937
-0.269531,-0.967041,-0.177979,1.106262,0.267029,-1.13678,1.0195546969549991
-0.271973,-0.96582,-0.175049,1.014709,0.366211,-1.045227,1.0185380393141927
-0.270508,-0.961182,-0.175049,1.060486,0.465393,-0.930786,1.0137492626823459
-0.267578,-0.958496,-0.177734,1.098633,0.747681,-0.900268,1.0108916573283213
-0.265137,-0.955811,-0.178223,1.091003,0.717163,-0.923157,1.0077875441872657
-0.262695,-0.956543,-0.179443,1.159668,0.495911,-0.869751,1.0080590082544771
-0.264648,-0.955811,-0.180664,1.205444,0.648498,-0.762939,1.0080936030552916
-0.263428,-0.958008,-0.177979,1.274109,1.022339,-0.701904,1.009381079518038
-0.261963,-0.958496,-0.181152,1.274109,1.091003,-0.747681,1.010027347396594
-0.265625,-0.960205,-0.178223,1.266479,0.984192,-0.999451,1.0120838504684284
-0.263184,-0.960938,-0.177734,1.25885,0.938415,-1.174927,1.0120558445342824
-0.26709,-0.961426,-0.17749,1.13678,0.785828,-1.403808,1.0134987526760948
-0.266113,-0.961914,-0.175293,1.014709,0.595093,-1.487732,1.013322410693655
-0.269043,-0.962158,-0.173828,0.999451,0.442505,-1.564026,1.0140751088538758
-0.271484,-0.963623,-0.173828,1.014709,0.282288,-1.487732,1.0161146696948136
-0.272705,-0.962891,-0.171875,0.854492,0.305176,-1.373291,1.0154152404464885
-0.272705,-0.963623,-0.171875,1.022339,0.62561,-1.281738,1.0161094029576736
-0.269287,-0.963379,-0.170654,0.892639,0.862122,-1.060486,1.014759761582021
-0.26709,-0.964844,-0.17041,0.846863,1.075745,-0.839233,1.0155297044084926
-0.267334,-0.963867,-0.169922,0.869751,1.342773,-0.732422,1.014583928183864
-0.264648,-0.963135,-0.168213,0.946045,1.533508,-0.656128,1.0128984181535678
-0.259277,-0.962646,-0.17041,1.052856,1.586914,-0.579834,1.0114106248922838
-0.256348,-0.963379,-0.172607,0.991821,1.541138,-0.518799,1.0117344370900894
-0.253906,-0.963867,-0.171875,1.014709,1.25885,-0.511169,1.0114587812412328
-0.252686,-0.960693,-0.170898,1.060486,0.740051,-0.602722,1.0079619939506648
-0.253418,-0.961914,-0.171875,0.923157,0.350952,-0.63324,1.0094752308724568
-0.253174,-0.962891,-0.172363,0.991821,0.091553,-0.663757,1.0104282042411523
-0.258301,-0.960938,-0.173096,0.984192,-0.205994,-0.709534,1.009991817620816
-0.259766,-0.963135,-0.169678,1.022339,-0.541687,-0.747681,1.0118784643745513
-0.259277,-0.96582,-0.172363,1.068115,-0.640869,-0.724792,1.0147619616924946
-0.261963,-0.967041,-0.176025,0.892639,-0.579834,-0.87738,1.0172402418676723
-0.264404,-0.965088,-0.17334,0.900268,-0.656128,-0.854492,1.0155545670026795
-0.261963,-0.965576,-0.171143,0.938415,-0.63324,-0.823975,1.015013079518683
-0.26416,-0.96582,-0.174316,1.022339,-0.740051,-0.923157,1.01635370115723
-0.266846,-0.966309,-0.175537,0.984192,-0.709534,-0.846863,1.0177293891629544
-0.268555,-0.96875,-0.179199,0.999451,-0.473022,-0.87738,1.0211320346194217
-0.266357,-0.967041,-0.177979,0.900268,-0.221252,-0.869751,1.0187202126055024
-0.265381,-0.967529,-0.175049,0.785828,-0.12207,-0.900268,1.0184211277281123
-0.26416,-0.964355,-0.174561,0.701904,0.244141,-1.022339,1.0150037509024288
-0.265381,-0.965576,-0.175293,0.75531,0.579834,-1.060486,1.0166079494013414
-0.261475,-0.966553,-0.175537,0.816345,0.778198,-0.946045,1.0165663361547046
-0.257568,-0.964844,-0.176025,0.808716,0.923157,-0.961304,1.0140266365263786
-0.255371,-0.962891,-0.17749,0.808716,0.907898,-0.946045,1.0118676423436022
-0.254639,-0.963135,-0.176025,0.686645,0.640869,-1.00708,1.0116594531614875
-0.252441,-0.961914,-0.175293,0.701904,0.152588,-0.892639,1.009818121111916
-0.250977,-0.959717,-0.176025,0.724792,-0.175476,-0.892639,1.0074874566181953
-0.250732,-0.958252,-0.173096,0.724792,-0.282288,-0.991821,1.0055225788335138
-0.251709,-0.957275,-0.177734,0.88501,-0.190735,-0.923157,1.0056451765220176
-0.253174,-0.960693,-0.177246,1.052856,0.106812,-1.029968,1.00917999338126
-0.252441,-0.96167,-0.180176,1.213074,0.091553,-1.068115,1.0104449704743945
-0.25708,-0.962402,-0.178711,1.304626,0.0,-1.106262,1.0120500765895926
-0.259766,-0.965576,-0.182129,1.434326,-0.236511,-1.167297,1.0163593651720833
-0.264893,-0.966797,-0.181152,1.495361,0.030518,-1.182556,1.018666180729487
-0.267578,-0.967041,-0.182129,1.426697,0.419617,-1.220703,1.0197731386960533
-0.26709,-0.96582,-0.183838,1.586914,0.968933,-1.144409,1.0187942632072484
-0.26709,-0.967285,-0.181396,1.64032,1.457214,-0.915527,1.0197459723583124
-0.26709,-0.966309,-0.178711,1.518249,1.815796,-0.900268,1.0183456059226652
-0.263916,-0.961182,-0.179199,1.426697,2.090454,-0.724792,1.0127362804703899
-0.258057,-0.959473,-0.179932,1.441955,2.464294,-0.404358,1.0097313393185336
-0.255615,-0.958984,-0.180176,1.335144,2.784729,-0.274658,1.0086886196725924
-0.253662,-0.956787,-0.177979,1.235962,2.929687,-0.25177,1.0057148194463479
-0.251221,-0.956543,-0.176514,1.235962,2.861023,-0.175476,1.0046112152897757
-0.249268,-0.955811,-0.173828,1.098633,2.609253,-0.198364,1.002958312757315
-0.248779,-0.958496,-0.175781,1.045227,2.075195,-0.404358,1.0057358166128916
-0.251221,-0.960449,-0.172363,1.174927,1.495361,-0.640869,1.0076126617956922
-0.254883,-0.961914,-0.170166,1.113892,1.190186,-0.686645,1.009554532772252
-0.257813,-0.961914,-0.171143,1.068115,1.098633,-0.709534,1.0104632664347577
-0.25708,-0.962646,-0.170166,0.991821,1.274109,-0.62561,1.0108085453101394
-0.255859,-0.965576,-0.172119,0.999451,1.464844,-0.587463,1.0136201407914112
-0.254639,-0.965332,-0.169678,0.961304,1.296997,-0.465393,1.0126685115224032
-0.252441,-0.969482,-0.170166,0.671387,0.915527,-0.320435,1.0161585872101855
-0.255127,-0.968994,-0.171143,0.709534,0.701904,-0.289917,1.0165279556480482
-0.255127,-0.96875,-0.17041,0.50354,0.465393,-0.152588,1.0161721885236774
-0.253662,-0.970703,-0.168213,0.328064,0.50354,-0.160217,1.0173024809868498
-0.249023,-0.968506,-0.17041,0.205994,0.366211,-0.137329,1.0144239225614704
-0.249268,-0.964111,-0.170166,0.1297,0.091553,-0.030518,1.0102480010873567
-0.248535,-0.964355,-0.169922,0.099182,-0.259399,0.144958,1.0102592233352785
-0.248535,-0.968994,-0.169922,-0.015259,-0.587463,0.167847,1.014688377949112
-0.247559,-0.967041,-0.166992,-0.053406,-0.869751,0.038147,1.0120968739335183
-0.249268,-0.962402,-0.169678,-0.137329,-0.946045,0.022888,1.008534961769794
-0.246094,-0.960449,-0.170898,-0.045776,-1.12915,0.160217,1.0060967472569424
-0.246338,-0.961426,-0.169434,0.068665,-1.434326,0.152588,1.006841717488901
-0.248291,-0.961426,-0.167969,0.106812,-1.647949,0.213623,1.0070759450597555
-0.247803,-0.960938,-0.171631,0.076294,-1.823425,0.183105,1.0071074256572632
-0.247314,-0.964111,-0.169678,-0.061035,-2.006531,0.320435,1.009685524607043
-0.248779,-0.967285,-0.171631,-0.144958,-2.487183,0.25177,1.0134043922477345
-0.250732,-0.9646,-0.173828,-0.335693,-3.051758,0.221252,1.011699495605291
-0.255371,-0.966553,-0.174561,-0.442505,-3.52478,0.061035,1.014845107477491
-0.256836,-0.967285,-0.175781,-0.549316,-3.77655,-0.007629,1.0161220212563056
-0.257568,-0.966553,-0.175537,-0.801086,-3.990173,0.076294,1.0155684195572448
-0.258789,-0.964844,-0.170166,-0.976562,-4.386902,0.1297,1.0133371395606696
-0.260254,-0.962646,-0.171143,-0.984192,-4.570007,0.205994,1.011785250080767
-0.262207,-0.965332,-0.170654,-1.091003,-4.516602,0.289917,1.0147616315120511
-0.260254,-0.963867,-0.164795,-1.228333,-4.318237,0.473022,1.0118938334776035
-0.256592,-0.961914,-0.166016,-1.098633,-4.180908,0.701904,1.0092964431305602
-0.259766,-0.962402,-0.16333,-0.991821,-4.020691,0.808716,1.0101349777430737
-0.257813,-0.96167,-0.163818,-0.854492,-3.639221,0.930786,1.0090158913480995
-0.25415,-0.964111,-0.167969,-0.602722,-3.303528,0.801086,1.0110963494059306
-0.251709,-0.962891,-0.168701,-0.389099,-3.211975,0.724792,1.0094436715156523
-0.252197,-0.959473,-0.173096,-0.312805,-3.501892,0.579834,1.0070521286179777
-0.253418,-0.963135,-0.175537,-0.083923,-3.662109,0.526428,1.011267990850101
-0.252441,-0.962891,-0.175781,0.0,-3.746032,0.473022,1.0108335650951645
-0.251953,-0.961914,-0.178223,0.015259,-3.822326,0.320435,1.0102090354644429
-0.254883,-0.961182,-0.179443,0.183105,-3.616333,0.328064,1.0104632457749267
-0.256348,-0.961182,-0.183594,0.312805,-3.303528,0.25177,1.011578909954137
-0.257324,-0.962158,-0.178223,0.25177,-3.105163,0.305176,1.0117939986326268
-0.258301,-0.960938,-0.179932,0.259399,-2.883911,0.457764,1.0111858242029503
-0.26001,-0.960938,-0.180176,0.305176,-2.738952,0.495911,1.0116671542162472
-0.260254,-0.960449,-0.179443,0.289917,-2.677917,0.480652,1.0111351128143065
-0.262939,-0.960205,-0.177246,0.198364,-2.563476,0.419617,1.0112105143153922
-0.262939,-0.961426,-0.174805,0.205994,-2.494812,0.328064,1.0119454823368697
-0.264893,-0.959961,-0.17627,0.183105,-2.532959,0.389099,1.0113182169178996
-0.266113,-0.959717,-0.172607,0.343323,-2.441406,0.473022,1.0107749627424494
-0.265381,-0.960205,-0.171875,0.282288,-2.296448,0.419617,1.0109212297755943
-0.265869,-0.961182,-0.171875,0.236511,-2.082825,0.465393,1.0119773603742328
-0.265381,-0.9646,-0.173828,0.205994,-1.922607,0.442505,1.0154291746571988
-0.264404,-0.964355,-0.174805,0.244141,-1.869202,0.480652,1.0151092696187933
-0.264893,-0.964355,-0.175781,0.244141,-1.838684,0.534058,1.0154052528104234
-0.262451,-0.965332,-0.178223,0.137329,-1.960754,0.556946,1.0161249112948663
-0.262695,-0.966064,-0.178223,-0.038147,-2.258301,0.556946,1.0168833526270356
-0.262939,-0.965576,-0.174805,-0.350952,-2.754211,0.63324,1.0158891265891175
-0.261963,-0.966064,-0.17627,-0.50354,-3.242492,0.694275,1.016353963127512
-0.262207,-0.963135,-0.175293,-0.511169,-3.494262,0.770569,1.013463948506803
-0.262207,-0.96167,-0.17627,-0.587463,-3.761291,0.946045,1.0122414794153616
-0.260742,-0.961914,-0.177734,-0.50354,-3.852844,1.068115,1.0123508822122893
-0.263184,-0.963867,-0.181152,-0.450134,-3.921509,1.052856,1.0154415092209892
-0.265869,-0.965332,-0.18457,-0.595093,-4.005432,1.029968,1.0181445281908654
-0.265625,-0.965088,-0.179443,-0.717163,-4.257202,0.946045,1.0169322881185354
-0.267822,-0.960693,-0.17749,-0.831604,-4.585266,0.862122,1.012996724591447
-0.26709,-0.955078,-0.174805,-0.991821,-4.53949,0.732422,1.0070093555717345
-0.27002,-0.954834,-0.176514,-0.938415,-4.318237,0.762939,1.007857112963936
-0.273438,-0.958252,-0.17627,-0.732422,-3.967285,1.022339,1.0119715155319344
-0.273926,-0.965576,-0.175781,-0.572205,-3.311157,1.068115,1.018956046752263
-0.272949,-0.96582,-0.174072,-0.526428,-2.662658,0.930786,1.0186316754278752
-0.270996,-0.965088,-0.174316,-0.511169,-2.227783,0.801086,1.0174574917980603
-0.269287,-0.963379,-0.175049,-0.427246,-2.174377,0.770569,1.0155081183383026
-0.267822,-0.96167,-0.176758,-0.37384,-2.326965,0.762939,1.0137954444304826
-0.265625,-0.957764,-0.17749,-0.274658,-2.532959,0.785828,1.0096391535697296
-0.265137,-0.953857,-0.177979,-0.320435,-2.815246,0.793457,1.0058913110565175
-0.268799,-0.956543,-0.179443,-0.190735,-2.929687,0.762939,1.0096668774893034
-0.270264,-0.959961,-0.183594,-0.007629,-3.227234,0.823975,1.0140387113187543
-0.27124,-0.959229,-0.182373,-0.106812,-3.303528,0.724792,1.013386068174415
-0.272949,-0.956543,-0.181641,-0.1297,-3.02124,0.762939,1.0111721516789316
-0.274658,-0.956543,-0.18335,-0.038147,-2.39563,0.785828,1.011943056853003
-0.27124,-0.955322,-0.18042,0.0,-1.785278,0.717163,1.0093377223130027
-0.270508,-0.957275,-0.178223,-0.12207,-1.464844,0.62561,1.0106005350374596
-0.269775,-0.957275,-0.178467,-0.038147,-1.63269,0.640869,1.0104476465106937
-0.272217,-0.958984,-0.177979,-0.099182,-1.823425,0.556946,1.0126346487188753
-0.270996,-0.95874,-0.174561,-0.175476,-1.914978,0.396728,1.0114804804527866
-0.271484,-0.960205,-0.173096,-0.267029,-1.998901,0.358582,1.0127484532187645
-0.273682,-0.963379,-0.174561,-0.320435,-1.907349,0.404358,1.016598483908962
-0.27417,-0.962646,-0.176025,-0.114441,-1.823425,0.38147,1.0162880058531636
-0.270996,-0.963623,-0.174805,-0.228882,-1.808166,0.419617,1.0161520093814704
-0.273926,-0.96582,-0.17334,-0.259399,-2.037048,0.495911,1.0187691011588444
-0.272461,-0.967041,-0.175781,-0.274658,-2.304077,0.434875,1.0199520832681308
-0.271484,-0.965332,-0.175781,-0.541687,-2.693176,0.473022,1.0180709171963414
-0.270264,-0.964355,-0.177002,-0.656128,-3.082275,0.63324,1.0170314172752972
-0.268799,-0.963135,-0.176758,-0.724792,-3.601074,0.709534,1.0154434111214667
-0.269775,-0.960938,-0.174072,-0.816345,-4.249573,0.778198,1.013154209216445
-0.269043,-0.962158,-0.176758,-0.839233,-4.676819,0.907898,1.0145814621690068
-0.268555,-0.959717,-0.177246,-0.953674,-5.043029,0.915527,1.0122226299732684
-0.272217,-0.95752,-0.175537,-0.831604,-5.500793,0.976562,1.010821390680866
-0.275635,-0.960449,-0.180908,-0.785828,-6.072998,1.00708,1.0154627710014779
-0.279053,-0.959473,-0.179199,-0.793457,-6.408691,1.045227,1.0151705748981301
-0.281982,-0.956299,-0.178223,-0.709534,-6.538391,1.159668,1.0128104775593507
-0.285889,-0.954834,-0.176758,-0.564575,-6.072998,0.999451,1.012266703216598
-0.287109,-0.952881,-0.182617,-0.366211,-5.28717,0.907898,1.0118116162265582
-0.28833,-0.953369,-0.18335,-0.221252,-4.638672,0.968933,1.0127506413530432
-0.288818,-0.955322,-0.18457,-0.076294,-4.425049,0.762939,1.014949282332866
-0.292969,-0.95459,-0.187744,-0.061035,-4.470825,0.541687,1.016031846251386
-0.293213,-0.953125,-0.188477,-0.061035,-4.432678,0.427246,1.0148619159880816
-0.294678,-0.952393,-0.187744,0.076294,-4.165649,0.465393,1.0144630893576168
-0.296875,-0.952148,-0.188232,0.236511,-3.799438,0.495911,1.014963972440894
-0.299072,-0.950684,-0.186523,0.274658,-3.181457,0.50354,1.013920587900749
-0.298584,-0.952393,-0.187256,0.396728,-2.540588,0.450134,1.0155144711135338
-0.29834,-0.954102,-0.187256,0.427246,-1.968384,0.465393,1.0170458158509872
-0.297119,-0.952637,-0.189209,0.480652,-1.25885,0.549316,1.0156756370077014
-0.294189,-0.950195,-0.187012,0.75531,-0.686645,0.556946,1.012122123999866
-0.29126,-0.952637,-0.185547,0.701904,-0.221252,0.587463,1.0133002173975885
-0.29248,-0.951172,-0.187256,0.701904,0.137329,0.63324,1.0125895187685878
-0.290527,-0.956299,-0.182861,0.87738,0.526428,0.701904,1.0160471743236137
-0.284424,-0.956299,-0.182129,0.930786,0.839233,0.62561,1.0141872419913396
-0.2854,-0.957031,-0.181885,1.029968,1.12915,0.640869,1.0151077027517819
-0.285156,-0.955322,-0.180908,1.037598,1.434326,0.610352,1.013253064384214
-0.282959,-0.956055,-0.181396,1.029968,1.533508,0.488281,1.0134157426851036
-0.280762,-0.954834,-0.179688,1.106262,1.586914,0.526428,1.0113471439342674
-0.280273,-0.954102,-0.178711,1.121521,1.63269,0.610352,1.0103470702951536
-0.280518,-0.955811,-0.177002,1.167297,1.64032,0.488281,1.0117285822042392
-0.280762,-0.956543,-0.174561,1.197815,1.609802,0.50354,1.0120639081668708
-0.279297,-0.958984,-0.175049,1.083374,1.617432,0.389099,1.0140509251837404
-0.278809,-0.958008,-0.17334,1.220703,1.38092,0.389099,1.0126996307617575
-0.281006,-0.959961,-0.173096,1.113892,1.106262,0.328064,1.0151116779808023
-0.280518,-0.959961,-0.174805,0.839233,0.75531,0.267029,1.0152695493660784
-0.279785,-0.959229,-0.172607,0.839233,0.320435,0.267029,1.0139985685961297
-0.278564,-0.961426,-0.172119,0.793457,-0.007629,0.305176,1.0156588037983032
-0.281738,-0.964355,-0.171875,0.740051,-0.267029,0.427246,1.0192634018221196
-0.282715,-0.962402,-0.170654,0.617981,-0.671387,0.427246,1.0174812865822151
-0.283203,-0.960449,-0.169189,0.335693,-0.785828,0.511169,1.0155250555899642
-0.281738,-0.960693,-0.172363,0.411987,-0.923157,0.579834,1.0158820525346435
-0.282227,-0.959229,-0.174805,0.335693,-0.991821,0.694275,1.0150513001789614
-0.283936,-0.960693,-0.175293,0.213623,-0.968933,0.694275,1.0169947532775183
-0.280518,-0.958496,-0.175537,0.350952,-1.00708,0.648498,1.0140109312571537
-0.280029,-0.956787,-0.174561,0.343323,-1.174927,0.480652,1.0120914716225011
-0.282959,-0.959229,-0.177734,0.312805,-1.358032,0.259399,1.0157634788069514
-0.28418,-0.960938,-0.182129,0.350952,-1.564026,0.1297,1.0184945188291394
-0.285156,-0.960693,-0.17627,0.434875,-1.76239,-0.061035,1.0175048390474613
-0.288818,-0.960449,-0.175781,0.442505,-1.663208,-0.236511,1.0182225094182509
-0.288818,-0.95874,-0.176514,0.389099,-1.213074,-0.434875,1.0167376342596943
-0.288574,-0.959229,-0.177246,0.465393,-0.694275,-0.396728,1.0172567878529983
-0.289063,-0.961426,-0.174072,0.640869,-0.450134,-0.282288,1.0189202287858456
-0.290039,-0.960693,-0.171631,0.495911,-0.335693,-0.38147,1.0180917748076546
-0.28418,-0.957764,-0.170166,0.358582,-0.144958,-0.442505,1.013423218429497
-0.282471,-0.954102,-0.171875,0.297546,-0.175476,-0.404358,1.0097729981882066
-0.28125,-0.953125,-0.17041,0.427246,-0.183105,-0.404358,1.0082600836217805
-0.278809,-0.954346,-0.170166,0.473022,-0.457764,-0.419617,1.008695798421407
-0.275635,-0.954346,-0.167969,0.411987,-0.62561,-0.328064,1.0074544783274328
-0.275879,-0.953857,-0.168457,0.526428,-0.999451,-0.434875,1.0071395930748626
-0.277588,-0.955811,-0.167725,0.549316,-1.449585,-0.617981,1.009337129550875
-0.277588,-0.958008,-0.168945,0.389099,-1.968384,-0.946045,1.0116208967953362
-0.281006,-0.959229,-0.169189,0.366211,-2.380371,-1.174927,1.0137601117611603
-0.284668,-0.959717,-0.165283,0.587463,-2.441406,-1.426697,1.0145989653069827
-0.286377,-0.958252,-0.167236,0.526428,-2.250671,-1.480102,1.0140150695768775
-0.285645,-0.958984,-0.169189,0.564575,-2.067566,-1.403808,1.014824268532242
-0.287109,-0.956543,-0.172119,0.564575,-2.067566,-1.251221,1.0134253987793083
-0.285645,-0.95752,-0.172852,0.541687,-2.288818,-1.251221,1.0140588889847573
-0.286865,-0.960693,-0.175293,0.518799,-2.334595,-1.190186,1.017816390280192
-0.290283,-0.959717,-0.175293,0.37384,-2.113342,-1.152039,1.0178647140101675
-0.288086,-0.959717,-0.175781,0.411987,-1.960754,-1.235962,1.0173245418478805
-0.288086,-0.960205,-0.178711,0.366211,-1.678467,-1.205444,1.018295049060929
-0.287109,-0.957275,-0.179199,0.328064,-1.518249,-1.174927,1.015341954765487
-0.285889,-0.956543,-0.180664,0.305176,-1.434326,-1.197815,1.0145671550301636
-0.285889,-0.959473,-0.177002,0.38147,-1.396179,-1.220703,1.0166861197311587
-0.288574,-0.961426,-0.177002,0.267029,-1.350403,-1.373291,1.0192863262871723
-0.2854,-0.961182,-0.172852,0.152588,-1.243591,-1.312256,1.0174486773434814
-0.282227,-0.958008,-0.175049,0.144958,-1.190186,-1.38092,1.0139396234460907
-0.282715,-0.955811,-0.175293,0.167847,-1.113892,-1.319885,1.0120425261791126
-0.283203,-0.953613,-0.175049,0.274658,-1.205444,-1.121521,1.0100613077328526
-0.279053,-0.95459,-0.176514,0.259399,-1.38855,-1.091003,1.010084074275503
-0.276123,-0.954834,-0.17749,0.274658,-1.449585,-1.068115,1.0096804339913694
-0.276611,-0.952393,-0.177246,0.366211,-1.487732,-1.075745,1.0074632580327683
-0.281006,-0.95459,-0.174316,0.366211,-1.770019,-1.174927,1.0102437864159324
-0.283936,-0.95752,-0.175781,0.328064,-1.876831,-1.358032,1.0140824238970914
-0.284912,-0.958252,-0.173096,0.411987,-1.76239,-1.533508,1.014585614161762
-0.28418,-0.960693,-0.176514,0.541687,-1.564026,-1.655578,1.0172740559185613
-0.286865,-0.959961,-0.177979,0.50354,-1.396179,-1.708984,1.01759185049164
-0.285156,-0.959961,-0.178955,0.434875,-1.243591,-1.731872,1.0172826342182393
-0.283691,-0.961914,-0.179199,0.465393,-1.197815,-1.792908,1.018759740310737
-0.284424,-0.962158,-0.181152,0.511169,-1.045227,-1.739502,1.0195396391725042
-0.283447,-0.963623,-0.179443,0.526428,-0.823975,-1.609802,1.020348606206232
-0.280762,-0.962646,-0.181641,0.511169,-0.62561,-1.548767,1.0190721637062805
-0.279297,-0.961182,-0.180908,0.350952,-0.495911,-1.426697,1.0171555219321182
-0.275879,-0.960449,-0.181641,0.259399,-0.343323,-1.457214,1.0156598629083458
-0.274658,-0.960205,-0.18457,0.137329,-0.434875,-1.51062,1.0156262816060837
-0.27124,-0.960449,-0.181152,0.099182,-0.778198,-1.51062,1.01432217086338
-0.271729,-0.96167,-0.179932,-0.099182,-1.121521,-1.525879,1.0153922212450714
-0.273926,-0.961914,-0.177979,-0.259399,-1.525879,-1.693725,1.0158693426386092
-0.272949,-0.961426,-0.17627,-0.335693,-1.647949,-1.831055,1.0148459109524952
-0.276855,-0.961914,-0.175537,-0.457764,-1.663208,-1.88446,1.0162383936803412
-0.273926,-0.958496,-0.174072,-0.366211,-1.533508,-1.960754,1.0119540981072215
-0.274414,-0.959229,-0.176514,-0.335693,-1.487732,-1.861572,1.0132030941686865
-0.274414,-0.958496,-0.178467,-0.144958,-1.449585,-1.823425,1.0128514676402458
-0.273926,-0.95874,-0.17627,-0.175476,-1.480102,-1.76239,1.0125655307070256
-0.272705,-0.957764,-0.177734,-0.198364,-1.571655,-1.724243,1.0115677295549714
-0.272217,-0.957031,-0.177002,-0.1297,-1.647949,-1.678467,1.0106137432540683
-0.275391,-0.956055,-0.178711,-0.167847,-1.747131,-1.693725,1.0108506256747334
-0.275146,-0.957275,-0.179199,-0.144958,-1.853943,-1.747131,1.0120242232980394
-0.272461,-0.959961,-0.181152,-0.053406,-1.770019,-1.564026,1.0141874408342868
-0.271973,-0.95874,-0.18335,-0.038147,-1.571655,-1.487732,1.0132960686931536
-0.272217,-0.95874,-0.185303,-0.015259,-1.579285,-1.548767,1.0137167673951142
-0.273193,-0.959229,-0.185547,-0.198364,-1.449585,-1.708984,1.014486263533913
-0.27002,-0.95874,-0.188477,-0.068665,-1.434326,-1.724243,1.013714342173869
-0.27124,-0.959473,-0.187744,-0.061035,-1.396179,-1.739502,1.0145971539803371
-0.272705,-0.960449,-0.187744,-0.045776,-1.251221,-1.815796,1.0159124510320758
-0.27124,-0.958984,-0.187744,-0.015259,-1.13678,-1.785278,1.0141347343385887
-0.272461,-0.959229,-0.1875,-0.053406,-1.052856,-1.770019,1.0146484716205904
-0.272217,-0.958496,-0.18457,-0.061035,-1.022339,-1.731872,1.0133522398480206
-0.27124,-0.960205,-0.182129,-0.1297,-1.075745,-1.541138,1.0142661151127943
-0.270264,-0.95752,-0.184082,-0.205994,-1.083374,-1.487732,1.0118168622927768
-0.269775,-0.957764,-0.186279,-0.259399,-0.816345,-1.373291,1.0123192659245401
-0.269531,-0.958008,-0.183105,-0.221252,-0.839233,-1.304626,1.011905988246932
-0.271973,-0.95752,-0.179932,-0.152588,-0.999451,-1.296997,1.0115282436753805
-0.272217,-0.956543,-0.179688,-0.175476,-1.197815,-1.289368,1.0106257384818575
-0.271973,-0.959229,-0.181152,-0.106812,-1.281738,-1.296997,1.0133635252336646
-0.273682,-0.95874,-0.182617,0.076294,-1.358032,-1.342773,1.0136237928408154
-0.274414,-0.957031,-0.183838,0.289917,-1.38092,-1.434326,1.0124266830743842
-0.2771,-0.958252,-0.183105,0.198364,-1.144409,-1.335144,1.0141788533237124
-0.279053,-0.954346,-0.184814,0.205994,-0.701904,-1.472473,1.0113372726845382
-0.273438,-0.956543,-0.185303,0.38147,-0.442505,-1.480102,1.0119684048931568
-0.270508,-0.959961,-0.18042,0.595093,-0.213623,-1.358032,1.013533954036568
-0.271973,-0.961182,-0.179932,0.556946,-0.160217,-1.38855,1.0149954061359094
-0.268799,-0.957275,-0.183594,0.465393,-0.137329,-1.396179,1.0111058722319834
-0.265381,-0.952881,-0.187012,0.579834,0.045776,-1.419067,1.0066691429988306
-0.262695,-0.955566,-0.188477,0.640869,0.267029,-1.304626,1.0087807605768462
-0.261719,-0.958496,-0.1875,0.640869,0.175476,-1.319885,1.011121984221983
-0.261475,-0.95752,-0.186035,0.701904,0.015259,-1.304626,1.0098627368360515
-0.260742,-0.956543,-0.184082,0.572205,-0.183105,-1.342773,1.0083883597786123
-0.259766,-0.958252,-0.180908,0.511169,-0.564575,-1.502991,1.00918431157247
-0.26416,-0.960693,-0.184082,0.541687,-1.060486,-1.602173,1.0132115912152801
-0.266846,-0.961914,-0.181885,0.694275,-1.396179,-1.655578,1.0146760489619335
-0.268066,-0.960449,-0.178955,0.595093,-1.350403,-1.571655,1.0130876339103148
-0.272705,-0.96167,-0.177734,0.511169,-1.106262,-1.701355,1.0152667534598974
-0.271973,-0.961182,-0.179199,0.37384,-0.892639,-1.602173,1.01486572089809
-0.270996,-0.963135,-0.179688,0.396728,-0.869751,-1.586914,1.0165410161842954
-0.268311,-0.962402,-0.180908,0.328064,-0.892639,-1.480102,1.015350238483746
-0.269287,-0.962158,-0.18042,0.335693,-0.907898,-1.518249,1.0152905405513242
-0.268555,-0.963379,-0.180664,0.25177,-0.854492,-1.51062,1.0162973809677953
-0.265137,-0.9646,-0.181885,-0.015259,-0.923157,-1.564026,1.016775757969278
-0.266602,-0.966553,-0.181396,0.022888,-0.946045,-1.625061,1.0189238622335821
-0.263672,-0.964355,-0.181885,-0.030518,-1.152039,-1.533508,1.0161622128548178
-0.26123,-0.958496,-0.187012,-0.160217,-1.579285,-1.426697,1.0109051305933707
-0.259766,-0.960205,-0.181396,-0.190735,-2.105713,-1.319885,1.0111263648016504
-0.262695,-0.960205,-0.181152,-0.221252,-2.426147,-1.25885,1.011839094003587
-0.260742,-0.961182,-0.182129,-0.205994,-2.601623,-1.167297,1.0124367636198324
-0.261475,-0.960205,-0.183105,-0.137329,-2.510071,-1.075745,1.011874625966577
-0.262451,-0.960693,-0.182617,-0.038147,-2.433777,-0.961304,1.0125021167084047
-0.262939,-0.959229,-0.180176,0.114441,-2.319336,-1.014709,1.0108019505016796
-0.263184,-0.962402,-0.179688,0.045776,-2.182007,-1.068115,1.0137905132738223
-0.264893,-0.962158,-0.178467,-0.045776,-2.441406,-1.029968,1.013788335157788
-0.263428,-0.960938,-0.175537,-0.076294,-2.807617,-1.106262,1.0117358298473964
-0.263916,-0.960205,-0.176025,-0.022888,-3.173828,-1.075745,1.0112517479371792
-0.266602,-0.96167,-0.173584,-0.099182,-3.814697,-1.075745,1.0129250813164812
-0.266357,-0.963135,-0.171875,-0.190735,-4.058838,-1.022339,1.0139605984943398
-0.266357,-0.963623,-0.172852,-0.12207,-4.341125,-0.88501,1.0145901396534465
-0.267822,-0.964355,-0.171143,-0.167847,-4.684448,-0.724792,1.0153812664009514
-0.265381,-0.962646,-0.170898,-0.328064,-4.966736,-0.587463,1.0130747864205287
-0.261719,-0.960938,-0.172119,-0.480652,-5.355834,-0.389099,1.0107045191182238
-0.258545,-0.959473,-0.167236,-0.694275,-5.905151,-0.282288,1.007671491335346
-0.257324,-0.957764,-0.172363,-0.808716,-6.240844,-0.091553,1.0065965052795485
-0.255127,-0.953613,-0.177734,-0.785828,-6.629943,-0.045776,1.0030238853855875
-0.25293,-0.953369,-0.179688,-0.823975,-6.942749,-0.068665,1.002583568788657
-0.251465,-0.954834,-0.180664,-0.907898,-7.324218,-0.022888,1.0037838884326644
-0.249023,-0.958252,-0.185791,-0.694275,-7.629394,-0.045776,1.0073617253568847
-0.253174,-0.960449,-0.191406,-0.640869,-7.850646,-0.183105,1.0115313206782082
-0.252441,-0.960938,-0.193115,-0.961304,-7.92694,-0.25177,1.012137195023481
-0.253174,-0.958252,-0.196777,-1.037598,-7.797241,-0.38147,1.010477687783852
-0.251709,-0.959229,-0.199707,-1.312256,-7.537841,-0.595093,1.011612861212727
-0.253174,-0.960205,-0.202637,-1.617432,-6.965637,-0.831604,1.0134853082654922
-0.249512,-0.959717,-0.203857,-1.823425,-6.362915,-1.121521,1.0123589455731599
-0.251953,-0.959473,-0.200439,-1.945495,-6.134033,-1.152039,1.0120496749957484
-0.256104,-0.960693,-0.19751,-1.998901,-6.240844,-1.113892,1.0136717906526747
-0.258789,-0.962891,-0.194092,-2.067566,-6.41632,-1.251221,1.0157768105573193
-0.261475,-0.960693,-0.189697,-2.075195,-6.729125,-1.251221,1.013550772128856
-0.26709,-0.959717,-0.186279,-2.037048,-7.324218,-1.13678,1.0134562911295188
-0.270752,-0.960938,-0.183594,-1.945495,-7.6828,-1.091003,1.015093711035587
-0.271973,-0.965088,-0.182129,-1.991272,-7.965087,-0.778198,1.019085439555487
-0.271973,-0.963867,-0.181641,-2.26593,-8.453369,-0.579834,1.0178420109717423
-0.274902,-0.960693,-0.181641,-2.449036,-9.033203,-0.328064,1.0156257198072527
-0.276367,-0.960938,-0.18457,-2.525329,-9.45282,0.1297,1.0167824956366036
-0.27417,-0.95874,-0.187012,-2.716064,-9.719849,0.450134,1.014556585235146
-0.27417,-0.959229,-0.193848,-2.548218,-9.994507,0.938415,1.016300403643037
-0.275879,-0.957031,-0.195557,-2.326965,-10.238647,1.205444,1.01501728943452
-0.276611,-0.954346,-0.196533,-2.235413,-10.261535,1.495361,1.0128746976432967
-0.274902,-0.95166,-0.194824,-1.930237,-9.727478,1.609802,1.0095465596890516
-0.275879,-0.952393,-0.200684,-1.480102,-8.499146,1.38092,1.0116499972549795
-0.274658,-0.950684,-0.200439,-0.961304,-7.156372,1.045227,1.0096597830660583
-0.269775,-0.949951,-0.202881,-0.587463,-5.958557,0.427246,1.0081399472231025
-0.26709,-0.949219,-0.204102,0.022888,-5.317688,-0.045776,1.0069813327291623
-0.267334,-0.949707,-0.202881,0.473022,-4.951477,-0.701904,1.0072594271417865
-0.264648,-0.951904,-0.204102,0.808716,-4.981995,-1.625061,1.0088693748568245
-0.265625,-0.953857,-0.205566,0.946045,-5.065917,-2.410889,1.0112651469471297
-0.266846,-0.952637,-0.204834,0.915527,-5.233764,-3.288269,1.0102875872943307
-0.266113,-0.954834,-0.205322,0.854492,-5.195617,-3.944397,1.0122653901072582
-0.267578,-0.955078,-0.205322,0.976562,-4.943848,-4.486084,1.012881580369591
-0.267334,-0.958008,-0.204102,1.121521,-4.730225,-4.837036,1.0153346354892065
-0.272461,-0.961426,-0.204834,1.25885,-4.722595,-5.149841,1.0200646634174717
-0.27417,-0.965088,-0.205566,1.274109,-4.745483,-5.142211,1.0241198255087145
-0.274658,-0.967529,-0.20166,1.251221,-4.631042,-5.15747,1.0257758714285494
-0.276855,-0.966797,-0.200684,0.930786,-4.341125,-5.149841,1.0254848600003805
-0.273682,-0.965576,-0.198486,0.938415,-3.684997,-5.119323,1.0230520715467029
-0.272461,-0.969482,-0.194336,0.946045,-2.960205,-4.78363,1.0256202151581257
-0.269287,-0.973389,-0.19165,0.854492,-2.571106,-4.554749,1.0279743947151603
-0.262207,-0.972412,-0.187012,0.549316,-2.433777,-4.402161,1.0243588710686309
-0.257324,-0.968506,-0.187256,0.37384,-2.212524,-4.142761,1.019452952591732
-0.248535,-0.963135,-0.185059,0.244141,-2.13623,-4.058838,1.0117536794749007
-0.240967,-0.963135,-0.184326,0.175476,-2.510071,-4.356384,1.0097872041128269
-0.234619,-0.962158,-0.181396,0.411987,-3.219604,-4.455566,1.0068260033099066
-0.229492,-0.960205,-0.180908,0.389099,-4.135132,-4.402161,1.0036871646847936
-0.227539,-0.957764,-0.180664,0.602722,-5.210876,-4.692078,1.0008623067700173
-0.229736,-0.953613,-0.180176,0.968933,-6.340026,-5.088806,0.9973062591004832
-0.22998,-0.950439,-0.179443,1.411438,-6.988525,-5.584716,0.9941955961328737
-0.234131,-0.954346,-0.178955,2.166748,-6.713867,-6.17218,0.9988085426657103
-0.232422,-0.956055,-0.178711,2.754211,-6.17218,-6.767272,0.999999385314811
-0.230469,-0.955811,-0.181885,3.036499,-5.973815,-7.347106,0.9998863839992022
-0.23291,-0.956055,-0.190186,3.166198,-6.340026,-7.736206,1.002226993111341
-0.23584,-0.956787,-0.193604,3.166198,-7.400512,-7.942199,1.0042631018737072
-0.243164,-0.957275,-0.19458,3.097534,-8.605957,-8.079529,1.006660584765789
-0.256836,-0.955322,-0.196045,3.204345,-9.124756,-8.003235,1.0084832654065212
-0.266113,-0.953613,-0.19165,3.303528,-8.735657,-7.652282,1.008426301242684
-0.265381,-0.953369,-0.19043,3.02124,-7.843017,-7.530212,1.0077713581075818
-0.264404,-0.953369,-0.188965,3.067016,-7.095336,-7.400512,1.0072386492793057
-0.272217,-0.956787,-0.187256,3.181457,-6.912231,-6.576538,1.012229355429885
-0.276855,-0.955566,-0.185059,2.998352,-6.492614,-5.767822,1.011929792456967
-0.276123,-0.963867,-0.182373,2.822876,-6.088256,-5.180358,1.0190895034034058
-0.276123,-0.966064,-0.183594,2.63977,-6.179809,-4.53186,1.0213864694918375
-0.271484,-0.965332,-0.1875,2.01416,-6.996154,-4.058838,1.0201596357825573
-0.269531,-0.963867,-0.188965,1.64032,-7.766723,-3.768921,1.0185255641735262
-0.266846,-0.963867,-0.192871,1.243591,-8.369446,-3.509521,1.0185507370995321
-0.263916,-0.966797,-0.193604,1.091003,-8.636475,-3.173828,1.0207010351131227
-0.26123,-0.964111,-0.195313,0.953674,-8.598328,-2.990722,1.017790892664107
-0.256836,-0.958984,-0.198242,0.869751,-8.460999,-2.944946,1.0123808244509573
-0.253662,-0.959961,-0.19873,0.976562,-8.270264,-2.975464,1.0126021650505197
-0.250244,-0.959961,-0.198486,1.083374,-8.110046,-2.990722,1.0117034512410243
-0.25,-0.960693,-0.196533,1.235962,-7.911682,-2.983093,1.0119566494361307
-0.253418,-0.963135,-0.196289,1.403808,-7.530212,-3.044128,1.0150758998567544
-0.249512,-0.9646,-0.195557,1.594543,-7.095336,-3.074646,1.0153580345833682
-0.247314,-0.962402,-0.193848,1.831055,-6.950378,-3.295898,1.0124025243469121
-0.248779,-0.958496,-0.195068,2.006531,-7.202148,-3.356933,1.0092854390513122
-0.251221,-0.954102,-0.193115,2.098083,-7.43103,-3.166198,1.0053437324965029
-0.251953,-0.951904,-0.190186,2.403259,-7.438659,-2.738952,1.002881974123077
-0.253174,-0.948975,-0.188477,2.693176,-7.186889,-2.5177,1.0000870984219323
-0.253662,-0.94458,-0.188965,2.990722,-6.706237,-2.304077,0.996134307143871
-0.25293,-0.944336,-0.187012,3.479004,-6.080627,-2.044678,0.9953479562143079
-0.252441,-0.942139,-0.186279,3.822326,-5.516052,-1.785278,0.9930016211683644
-0.249268,-0.939453,-0.188477,4.15802,-5.1651,-1.647949,0.9900656819433749
-0.25,-0.942139,-0.188721,4.554749,-5.149841,-1.464844,0.992845159711221
-0.25293,-0.944336,-0.19043,4.989624,-5.111694,-1.342773,0.99599580857351
-0.257568,-0.951172,-0.188721,5.310058,-4.943848,-1.060486,1.0033369643589336
-0.26123,-0.953613,-0.191162,5.401611,-5.065917,-0.785828,1.007055994924314
-0.266602,-0.955566,-0.193848,5.477905,-4.974365,-0.442505,1.0108214747738593
-0.268311,-0.961426,-0.196289,5.775451,-4.478455,-0.198364,1.0172807467547982
-0.270264,-0.967773,-0.196045,5.91278,-3.723144,0.038147,1.0237484316227303
-0.269775,-0.9729,-0.196045,5.889892,-2.738952,0.221252,1.028468085382332
-0.265869,-0.981934,-0.200195,6.019592,-1.434326,0.50354,1.0368021718447546
-0.261963,-0.990479,-0.200928,5.882263,-0.167847,0.541687,1.0440523569218165
-0.253174,-0.997314,-0.203125,5.393981,0.663757,0.297546,1.0488050602933798
-0.243408,-0.997314,-0.207031,4.623413,0.534058,0.061035,1.0472557013552135
-0.240479,-0.98999,-0.212402,3.570556,-0.198364,0.1297,1.0406848510211917
-0.238037,-0.981934,-0.216797,2.471924,-1.205444,0.526428,1.0333716335055845
-0.235352,-0.972656,-0.219971,1.548767,-2.067566,1.068115,1.024615781198494
-0.231689,-0.963379,-0.216797,0.778198,-2.548218,1.724243,1.0142878435488616
-0.232666,-0.956543,-0.211182,0.534058,-2.365112,2.120972,1.006829586141071
-0.230469,-0.951904,-0.200928,0.572205,-1.403808,2.326965,0.9998046040907194
-0.22583,-0.950439,-0.189209,0.770569,-0.328064,2.235413,0.9950545348381666
-0.228271,-0.95166,-0.176758,1.12915,0.25177,2.01416,0.9944887106473356
-0.23291,-0.953857,-0.166504,1.449585,0.587463,1.403808,0.9958985021401529
-0.237061,-0.961914,-0.156982,1.998901,0.938415,0.946045,1.003055237482463
-0.244629,-0.964844,-0.145508,2.258301,0.846863,0.793457,1.005952220555728
-0.258545,-0.96582,-0.136475,2.616882,0.556946,0.839233,1.0090982187329438
-0.266357,-0.963867,-0.130127,2.89154,0.63324,0.839233,1.008423859925478
-0.270508,-0.965576,-0.125488,3.242492,1.022339,0.938415,1.0105735143887355
-0.266113,-0.96875,-0.128418,3.692627,1.045227,1.174927,1.0128098903510965
-0.263428,-0.963135,-0.129883,4.127502,0.854492,1.25885,1.00692250600431
-0.260254,-0.960205,-0.12915,4.66156,0.831604,1.800537,1.0031976420631181
-0.250977,-0.966309,-0.139404,5.1651,0.640869,2.128601,1.008055560584832
-0.245117,-0.969482,-0.147461,5.012512,-0.236511,1.976013,1.010802868285404
-0.242188,-0.966797,-0.154297,4.554749,-1.243591,1.914978,1.0085430237535729
-0.237793,-0.964355,-0.155518,4.638672,-1.64032,2.029419,1.0053416957422983
-0.235352,-0.963623,-0.157715,4.768372,-1.068115,2.098083,1.0044072238181085
-0.226807,-0.965088,-0.159424,4.997253,0.045776,2.090454,1.0041176598232897
-0.222168,-0.969238,-0.15625,5.195617,1.13678,2.182007,1.0065758706466195
-0.216553,-0.972656,-0.153564,5.485534,1.823425,2.059937,1.0082344956611036
-0.208496,-0.974854,-0.154053,5.41687,1.739502,1.678467,1.0087334782493342
-0.202881,-0.972656,-0.154053,5.462646,0.785828,1.167297,1.0054614469515974
-0.207031,-0.977783,-0.151123,5.500793,-0.816345,0.854492,1.0108212459079993
-0.214355,-0.982178,-0.146973,5.355834,-2.548218,0.663757,1.0159836378790752
-0.221191,-0.985107,-0.144043,4.981995,-4.119873,0.724792,1.0198576595677458
-0.229004,-0.98877,-0.139648,4.547119,-5.699157,0.869751,1.0245050067325197
-0.23877,-0.987793,-0.135986,4.081726,-7.141113,1.029968,1.0252991348601637
-0.251709,-0.989746,-0.130371,3.814697,-8.132935,1.457214,1.0295392964030077
-0.256348,-0.984375,-0.12793,3.425598,-8.308411,1.747131,1.0252192558809066
-0.258301,-0.97876,-0.126953,3.257751,-7.8125,1.937866,1.0201997884777274
-0.262451,-0.978516,-0.125977,3.227234,-7.17926,2.189636,1.0209036654777963
-0.26123,-0.977295,-0.125,3.211975,-6.67572,2.5177,1.0192995781049847
-0.258301,-0.973145,-0.129395,3.341675,-6.431579,2.532959,1.015122487018685
-0.256592,-0.971191,-0.127686,3.334045,-6.66809,2.738952,1.0125982063686465
-0.258789,-0.966797,-0.12915,3.059387,-7.43103,2.76947,1.009132255073635
-0.262939,-0.967041,-0.13208,2.906799,-7.614135,2.700805,1.010816669728987
-0.261475,-0.969482,-0.127197,3.044128,-6.767272,2.700805,1.0121480132658462
-0.256104,-0.971924,-0.128174,2.944946,-5.783081,2.433777,1.0132394064918715
-0.249512,-0.972656,-0.126953,3.005981,-5.050659,1.983642,1.0121427748539236
-0.239746,-0.978516,-0.121338,3.120422,-4.692078,1.464844,1.0147386939582033
-0.232422,-0.987793,-0.123535,2.906799,-5.493164,1.319885,1.0222601885811655
-0.240479,-0.996826,-0.129395,2.563476,-7.347106,1.525879,1.033554686381906
-0.246338,-1.004639,-0.130615,2.449036,-8.666992,1.76239,1.042613163541493
-0.248291,-1.009277,-0.129395,2.037048,-9.216309,1.846313,1.047392738868759
-0.254883,-1.008301,-0.127197,1.731872,-9.460449,1.930237,1.0477668285926025
-0.254395,-1.013428,-0.125488,1.319885,-9.712219,1.815796,1.052378432576894
-0.248291,-1.007324,-0.124756,0.648498,-10.253905,2.212524,1.0449469465925052
-0.247559,-0.993652,-0.118164,-0.083923,-11.497497,3.242492,1.030821267961134
-0.251709,-0.97876,-0.116211,-1.083374,-13.191222,3.883362,1.0172676908277387
-0.25415,-0.966797,-0.113525,-1.724243,-14.678954,4.440308,1.0060698719939882
-0.259277,-0.957275,-0.11084,-2.098083,-15.182494,5.500793,0.9979406264673264
-0.257324,-0.952881,-0.103516,-2.349854,-14.587401,6.16455,0.9924280343647089
-0.250977,-0.953857,-0.103516,-2.571106,-13.885497,6.324768,0.9917399826738861
-0.251221,-0.951904,-0.095947,-2.807617,-13.641356,6.584167,0.9891607770559849
-0.25415,-0.951172,-0.089111,-3.036499,-13.671874,6.721496,0.9885652059449594
-0.258545,-0.953613,-0.082764,-2.914428,-13.71765,6.980896,0.9915004541047876
-0.26123,-0.958252,-0.075439,-2.807617,-13.946532,6.92749,0.9960818496112656
-0.262451,-0.960938,-0.071777,-2.944946,-14.747619,6.278991,0.9987163285808438
-0.262939,-0.959473,-0.072021,-2.761841,-15.716552,5.638122,0.9974529462039801
-0.265625,-0.962402,-0.070801,-2.532959,-16.975403,5.378723,1.0008931170859354
-0.278076,-0.964355,-0.07251,-2.39563,-18.157959,4.905701,1.006262653535845
-0.283691,-0.966797,-0.074463,-2.128601,-18.760681,4.470825,1.0103077556165745
-0.286865,-0.967773,-0.073242,-1.922607,-19.02771,4.226685,1.0120476759115649
-0.287109,-0.965088,-0.068604,-1.846313,-19.15741,3.814697,1.009223926807624
-0.285645,-0.960449,-0.069092,-1.609802,-19.218445,3.562927,1.0044048248042219
-0.285889,-0.961914,-0.069824,-1.548767,-18.913269,3.15094,1.0059256705607031
-0.28125,-0.963135,-0.070557,-1.304626,-18.623352,2.799988,1.0058374028509778
-0.275879,-0.959473,-0.069092,-1.144409,-18.302917,2.174377,1.0007354120015939
-0.268311,-0.960938,-0.069824,-0.961304,-18.318176,1.617432,1.000134002792126
-0.261963,-0.96167,-0.071533,-0.732422,-18.928528,1.022339,0.999275123455998
-0.257813,-0.965088,-0.071533,-0.511169,-20.111082,0.297546,1.0014885724769904
-0.255859,-0.967285,-0.075684,-0.282288,-21.766661,-0.259399,1.0034102685153266
-0.257568,-0.970215,-0.076416,-0.038147,-24.261473,-0.679016,1.006726291454137
-0.268066,-0.973877,-0.081543,0.106812,-26.908873,-0.923157,1.0133829741682066
-0.281006,-0.974854,-0.085205,0.312805,-28.564451,-1.174927,1.018118158848471
-0.287109,-0.978516,-0.087891,0.617981,-29.129026,-1.38092,1.0235477360719432
-0.292725,-0.977295,-0.092285,0.930786,-29.495237,-1.594543,1.024358318106999
-0.299316,-0.973389,-0.098877,1.014709,-29.678343,-1.846313,1.023158284091958
-0.304932,-0.967529,-0.102783,1.281738,-29.304502,-1.983642,1.0196373058857744
-0.309082,-0.963135,-0.107422,1.541138,-28.388975,-1.991272,1.017202141677356
-0.311523,-0.958984,-0.11084,1.930237,-27.046202,-2.059937,1.0143876957973217
-0.310303,-0.956299,-0.113525,2.357483,-25.505064,-2.326965,1.0117725311723975
-0.313477,-0.952148,-0.111816,2.815246,-23.681639,-2.708435,1.0086408980846453
-0.314697,-0.950195,-0.114258,3.250122,-21.972654,-2.792358,1.007452048684204
-0.311768,-0.949463,-0.117432,3.623962,-20.484922,-2.845764,1.006215458446649
-0.317139,-0.950684,-0.120605,3.639221,-19.432068,-3.135681,1.009417049193246
-0.319092,-0.949707,-0.121338,3.532409,-18.630981,-3.265381,1.0092006740767665
-0.320313,-0.950928,-0.11792,3.555298,-17.295837,-3.295898,1.0103314335172395
-0.323242,-0.958984,-0.114014,3.494262,-15.2359,-3.364563,1.018398200615064
-0.322998,-0.964111,-0.108643,3.471374,-12.886046,-3.318786,1.0225659048560147
-0.318604,-0.973389,-0.109131,3.112793,-11.32965,-3.288269,1.0300020530552354
-0.317627,-0.979004,-0.102295,2.479553,-10.795592,-3.15094,1.0343113700283875
-0.31665,-0.978271,-0.098877,1.88446,-10.627746,-2.487183,1.0329850110577599
-0.313965,-0.981689,-0.098877,1.228333,-10.505675,-1.922607,1.0354052226423238
-0.306152,-0.983887,-0.095947,0.434875,-11.131286,-1.243591,1.0348760808338358
-0.303467,-0.983887,-0.096924,-0.62561,-12.84027,-0.411987,1.03417605398404
-0.299561,-0.980957,-0.096924,-1.63269,-15.525817,0.656128,1.030246422146663
-0.303955,-0.979492,-0.093994,-2.662658,-18.440247,1.953125,1.0298679974273404
-0.303467,-0.978271,-0.091309,-3.64685,-20.858763,3.158569,1.0283208171631069
-0.304443,-0.97998,-0.090088,-4.585266,-22.460936,3.974914,1.030127268056234
-0.308105,-0.981201,-0.088379,-5.569458,-23.437498,4.753113,1.0322281439037593
-0.310547,-0.97583,-0.090088,-6.652832,-23.91815,5.577087,1.0280075271382987
-0.313232,-0.968018,-0.089355,-7.820129,-24.177549,6.210327,1.0213507968239903
-0.310059,-0.965088,-0.086182,-8.827209,-24.505613,6.782531,1.0173292330160377
-0.310791,-0.962158,-0.083496,-9.681702,-25.405882,7.293701,1.014549478665777
-0.311035,-0.962158,-0.078613,-10.490417,-26.18408,7.499694,1.0142340913014116
-0.308594,-0.964844,-0.075928,-11.20758,-26.512144,7.514953,1.0158342691384261
-0.307129,-0.963623,-0.07666,-11.779784,-27.06909,7.354736,1.014285100141967
-0.306396,-0.96167,-0.074463,-12.283324,-28.114317,7.202148,1.0120436927746745
-0.310547,-0.959717,-0.073486,-12.870788,-29.159544,6.904602,1.0113833850197462
-0.312988,-0.95874,-0.07373,-13.313293,-30.334471,6.217956,1.0112269718732785
-0.313965,-0.955322,-0.070068,-13.450622,-31.318663,5.882263,1.0080295975481077
-0.316895,-0.955322,-0.069336,-13.59558,-31.951902,5.523681,1.0088954582140808
-0.319092,-0.959961,-0.06665,-13.519286,-32.363892,5.012512,1.0137983273240294
-0.318115,-0.960693,-0.066895,-13.534545,-32.592773,4.53186,1.0142007367868553
-0.322266,-0.963379,-0.062988,-13.481139,-32.691956,4.135132,1.017802515491586
-0.321045,-0.962891,-0.065918,-13.366698,-32.88269,3.692627,1.0171401833719873
-0.321533,-0.958984,-0.067139,-13.282775,-33.004761,3.242492,1.0136771811903433
-0.320068,-0.957275,-0.063965,-13.107299,-33.248901,2.89917,1.0113903655236192
-0.321289,-0.956787,-0.065674,-12.863158,-33.638,2.609253,1.0114252612852814
-0.320068,-0.955322,-0.068604,-12.825011,-34.14917,2.26593,1.0098466007884566
-0.320313,-0.955078,-0.06543,-12.71057,-34.660339,2.075195,1.0094827828908226
-0.320313,-0.961426,-0.063721,-12.5885,-35.293579,1.731872,1.015382064685998
-0.322998,-0.967529,-0.062012,-12.619018,-36.04126,1.342773,1.0219029122127992
-0.323486,-0.966553,-0.063232,-12.748717,-36.727905,0.968933,1.021208196123102
-0.323975,-0.962402,-0.064453,-12.741088,-37.536621,0.610352,1.0175124566500402
-0.326416,-0.961426,-0.066162,-12.535094,-38.398743,0.38147,1.01747961590196
-0.32666,-0.963135,-0.064209,-12.023925,-39.039612,0.144958,1.0190478789075614
-0.328125,-0.960938,-0.065186,-11.558532,-39.169312,-0.007629,1.017505316971366
-0.327393,-0.960693,-0.066162,-11.070251,-39.031982,-0.152588,1.0171010898342407
-0.326904,-0.958252,-0.068115,-10.360717,-39.146423,-0.297546,1.014767349664444
-0.325195,-0.956055,-0.07251,-9.735107,-39.451599,-0.534058,1.0124478510767851
-0.328613,-0.95459,-0.072021,-9.063721,-39.657593,-0.816345,1.012134179004938
-0.327881,-0.952393,-0.074463,-8.323669,-39.68811,-1.251221,1.0100015420676347
-0.33252,-0.947266,-0.075928,-7.438659,-38.993835,-1.724243,1.0068006189608747
-0.333496,-0.947021,-0.072998,-6.599426,-37.956238,-2.334595,1.0066762460995093
-0.33374,-0.945557,-0.072266,-5.66864,-36.689758,-3.128052,1.0053272117101975
-0.337158,-0.946045,-0.077148,-4.966736,-35.469055,-3.890991,1.0072876812971556
-0.338379,-0.948242,-0.079834,-4.180908,-34.324646,-4.79126,1.0099686657322593
-0.340088,-0.950195,-0.080322,-3.456115,-33.065796,-5.821228,1.0124139516289767
-0.341797,-0.951904,-0.085205,-2.868652,-32.035828,-6.874084,1.0149907913129064
-0.341309,-0.950684,-0.084961,-2.410889,-31.303404,-7.789611,1.0136618138501616
-0.341553,-0.950684,-0.089111,-2.006531,-30.860899,-8.659363,1.0141002366561207
-0.341309,-0.951172,-0.089355,-1.701355,-30.555723,-9.407043,1.014497078896731
-0.342773,-0.953857,-0.091309,-1.480102,-30.46417,-10.246276,1.017680617609965
-0.345703,-0.956787,-0.091797,-1.235962,-30.387877,-10.81848,1.0214590627073608
-0.346924,-0.95874,-0.092041,-1.13678,-30.044554,-11.253356,1.0237236907764713
-0.348145,-0.95752,-0.096436,-1.358032,-29.975889,-11.741637,1.023400895798416
-0.349365,-0.955811,-0.094238,-1.663208,-30.113218,-11.749267,1.0220133911011147
-0.349854,-0.955322,-0.095459,-1.899719,-30.303953,-11.764525,1.0218367607798224
-0.349854,-0.955322,-0.097656,-2.27356,-30.441282,-11.58142,1.0220443431358543
-0.349609,-0.955078,-0.097168,-2.853393,-30.677794,-11.093139,1.021685890667479
-0.35083,-0.952148,-0.094727,-3.211975,-30.899046,-10.543822,1.019137236751263
-0.353027,-0.952148,-0.092041,-3.540039,-31.112669,-10.017395,1.019649656653696
-0.354492,-0.952881,-0.092529,-4.020691,-31.196592,-9.407043,1.0208860828055204
-0.35791,-0.951904,-0.094971,-4.478455,-31.326292,-8.918762,1.0213913472107543
-0.358154,-0.950928,-0.094727,-4.814148,-31.288145,-8.384705,1.0205447336736397
-0.361572,-0.954834,-0.093506,-5.203247,-30.937193,-7.995605,1.025273451707397
-0.363281,-0.954102,-0.094238,-5.584716,-30.670164,-7.743835,1.025263142812127
-0.363037,-0.949951,-0.092041,-5.813598,-30.281065,-7.415771,1.0211142499500239
-0.365234,-0.950195,-0.091797,-6.034851,-29.914854,-7.17163,1.0221022952669658
-0.364258,-0.952393,-0.091309,-6.278991,-29.731749,-7.041931,1.0237546827702426
-0.365723,-0.949707,-0.091553,-6.454467,-29.58679,-6.843566,1.0218016688120057
-0.365479,-0.948486,-0.089355,-6.431579,-29.426573,-6.607055,1.0203846861169565
-0.365723,-0.94873,-0.092041,-6.454467,-29.388426,-6.515502,1.0209375452543608
-0.365723,-0.950439,-0.091309,-6.538391,-29.228209,-6.286621,1.0224602383129624
-0.369385,-0.951172,-0.090088,-6.713867,-29.045103,-6.034851,1.0243482315858217
-0.368408,-0.95166,-0.09082,-6.721496,-28.747557,-5.744934,1.0245142665985671
-0.368164,-0.94751,-0.089355,-6.843566,-28.411863,-5.340576,1.020443162072734
-0.370361,-0.951172,-0.090332,-6.889343,-28.129576,-5.073547,1.0247220667717662
-0.370605,-0.950439,-0.090332,-6.858825,-27.793882,-4.66156,1.0241299863640358
-0.367676,-0.949463,-0.089844,-6.988525,-27.496336,-4.226685,1.0221240500452966
-0.367432,-0.94873,-0.088135,-6.904602,-27.328489,-3.761291,1.0212064755714194
-0.369141,-0.949951,-0.089355,-6.835937,-27.099607,-3.311157,1.0230622152669895
-0.368652,-0.952881,-0.089844,-6.683349,-26.779173,-2.883911,1.025650253059492
-0.369141,-0.95459,-0.091553,-6.530761,-26.535032,-2.540588,1.0275646440930128
-0.369385,-0.955566,-0.091797,-6.378173,-26.260374,-2.212524,1.0285807444192216
-0.37207,-0.955811,-0.091797,-6.233215,-25.871275,-1.846313,1.0297754327182211
-0.373535,-0.957031,-0.091553,-6.065368,-25.192259,-1.76239,1.0314158632651527
-0.37207,-0.956787,-0.093506,-5.783081,-24.032591,-1.487732,1.0308350111948081
-0.367188,-0.960205,-0.094238,-5.455017,-23.063658,-1.403808,1.032328179414376
-0.369385,-0.959717,-0.094971,-5.195617,-22.132872,-1.13678,1.0327252728363918
-0.368164,-0.955566,-0.097412,-5.126953,-21.362303,-0.976562,1.0286594232281159
-0.365234,-0.950195,-0.098389,-4.875183,-20.606993,-0.823975,1.0227154091446946
-0.364258,-0.950439,-0.101318,-4.608154,-19.989014,-0.564575,1.0228800127136126
-0.362549,-0.953369,-0.101563,-4.524231,-19.325256,-0.335693,1.0250215951534876
-0.362305,-0.957275,-0.104004,-4.402161,-18.722534,-0.12207,1.0288134771016562
-0.360596,-0.956787,-0.102539,-4.264832,-17.959595,0.114441,1.0276113492493162
-0.358643,-0.960205,-0.103271,-4.364014,-17.379761,0.228882,1.0301860719865126
-0.355957,-0.959229,-0.106689,-4.455566,-17.066956,0.328064,1.0286924725159603
-0.354736,-0.956055,-0.110352,-4.646301,-16.990662,0.350952,1.0256979850935655
-0.352783,-0.952393,-0.112305,-4.570007,-16.807556,0.488281,1.0218222372619419
-0.35376,-0.948242,-0.112305,-4.432678,-16.387939,0.62561,1.0182933964182426
-0.35498,-0.947266,-0.113037,-4.28772,-15.747069,0.778198,1.0178904845438923
-0.355957,-0.947266,-0.111816,-4.005432,-14.839171,0.831604,1.0180967922849968
-0.356689,-0.947998,-0.114258,-3.822326,-13.816833,0.823975,1.019304734262036
-0.354248,-0.945068,-0.115723,-3.471374,-12.771605,0.679016,1.0158922102551038
-0.355713,-0.943848,-0.115479,-3.250122,-11.314391,0.610352,1.015241934178253
-0.356201,-0.942383,-0.114258,-3.280639,-9.780884,0.244141,1.0139130937383145
-0.354736,-0.940918,-0.115723,-3.051758,-8.308411,-0.068665,1.01220359866432
-0.354736,-0.946777,-0.11377,-2.89917,-6.736755,-0.404358,1.0174320273733277
-0.354248,-0.950439,-0.114258,-2.983093,-5.41687,-0.75531,1.020725638351952
-0.351807,-0.950684,-0.114258,-3.15094,-4.447937,-1.25885,1.0201093684840856
-0.351318,-0.95752,-0.114258,-3.417969,-3.982544,-1.594543,1.026315632779702
-0.354248,-0.958496,-0.113525,-3.616333,-3.784179,-1.831055,1.0281508416302543
-0.351807,-0.958984,-0.114746,-3.707886,-3.692627,-2.090454,1.0279032649140676
-0.351807,-0.95459,-0.116699,-3.913879,-3.791809,-2.105713,1.0240258248452527
-0.350342,-0.953369,-0.115967,-3.982544,-3.845215,-1.876831,1.0223014781433117
-0.351563,-0.953613,-0.111084,-4.051208,-3.814697,-1.701355,1.022405962323186
-0.352783,-0.949707,-0.11084,-4.272461,-3.715515,-1.373291,1.0191588377372782
-0.353516,-0.948486,-0.110352,-4.432678,-3.379822,-0.854492,1.018222381582727
-0.35376,-0.945068,-0.109131,-4.295349,-2.975464,-0.63324,1.0149922351353236
-0.354736,-0.944092,-0.107422,-4.127502,-2.311707,-0.419617,1.0142419929405408
-0.354004,-0.944336,-0.106201,-4.379272,-1.441955,-0.411987,1.0140847919740241
-0.356445,-0.944092,-0.106201,-4.28009,-0.587463,-0.579834,1.0147124690719043
-0.356445,-0.945068,-0.10498,-4.112244,0.38147,-0.747681,1.0154936548541307
-0.35791,-0.948242,-0.104248,-4.013062,1.098633,-1.045227,1.018886698395852
-0.359375,-0.952148,-0.104492,-3.807068,1.548767,-1.274109,1.023061475471049
-0.357422,-0.956543,-0.102783,-3.677368,1.869202,-1.426697,1.0262988560950461
-0.357178,-0.960938,-0.099609,-3.494262,2.052307,-1.571655,1.0299999594218439
-0.358643,-0.960205,-0.101074,-3.166198,2.311707,-1.480102,1.0299681533668894
-0.358154,-0.956543,-0.100586,-3.051758,2.555847,-1.098633,1.0263363688192093
-0.356934,-0.957031,-0.101807,-2.731323,2.914428,-0.526428,1.0264866684794303
-0.356445,-0.955566,-0.103516,-2.349854,3.433227,-0.045776,1.02512193452145
-0.356445,-0.953125,-0.100098,-2.067566,3.967285,0.62561,1.0225066812759709
-0.355713,-0.950195,-0.100342,-1.716614,4.333496,1.243591,1.0195444047995164
-0.352539,-0.950684,-0.101563,-1.358032,4.745483,1.701355,1.019018575564744
-0.353271,-0.946045,-0.10083,-1.205444,5.233764,2.159119,1.0148735046132598
-0.349854,-0.943604,-0.102051,-0.938415,5.508422,2.548218,1.0115338534784686
-0.349854,-0.942871,-0.105713,-0.839233,5.905151,2.616882,1.0112263754105704
-0.350342,-0.941895,-0.102783,-0.816345,6.462097,2.555847,1.0101831779820927
-0.349365,-0.938232,-0.104004,-0.679016,6.980896,2.433777,1.0065545296033396
-0.348633,-0.938477,-0.106689,-0.465393,7.362365,2.334595,1.0068101066929156
-0.348877,-0.942383,-0.106934,-0.419617,7.705688,2.120972,1.0105621010972063
-0.346191,-0.942139,-0.105225,-0.38147,8.003235,1.869202,1.0092306002232592
-0.348633,-0.944336,-0.102051,-0.312805,8.216858,1.770019,1.011795362801194
-0.350098,-0.947266,-0.103516,-0.228882,8.377075,1.701355,1.0151832576515436
-0.350098,-0.951172,-0.10498,-0.236511,8.514404,1.594543,1.01897869633668
-0.350586,-0.954102,-0.100586,-0.022888,8.651733,1.785278,1.0214395298773198
-0.348877,-0.95459,-0.098145,0.053406,8.68988,2.174377,1.021072803601193
-0.348389,-0.958984,-0.098877,0.205994,8.743286,2.601623,1.025086273786748
-0.350342,-0.960938,-0.0979,0.38147,8.789063,3.059387,1.027485166222851
-0.348389,-0.959473,-0.098877,0.495911,8.857727,3.547668,1.0255437553702913
-0.347656,-0.956543,-0.104248,0.686645,8.979797,4.173279,1.0230869223526415
-0.345947,-0.954102,-0.104004,1.022339,9.094238,4.798889,1.020199385036572
-0.342041,-0.955078,-0.100586,1.38092,9.216309,5.294799,1.019452586028894
-0.341553,-0.953125,-0.100342,1.655578,9.544373,5.638122,1.0174351254001406
-0.340088,-0.950439,-0.102295,2.075195,9.910583,5.958557,1.0146222979463835
-0.339111,-0.952393,-0.104004,2.304077,10.047912,6.149292,1.016299920685818
-0.334473,-0.953613,-0.098877,2.5177,10.19287,6.454467,1.0153948013590577
-0.330811,-0.952148,-0.098633,2.670288,9.94873,6.690979,1.012793266325364
-0.330322,-0.950928,-0.09668,2.990722,9.284973,6.744384,1.0112980308830826
-0.328125,-0.949707,-0.095459,3.616333,8.682251,7.026672,1.0093175031450707
-0.324463,-0.948486,-0.096924,4.379272,8.19397,7.385253,1.0071227295325034
-0.325928,-0.947754,-0.098145,4.981995,7.850646,7.438659,1.0070248987611974
-0.327637,-0.944824,-0.098145,5.889892,7.843017,7.492065,1.004823783441654
-0.331055,-0.941406,-0.098877,6.79779,8.247375,7.308959,1.0028057294361656
-0.328613,-0.936768,-0.101074,7.67517,9.384155,7.041931,0.9978660947587106
-0.325928,-0.932617,-0.101074,8.781433,10.993957,6.774902,0.9930858388623816
-0.324219,-0.928711,-0.098389,9.788513,12.7182,6.561279,0.9885860998431041
-0.323975,-0.921387,-0.101074,10.742187,14.518737,6.187438,0.9819010937309317
-0.322998,-0.92041,-0.105469,11.550902,16.517639,5.706787,0.9811248575308853
-0.321289,-0.927246,-0.107422,12.145995,18.211365,5.28717,0.9871936244329175
-0.320313,-0.935547,-0.108887,12.481688,19.447327,4.669189,0.9948391759209124
-0.31958,-0.941406,-0.108154,12.344359,20.278929,3.807068,1.0000369597929868
-0.31665,-0.951416,-0.108887,11.947631,20.683287,2.960205,1.0086208436895403
-0.314697,-0.957031,-0.112061,11.245727,20.019531,2.14386,1.0136568475036312
-0.313477,-0.963623,-0.11377,10.437011,18.440247,1.411438,1.0196963903819607
-0.306885,-0.972656,-0.117188,9.391785,16.143799,0.892639,1.0266309584777773
-0.309326,-0.975342,-0.117676,8.293152,13.236999,0.541687,1.029962247956691
-0.310791,-0.974365,-0.116943,7.339477,10.520934,0.595093,1.0293949019472557
-0.314941,-0.973145,-0.119141,6.561279,8.140564,0.778198,1.029754146574317
-0.319092,-0.972412,-0.123291,5.813598,6.332397,0.961304,1.0308275670009024
-0.325928,-0.973145,-0.120361,5.096435,5.104064,1.251221,1.0333087740506224
-0.329834,-0.968994,-0.121338,4.600525,4.592896,1.548767,1.0307583372624256
-0.332275,-0.962646,-0.12085,4.272461,5.0354,1.899719,1.0255236318296133
-0.334229,-0.95874,-0.119141,4.02832,6.355285,2.13623,1.022294473193512
-0.336426,-0.954834,-0.120117,4.119873,8.102417,2.220154,1.0194697223169504
-0.336426,-0.952148,-0.123291,4.28009,10.101317,2.281189,1.0173342312440883
-0.337402,-0.951416,-0.125244,4.203796,12.008666,2.090454,1.0172111748285113
-0.330811,-0.953613,-0.125732,4.341125,13.504027,1.594543,1.0171638055465797
-0.330078,-0.954346,-0.121094,4.188538,14.297484,0.991821,1.017050407126412
-0.331543,-0.956543,-0.119385,4.013062,14.518737,0.495911,1.0193861142486687
-0.33252,-0.95752,-0.115723,3.829956,14.633178,0.007629,1.0201989578160724
-0.330811,-0.958496,-0.114258,3.372192,14.671325,-0.595093,1.0203947227916264
-0.327881,-0.958496,-0.116699,3.089905,14.511107,-0.930786,1.0197250554821138
-0.328125,-0.958496,-0.109863,2.670288,14.205932,-0.961304,1.0190439030826886
-0.328857,-0.959717,-0.105957,2.304077,13.755797,-0.991821,1.020014966746567
-0.331055,-0.960693,-0.105225,1.914978,13.175963,-0.770569,1.0215677921210125
-0.327148,-0.96167,-0.101563,1.571655,12.298583,-0.335693,1.0208575051264501
-0.325439,-0.964844,-0.100586,1.289368,11.245727,0.038147,1.023206738862191
-0.326904,-0.962158,-0.097656,1.022339,10.055541,0.358582,1.020857941398312
-0.329102,-0.962891,-0.09375,0.709534,9.376526,0.770569,1.0218885784590217
-0.327881,-0.963135,-0.095215,0.518799,9.223938,1.083374,1.0218614752553303
-0.329834,-0.962158,-0.09375,0.595093,8.69751,1.205444,1.0214340639610566
-0.327881,-0.96167,-0.093018,0.617981,8.079529,1.312256,1.020278142167615
-0.327881,-0.959717,-0.092773,0.50354,7.820129,1.396179,1.018415190273103
-0.327148,-0.957275,-0.091797,0.579834,7.614135,1.296997,1.015789313163906
-0.324463,-0.957764,-0.091553,0.740051,7.415771,1.281738,1.0153669631586404
-0.323486,-0.959473,-0.090332,0.75531,7.110595,1.243591,1.0165586555378887
-0.323242,-0.958252,-0.088379,0.694275,6.820678,1.075745,1.0151567040161829
-0.321533,-0.957031,-0.087402,0.671387,6.515502,0.869751,1.0133759986569644
-0.321533,-0.955811,-0.087402,0.717163,5.950927,0.808716,1.0122239116983949
-0.320313,-0.957275,-0.088867,0.62561,5.233764,0.717163,1.0133475155557445
-0.320801,-0.953613,-0.087158,0.518799,4.592896,0.465393,1.0098948224117203
-0.320313,-0.954346,-0.085938,0.564575,3.997802,0.419617,1.0103276921519078
-0.320801,-0.953369,-0.082764,0.640869,3.341675,0.389099,1.0092946108337248
-0.320557,-0.953613,-0.084229,0.770569,2.670288,0.228882,1.0095687537057592
-0.322021,-0.95459,-0.085938,0.87738,2.151489,0.228882,1.0111008517378473
-0.323242,-0.956055,-0.083984,1.13678,1.815796,0.061035,1.0127091714036167
-0.321777,-0.956543,-0.084473,1.564026,1.502991,-0.068665,1.0127441119586922
-0.324219,-0.958008,-0.08667,1.731872,1.38092,-0.312805,1.0150906249813363
-0.32251,-0.95752,-0.088867,1.991272,1.350403,-0.587463,1.0142754035216472
-0.322998,-0.956055,-0.088867,2.410889,1.205444,-0.869751,1.0130479824361727
-0.322266,-0.956787,-0.090088,2.723694,1.075745,-1.083374,1.013613627507543
-0.321533,-0.957275,-0.087891,3.059387,0.862122,-1.350403,1.0136487180453593
-0.322021,-0.955078,-0.092773,3.387451,0.724792,-1.678467,1.012165174294196
-0.323486,-0.952881,-0.092773,3.593445,0.549316,-1.899719,1.0105603504422682
-0.323975,-0.955811,-0.092041,3.837585,0.259399,-2.197266,1.0134130520311055
-0.323975,-0.956543,-0.093994,4.02832,-0.022888,-2.502441,1.0142825954880623
-0.323975,-0.955566,-0.093262,4.196167,-0.190735,-2.723694,1.0132936305064786
-0.323486,-0.957275,-0.094971,4.493713,-0.434875,-3.082275,1.0149079311257745
-0.32666,-0.955811,-0.099121,4.547119,-0.518799,-3.288269,1.0149415726838664
-0.324951,-0.954102,-0.099365,4.753113,-0.358582,-3.547668,1.012806586683756
-0.328125,-0.953125,-0.103027,4.821777,-0.198364,-3.601074,1.0132757985755902
-0.327148,-0.950928,-0.103271,4.936218,-0.114441,-3.616333,1.0109177882147489
-0.32666,-0.947754,-0.102051,5.004883,0.175476,-3.601074,1.0076501410296135
-0.326904,-0.947998,-0.101563,5.073547,0.511169,-3.593445,1.007909458328971
-0.325439,-0.946777,-0.104492,5.027771,0.640869,-3.623962,1.0065862151420513
-0.328613,-0.946289,-0.10376,5.187988,0.717163,-3.623962,1.0070826743073282
-0.330322,-0.946777,-0.105713,5.401611,1.113892,-3.623962,1.008302806592345
-0.331787,-0.950684,-0.108887,5.485534,1.777649,-3.761291,1.0127877665108322
-0.331787,-0.950684,-0.109619,5.599975,2.067566,-4.173279,1.0128667268629175
-0.335938,-0.954102,-0.111328,5.821228,2.105713,-4.470825,1.0176241397647758
-0.338135,-0.954102,-0.107666,6.011962,2.403259,-4.844666,1.0179576966578718
-0.34082,-0.952881,-0.109863,6.195068,3.120422,-5.279541,1.017944178887035
-0.342285,-0.953369,-0.114746,6.469726,4.142761,-5.729675,1.019430289868807
-0.341064,-0.956299,-0.117676,6.813049,5.172729,-5.737304,1.022095920387612
-0.341309,-0.959473,-0.115234,7.011413,5.683898,-5.813598,1.0248703069003413
-0.343018,-0.962646,-0.116699,7.026672,5.950927,-6.17218,1.028575386756362
-0.350098,-0.963379,-0.119141,6.912231,6.67572,-5.989074,1.0319216467959182
-0.351318,-0.96582,-0.123047,6.874084,7.568359,-5.737304,1.0350715790383773
-0.349609,-0.967285,-0.124268,6.67572,8.544922,-5.630493,1.0360063995603501
-0.34668,-0.967529,-0.127686,6.431579,9.32312,-5.531311,1.0356655361828933
-0.345703,-0.9646,-0.128906,6.149292,9.757996,-5.020141,1.0327538337111124
-0.345947,-0.96582,-0.131592,5.928039,10.208129,-4.837036,1.0343133247101672
-0.345703,-0.964111,-0.134277,5.714416,10.368346,-4.745483,1.0329815570759238
-0.343506,-0.961426,-0.133057,5.203247,10.2005,-4.356384,1.0295826779627753
-0.349609,-0.958984,-0.130127,4.837036,10.337829,-4.119873,1.0289848401536341
-0.346191,-0.954102,-0.128418,4.394531,11.054992,-3.662109,1.0230591466816568
-0.343018,-0.952393,-0.125732,3.997802,11.96289,-3.265381,1.020059954412975
-0.342529,-0.949951,-0.122314,3.616333,12.535094,-2.677917,1.017198964233645
-0.341553,-0.951416,-0.11792,3.189087,12.809752,-2.13623,1.0177209751523253
-0.341797,-0.952881,-0.112793,2.761841,13.038634,-1.792908,1.0185919939892518
-0.341797,-0.955566,-0.109619,2.258301,13.099669,-1.525879,1.0207584899113011
-0.340576,-0.959229,-0.108154,1.708984,12.947082,-1.296997,1.0236257001135718
-0.337891,-0.958984,-0.107666,1.358032,12.763976,-0.930786,1.0224542081154537
-0.335449,-0.959229,-0.103271,0.968933,12.252807,-0.679016,1.0214260646189717
-0.331787,-0.959717,-0.10083,0.701904,11.543273,-0.267029,1.0204440319576573
-0.330078,-0.961426,-0.099609,0.450134,10.894774,0.1297,1.0213781828691075
-0.328125,-0.958496,-0.095947,0.160217,10.116576,0.595093,1.0176376685490764
-0.327393,-0.962891,-0.092529,-0.068665,9.010315,0.984192,1.021228118576354
-0.328125,-0.964111,-0.093994,-0.213623,7.789611,1.411438,1.0227467467472093
-0.327637,-0.961426,-0.088867,-0.511169,6.820678,1.64032,1.0195995787239223
-0.326172,-0.955811,-0.090088,-0.88501,5.943298,1.953125,1.0139421527133587
-0.326904,-0.95459,-0.087402,-0.869751,5.203247,2.182007,1.0127918852952962
-0.325928,-0.952637,-0.088623,-0.839233,4.844666,2.494812,1.0107424751547744
-0.322998,-0.949707,-0.087646,-0.839233,4.722595,2.815246,1.006952290413503
-0.325195,-0.950195,-0.087402,-0.701904,4.524231,3.013611,1.0080979295951362
-0.324219,-0.94873,-0.085938,-0.648498,4.463196,3.120422,1.0062762606287599
-0.317871,-0.950439,-0.084473,-0.579834,4.249573,3.166198,1.0057395055833296
-0.317139,-0.951904,-0.08374,-0.572205,3.89862,3.089905,1.006832040678583
-0.317871,-0.953125,-0.083008,-0.37384,3.700256,2.929687,1.0081565187658115
-0.317871,-0.954346,-0.082031,-0.228882,3.448486,2.746582,1.0092310663658743
-0.316162,-0.955078,-0.083496,-0.213623,2.983093,2.632141,1.0095067995531282
-0.316895,-0.957764,-0.084961,-0.137329,2.410889,2.410889,1.0123994726598784
-0.315186,-0.958984,-0.084229,-0.244141,1.831055,2.235413,1.0129595506697193
-0.314697,-0.958984,-0.083496,-0.076294,1.335144,1.983642,1.0127468074899075
-0.315674,-0.958496,-0.081787,0.045776,1.00708,1.838684,1.012449391160368
-0.31543,-0.959961,-0.082275,0.007629,0.62561,1.869202,1.0137999714174388
-0.311523,-0.960693,-0.082031,0.160217,0.312805,1.800537,1.0132653673835892
-0.314453,-0.962646,-0.083252,0.190735,-0.038147,1.869202,1.0161195333369988
-0.313965,-0.961914,-0.083496,0.144958,-0.457764,1.861572,1.0152951032271356
-0.313232,-0.961182,-0.084229,0.030518,-1.014709,1.76239,1.0144356299879258
-0.310303,-0.960449,-0.083984,0.099182,-1.548767,1.724243,1.0128196017386315
-0.309082,-0.961182,-0.085693,0.152588,-1.976013,1.731872,1.0132846639010185
-0.310303,-0.961426,-0.085938,0.183105,-2.532959,1.708984,1.0139098801811728
-0.310547,-0.959229,-0.085938,0.236511,-3.112793,1.617432,1.0119017014977294
-0.309326,-0.957764,-0.086914,0.38147,-3.623962,1.533508,1.0102220040011007
-0.309326,-0.958252,-0.089111,0.511169,-4.074097,1.419067,1.0108759766168152
-0.30835,-0.955322,-0.0896,0.717163,-4.440308,1.075745,1.007843244847134
-0.310059,-0.953613,-0.090088,0.87738,-4.608154,0.778198,1.0067920266837636
-0.30957,-0.95459,-0.092285,1.13678,-4.722595,0.434875,1.007765932260562
-0.3125,-0.953613,-0.094482,1.220703,-4.776001,0.083923,1.0079488340650036
-0.311523,-0.95459,-0.093994,1.281738,-5.004883,-0.457764,1.008525418452604
-0.313721,-0.953613,-0.095947,1.350403,-5.340576,-1.13678,1.0084663833856835
-0.316406,-0.954102,-0.098633,1.281738,-5.630493,-1.815796,1.0100256689455966
-0.316895,-0.956787,-0.098389,1.213074,-5.828857,-2.27356,1.0126915619846943
-0.318848,-0.957764,-0.10083,1.228333,-6.004333,-2.815246,1.0144666656425927
-0.319336,-0.955566,-0.101807,1.205444,-6.080627,-3.379822,1.0126433362744258
-0.321533,-0.957764,-0.10376,1.220703,-6.278991,-3.707886,1.0156089244315452
-0.323486,-0.957764,-0.105713,1.13678,-6.492614,-4.043579,1.01643017972756
-0.322754,-0.956299,-0.105957,0.961304,-6.629943,-4.234314,1.014842257577994
-0.325439,-0.956787,-0.105957,0.839233,-6.660461,-4.196167,1.0161588418839842
-0.32959,-0.957275,-0.109619,0.801086,-6.660461,-4.348755,1.018342436946433
-0.331299,-0.958984,-0.104736,0.610352,-6.790161,-4.440308,1.019989690807216
-0.33252,-0.960693,-0.107178,0.473022,-6.851196,-4.341125,1.0222464058792282
-0.333008,-0.958984,-0.109863,0.221252,-6.935119,-4.341125,1.0210849715322423
-0.333008,-0.959717,-0.10791,-0.053406,-6.950378,-4.318237,1.0215652775290476
-0.335693,-0.959717,-0.10498,-0.152588,-6.835937,-4.219055,1.0221385966384404
-0.338379,-0.959717,-0.108643,-0.274658,-6.629943,-4.127502,1.0234062581296834
-0.336914,-0.958496,-0.110352,-0.312805,-6.42395,-3.974914,1.0219604636755768
-0.339111,-0.959961,-0.108643,-0.259399,-6.340026,-3.791809,1.023877284292898
-0.338623,-0.959473,-0.108643,-0.358582,-6.210327,-3.77655,1.0232581664990512
-0.341309,-0.955811,-0.111328,-0.228882,-6.088256,-3.692627,1.0210095125835017
-0.343018,-0.953125,-0.111084,-0.198364,-5.500793,-3.662109,1.0190428200056167
-0.344238,-0.951904,-0.110352,-0.167847,-4.852295,-3.791809,1.018233072417116
-0.344238,-0.955322,-0.108398,0.053406,-4.463196,-3.379822,1.021219883635253
-0.344727,-0.958252,-0.105469,0.045776,-4.119873,-3.227234,1.0238199597556203
-0.346436,-0.95166,-0.106445,-0.007629,-3.585815,-3.204345,1.018334520538806
-0.342285,-0.950195,-0.108398,0.030518,-2.975464,-2.876281,1.015765566286828
-0.341553,-0.953857,-0.110596,0.061035,-2.662658,-2.63977,1.019182566311846
-0.343018,-0.954834,-0.111816,-0.190735,-2.525329,-2.494812,1.0207213790922574
-0.344238,-0.953369,-0.108887,-0.25177,-2.311707,-2.128601,1.019445255800428
-0.342285,-0.953125,-0.107178,-0.587463,-2.250671,-1.701355,1.018377832896023
-0.341309,-0.954346,-0.105469,-0.62561,-2.365112,-1.556396,1.019015128031964
-0.342041,-0.953857,-0.105713,-0.801086,-2.685547,-1.327515,1.0188279837632062
-0.34375,-0.957031,-0.106934,-1.121521,-3.028869,-0.961304,1.0225005025998763
-0.342041,-0.955322,-0.105957,-1.403808,-3.120422,-0.602722,1.0202250022490138
-0.342773,-0.952393,-0.104492,-1.533508,-3.105163,-0.259399,1.017577679610751
-0.34375,-0.952637,-0.103271,-1.594543,-2.914428,0.076294,1.0180109113904428
-0.341797,-0.953613,-0.102295,-1.541138,-2.555847,0.495911,1.0181685567738772
-0.341064,-0.954834,-0.102539,-1.609802,-2.189636,0.930786,1.0190911962003204
-0.341064,-0.955811,-0.10083,-1.678467,-2.02179,1.182556,1.0198362656412057
-0.338379,-0.956055,-0.099121,-1.693725,-1.922607,1.373291,1.019002690529814
-0.335693,-0.958252,-0.099121,-1.571655,-1.876831,1.502991,1.0201772681225554
-0.334717,-0.959717,-0.098633,-1.571655,-1.853943,1.647949,1.0211859080828525
-0.331299,-0.960693,-0.098877,-1.518249,-2.01416,1.754761,1.021012599716086
-0.33252,-0.96167,-0.094971,-1.327515,-2.281189,1.754761,1.0219580373679733
-0.333008,-0.958008,-0.099121,-1.38855,-2.479553,1.777649,1.0190675290524176
-0.330078,-0.955078,-0.099121,-1.335144,-2.578735,1.815796,1.0153572990868782
-0.330322,-0.956787,-0.097168,-1.068115,-2.609253,1.953125,1.0168557455593197
-0.330811,-0.958496,-0.095215,-0.823975,-2.296448,1.960754,1.018438214111195
-0.330078,-0.956299,-0.097168,-0.63324,-1.686096,1.861572,1.016317314478603
-0.328613,-0.953613,-0.100342,-0.38147,-1.228333,1.945495,1.0136235862005185
-0.325684,-0.955322,-0.100098,0.0,-1.052856,1.838684,1.0142631814001728
-0.326416,-0.953613,-0.099121,0.114441,-0.938415,1.686096,1.0127932323361961
-0.325684,-0.953857,-0.10376,0.205994,-0.656128,1.457214,1.0132518847280767
-0.319824,-0.953613,-0.103027,0.38147,-0.488281,1.228333,1.0110784872966094
-0.321777,-0.957031,-0.101074,0.518799,-0.541687,1.052856,1.014723965502934
-0.323242,-0.959473,-0.103027,0.541687,-0.671387,0.808716,1.0176877669609672
-0.319092,-0.959961,-0.10498,0.679016,-0.839233,0.442505,1.0170376720579233
-0.321777,-0.960449,-0.105713,0.808716,-0.808716,0.198364,1.0184193427557235
-0.324219,-0.963379,-0.106201,0.724792,-0.846863,-0.053406,1.0220057289482285
-0.323242,-0.962646,-0.109863,0.785828,-0.75531,-0.297546,1.0213924763033062
-0.31958,-0.962402,-0.109619,0.732422,-0.671387,-0.473022,1.0199829955273765
-0.320557,-0.961914,-0.109131,0.732422,-0.808716,-0.526428,1.0197768916807246
-0.324463,-0.960938,-0.108887,0.732422,-0.785828,-0.526428,1.0200659081559387
-0.323975,-0.960449,-0.109863,0.762939,-0.740051,-0.465393,1.0195547856760812
-0.322021,-0.958496,-0.109375,0.663757,-0.854492,-0.358582,1.0170422789058475
-0.321777,-0.95752,-0.109375,0.740051,-1.037598,-0.144958,1.0160452149161474
-0.322998,-0.957031,-0.108398,0.679016,-0.938415,-0.091553,1.0158672006561684
-0.322998,-0.956299,-0.108398,0.617981,-1.00708,0.053406,1.0151776257429042
-0.32251,-0.955566,-0.111572,0.427246,-1.289368,0.099182,1.0146760032838067
-0.323975,-0.953613,-0.110352,0.343323,-1.564026,0.015259,1.013170823848575
-0.323486,-0.951416,-0.111816,0.328064,-1.785278,-0.083923,1.01110751906412
-0.324951,-0.95459,-0.108154,0.213623,-1.89209,-0.205994,1.0141659174992028
-0.323975,-0.958496,-0.109131,-0.030518,-2.113342,-0.274658,1.0176364566002931
-0.326172,-0.957764,-0.106445,-0.007629,-2.281189,-0.274658,1.0173645321638651
-0.325928,-0.95752,-0.107178,-0.1297,-2.365112,-0.335693,1.017133587719922
-0.32959,-0.959229,-0.109863,-0.106812,-2.388,-0.411987,1.0202057249937386
-0.327637,-0.960205,-0.106201,-0.12207,-2.426147,-0.38147,1.0201070033065158
-0.329346,-0.958252,-0.108643,-0.106812,-2.471924,-0.289917,1.0190775165162853
-0.328369,-0.952148,-0.111572,0.045776,-2.532959,-0.106812,1.013341169226337
-0.327881,-0.950928,-0.112793,0.228882,-2.578735,0.167847,1.01217205661587
-0.325195,-0.950195,-0.112793,0.358582,-2.502441,0.404358,1.0106159443126752
-0.324707,-0.952148,-0.108643,0.534058,-2.334595,0.617981,1.0118417619381006
-0.325439,-0.951904,-0.111572,0.556946,-2.296448,0.610352,1.0121660333764415
-0.324707,-0.952148,-0.109863,0.396728,-2.426147,0.526428,1.0119734821239141
-0.324463,-0.953857,-0.11084,0.282288,-2.540588,0.343323,1.013609846251505
-0.323486,-0.957031,-0.114746,0.022888,-2.76947,0.205994,1.016719318038661
-0.32373,-0.953857,-0.114258,-0.198364,-3.051758,0.221252,1.0137549900804435
-0.320313,-0.950195,-0.117676,-0.404358,-3.540039,0.312805,1.0096130927092815
-0.317139,-0.946533,-0.117432,-0.473022,-4.333496,0.564575,1.0051328967027195
-0.3125,-0.94043,-0.118164,-0.686645,-5.249023,0.88501,0.9980118064411864
-0.306152,-0.927979,-0.121094,-0.923157,-6.17218,1.319885,0.9846511201339284
-0.300781,-0.922119,-0.120605,-0.976562,-7.041931,2.075195,0.9774038193842912
-0.298584,-0.921875,-0.115723,-0.648498,-7.911682,2.853393,0.9759086706295831
-0.307129,-0.93335,-0.113037,-0.061035,-8.44574,3.547668,0.9890641073813163
-0.312988,-0.947266,-0.110107,0.389099,-8.308411,3.814697,1.0036921412211017
-0.314697,-0.967529,-0.115723,0.953674,-7.354736,3.860473,1.0239816308796754
-0.31665,-0.990479,-0.115234,1.647949,-5.874633,3.211975,1.0462288213851691
-0.318604,-1.010254,-0.120605,2.243042,-4.486084,2.311707,1.0661459653147876
-0.316162,-1.022949,-0.126465,2.853393,-3.623962,1.541138,1.0781356422408084
-0.312988,-1.027832,-0.131104,3.387451,-3.448486,0.37384,1.0823993566073478
-0.309814,-1.029785,-0.135742,3.669739,-4.005432,-0.762939,1.0839131659800982
-0.308838,-1.018066,-0.137451,3.921509,-4.898071,-1.564026,1.0727218036382964
-0.308105,-1.000488,-0.137207,4.379272,-5.584716,-1.976013,1.055808074423567
-0.304443,-0.985107,-0.141113,4.806519,-5.851745,-2.029419,1.0406893006402054
-0.303711,-0.969238,-0.141846,5.317688,-5.66101,-1.777649,1.0255647029227362
-0.30127,-0.949219,-0.145996,5.851745,-4.78363,-1.335144,1.0065262812649256
-0.304932,-0.936279,-0.149414,6.256103,-3.219604,-0.740051,0.9959550360638777
-0.302734,-0.928711,-0.152588,6.660461,-0.900268,-0.63324,0.9886531717548879
-0.297607,-0.922363,-0.155029,7.125854,1.708984,-0.389099,0.9815077284764496
-0.294922,-0.916016,-0.162354,7.057189,3.990173,-0.679016,0.9759216770089699
-0.290527,-0.912109,-0.159668,6.889343,5.577087,-1.113892,0.9704857731229242
-0.287354,-0.919189,-0.159912,7.125854,6.484985,-1.449585,0.9762441225333959
-0.286621,-0.931885,-0.157471,6.843566,6.828308,-2.326965,0.9876023322709399
-0.28418,-0.9375,-0.159424,6.347656,6.477355,-3.211975,0.9925122337664156
-0.283691,-0.942139,-0.158691,5.767822,5.310058,-3.89862,0.9966390080079146
-0.287842,-0.943848,-0.154297,4.981995,3.936767,-4.722595,0.9987540379277573
-0.291992,-0.94751,-0.148926,4.356384,2.632141,-5.233764,1.0026033520989244
-0.288086,-0.946533,-0.14502,3.425598,1.518249,-5.760192,0.9999745316181807
-0.284424,-0.941162,-0.145752,2.380371,-0.030518,-5.805969,0.9939449519586083
-0.284912,-0.939209,-0.145996,1.426697,-1.838684,-5.683898,0.9922717497948835
-0.283447,-0.939697,-0.150635,0.305176,-3.65448,-5.516052,0.9930073297025556
-0.282715,-0.939941,-0.145996,-0.946045,-6.111145,-5.371093,0.9923364785807283
-0.290771,-0.940918,-0.137451,-2.441406,-9.292603,-5.249023,0.9943677561978768
-0.302246,-0.944824,-0.135986,-3.715515,-12.176513,-5.470275,1.001267810172683
-0.321533,-0.954346,-0.140381,-4.997253,-14.60266,-5.874633,1.0167923007999224
-0.342773,-0.968506,-0.141357,-6.034851,-16.349792,-5.531311,1.037053037705401
-0.348389,-0.982422,-0.136719,-7.438659,-17.219543,-4.684448,1.0512944242057027
-0.35083,-0.98999,-0.128662,-8.529663,-17.837524,-3.982544,1.0581662436706247
-0.358398,-0.997803,-0.124023,-8.872986,-18.669128,-2.830505,1.0674463254618471
-0.365479,-1.009033,-0.139404,-9.44519,-19.790649,-0.38147,1.0821995979235994
-0.354736,-1.01416,-0.165771,-10.551452,-22.499083,2.403259,1.0871238014766305
-0.348633,-1.014893,-0.176025,-12.275695,-29.33502,4.997253,1.0874454334645947
-0.372803,-1.017578,-0.179199,-14.648437,-39.81781,7.972717,1.0984349523271737
-0.4104,-1.018066,-0.179688,-17.631531,-50.399776,11.436461,1.1122833801239682
-0.437988,-1.015381,-0.174316,-20.950315,-59.112545,15.808105,1.1194722556459362
-0.455322,-1.005615,-0.180176,-24.04785,-66.223145,20.950315,1.1185003544411598
-0.47168,-0.999023,-0.195557,-27.046202,-72.029114,26.80969,1.121949872845485
-0.477295,-0.991211,-0.219482,-30.189512,-76.026917,33.51593,1.1218208911720267
-0.473145,-0.974609,-0.237305,-33.7677,-80.238342,40.580746,1.1090728366212024
-0.477539,-0.958008,-0.236328,-37.391663,-85.952751,48.21777,1.0962088068287903
-0.494141,-0.946045,-0.224854,-40.870663,-93.284599,55.618282,1.0907501048462018
-0.517822,-0.933594,-0.20874,-43.663021,-100.891106,62.95013,1.0878004266040717
-0.552002,-0.925293,-0.194824,-45.494076,-105.102531,69.42749,1.094910834191077
-0.572266,-0.914795,-0.187744,-46.455379,-104.919426,75.035095,1.0952561692668068
-0.594238,-0.904541,-0.184326,-46.630856,-102.752678,81.222527,1.097856682632574
-0.624756,-0.894531,-0.19043,-46.730038,-100.71563,87.593071,1.107596205481492
-0.654541,-0.883301,-0.196533,-46.592709,-97.747795,93.170158,1.1168123375800432
-0.674072,-0.874023,-0.197754,-46.279903,-93.070976,97.679131,1.1213366623048584
-0.684326,-0.863037,-0.19751,-45.509335,-87.554924,101.242058,1.1189929122854174
-0.696533,-0.8479,-0.192383,-44.204708,-81.138603,104.354851,1.1140484050426176
-0.708252,-0.83667,-0.191406,-42.640682,-73.875427,106.75811,1.1127775344784778
-0.719727,-0.829102,-0.187744,-40.977474,-67.146301,108.787529,1.1138513771904222
-0.739502,-0.820068,-0.188232,-39.230347,-61.759945,110.641472,1.120181243572664
-0.750732,-0.811768,-0.182861,-37.063599,-57.723995,112.43438,1.1207158279282934
-0.755615,-0.800293,-0.178955,-34.889221,-54.801937,113.639824,1.11509990857277
-0.751709,-0.785156,-0.180176,-32.25708,-53.054806,113.868706,1.10181657093774
-0.759521,-0.767578,-0.187012,-29.266356,-52.11639,114.250175,1.0959113210789457
-0.776855,-0.74292,-0.19458,-26.679991,-49.148556,115.745537,1.0923805169559735
-0.771484,-0.720215,-0.204834,-24.467466,-43.792721,116.523735,1.0751065882213726
-0.761719,-0.705078,-0.222168,-22.758482,-38.330078,115.394585,1.0614657042358928
-0.775146,-0.678467,-0.223389,-21.65222,-35.270691,113.616936,1.054073734008205
-0.791748,-0.657471,-0.20752,-21.39282,-36.53717,113.548271,1.0498559719051943
-0.782471,-0.642334,-0.196045,-21.369932,-41.954037,113.43383,1.0311583173412315
-0.778076,-0.623535,-0.185547,-21.301268,-50.132748,111.633293,1.014211934069995
-0.787354,-0.592285,-0.173584,-20.225523,-56.472775,110.122673,1.0004295315498237
-0.802979,-0.560791,-0.169922,-18.379211,-57.090755,108.001701,0.9940499515648095
-0.814453,-0.538818,-0.171387,-16.365051,-52.276608,105.133049,0.9914797174435794
-0.82959,-0.528076,-0.180176,-14.175414,-44.036861,102.699272,0.9997735847940773
-0.84668,-0.518311,-0.19043,-12.481688,-35.049438,100.021355,1.0108298076437001
-0.871338,-0.516602,-0.188232,-11.192321,-27.343748,98.0606,1.0303100613271716
-0.891113,-0.527588,-0.190918,-10.215758,-19.096375,97.290031,1.0530342630878637
-0.884766,-0.541504,-0.20166,-9.620667,-7.965087,95.5429,1.0567422639281538
-0.855225,-0.538574,-0.210938,-9.45282,3.692627,92.353813,1.0324565821113254
