ax,ay,az,gx,gy,gz,acc_mag
-0.283691,-0.939453,0.176025,-1.220703,1.182556,0.015259,0.9970142041691281
-0.283203,-0.942871,0.177734,-1.060486,1.312256,-0.144958,1.0003994385274313
-0.283447,-0.942871,0.181396,-1.022339,1.51062,-0.358582,1.00112558316427
-0.281982,-0.941895,0.182129,-1.098633,1.571655,-0.488281,0.9999255032201149
-0.280029,-0.939697,0.177734,-1.12915,1.617432,-0.50354,0.996511950458197
-0.278076,-0.940674,0.183594,-0.823975,1.327515,-0.686645,0.9979481914849088
-0.276611,-0.941406,0.186768,-0.701904,0.854492,-0.778198,0.9988198976697451
-0.279785,-0.941406,0.18335,-0.862122,0.457764,-0.923157,0.9990706309170538
-0.282959,-0.939453,0.17749,-0.946045,0.030518,-1.274109,0.9970659130619199
-0.28418,-0.936279,0.170898,-0.518799,-0.25177,-1.434326,0.9932687273064625
-0.286133,-0.937744,0.166748,0.350952,-0.160217,-1.472473,0.9945053035197953
-0.284912,-0.937988,0.170654,1.037598,0.015259,-1.197815,0.9950472971693356
-0.282471,-0.938477,0.171387,1.296997,-0.091553,-0.900268,0.9949384147468626
-0.282227,-0.936768,0.176025,1.205444,-0.389099,-0.671387,0.9940679886094311
-0.285156,-0.9375,0.165527,0.602722,-1.00708,-0.511169,0.9937904115380667
-0.281982,-0.936279,0.164795,0.335693,-2.098083,-0.289917,0.9916096037201334
-0.282227,-0.935547,0.165283,0.50354,-2.838135,-0.213623,0.991069492430778
-0.283447,-0.939453,0.158691,0.671387,-3.440857,-0.076294,0.9940306708039748
-0.285156,-0.937744,0.162598,0.770569,-3.807068,0.236511,0.9935370468563314
-0.295166,-0.938965,0.164795,0.709534,-3.723144,0.366211,0.9979657463089603
-0.293701,-0.947998,0.167969,0.427246,-3.410339,-0.137329,1.0065654824034052
-0.292725,-0.948486,0.169434,0.045776,-2.723694,-0.595093,1.0069863445831826
-0.29541,-0.946533,0.173828,-0.404358,-2.174377,-0.610352,1.0066816586056389
-0.298584,-0.943604,0.169678,-1.121521,-1.647949,-0.640869,1.0041571279217212
-0.296387,-0.937012,0.167236,-1.480102,-0.808716,-0.640869,0.9968974980453106
-0.296387,-0.933838,0.174072,-1.434326,0.175476,-0.480652,0.9950877977329436
-0.293701,-0.933594,0.175781,-1.556396,0.930786,-0.297546,0.9943626069990765
-0.293213,-0.934326,0.17749,-1.197815,1.266479,-0.030518,0.9952093436785047
-0.295166,-0.934326,0.178955,-0.87738,1.533508,-0.061035,0.9960486603861279
-0.297607,-0.935547,0.175049,-0.656128,2.006531,-0.190735,0.9972262872883968
-0.291016,-0.939941,0.179932,0.305176,2.532959,-0.488281,1.0002774216991004
-0.285645,-0.939209,0.186035,0.579834,2.861023,-0.572205,0.9991574615299632
-0.286377,-0.937256,0.182861,0.488281,2.822876,-0.350952,0.9969447030733449
-0.286621,-0.933838,0.186523,0.099182,2.655029,-0.282288,0.9944826983985191
-0.285156,-0.938477,0.186523,0.244141,2.357483,-0.190735,0.9984206795704905
-0.283203,-0.945313,0.187012,0.228882,1.991272,-0.1297,1.0043874229210559
-0.282959,-0.949951,0.18335,-0.160217,1.464844,-0.015259,1.008012857349548
-0.28125,-0.947266,0.181885,-0.160217,0.984192,0.022888,1.0047370752993043
-0.278564,-0.94458,0.18042,0.1297,0.579834,0.030518,1.0011896198503059
-0.279053,-0.944824,0.180908,0.511169,0.289917,0.297546,1.001643984781519
-0.279541,-0.945313,0.179443,0.930786,0.015259,0.556946,1.001977858487402
-0.280762,-0.942871,0.182861,1.075745,0.053406,0.495911,1.0006353824475727
-0.281494,-0.94165,0.179443,1.266479,0.427246,0.152588,0.9990712611145413
-0.280273,-0.943848,0.179688,1.441955,0.976562,-0.038147,1.0008445328706153
-0.2771,-0.94873,0.176514,1.335144,1.419067,-0.190735,1.004007079206118
-0.275879,-0.950684,0.178467,1.487732,1.602173,-0.358582,1.0058626946984366
-0.272705,-0.948975,0.177246,1.487732,1.525879,-0.305176,1.0031638511060892
-0.272705,-0.943848,0.174072,1.266479,1.243591,-0.267029,0.9977565461138304
-0.273438,-0.942627,0.174072,1.060486,0.793457,-0.396728,0.9968024188157852
-0.271484,-0.94458,0.169678,1.235962,0.12207,-0.564575,0.9973592945072502
-0.271729,-0.943359,0.173096,1.335144,-0.785828,-0.686645,0.9968576014346281
-0.273193,-0.943359,0.170166,1.197815,-1.739502,-0.816345,0.996753272222369
-0.275635,-0.947754,0.168945,1.197815,-2.655029,-0.968933,1.0013764081333252
-0.276123,-0.948975,0.170654,0.991821,-3.379822,-1.274109,1.0029557564867952
-0.278564,-0.946289,0.170898,0.701904,-4.135132,-1.068115,1.0011328083830837
-0.282959,-0.943359,0.164307,0.320435,-4.814148,-0.701904,0.9984932592716887
-0.286377,-0.942139,0.168945,0.190735,-5.310058,-0.610352,0.9990896328533291
-0.291748,-0.943115,0.170166,-0.12207,-5.455017,-0.671387,1.0017680701065492
-0.295166,-0.941162,0.169189,-0.328064,-5.332946,-0.793457,1.0007666039197152
-0.297607,-0.939941,0.168701,-0.488281,-4.653931,-1.075745,1.0002594849992676
-0.301758,-0.941895,0.168701,-0.076294,-3.723144,-1.289368,1.00333648841752
-0.302002,-0.945068,0.171631,0.160217,-2.700805,-1.38855,1.0068842698090978
-0.301025,-0.946533,0.173828,0.38147,-1.739502,-1.472473,1.0083436637863106
-0.300293,-0.945313,0.173584,0.228882,-0.88501,-1.464844,1.006937912124675
-0.300293,-0.942871,0.172119,0.473022,-0.457764,-1.25885,1.0043936273448772
-0.299316,-0.942383,0.172363,0.350952,-0.221252,-1.174927,1.00368560332108
-0.299561,-0.940186,0.172119,0.198364,-0.007629,-1.098633,1.0016543602850236
-0.300049,-0.938477,0.169434,0.221252,0.595093,-0.968933,0.9997381468594664
-0.301025,-0.936279,0.168213,0.267029,1.373291,-0.961304,0.9977625117406446
-0.298828,-0.94043,0.169189,0.442505,2.235413,-1.121521,1.0011651593043978
-0.293945,-0.945313,0.175537,0.640869,3.158569,-1.091003,1.0054021928377717
-0.291504,-0.949951,0.179443,0.465393,3.90625,-0.991821,1.0097431726265842
-0.288086,-0.946777,0.181641,-0.083923,4.074097,-0.839233,1.0061678209950864
-0.285889,-0.941895,0.180664,-0.694275,3.730774,-0.717163,1.0007688005938236
-0.285645,-0.939209,0.181396,-1.00708,3.425598,-0.640869,0.9983041222603461
-0.285156,-0.939453,0.178467,-0.610352,3.356933,-0.579834,0.9978658996247943
-0.282471,-0.940674,0.177734,0.045776,3.616333,-0.656128,0.9981216433246
-0.280762,-0.941162,0.179932,0.701904,4.03595,-0.740051,0.998493232581974
-0.280273,-0.946289,0.182129,1.182556,4.295349,-1.060486,1.0035869661823036
-0.279297,-0.947021,0.182617,1.403808,4.600525,-1.502991,1.0040938986663548
-0.277832,-0.942139,0.187012,1.487732,4.898071,-1.853943,0.9998949963316148
-0.277588,-0.942383,0.187744,1.800537,4.974365,-2.14386,1.0001942941093995
-0.278076,-0.943848,0.1875,2.029419,4.928589,-2.441406,1.0016643943357475
-0.280762,-0.940918,0.185791,2.220154,5.187988,-2.906799,0.9993359190227278
-0.28833,-0.940674,0.184814,2.952575,5.973815,-3.570556,1.0010784074047347
-0.291748,-0.938721,0.178955,4.119873,7.331848,-4.310608,0.9991691064929901
-0.287842,-0.924561,0.176758,5.302429,9.086609,-4.829407,0.9843319817261857
-0.287598,-0.903809,0.177979,6.782531,11.306762,-4.707336,0.9650180529534149
-0.287109,-0.885986,0.189453,7.888793,13.618468,-4.28772,0.9504184390498746
-0.281494,-0.877686,0.194336,9.040833,15.876769,-4.249573,0.9419862353176929
-0.286133,-0.873779,0.190918,9.986877,18.669128,-4.859924,0.9390481975138443
-0.290039,-0.858154,0.176025,10.978698,22.171019,-5.630493,0.9227869254936375
-0.290283,-0.844971,0.16748,13.008117,26.428221,-6.599426,0.9090048192006466
-0.280029,-0.844482,0.168457,16.136169,30.876158,-7.92694,0.9055075096397599
-0.267334,-0.853271,0.181396,18.623352,34.912109,-9.513855,0.9123833491537425
-0.254883,-0.861816,0.195557,19.53125,37.948608,-10.44464,0.9197470857763018
-0.24292,-0.868896,0.19165,20.805357,38.414001,-10.276793,0.9223448962920541
-0.228027,-0.873779,0.193359,22.621153,36.529541,-9.681702,0.9235116439173899
-0.216064,-0.876709,0.19043,23.094175,32.608032,-9.635925,0.922803287638812
-0.202881,-0.886963,0.180176,25.138853,26.405333,-8.628845,0.927538384384172
-0.200439,-0.89624,0.171387,27.153013,18.600464,-7.156372,0.9342352134714256
-0.197754,-0.904541,0.163574,28.900145,9.460449,-5.767822,0.9402433295019965
-0.189697,-0.907715,0.155273,32.12738,-1.205444,-4.264832,0.9402346396315124
-0.194336,-0.914307,0.169189,33.912659,-13.21411,-3.501892,0.9499203592228139
-0.195557,-0.918945,0.177246,32.752991,-27.641294,-2.624511,0.9560954961665702
-0.199707,-0.927246,0.196533,31.021116,-44.029232,-1.411438,0.968655382710487
-0.210938,-0.955078,0.207031,28.694151,-60.44006,-0.030518,0.9997653029031364
-0.23291,-0.981201,0.216797,25.764463,-74.234009,1.419067,1.031505409442917
-0.254395,-0.968994,0.221924,21.324156,-84.770195,1.808166,1.026117171592504
-0.270752,-0.929688,0.223877,18.356323,-92.64373,2.14386,0.993854785155759
-0.285156,-0.889648,0.216797,16.853333,-97.496025,3.219604,0.9590560189316367
-0.306885,-0.871826,0.214111,17.799377,-99.609367,3.417969,0.9487373176079879
-0.338379,-0.887451,0.228271,19.348145,-97.381584,1.121521,0.9768199805916135
-0.359375,-0.932861,0.239502,20.278929,-90.301506,-3.89862,1.0279792040454905
-0.365967,-0.966553,0.263916,22.171019,-80.131531,-10.749816,1.066680927903935
-0.364502,-0.943604,0.284424,19.477844,-66.711426,-18.486023,1.0507841018001747
-0.346924,-0.897705,0.283447,15.533446,-53.443905,-24.116514,1.0032809828806684
-0.323242,-0.878906,0.26416,15.1062,-45.783993,-28.411863,0.9730065020337736
-0.314941,-0.899658,0.241455,20.103453,-42.846676,-32.516479,0.9832969375880309
-0.321289,-0.926514,0.234375,25.947569,-41.679379,-35.705566,1.0082591206341749
-0.318848,-0.963623,0.241699,32.241821,-40.061951,-36.4151,1.0433847515820807
-0.309326,-1.005859,0.257813,36.323547,-39.482117,-35.697937,1.0834677868427838
-0.305176,-1.036621,0.281738,36.582947,-40.702816,-34.889221,1.1167326400087891
-0.302246,-1.037109,0.302002,31.799314,-44.471737,-33.729553,1.1216741640962407
-0.30957,-1.049561,0.311279,26.931761,-52.391048,-33.26416,1.1376759175890117
-0.341797,-1.091553,0.304443,24.963377,-61.798092,-33.248901,1.1836379012464073
-0.355957,-1.150146,0.282227,27.534483,-70.053101,-30.2124,1.2366055501630258
-0.346436,-1.196777,0.299561,38.81073,-77.87323,-24.909971,1.2814171383846868
-0.383301,-1.205322,0.389404,53.337093,-84.388725,-21.583555,1.323388172646635
-0.445801,-1.200684,0.479248,59.532162,-88.195793,-20.996092,1.3675010950492874
-0.4729,-1.18335,0.526855,56.381222,-86.036674,-21.27075,1.378958963684199
-0.444092,-1.173828,0.537598,55.206295,-80.749504,-24.154661,1.3653210199993262
-0.404785,-1.135742,0.509277,56.747433,-73.959351,-28.358458,1.3088635717743848
-0.407959,-1.054688,0.458252,60.775753,-62.995907,-26.641844,1.2201607347103907
-0.453125,-0.955566,0.466309,66.955566,-47.111507,-16.876221,1.1557996061004692
-0.470215,-0.885498,0.504395,67.443848,-28.587339,-8.476257,1.1223293501704392
-0.428711,-0.855225,0.516846,60.852047,-9.429932,-10.047912,1.0873512357384802
-0.336182,-0.845703,0.497314,53.009029,6.401062,-17.868042,1.0370887695510929
-0.264648,-0.845215,0.506836,47.660824,16.067505,-22.453306,1.0204458295397163
-0.267334,-0.843994,0.512695,48.789974,20.561216,-24.391172,1.023058894989433
-0.306152,-0.821289,0.489746,56.098934,23.117064,-25.55084,1.0040397467934226
-0.291992,-0.760254,0.465576,58.097836,25.497435,-24.177549,0.9380866081316798
-0.249023,-0.686768,0.448975,58.158871,27.389524,-11.932372,0.8574621221826653
-0.266113,-0.651123,0.454102,63.621517,27.06909,1.327515,0.8372490169011846
-0.310547,-0.660889,0.5,70.053101,20.973204,4.653931,0.8849936211804015
-0.320801,-0.716797,0.519775,76.728821,12.275695,1.419067,0.9417416160683354
-0.327881,-0.790039,0.553223,78.895569,7.011413,4.226685,1.01868702721248
-0.369629,-0.846436,0.614746,70.19043,9.429932,15.823363,1.1095008536513165
-0.440674,-0.869873,0.656006,55.671688,20.965574,27.175901,1.175251667703986
-0.526123,-0.88916,0.656494,44.342037,37.597656,35.621643,1.2240895754661911
-0.612793,-0.962646,0.647705,36.979675,54.351803,46.31805,1.312144942142445
-0.629395,-1.08374,0.674561,28.114317,64.720154,63.133236,1.4232578811817624
-0.621338,-1.155518,0.754395,9.384155,67.825317,88.279716,1.5134049605419562
-0.696289,-1.120361,0.75708,-19.721985,71.456909,114.028923,1.5209198756811615
-0.722656,-1.02417,0.705078,-47.775265,75.881958,143.577576,1.4381553703685843
-0.709473,-0.951904,0.675537,-71.69342,80.238342,182.075485,1.3659514637475227
-0.808594,-0.987549,0.62793,-91.438286,80.528252,225.372299,1.4224532924272066
-0.988525,-1.107178,0.567383,-112.998955,79.277039,249.992355,1.5890085802153493
-1.19873,-1.260986,0.573486,-139.160156,89.645378,249.992355,1.8319185291087594
-1.3479,-1.462891,0.620117,-169.609055,106.414787,249.458298,2.0836097479062627
-1.355713,-1.648926,0.698975,-208.435043,115.676872,249.992355,2.2462147587597228
-1.317383,-1.737793,0.748291,-247.947678,105.049126,249.992355,2.305506864058097
-1.359131,-1.75,0.558105,-249.992355,68.778992,249.984726,2.284998526517249
-1.500244,-1.666748,0.298584,-249.458298,14.114379,249.992355,2.2622849864895445
-1.713379,-1.604736,0.165039,-249.877914,-37.92572,249.992355,2.353313217329559
-1.933105,-1.555176,0.07666,-249.992355,-66.596985,249.992355,2.4822054885929568
-2.121826,-1.435791,0.042725,-248.992905,-65.895081,249.992355,2.562316685263943
-2.127441,-1.405029,0.080322,-210.266098,-50.094601,249.992355,2.5507966055736393
-1.953369,-1.41333,0.169189,-143.608093,-29.678343,249.992355,2.416976842417403
-1.720215,-1.358643,0.172363,-99.281303,-12.481688,249.992355,2.198808643662063
-1.519043,-1.229004,0.134277,-67.7948,1.876831,249.992355,1.9585639587703025
-1.449707,-1.083984,0.127197,-37.307739,19.065857,249.992355,1.8146213861062037
-1.393799,-1.033936,0.141113,-6.271362,37.567139,249.992355,1.7411525445135472
-1.261475,-0.997559,0.1875,22.422789,56.488033,249.992355,1.6191353816484895
-1.169434,-0.925293,0.226318,46.203609,75.767517,249.992355,1.5082979988480394
-1.009521,-0.844727,0.258301,65.444946,89.958183,249.992355,1.3414230356494552
-0.882324,-0.76123,0.282715,75.973511,104.400627,249.992355,1.1991223978814674
-0.871826,-0.683838,0.334229,76.538086,120.140068,249.992355,1.1573348733020188
-0.814453,-0.617676,0.365967,74.180603,131.958008,249.992355,1.085720578820352
-0.683594,-0.538086,0.355225,72.166443,143.096924,249.992355,0.9396925565614532
-0.63623,-0.444336,0.339355,70.137024,154.335022,249.992355,0.8469857789957279
-0.682861,-0.376709,0.321777,69.702148,157.867432,249.992355,0.8436523298912888
-0.621826,-0.354248,0.267578,68.641663,149.932861,249.992355,0.7640400551437078
-0.450928,-0.311035,0.225098,62.362667,142.227173,249.992355,0.5922397673349874
-0.354736,-0.219238,0.173584,48.942562,140.205383,249.992355,0.45170159994846154
-0.427979,-0.133301,0.095459,31.578062,138.542175,249.992355,0.45830950429049583
-0.572998,-0.066406,0.072998,15.281676,135.4599,249.992355,0.5814337217981083
-0.656006,-0.053467,0.076904,4.318237,132.858276,249.992355,0.6626588996919909
-0.649414,-0.09375,0.100098,-6.92749,129.966736,249.992355,0.6637373091065472
-0.515625,-0.096191,0.122559,-27.778624,122.398369,249.992355,0.5386488258476018
-0.342529,0.009277,0.097656,-61.019894,112.121574,249.992355,0.35629885336049005
-0.245605,0.188477,0.023682,-95.634453,98.182671,249.992355,0.31049353081505576
-0.207764,0.351074,-0.043945,-116.538994,78.208923,249.992355,0.4103047601442128
-0.165283,0.458252,-0.08252,-118.568413,53.398129,246.566757,0.49408796382122083
-0.194824,0.48877,-0.125732,-109.901421,29.525755,238.128647,0.5409815520884238
-0.22583,0.490479,-0.097656,-103.012077,4.020691,229.27092,0.5487308380955093
-0.181885,0.538574,0.001709,-102.98156,-19.142151,220.352158,0.5684602249779662
-0.107666,0.615723,0.158203,-111.709587,-35.629272,210.006699,0.6447751309518692
-0.032715,0.696289,0.267334,-124.465935,-52.185055,199.928268,0.7465628642666337
0.050293,0.751221,0.355469,-131.690979,-69.564819,188.873276,0.8325986948410381
0.088867,0.802734,0.409912,-133.476257,-85.494987,177.993759,0.9057080468832106
0.103516,0.924072,0.423828,-128.196716,-100.791924,160.789474,1.0218878593192111
0.114258,1.077393,0.400391,-111.488335,-127.143852,134.872437,1.1550513061738859
0.091309,1.19043,0.37793,-75.218201,-153.648376,121.25396,1.2523146582552647
0.037109,1.091797,0.493164,-27.542112,-177.10112,116.149895,1.198586041127628
0.047852,0.915771,0.666504,6.42395,-198.14299,97.43499,1.1336462942033552
0.110352,0.853027,0.797852,20.149229,-208.702072,73.074341,1.1732009378350325
0.145752,0.878662,0.89624,27.770994,-208.847031,52.444454,1.2635413302888039
0.165771,0.910156,0.955078,42.930599,-204.933151,30.487059,1.3296758833870004
0.126953,0.880859,0.960205,69.351196,-201.446518,8.049011,1.3092071204034144
0.042725,0.788818,0.904785,98.754875,-201.400742,-14.999389,1.2011224579425697
-0.019775,0.707275,0.810303,122.88665,-200.813278,-39.863586,1.0757415712237768
-0.063232,0.689453,0.770752,150.596619,-202.102646,-60.43243,1.0360513358598598
-0.10376,0.6875,0.751709,198.875412,-210.411057,-79.223633,1.023957425033385
-0.124756,0.61499,0.730713,249.992355,-222.534164,-100.288383,0.9631813162665688
-0.195068,0.508301,0.789795,249.992355,-229.782089,-113.365166,0.959269291309797
-0.301514,0.428223,0.748047,249.145493,-234.092697,-121.887199,0.9131593202360693
-0.273682,0.399902,0.514404,249.923691,-243.675217,-131.118774,0.7067070977031432
-0.189697,0.366211,0.181885,249.992355,-249.992355,-136.09314,0.4507522618412469
-0.064209,0.288086,0.0354,249.984726,-249.992355,-139.007568,0.29727007766843944
0.049805,0.287842,0.145752,249.992355,-249.855026,-142.63916,0.3264616370923236
-0.63501,-1.174316,-0.954102,249.992355,-249.992355,-158.638,1.640904139296382
-4.459229,-3.445557,-2.1604,173.782333,-188.987717,-195.320114,6.035222818976115
-5.064941,4.0,-1.425293,-249.992355,-194.36644,89.157097,6.609469530100733
0.948242,3.299316,1.280273,-181.854233,-143.089294,231.178268,3.663843325382378
2.201172,1.691895,0.490967,-47.46246,112.998955,199.066147,2.8193466370239046
0.341064,1.205078,-0.675537,-60.56213,103.759758,23.071287,1.4229855503654982
-0.948975,0.572754,-0.652344,-55.717464,-44.471737,-44.68536,1.2861389464117008
-1.145752,0.724121,-0.000488,-135.391235,-12.344359,-48.828121,1.3553962912333057
-1.011719,1.211914,-0.524658,-143.058777,129.981995,-27.221678,1.6636035871928745
-0.535889,1.269775,-0.695557,-72.212219,171.989426,57.640072,1.5437956831119202
-0.188232,1.119629,-0.590576,-20.805357,184.890732,67.428589,1.2797579440038651
-0.05127,1.101807,-0.718506,-17.807007,170.005783,2.563476,1.316380701083467
0.099365,1.191162,-0.714844,-33.317566,107.208244,-38.925171,1.392746300589235
0.10376,1.322998,-0.673828,-43.060299,34.759521,-43.243404,1.4883326305594458
0.018799,1.399902,-0.60791,-36.384583,-38.238525,-39.550781,1.5263137227008738
-0.063721,1.354492,-0.590088,-16.159058,-109.901421,-41.633602,1.4788214197965217
-0.22876,1.208008,-0.595703,-1.51062,-160.339355,-50.97961,1.3661905174143905
-0.445801,1.042969,-0.571289,5.41687,-179.458603,-55.862423,1.2699976331013378
-0.756592,0.909668,-0.562744,10.45227,-175.7202,-44.601437,1.3101939300057837
-1.026611,0.755615,-0.543213,17.326355,-161.735519,-29.396055,1.3856278493574672
-1.281738,0.57666,-0.560547,21.804808,-137.664795,-5.737304,1.5131430849238943
-1.569092,0.51416,-0.544189,2.838135,-97.923271,20.462034,1.738548784988503
-1.829346,0.424072,-0.66748,-46.478268,-48.889156,44.120785,1.9929559451478098
-1.834717,0.358398,-0.732666,-90.545647,-10.208129,75.927734,2.00784338633495
-1.720703,0.307861,-0.834961,-127.716057,40.222164,109.497063,1.9372034175715778
-1.593994,0.295654,-0.862061,-171.997055,104.515068,122.711174,1.8361310757876192
-1.373047,0.379883,-0.776855,-205.085739,160.392761,128.15094,1.6226745973617138
-1.14209,0.419922,-0.629883,-210.258469,199.851974,145.042419,1.3702031410973337
-0.918701,0.388916,-0.421631,-205.642685,227.363571,154.159546,1.0830696573249572
-0.704102,0.422607,-0.155762,-218.208298,244.529709,153.640747,0.8358337774324509
-0.487305,0.541992,0.103516,-244.01091,245.468124,159.0271,0.736163740851857
-0.28418,0.651855,0.250488,-249.992355,228.813156,166.351303,0.7539346467493054
-0.111084,0.68042,0.318848,-249.793991,197.936996,166.526779,0.759588756209569
0.014648,0.627197,0.374756,-241.577133,162.376389,157.119751,0.7307754102656985
0.054932,0.544189,0.502197,-223.999008,135.528564,142.814636,0.7425368806692365
-0.040771,0.483398,0.629395,-207.069382,127.04467,125.78582,0.7946533627123212
-0.095947,0.487305,0.741699,-191.261276,131.958008,110.458366,0.8926306046932292
-0.048096,0.564453,0.929932,-181.777939,153.289795,104.042046,1.0888957429657808
0.08667,0.707275,1.067383,-184.196457,177.871689,106.712334,1.2833768282207685
0.226807,0.811523,1.096924,-179.405197,187.278732,104.537956,1.3832039822650888
0.251953,0.891602,1.148193,-167.427048,187.889084,88.653557,1.4753920176895359
0.324951,0.956543,1.183105,-153.556824,176.315292,70.594788,1.55573297974781
0.322266,0.992188,1.142822,-135.948181,157.356262,57.922359,1.5473637341569046
0.233643,1.018799,1.116211,-113.197319,137.733459,48.873898,1.5292048425148934
0.232666,1.007324,1.059814,-92.063896,123.535149,41.198727,1.4805542283645
0.240723,0.999023,0.956543,-76.148987,111.686699,35.163879,1.403912044291593
0.220215,1.029785,0.859375,-62.431332,102.890007,30.708311,1.3592193285393641
0.204346,1.089844,0.785156,-48.408504,99.678032,23.056028,1.358671106776029
0.172607,1.127441,0.695068,-31.066893,98.182671,15.510558,1.3356780710762606
0.119141,1.114746,0.588135,-9.902954,93.429558,8.491516,1.2660000002456555
0.084961,1.093994,0.54541,4.440308,83.480827,5.653381,1.225362522544655
0.046875,1.100342,0.536133,7.835388,70.571899,7.522583,1.2249034150813687
0.02124,1.125488,0.518066,7.766723,52.658077,8.476257,1.2391798723752738
0.032715,1.142578,0.485352,11.871337,30.509947,8.163452,1.2418217751404588
0.034668,1.125488,0.483643,19.02771,10.543822,7.270813,1.2254940472385005
0.006348,1.086182,0.533691,24.566648,-5.027771,3.952026,1.2102304399200179
-0.009277,1.065674,0.606689,25.703428,-16.815186,1.861572,1.2263028499216662
0.001953,1.06543,0.687988,25.833128,-25.848387,3.280639,1.2682556474358788
0.039063,1.078125,0.781006,28.663633,-35.507202,5.577087,1.331859529240978
0.078369,1.077148,0.890625,37.315369,-47.599789,5.348205,1.3998579944730107
0.110352,1.043945,1.008057,52.139278,-61.744686,1.441955,1.4553960430680029
0.118652,0.991455,1.075928,66.246033,-73.501587,-4.737854,1.4678836382060398
0.125,0.942627,1.127686,76.286316,-81.130974,-11.253356,1.475075040709794
0.142822,0.928223,1.198242,84.182732,-87.036125,-17.425537,1.5224256802803215
0.113281,0.912354,1.197998,98.182671,-93.475334,-30.09796,1.510106491039953
0.053467,0.877686,1.170166,123.176567,-103.263847,-49.636837,1.4637212515506495
0.031738,0.819824,1.149414,155.570984,-114.929192,-66.413879,1.4121866856106524
0.044678,0.749023,1.121094,188.507065,-124.961845,-79.620361,1.3490305167226575
0.086182,0.707275,1.114014,214.721664,-137.771606,-90.408318,1.3223813576064205
0.130371,0.715332,1.17334,235.923752,-160.514832,-99.395744,1.380370683354656
0.138672,0.733154,1.222412,249.992355,-197.616562,-109.176628,1.4321437808558188
0.067627,0.692871,1.193848,249.992355,-242.263779,-126.380913,1.3819973519779263
-0.061035,0.59082,1.231689,249.725327,-249.992355,-150.192261,1.3674250752220394
-0.139404,0.452393,1.30249,249.992355,-249.664291,-175.186142,1.385847430911859
-0.164307,0.348877,1.175537,249.992355,-249.748215,-204.345688,1.2371738720757888
-0.006348,0.312256,0.895752,249.992355,-249.992355,-225.929245,0.948638894492525
0.0979,0.27124,0.602051,249.992355,-249.992355,-224.647507,0.6675484658067907
-0.107422,0.042236,0.379639,249.992355,-249.992355,-217.42247,0.3967986089957978
-0.7146,-2.431152,-2.086426,249.992355,-249.992355,-225.181564,3.282426946724024
-5.88501,-2.973389,-1.293701,72.227478,-109.848015,-203.582748,6.71922965248413
-2.452393,5.804932,0.218018,-249.992355,-209.510788,33.309937,6.305473717286989
3.149414,4.346191,1.580566,-172.462448,64.949036,249.992355,5.595209882768742
2.568115,2.21875,-0.510498,62.95776,240.379318,128.967285,3.4320073461065026
-0.78418,0.701416,-1.543457,78.796387,24.490355,-158.569336,1.8679352741208675
-2.255371,0.237549,-0.302979,34.141541,-45.387264,-155.632019,2.287995662033256
-1.22876,0.512207,-0.468506,8.033752,108.795158,20.26367,1.4112777970637107
-0.186035,0.919189,-0.425537,-18.676758,170.951828,121.421806,1.029853959217034
-0.311035,1.184082,-0.157471,-11.070251,104.431145,60.348507,1.2343379074588936
-0.464355,1.163574,-0.345703,8.346558,59.234615,-25.886534,1.2996309413483507
-0.325684,0.997559,-0.415527,27.160643,51.23138,-42.236324,1.1286526100027412
-0.289307,0.876953,-0.493652,33.592224,38.604736,-24.909971,1.0471090686084235
-0.292236,0.872559,-0.533691,21.133421,1.739502,-19.966125,1.063760862063462
-0.236328,0.962158,-0.58252,9.262085,-41.824337,-23.147581,1.1493165320954883
-0.287598,1.003174,-0.684326,6.538391,-84.915154,-10.032654,1.247947418025295
-0.585938,0.956055,-0.777588,1.12915,-115.089409,5.691528,1.364553993293413
-0.935791,0.875488,-0.829346,6.134033,-129.234314,9.002686,1.526433366230246
-1.225342,0.706787,-0.846924,19.104004,-132.987976,9.414673,1.6487240952048343
-1.483887,0.420654,-0.941406,13.275146,-123.825066,23.246763,1.8069631079025934
-1.674072,0.214844,-0.982422,-22.743223,-110.336296,57.708736,1.9529024531716888
-1.612549,0.170166,-0.970459,-67.962646,-63.285824,82.542412,1.8897252222579874
-1.517334,0.196289,-0.974121,-105.491631,15.396117,104.667656,1.8137650238434966
-1.50415,0.243408,-1.022217,-148.223877,89.721672,117.21801,1.8348412116728248
-1.405762,0.29834,-0.935303,-179.611191,146.141052,119.49157,1.7146326889608163
-1.287842,0.281006,-0.762451,-194.145187,197.227463,117.279045,1.5227714590183912
-1.187988,0.213867,-0.54541,-208.625778,240.074142,113.204948,1.324585463431107
-1.013184,0.226563,-0.304199,-235.382065,249.992355,103.149406,1.0818547233459768
-0.82373,0.305176,-0.089111,-249.992355,249.992355,106.414787,0.8829520225906955
-0.627197,0.379395,0.047607,-249.992355,249.725327,114.501945,0.734563182635095
-0.481934,0.432861,0.147217,-249.649033,249.992355,114.929192,0.6643055552725718
-0.389893,0.459717,0.256592,-249.992355,249.717697,109.107964,0.6551303122295594
-0.299072,0.466553,0.373779,-249.992355,235.023483,101.776115,0.6684508237963358
-0.288574,0.480957,0.484863,-249.992355,208.847031,97.640984,0.7414086040059152
-0.353516,0.522217,0.605225,-249.992355,192.710861,95.91674,0.8740603285643388
-0.334961,0.602783,0.766846,-249.992355,185.501083,93.383781,1.0313093640251696
-0.232422,0.670166,0.831299,-249.54985,186.347946,89.286797,1.092794802806547
-0.092529,0.726807,0.873047,-236.289963,185.859665,86.257927,1.139746066147631
0.043945,0.73999,0.964844,-210.266098,176.742538,82.641594,1.2167334578538556
0.125488,0.778076,1.152832,-193.61113,163.970932,77.095032,1.3964852738729472
0.134277,0.83374,1.340332,-182.945236,150.032043,75.172424,1.5841851440261017
0.093994,0.880615,1.459717,-173.06517,136.039734,67.497253,1.7073638658323538
0.043945,0.941162,1.522461,-165.214523,129.455566,53.779598,1.7904202215653173
0.057373,1.005371,1.533936,-156.707764,131.973267,44.136044,1.834944729648825
0.079834,1.063232,1.523926,-140.815735,137.832642,40.794369,1.859888761957553
0.105469,1.080811,1.536377,-117.553703,141.304016,34.90448,1.8814171291372364
0.182617,1.086914,1.532471,-96.786491,137.001038,26.069639,1.8876436045837677
0.250488,1.083496,1.429688,-75.614929,124.687187,21.682737,1.8112745781642274
0.294922,1.061035,1.348877,-49.942013,102.47039,17.295837,1.7413338044263655
0.276855,1.02832,1.286377,-24.436949,73.753357,12.664794,1.6699869758635844
0.205078,1.003418,1.213623,-5.355834,46.394344,7.225036,1.5880130525083853
0.163818,1.004639,1.161621,7.629394,21.972654,2.151489,1.5445061363057124
0.151611,1.026123,1.145508,19.577026,-0.038147,-0.579834,1.5453487905693004
0.145264,1.032715,1.187988,36.132813,-23.941038,-3.929138,1.5807964413753595
0.130371,0.997803,1.260742,57.952877,-51.216122,-12.702941,1.6130957240703354
0.099854,0.926025,1.286377,81.619255,-80.368034,-26.19171,1.5881621164320727
0.077148,0.856689,1.29541,102.401726,-111.328117,-37.780762,1.5549774675939843
0.050781,0.804932,1.306152,118.141167,-140.335083,-48.072811,1.535098459933108
0.022217,0.781494,1.355469,133.087158,-167.121872,-58.845516,1.5647755995943955
-0.000732,0.777344,1.391846,149.505615,-193.023666,-68.008423,1.5942081162370239
-0.03125,0.761475,1.401123,169.41069,-222.236618,-76.004028,1.5949816297543993
-0.037598,0.744385,1.460938,192.268356,-249.694809,-84.922783,1.6400800217285132
-0.040039,0.725586,1.516602,215.171799,-249.992355,-95.703117,1.6817133499264967
-0.091797,0.700195,1.497803,238.929733,-249.587997,-110.168449,1.6559328350035818
-0.189209,0.67041,1.477051,249.992355,-249.93895,-129.653931,1.6330735655144257
-0.280762,0.638916,1.466309,249.992355,-249.992355,-152.732849,1.6239159581643996
-0.379395,0.598633,1.447998,249.732956,-249.992355,-171.295151,1.6121415082795927
-0.428955,0.536865,1.372314,249.992355,-249.992355,-180.175766,1.5347547474583683
-0.431396,0.438232,1.252197,249.992355,-249.992355,-184.66185,1.3950437704419887
-0.50415,0.295654,1.03418,249.992355,-249.992355,-198.188766,1.1879001568381073
-0.553223,0.128662,0.897461,249.992355,-249.992355,-221.130356,1.062095026113012
-0.462646,-0.024658,0.866943,249.992355,-249.992355,-244.567856,0.9829748234461552
-0.342529,-0.216553,0.632813,249.992355,-249.992355,-249.992355,0.7514476765677035
-1.000488,-1.120605,-0.306885,249.992355,-249.992355,-249.954208,1.5332678198520961
-5.994873,-5.100098,-3.446533,191.314682,-41.542049,-247.718796,8.592327485368676
-6.581299,4.102051,-1.674561,-237.258896,-3.311157,94.604485,7.933755319942946
2.471436,3.868408,1.131104,-249.992355,-6.118774,194.625839,4.727787285335076
3.150391,2.223145,1.370117,-61.096188,249.992355,249.992355,4.0920114537468
0.404297,1.498779,-1.949707,90.095512,249.992355,194.786057,2.492218277137659
-0.031982,0.414551,-1.742188,69.290161,82.489006,-34.217834,1.7911154086962124
0.792969,0.552002,-0.197266,-26.283262,-100.341789,-113.357536,0.9861135420026438
0.550781,0.962158,-0.313477,-13.496398,-141.654968,-17.997742,1.152117857015505
-0.2854,1.074463,-0.259033,32.287598,-225.090012,73.730469,1.1414998876294293
-0.981689,1.063721,0.023193,39.726257,-249.992355,31.974791,1.447671776961546
-1.327148,0.950195,-0.070313,33.660889,-223.144516,-40.840145,1.6337491453396387
-1.299072,0.727295,0.091797,40.252682,-133.552551,-44.296261,1.4916342606074722
-1.290283,0.564697,0.156738,26.123045,-36.552429,-13.702392,1.4171378629272455
-1.199219,0.599365,-0.045166,-25.146482,22.079466,-7.377624,1.3414188684903758
-0.898193,0.802734,-0.104492,-77.178955,42.594906,-28.19824,1.2091530581646808
-0.636719,1.009766,-0.238525,-94.482414,43.983456,-42.190548,1.2173465551526401
-0.5271,1.086182,-0.391846,-76.23291,27.259825,-37.055969,1.269318334713558
-0.490479,1.008301,-0.388672,-43.258663,1.220703,-28.388975,1.1867208937344955
-0.488525,0.863281,-0.326904,-16.807556,-17.990112,-18.043518,1.0444026933142216
-0.522461,0.783447,-0.30957,-7.339477,-26.94702,-1.289368,0.991255912078208
-0.543945,0.786865,-0.436768,-8.537292,-24.787901,14.900207,1.0515697680487015
-0.530273,0.855713,-0.562256,-8.148193,-14.549254,26.954649,1.1530680823065045
-0.499023,0.902832,-0.591553,-1.296997,1.594543,33.981323,1.1891444515120944
-0.490479,0.87207,-0.602051,6.179809,24.948118,29.548643,1.1677076436086218
-0.526367,0.7771,-0.611816,10.986327,55.679317,10.261535,1.1203862934474877
-0.637451,0.62915,-0.711914,11.45935,86.34185,-20.805357,1.144113212622335
-0.614746,0.524414,-0.815674,9.819031,95.748894,-53.604122,1.1481492769618418
-0.568359,0.457764,-0.948975,2.799988,90.2481,-55.206295,1.197135490745304
-0.72583,0.285889,-1.099609,-12.268065,93.093864,-42.984005,1.3482216665303965
-0.748291,0.020996,-1.119629,-22.117613,86.242668,-32.157898,1.3468293694221254
-0.840332,-0.150146,-1.111572,-33.821106,76.789856,-13.023376,1.4015327333758565
-1.038086,-0.142822,-1.042725,-86.196892,82.93914,-21.133421,1.4782747013681186
-1.150391,-0.0271,-0.891357,-151.298523,111.129753,-38.063049,1.455558712086187
-1.146729,0.091064,-0.818359,-187.042221,147.628784,-37.162781,1.411733510411225
-1.083496,0.111816,-0.718262,-195.816025,183.90654,-35.842896,1.30474775359684
-0.960449,0.032471,-0.548096,-204.246506,216.903671,-46.791073,1.106311833371586
-0.852051,-0.032471,-0.406982,-222.923264,242.980942,-68.443298,0.9448172419923337
-0.776123,-0.029297,-0.297363,-244.308456,249.992355,-89.859001,0.8316549639766481
-0.718994,0.039795,-0.151123,-249.992355,249.992355,-104.499809,0.7357813365328045
-0.685791,0.174805,0.003906,-249.977097,249.80925,-113.700859,0.707729708675565
-0.634277,0.303955,0.132324,-249.839767,249.755844,-123.466484,0.7156854027643711
-0.569092,0.398193,0.203125,-249.992355,242.988571,-137.60376,0.7236595438035762
-0.548096,0.445068,0.202393,-249.992355,228.01207,-154.243469,0.7344778255938025
-0.557129,0.398926,0.204346,-249.992355,209.419235,-172.668442,0.715046826321885
-0.546875,0.285889,0.2146,-249.992355,195.152267,-196.434006,0.6533436660334283
-0.513916,0.185303,0.223633,-249.992355,191.810593,-221.168503,0.5903037993728315
-0.514648,0.157471,0.257813,-248.489365,196.929916,-241.027817,0.5967639589603246
-0.595459,0.169434,0.260742,-231.063828,206.512436,-249.992355,0.6717631216440807
-0.665283,0.157227,0.243164,-196.708664,215.705856,-249.992355,0.7255691080207315
-0.641846,0.112549,0.287354,-158.927917,221.527084,-249.793991,0.7121838852662984
-0.552246,0.05542,0.349121,-127.098076,222.83934,-249.992355,0.655692377229597
-0.521729,0.00415,0.36084,-100.891106,217.109665,-249.992355,0.6343688812835951
-0.526367,-0.049072,0.392334,-73.768616,199.211105,-249.992355,0.6583283735560849
-0.458008,-0.091309,0.504639,-47.180172,172.874435,-249.992355,0.6875821273607975
-0.372559,-0.108887,0.601563,-28.343199,151.145935,-249.992355,0.7159152395493477
-0.299805,-0.126465,0.588623,-16.868591,131.065369,-249.992355,0.6725722789254698
-0.23291,-0.141357,0.536621,-2.937317,109.069817,-249.992355,0.601823036440115
-0.176514,-0.187988,0.508301,13.572692,84.014885,-249.992355,0.5699706895455239
-0.129639,-0.394287,0.470459,49.522396,57.739254,-249.992355,0.6273756286077743
-0.154053,-0.603271,0.414063,83.023064,31.257627,-249.992355,0.7477408603379917
-0.19751,-0.869629,0.382324,106.788628,-0.389099,-249.992355,0.9702764754012126
-0.186768,-1.19873,0.39917,133.911133,-31.951902,-249.992355,1.2771736716766442
-0.128174,-1.55249,0.444092,160.575867,-60.752865,-249.992355,1.6198368679715869
-0.181396,-1.809326,0.541992,171.30278,-77.74353,-249.992355,1.8974510299757408
-0.562012,-1.860107,0.561768,148.635864,-63.491817,-249.992355,2.0227305370258786
-0.818848,-2.011475,0.548096,134.750366,1.686096,-249.992355,2.2398555640810858
-0.997559,-2.671875,0.726318,181.068405,125.320427,-249.992355,2.943055862743689
-1.226563,-2.807373,0.861572,243.827805,245.437607,-249.992355,3.1824685804076687
-1.432373,-2.968994,0.792969,249.992355,249.992355,-249.992355,3.3904892888971054
-1.719971,-3.425293,0.440918,249.29808,248.321518,-249.992355,3.858152544860558
-2.212158,-3.655029,0.318359,249.748215,249.671921,-249.992355,4.284183990059951
-2.657715,-3.278564,0.314941,249.992355,249.992355,-249.992355,4.23221204062391
-2.172119,-2.527588,0.394287,249.992355,249.977097,-249.992355,3.3559297201035063
-0.537842,-1.480713,1.351074,249.992355,249.984726,-249.992355,2.0753761005680396
0.324463,-1.135254,1.655518,249.992355,249.992355,-249.992355,2.0334251230888736
1.137207,-1.625,1.423096,249.992355,249.992355,-249.992355,2.4411200269681537
1.507813,-1.590576,0.772217,244.247421,249.992355,-249.992355,2.323736463077085
0.76709,-1.057617,0.344727,172.714218,184.905991,-226.181015,1.3512281418465204
0.02124,-0.843018,0.395996,94.184868,-68.42804,-131.484985,0.9316347556526646
-0.256348,-0.98877,0.546387,36.468506,-226.440414,-52.673336,1.1584123461760065
-0.224121,-1.205566,0.572998,-28.854368,-249.992355,-20.355223,1.35349411191959
-0.007568,-1.75415,0.459229,-71.907043,-249.763474,-14.251708,1.8132817683870865
0.143555,-2.318359,0.375,-108.444206,-249.320969,20.378111,2.3528751541265422
0.067383,-2.176025,-0.000977,-147.453308,-249.992355,110.389702,2.177068263477974
-0.001465,-1.448975,-0.531006,-145.698547,-249.992355,190.46019,1.5432103125906071
-0.168701,-0.954346,-0.890137,-72.624207,-249.984726,232.307419,1.3158952062706208
-0.479248,-0.991211,-0.991455,27.183531,-249.992355,249.992355,1.4816075421818018
-0.719727,-1.247559,-0.951172,96.527092,-249.992355,249.992355,1.7260181304360624
-0.790527,-1.446045,-0.830811,137.443542,-249.992355,249.412521,1.8455963798932313
-0.720703,-1.413086,-0.71582,174.102768,-249.992355,234.848007,1.7402939780407791
-0.500977,-1.24292,-0.895752,219.673141,-249.992355,207.771286,1.6118932118577212
0.03833,-1.255371,-0.860352,249.992355,-249.992355,202.102646,1.5223767931905032
0.066406,-1.332031,-0.572266,244.972214,-249.992355,179.36705,1.45127692621119
-0.085693,-1.38501,-0.466553,204.177841,-247.520432,107.040398,1.463990331989252
0.115234,-1.536133,-0.322266,167.282089,-217.712387,49.308773,1.573797586477054
0.296875,-1.562744,-0.203613,118.988029,-182.922348,21.484373,1.603671359390695
0.101074,-1.413818,-0.072754,70.358276,-157.150269,14.366149,1.4192922303444064
-0.366455,-1.204834,0.061768,18.135071,-99.151604,-4.608154,1.2608447645943572
-0.643555,-1.026855,0.02124,-29.121397,-20.477293,-23.353575,1.2120418172035157
-0.642578,-0.946533,0.085693,-53.489681,60.707088,-41.999813,1.1472464845977954
-0.593506,-0.959717,0.188477,-66.696167,142.303467,-64.987183,1.1440409396756746
-0.510498,-0.98291,0.240723,-81.352226,210.899338,-78.849792,1.133431885396295
-0.437012,-1.013428,0.278564,-93.39904,249.992355,-84.442131,1.1382502806606287
-0.366211,-1.03125,0.299072,-94.703667,249.992355,-80.757133,1.1344739398527408
-0.184814,-1.025146,0.321289,-85.58654,249.252304,-69.145203,1.090095022203569
-0.040771,-0.997314,0.36084,-74.211121,249.992355,-57.228085,1.0613684537600503
0.090576,-0.997314,0.343506,-73.295593,217.399582,-52.230831,1.0586952339592353
0.231934,-1.054688,0.275391,-86.944572,121.00219,-47.95837,1.1144506990356282
0.145264,-1.065918,0.212646,-96.137993,30.014036,-32.829285,1.0965861269120634
-0.066406,-1.008057,0.241455,-84.304802,-31.967161,-12.527465,1.0386959079104914
-0.177246,-0.870605,0.356445,-64.01825,-65.498352,17.486572,0.9572994560564629
-0.180908,-0.690918,0.418945,-53.283688,-79.13208,58.959957,0.828015881618825
-0.192627,-0.571045,0.419189,-41.862484,-94.40612,100.616447,0.7341096449952145
-0.253906,-0.571045,0.497314,-10.665893,-120.033257,129.127502,0.7986750675068053
-0.34082,-0.69165,0.63916,33.065796,-144.752502,139.022827,1.0015305789140938
-0.379639,-0.835693,0.757568,57.098385,-159.103394,135.719299,1.1901335367067007
-0.387451,-0.922607,0.80127,49.171444,-159.78241,134.368896,1.2819343067216822
-0.375977,-0.927002,0.767334,29.685972,-150.558472,137.527466,1.2607509191307376
-0.381348,-0.87793,0.722168,13.641356,-133.087158,137.878418,1.1990471226052795
-0.419434,-0.825684,0.69458,3.349304,-106.864922,131.919861,1.1576356614289316
-0.40625,-0.848145,0.719238,9.597778,-79.658508,115.676872,1.1839308696748303
-0.300293,-0.919678,0.700439,32.546997,-58.67767,90.072624,1.1944029061644148
-0.126465,-0.917236,0.72168,34.927368,-46.501156,86.769096,1.1739409262484208
-0.037354,-0.845947,0.716309,19.805908,-34.118652,100.639336,1.1091078539105204
-0.066895,-0.772217,0.663818,12.535094,-19.889832,112.876884,1.0205137790534726
-0.092041,-0.728516,0.613525,17.181396,-7.041931,114.044182,0.9568803653341414
-0.032471,-0.70874,0.57251,24.772642,0.259399,112.403862,0.9116657575784012
0.00708,-0.711182,0.505127,26.863096,1.724243,115.07415,0.8723435387810241
-0.111084,-0.740723,0.493164,31.219481,3.257751,111.961357,0.8967836688304488
-0.185303,-0.796875,0.592285,47.042843,5.91278,99.95269,1.0100240040013901
-0.125732,-0.880371,0.656738,60.256954,10.757445,92.208855,1.1055163653736657
-0.055664,-0.928711,0.662842,52.902218,10.56671,96.122734,1.1423493858627491
-0.066162,-0.880127,0.665039,36.735535,9.933472,95.458977,1.1051143913161208
-0.126221,-0.799805,0.663818,29.426573,16.63208,88.043205,1.047031095999541
-0.131592,-0.77417,0.646973,27.9541,23.674009,79.437256,1.0174623855912315
-0.135254,-0.806885,0.620117,21.736143,28.984068,68.855286,1.0265973609112777
-0.236328,-0.863525,0.583008,8.918762,41.107174,54.122921,1.068374783151025
-0.335205,-0.904297,0.544922,-6.507873,65.39917,37.063599,1.1077253460664336
-0.341797,-0.952148,0.484375,-19.752502,97.953789,14.297484,1.1216194291015111
-0.316162,-0.999512,0.405762,-32.806396,132.705688,-11.856078,1.1241109593950234
-0.283203,-1.000977,0.317627,-43.060299,164.825424,-35.430908,1.0876790909395107
-0.213379,-0.980225,0.231689,-44.639584,188.44603,-52.536007,1.0295879957473282
-0.132324,-0.991455,0.140137,-37.193298,201.515182,-63.2019,1.0100153646207566
-0.074463,-1.026367,0.065674,-20.294188,206.21489,-73.21167,1.031158102006671
-0.039307,-1.041748,0.026123,2.655029,206.909164,-80.703728,1.0428165451708176
-0.023438,-1.023193,0.01709,23.849485,206.909164,-82.992546,1.023604085177956
-0.015381,-0.996826,0.046143,37.147522,200.988754,-80.92498,0.9980119367452475
-0.006592,-0.969238,0.073242,41.336056,183.464035,-77.49939,0.972023737195754
-0.030762,-0.95459,0.086914,42.472836,158.432007,-72.807312,0.9590320183080439
-0.068604,-0.95459,0.107178,42.854305,131.790161,-67.108154,0.9630346310491643
-0.096191,-0.963623,0.136475,41.076656,107.727043,-63.636776,0.9779812985098437
-0.097412,-0.969238,0.160645,35.263062,87.554924,-61.744686,0.987278184916997
-0.080566,-0.957275,0.179932,25.291441,68.954468,-58.952328,0.977364737754028
-0.078125,-0.942383,0.183838,12.519835,51.536556,-55.282589,0.9633201153085095
-0.103027,-0.931885,0.19165,-0.022888,36.949158,-52.49786,0.9569503322816707
-0.130615,-0.926025,0.199463,-12.268065,25.115965,-51.895138,0.9562259498774335
-0.163086,-0.922119,0.193848,-24.658201,17.623901,-51.963802,0.9562831906192851
-0.199951,-0.919922,0.174561,-36.193848,14.556884,-52.581783,0.957448918327239
-0.246826,-0.934814,0.156494,-43.136593,16.563416,-55.686947,0.9794338471321072
-0.284424,-0.962891,0.147217,-45.623775,21.987913,-61.088558,1.0147556034563199
-0.289307,-0.980957,0.163818,-46.119686,29.33502,-68.435669,1.035766147941706
-0.270996,-0.973145,0.186279,-48.538204,37.55188,-75.363159,1.0272048913834084
-0.264404,-0.952393,0.184082,-51.841732,44.631954,-78.475952,1.0054094113290366
-0.26709,-0.942139,0.183838,-53.199764,48.179623,-79.292297,0.9963731096657517
-0.290283,-0.963379,0.179688,-51.841732,47.45483,-79.154968,1.0220817457884668
-0.309814,-1.000244,0.181396,-49.842831,42.984005,-80.986015,1.0627216394465673
-0.307861,-1.009033,0.195313,-44.56329,36.697388,-85.502617,1.0728807754727456
-0.268311,-0.994873,0.213379,-34.248352,23.818968,-84.617607,1.052280227169075
-0.21582,-0.967285,0.234131,-23.735044,0.259399,-76.293945,1.0183495808345973
-0.191895,-0.949707,0.242676,-16.685486,-31.791685,-65.795898,0.9988286729214375
-0.202393,-0.955566,0.241455,-10.383605,-66.673279,-54.64172,1.0061659027367207
-0.227051,-0.977783,0.268311,-1.991272,-98.525993,-42.121883,1.0390392410351978
-0.262207,-1.011963,0.29541,6.004333,-123.207085,-27.236937,1.0863188723013146
-0.294678,-1.030518,0.328857,9.109497,-138.427734,-11.665343,1.1211375466270854
-0.330322,-1.024414,0.347168,8.644104,-143.585205,1.945495,1.1309563595930658
-0.367188,-1.003418,0.362793,7.43103,-140.327454,12.886046,1.1284030622596697
-0.388916,-0.973633,0.378174,6.179809,-130.760193,22.727964,1.1145548205543772
-0.400391,-0.953613,0.390381,3.509521,-116.943352,31.471251,1.1054809052222476
-0.415771,-0.94458,0.397217,-1.365662,-100.601189,36.598206,1.1058382548682244
-0.429688,-0.939209,0.381592,-7.957458,-82.756035,36.903381,1.1010711954678498
-0.422852,-0.927734,0.364014,-12.489318,-64.857483,33.180237,1.0825896641184045
-0.406006,-0.91748,0.355469,-13.801574,-47.172543,27.763365,1.064409992623613
-0.384277,-0.906494,0.352539,-13.053893,-29.479979,23.483274,1.0457934458037113
-0.367676,-0.914551,0.346924,-10.879516,-11.520385,20.378111,1.0449619296189696
-0.355957,-0.920898,0.341797,-8.636475,7.240295,17.326355,1.0447888310381195
-0.340332,-0.900635,0.342041,-6.584167,26.649473,14.595031,1.0217442532894423
-0.310547,-0.880127,0.339355,-4.295349,44.281002,12.329101,0.9930885113437774
-0.276855,-0.872559,0.327637,-1.564026,57.762142,10.101317,0.9722931159249252
-0.247559,-0.870361,0.320068,1.182556,66.635132,8.079529,0.9598214695587926
-0.221924,-0.871338,0.319824,4.203796,70.899963,5.973815,0.9543414289424933
-0.192139,-0.883789,0.314453,6.835937,70.800781,4.554749,0.957539075469508
-0.169678,-0.910889,0.303467,8.407593,67.047119,4.585266,0.9749880071539341
-0.159912,-0.930908,0.28833,8.857727,61.012264,5.516052,0.9875706258835365
-0.158936,-0.932373,0.280518,7.774353,54.237362,6.91986,0.98654468299667
-0.155518,-0.918457,0.26416,5.683898,48.362728,9.33075,0.9682611294341005
-0.157959,-0.904785,0.249756,3.814697,42.92297,12.184142,0.9518219378864935
-0.163818,-0.897461,0.235596,2.227783,37.414551,13.961791,0.9422197508336364
-0.166748,-0.899902,0.223633,1.289368,31.784056,13.885497,0.9421466041954405
-0.170654,-0.911133,0.212158,0.488281,26.283262,13.183593,0.9509453971543266
-0.174805,-0.932861,0.19873,0.053406,21.492002,12.931823,0.9696803835522301
-0.181152,-0.943848,0.191895,-0.343323,18.196106,13.160705,0.9800452975413942
-0.19165,-0.934082,0.180176,-1.579285,17.181396,13.374328,0.970413466621316
-0.203857,-0.918945,0.169189,-2.853393,18.264771,12.96234,0.9563694407471414
-0.202393,-0.905029,0.156738,-2.807617,20.423887,11.825561,0.9405356016302625
-0.188721,-0.9021,0.153076,-0.961304,22.346495,10.32257,0.9342549371649047
-0.183838,-0.91626,0.148438,1.792908,22.933958,9.346008,0.9462360369844302
-0.189453,-0.941162,0.140381,3.585815,22.949217,8.460999,0.9702500577758293
-0.195801,-0.962402,0.130615,4.768372,23.437498,6.67572,0.9907653200581862
-0.208496,-0.98291,0.124756,5.943298,24.971006,3.997802,1.0124952887060759
-0.213623,-0.998291,0.115967,6.370544,26.94702,0.808716,1.0274570803196599
-0.203613,-1.009277,0.113281,7.209777,27.969358,-2.578735,1.035823779153095
-0.193359,-1.022705,0.116211,8.346558,27.282713,-5.432128,1.0472908938909953
-0.19458,-1.040771,0.121826,8.735657,25.367735,-7.347106,1.0657894844278581
-0.201416,-1.064941,0.134277,8.293152,23.025511,-9.414673,1.0921071610725752
-0.218262,-1.094727,0.142822,7.003784,21.293638,-11.726378,1.1253726622132778
-0.234863,-1.120117,0.153564,4.318237,20.347593,-14.770507,1.154731407970702
-0.230469,-1.111328,0.163818,1.785278,19.454956,-18.119812,1.1467354623752595
-0.213623,-1.062744,0.180908,0.183105,18.058777,-18.333435,1.0989937671019794
-0.197998,-1.019775,0.195313,-1.037598,15.586852,-15.159606,1.0570200691557374
-0.196045,-0.990723,0.207275,-3.288269,12.138366,-11.596679,1.0309843017131735
-0.201904,-0.969482,0.210938,-5.371093,8.277893,-9.19342,1.0124995868562119
-0.206787,-0.948242,0.209473,-6.874084,4.730225,-6.439209,0.9928759699287721
-0.207275,-0.929932,0.208496,-7.438659,1.655578,-2.990722,0.9752984324118439
-0.206543,-0.920166,0.206787,-6.782531,-1.678467,-0.198364,0.9654669035104207
-0.209473,-0.910156,0.199707,-5.79071,-5.325317,2.01416,0.9550632271813212
-0.215088,-0.899414,0.195557,-5.004883,-8.598328,3.807068,0.9452253336580649
-0.225586,-0.888672,0.194092,-4.333496,-10.749816,4.699707,0.9371759020824213
-0.237061,-0.883789,0.188477,-3.547668,-11.520385,4.524231,0.9342400621740646
-0.246338,-0.885986,0.182617,-2.059937,-11.032104,3.288269,0.9375513698614066
-0.257568,-0.893066,0.186523,-0.473022,-9.559631,2.26593,0.947997354695149
-0.267578,-0.906006,0.188721,0.434875,-7.583618,1.083374,0.9633589538489794
-0.273193,-0.919678,0.190918,0.907898,-4.692078,-0.984192,0.9782084244459357
-0.2771,-0.921387,0.197754,0.862122,-1.373291,-3.280639,0.98226526879708
-0.270996,-0.916016,0.206787,-0.068665,1.88446,-4.356384,0.9773868260013535
-0.270996,-0.914063,0.215576,-1.602173,4.516602,-4.623413,0.9774574219683433
-0.272461,-0.916016,0.224365,-3.417969,6.019592,-5.249023,0.9816618368878359
-0.273193,-0.922852,0.226318,-4.997253,6.584167,-6.301879,0.9886910873862473
-0.275635,-0.94043,0.228027,-6.378173,5.836486,-6.958007,1.0061707364329375
-0.280762,-0.967041,0.226074,-6.782531,4.005432,-7.263183,1.032039267567373
-0.28418,-0.994385,0.227539,-5.92041,1.602173,-7.186889,1.0589304968438675
-0.28418,-0.999268,0.236328,-5.828857,-0.526428,-6.095886,1.0654321807642193
-0.287354,-0.984619,0.235352,-7.003784,-1.976013,-4.180908,1.0523485451032846
-0.29126,-0.970459,0.231445,-7.720947,-3.532409,-1.739502,1.0393218203742285
-0.299561,-0.960938,0.230225,-7.5531,-5.462646,0.465393,1.0325416132970138
-0.30249,-0.956543,0.23291,-6.66809,-7.232666,2.02179,1.0299134813415154
-0.298828,-0.955811,0.231689,-5.455017,-8.552551,3.684997,1.0278874617515283
-0.296387,-0.950928,0.229248,-5.058288,-9.620667,5.996704,1.0220880394843685
-0.30249,-0.947266,0.222412,-5.218505,-9.895325,8.308411,1.0189603390711535
-0.309814,-0.949219,0.210693,-5.119323,-8.94165,10.169982,1.0204866313705439
-0.312744,-0.938477,0.203125,-4.844666,-6.91986,11.642455,1.0098552642284933
-0.308838,-0.921143,0.201172,-4.699707,-3.738403,12.657165,0.9921469197034278
-0.302002,-0.903809,0.193848,-4.66156,-0.068665,13.793944,0.9724468949968424
-0.294678,-0.893799,0.185791,-4.440308,3.532409,14.60266,0.959286230364014
-0.295898,-0.897705,0.175293,-3.974914,6.660461,14.625548,0.9613311236395085
-0.291748,-0.908447,0.168213,-3.547668,9.010315,13.916015,0.96885936063084
-0.283691,-0.915039,0.163574,-2.983093,11.238097,13.122558,0.9718710863473612
-0.271729,-0.920654,0.159424,-2.876281,12.802123,12.748717,0.9730654905673102
-0.260742,-0.91626,0.155273,-3.364563,13.259887,12.847899,0.9652090357497696
-0.255859,-0.90332,0.159668,-4.341125,13.549804,12.947082,0.9523364534160182
-0.252197,-0.900635,0.157471,-4.714966,13.870238,12.634276,0.9484428532468363
-0.238281,-0.910889,0.157471,-3.501892,13.351439,11.619567,0.9546170546994224
-0.225342,-0.929443,0.163086,-2.349854,11.924743,10.726928,0.9701754225958313
-0.224121,-0.944824,0.162842,-2.220154,9.70459,10.437011,0.984601508520579
-0.230225,-0.967285,0.156982,-2.288818,7.148742,9.254456,1.0066216618839474
-0.232422,-0.995361,0.157471,-1.655578,4.882813,7.102966,1.0341956402180392
-0.231201,-1.008057,0.15918,-1.38092,2.777099,5.40924,1.0464086630231995
-0.232422,-0.995361,0.156494,-2.487183,0.961304,4.737854,1.0340473289172987
-0.237061,-0.969482,0.153564,-3.837585,-0.511169,4.165649,1.0097896652971845
-0.249756,-0.95166,0.147217,-4.226685,-1.899719,3.204345,0.9948405199955418
-0.258789,-0.94043,0.146973,-3.52478,-3.326416,1.609802,0.9863981924912474
-0.260498,-0.933594,0.150391,-2.39563,-4.165649,-0.289917,0.9808539227229507
-0.262695,-0.927002,0.152832,-1.205444,-4.53186,-1.464844,0.9755506092730402
-0.264404,-0.925293,0.153564,-0.167847,-4.623413,-1.899719,0.9745042396834402
-0.271484,-0.929199,0.158203,0.740051,-4.104614,-2.410889,0.9808886445800052
-0.27832,-0.930664,0.161621,1.396179,-2.868652,-2.868652,0.9847430380241335
-0.282715,-0.933594,0.161377,1.747131,-1.365662,-3.64685,0.9887204176055029
-0.286621,-0.94043,0.158447,2.388,-0.007629,-4.997253,0.9958240980966467
-0.284668,-0.950195,0.162354,3.288269,0.915527,-6.149292,1.0051195100907155
-0.294189,-0.95752,0.168213,3.807068,1.831055,-7.057189,1.015720104896029
-0.302246,-0.9646,0.169189,3.40271,3.257751,-8.323669,1.0249052259779927
-0.30542,-0.966797,0.167969,3.364563,5.142211,-9.963989,1.0277117302872436
-0.293701,-0.966309,0.174316,3.807068,6.347656,-10.734557,1.0248899593312444
-0.283936,-0.979248,0.181641,3.684997,6.41632,-10.2005,1.03563495039565
-0.283447,-0.993896,0.1875,2.822876,5.455017,-9.33075,1.0503940739670041
-0.2854,-0.992188,0.189697,0.694275,4.013062,-8.041382,1.0497024050429722
-0.292725,-0.974121,0.190186,-2.525329,2.677917,-6.370544,1.034780345224048
-0.29834,-0.963867,0.187988,-4.959106,1.350403,-4.66156,1.0263458663788732
-0.295898,-0.959229,0.186035,-5.805969,-0.007629,-2.838135,1.0209235632847349
-0.293945,-0.953369,0.185303,-6.217956,-1.365662,-0.198364,1.0147183426917048
-0.302246,-0.946045,0.182617,-6.469726,-2.380371,2.677917,1.0098033250242346
-0.30542,-0.940186,0.181152,-6.408691,-2.861023,5.126953,1.0050110139197481
-0.307129,-0.932861,0.179932,-6.111145,-2.593994,7.026672,0.9984655189769951
-0.307617,-0.935059,0.175049,-5.523681,-1.594543,8.575439,0.999802832848057
-0.310303,-0.939209,0.174316,-4.547119,-0.045776,9.048462,1.0043841721901037
-0.308838,-0.937744,0.172852,-3.448486,1.846313,9.132385,1.0023086020203558
-0.298828,-0.929688,0.171631,-2.624511,4.02832,9.407043,0.9915014629787491
-0.293457,-0.921387,0.167236,-2.029419,6.378173,9.391785,0.981345451058902
-0.295654,-0.922607,0.15332,-1.731872,8.483887,8.560181,0.9808781711124985
-0.295654,-0.925293,0.14624,-0.793457,10.963439,6.309509,0.9823260971617317
-0.279297,-0.929199,0.150879,1.38855,13.618468,3.875732,0.9819277307679013
-0.258057,-0.935303,0.158936,3.295898,15.151977,2.937317,0.9831814528122467
-0.253906,-0.935303,0.159668,3.761291,15.083312,2.26593,0.9822188294209188
-0.26001,-0.924805,0.157959,3.173828,14.274596,1.25885,0.9735607499308916
-0.268555,-0.913086,0.152832,3.089905,13.298034,0.640869,0.9639530339414882
-0.277344,-0.906494,0.146484,4.173279,12.329101,0.099182,0.9592229295778953
-0.282959,-0.90625,0.146484,6.156921,11.390685,-1.38855,0.9606312614302118
-0.285156,-0.916992,0.147949,8.354187,10.421752,-3.14331,0.9716363409223638
-0.288086,-0.931152,0.151611,9.872437,9.536743,-4.928589,0.9864195283047674
-0.298096,-0.934814,0.152832,9.613037,10.261535,-6.729125,0.9930236956065047
-0.304932,-0.928955,0.147705,8.728027,11.886596,-8.399963,0.9888163043123833
-0.305664,-0.923828,0.144287,8.399963,13.801574,-9.498596,0.9837211967061603
-0.30957,-0.918213,0.145996,8.522034,15.136718,-10.223388,0.979930370120755
-0.314209,-0.922119,0.144043,8.956909,15.823363,-11.268615,0.984773644900695
-0.318604,-0.939209,0.149658,9.986877,15.663146,-11.413573,1.0030052699068934
-0.320801,-0.94751,0.157715,10.375976,14.823913,-10.772704,1.0127005988573325
-0.322754,-0.947021,0.170898,9.567261,13.458251,-9.841919,1.01500002234532
-0.325684,-0.941162,0.17627,7.957458,12.245177,-8.979797,1.0113985816679794
-0.329102,-0.936279,0.177002,6.340026,11.444091,-7.67517,1.0080953329169815
-0.331055,-0.935059,0.174316,5.310058,10.856627,-5.874633,1.0071339604849
-0.338135,-0.939697,0.168701,4.226685,10.490417,-4.379272,1.0128305669928215
-0.344727,-0.950684,0.160889,3.379822,11.398314,-3.952026,1.0239736533261
-0.344727,-0.967529,0.154785,4.089355,13.420104,-3.578186,1.0387047061581074
-0.338867,-0.985596,0.1521,4.852295,15.151977,-2.418518,1.0532638458168968
-0.329102,-0.988281,0.159424,4.119873,16.609192,-1.312256,1.0537663275797913
-0.317871,-0.980469,0.165527,2.593994,17.799377,0.030518,1.0439160025265444
-0.307373,-0.978516,0.170898,0.541687,18.287659,1.708984,1.0397970233603289
-0.297119,-0.990479,0.168457,-1.243591,17.860413,3.669739,1.0477147085208836
-0.289307,-1.01709,0.162842,-2.410889,16.113281,5.905151,1.0699009885559505
-0.274902,-1.028076,0.16333,-3.700256,13.420104,8.361816,1.0766559618931202
-0.260742,-1.008545,0.165527,-6.156921,10.475158,11.45935,1.0547741916249185
-0.255859,-0.9729,0.165039,-8.903503,7.392883,14.671325,1.0194293057402264
-0.255371,-0.945313,0.160156,-10.658263,4.02832,17.425537,0.9922101390058459
-0.252441,-0.932617,0.157715,-10.765075,0.892639,18.936157,0.9789662651976319
-0.254639,-0.93042,0.153564,-9.872437,-1.678467,19.622803,0.976782626185069
-0.255371,-0.935791,0.148438,-8.178711,-3.265381,19.897461,0.9813016779594337
-0.258301,-0.945557,0.148682,-5.813598,-3.631592,19.546509,0.9914150412284453
-0.264648,-0.945313,0.150879,-3.807068,-2.777099,18.386841,0.9931866413288089
-0.268799,-0.937988,0.151367,-2.403259,-0.717163,16.784668,0.987413975612053
-0.275391,-0.919434,0.147949,-1.037598,2.334595,14.366149,0.9711271749045024
-0.279053,-0.903809,0.148193,0.808716,5.714416,11.238097,0.9574457950918162
-0.278564,-0.892822,0.152832,2.815246,9.490967,7.728576,0.9476743354148618
-0.281982,-0.89917,0.153564,4.669189,13.519286,4.096985,0.9547787384101093
-0.284424,-0.913574,0.158936,6.317138,17.463684,0.106812,0.9699356253628382
-0.282471,-0.925293,0.165283,7.209777,21.263121,-3.639221,0.9814659809585863
-0.279785,-0.920898,0.16748,6.828308,24.139402,-6.103515,0.9769249321360368
-0.279297,-0.909424,0.164795,5.882263,25.756834,-8.06427,0.9655134478659528
-0.277344,-0.903076,0.166504,5.516052,26.176451,-9.95636,0.9592651031534505
-0.27832,-0.909668,0.167725,5.66101,25.115965,-11.405944,0.9659656144237226
-0.278076,-0.920166,0.172363,6.004333,23.16284,-12.474059,0.9765965047556744
-0.280029,-0.932861,0.174805,6.095886,20.63751,-12.939452,0.9895467013673483
-0.285889,-0.949951,0.176514,6.286621,17.471313,-12.535094,1.0076192807395064
-0.290771,-0.962646,0.179199,5.996704,14.015197,-12.092589,1.0214437710211952
-0.294922,-0.965576,0.187012,4.898071,11.016845,-11.398314,1.0267859981534615
-0.293945,-0.958252,0.187744,3.570556,8.338928,-9.521484,1.0197540723453866
-0.297607,-0.946533,0.192627,1.937866,5.607605,-7.4234,1.0107422063350278
-0.306641,-0.933838,0.192383,0.038147,3.89862,-5.92041,1.0015454716656653
-0.308594,-0.932861,0.1875,-0.801086,2.944946,-4.562378,1.0003080286376793
-0.304688,-0.948975,0.181641,-0.389099,1.808166,-3.044128,1.013105019654922
-0.307861,-0.966309,0.181396,0.045776,0.770569,-1.739502,1.0302601553093276
-0.308105,-0.978271,0.182129,-0.236511,0.679016,-0.88501,1.0416879634069889
-0.30249,-0.97998,0.181885,-0.823975,0.602722,0.495911,1.0416060453573606
-0.298828,-0.966309,0.180176,-2.01416,0.358582,2.067566,1.0273824254098372
-0.300293,-0.949951,0.170898,-2.822876,0.289917,3.555298,1.0108357505816659
-0.297119,-0.94043,0.155273,-2.792358,0.160217,4.417419,0.9983977111301888
-0.283447,-0.939941,0.148682,-2.220154,-0.015259,4.394531,0.9929439170537276
-0.280029,-0.945557,0.149902,-1.480102,-0.587463,4.753113,0.9974792683028555
-0.273682,-0.957031,0.151123,-1.159668,-2.105713,5.004883,1.006801039537604
-0.265137,-0.960205,0.155029,-2.067566,-3.662109,5.134582,1.0081295857353856
-0.262451,-0.955811,0.157227,-4.104614,-5.470275,5.462646,1.0035813492941168
-0.263672,-0.939941,0.155518,-6.317138,-7.232666,6.011962,0.9885331837571261
-0.267334,-0.927734,0.147949,-7.644653,-9.010315,6.370544,0.9767531668302897
-0.272705,-0.927246,0.143066,-7.629394,-10.612487,6.225585,0.9770471032130437
-0.281738,-0.936768,0.144287,-6.134033,-11.657714,5.53894,0.9888019644180528
-0.288574,-0.946045,0.145752,-4.165649,-11.978148,4.776001,0.999759841664487
-0.288086,-0.941162,0.154297,-2.761841,-11.428832,4.28009,0.9962866143078507
-0.287598,-0.927734,0.159912,-1.846313,-10.025024,3.845215,0.9843651924484124
-0.291748,-0.919678,0.161865,-1.281738,-8.087158,3.39508,0.9783275511877401
-0.298584,-0.919922,0.160645,-0.907898,-5.599975,2.449036,0.9804160887934266
-0.304199,-0.921631,0.156006,-0.656128,-2.449036,1.068115,0.9829947119888286
-0.308838,-0.921387,0.155518,0.099182,1.152039,-0.801086,0.9841345245122741
-0.303223,-0.936523,0.153564,1.815796,4.455566,-2.861023,0.9962938418729688
-0.293701,-0.96167,0.1604,3.852844,6.683349,-4.379272,1.01823259931167
-0.286133,-0.965332,0.170898,4.257202,8.216858,-5.020141,1.0212463416419175
-0.28125,-0.950684,0.170898,2.922058,8.781433,-3.89862,1.0060356637614791
-0.284668,-0.935059,0.161621,1.724243,8.117676,-2.975464,0.9907030591181194
-0.288818,-0.929932,0.165039,2.029419,6.843566,-3.318786,0.9876371971878135
-0.290771,-0.929199,0.166748,2.807617,5.561828,-3.585815,0.9878073959765639
-0.29248,-0.923828,0.165283,2.853393,5.073547,-3.593445,0.9830163752822229
-0.295898,-0.921875,0.166992,2.761841,5.455017,-3.547668,0.9824945140269232
-0.30127,-0.930664,0.162842,3.341675,5.653381,-3.440857,0.991673641255025
-0.300781,-0.948975,0.161621,4.081726,5.363464,-3.77655,1.0085356256607896
-0.293945,-0.959473,0.170898,4.592896,5.004883,-3.997802,1.0179382236452268
-0.288818,-0.950439,0.178711,3.623962,4.112244,-3.074646,1.0093006248715
-0.287109,-0.934082,0.172363,1.846313,2.410889,-2.113342,0.992295200217153
-0.292725,-0.924561,0.167969,0.808716,0.091553,-1.609802,0.9842329771487033
-0.29834,-0.922363,0.16748,0.602722,-1.861572,-1.838684,0.9837732511961281
-0.299316,-0.922363,0.165283,0.595093,-3.089905,-1.983642,0.9836981456290339
-0.301514,-0.927002,0.164551,0.656128,-4.096985,-1.899719,0.9885951809517383
-0.301025,-0.936768,0.165283,1.045227,-4.547119,-2.189636,0.9977318309736339
-0.301758,-0.946533,0.166504,1.518249,-4.79126,-2.01416,1.0073262592968575
-0.305176,-0.950684,0.170654,1.060486,-4.837036,-2.037048,1.012943851626535
-0.303223,-0.950195,0.171387,0.328064,-5.149841,-2.128601,1.0120218522951963
-0.303467,-0.943604,0.172607,-0.25177,-6.309509,-1.88446,1.0061182362694754
-0.304443,-0.929199,0.174072,-0.656128,-7.362365,-2.342224,0.9931754039614553
-0.306641,-0.922607,0.169922,-0.404358,-7.614135,-2.342224,0.9869680164088398
-0.310303,-0.927734,0.167236,0.259399,-7.568359,-2.479553,0.9924445607997455
-0.310303,-0.939453,0.164307,1.502991,-7.484436,-2.76947,1.0029240655538185
-0.309082,-0.948486,0.164307,2.578735,-7.698059,-2.693176,1.0110164020276822
-0.310547,-0.945313,0.161377,2.792358,-8.155823,-2.555847,1.0080171840335859
-0.312256,-0.938477,0.158691,2.670288,-8.102417,-2.319336,1.0017113968334392
-0.313477,-0.935303,0.159424,2.441406,-7.644653,-2.342224,0.9992374808392648
-0.311279,-0.935303,0.158203,2.235413,-7.095336,-2.578735,0.9983559019002192
-0.311768,-0.938965,0.160156,2.281189,-6.637573,-3.128052,1.0022497200722982
-0.314697,-0.949707,0.152588,2.067566,-5.996704,-3.730774,1.0120576492483024
-0.313232,-0.970215,0.147217,2.464294,-5.104064,-4.219055,1.0300991588861725
-0.309082,-0.977539,0.149658,2.906799,-4.15802,-4.211426,1.036104095257325
-0.306396,-0.964844,0.151611,1.998901,-3.555298,-3.547668,1.0236153322772183
-0.304932,-0.945068,0.148193,1.00708,-3.082275,-2.571106,1.004040942639791
-0.303467,-0.934326,0.142578,0.686645,-2.655029,-1.983642,0.992665996420246
-0.302734,-0.93042,0.142822,0.740051,-2.410889,-2.02179,0.9888009783773477
-0.301758,-0.93335,0.14624,0.946045,-1.998901,-2.281189,0.9917591696899001
-0.305664,-0.938232,0.140869,0.968933,-1.358032,-2.555847,0.9967717100123779
-0.300781,-0.958984,0.131592,1.625061,-1.037598,-3.211975,1.0136251657693784
-0.293945,-0.986084,0.135742,3.097534,-0.762939,-4.165649,1.0378782243813578
-0.287842,-0.980957,0.141602,2.952575,-0.541687,-3.77655,1.0320759561277455
-0.289063,-0.957031,0.141602,0.953674,-0.572205,-2.5177,1.0097112851374892
-0.287598,-0.94165,0.137451,-0.518799,-0.778198,-1.976013,0.9941378724829872
-0.286865,-0.939697,0.135742,-0.602722,-1.296997,-2.02179,0.9918406477847134
-0.285156,-0.940674,0.137939,-0.732422,-2.029419,-2.27356,0.9925767911516973
-0.289063,-0.940674,0.137207,-1.289368,-2.723694,-2.220154,0.9936049280745342
-0.293701,-0.946289,0.13501,-1.342773,-3.311157,-2.250671,0.9999754242090153
-0.292725,-0.961426,0.137207,-0.793457,-3.890991,-2.502441,1.0143242282179796
-0.289795,-0.965576,0.151611,-0.389099,-4.608154,-2.365112,1.019462627623985
-0.286133,-0.955322,0.160645,-1.472473,-5.340576,-1.327515,1.0101084265552882
-0.291748,-0.942627,0.15918,-3.242492,-6.378173,-0.480652,0.9995002896612887
-0.300537,-0.935303,0.156982,-3.730774,-7.522583,-0.549316,0.9948655881585211
-0.306885,-0.933838,0.158447,-3.707886,-8.06427,-1.113892,0.9956592114162355
-0.308594,-0.940674,0.156494,-3.219604,-7.865905,-1.571655,1.002291476142544
-0.302246,-0.964355,0.15918,-2.159119,-7.17926,-1.914978,1.0230696373859407
-0.296631,-0.972412,0.166504,-1.541138,-6.538391,-1.625061,1.0301934914961364
-0.294189,-0.959717,0.171875,-2.63977,-6.217956,-0.686645,1.0184031144075514
-0.289063,-0.942139,0.171875,-3.944397,-6.54602,0.595093,1.0003620988996933
-0.290283,-0.931885,0.172852,-4.508972,-7.5531,1.457214,0.9912374524895636
-0.294434,-0.92627,0.172363,-4.776001,-8.506775,1.655578,0.987105109410847
-0.301758,-0.922607,0.169434,-4.920959,-8.338928,1.38092,0.9853778196047444
-0.305176,-0.920166,0.165771,-4.104614,-6.866455,0.839233,0.9835231990009183
-0.300781,-0.925781,0.163086,-2.410889,-4.844666,0.022888,0.9869836438958854
-0.292969,-0.94873,0.170166,-0.617981,-2.944946,-0.404358,1.007410499953718
-0.290771,-0.963379,0.174316,0.228882,-1.594543,-0.709534,1.021289841297758
-0.287842,-0.961182,0.175537,-0.37384,-0.473022,-0.938415,1.0185956471814515
-0.280762,-0.945801,0.174072,-1.686096,0.335693,-0.62561,1.0018322681112841
-0.277588,-0.937012,0.168457,-2.555847,0.167847,-0.564575,0.9916775417125266
-0.28125,-0.933838,0.158447,-2.822876,-0.740051,-0.984192,0.9880589175514788
-0.2854,-0.931396,0.152344,-2.555847,-1.747131,-1.731872,0.9859819284104552
-0.281982,-0.922852,0.153809,-0.923157,-2.761841,-2.220154,0.9771524296183273
-0.277832,-0.929688,0.161865,1.022339,-3.982544,-1.770019,0.9837228653401322
-0.283936,-0.945313,0.161621,1.655578,-4.959106,-1.144409,1.0001788178650854
-0.294434,-0.954346,0.167725,1.449585,-5.462646,-0.88501,1.0127187880635966
-0.30127,-0.950684,0.166992,0.457764,-5.455017,-0.732422,1.0111627014580788
-0.300293,-0.939941,0.166992,-0.495911,-5.218505,-0.694275,1.0007753481146506
-0.297852,-0.931885,0.166504,-0.602722,-5.500793,-0.579834,0.9923956112080504
-0.299072,-0.927002,0.166748,-0.778198,-5.798339,-0.289917,0.9882214654074257
-0.308105,-0.931396,0.163574,-0.938415,-5.569458,0.045776,0.9945771228602637
-0.312256,-0.944336,0.163086,-0.595093,-4.730225,0.045776,1.0079044269314428
-0.30957,-0.959229,0.161621,0.183105,-3.852844,-0.198364,1.020820849601927
-0.300537,-0.960205,0.167725,0.427246,-3.65448,0.030518,1.0200234340538457
-0.295898,-0.949707,0.173096,-0.434875,-4.043579,0.946045,1.0096837314075136
-0.297119,-0.941406,0.17041,-1.678467,-4.722595,2.01416,1.0017806771429563
-0.302246,-0.937256,0.168213,-2.487183,-5.065917,2.304077,0.9990480806352615
-0.303711,-0.933594,0.165283,-3.204345,-4.768372,2.075195,0.9955684800384151
-0.306885,-0.931885,0.158203,-3.410339,-3.959656,1.945495,0.9937888335350724
-0.305908,-0.936768,0.1521,-2.861023,-3.028869,1.426697,0.9971200530969178
-0.303955,-0.938721,0.148438,-1.76239,-2.006531,0.495911,0.9978073950968693
-0.299805,-0.94165,0.147949,-0.411987,-1.098633,-0.007629,0.9992380432739738
-0.29248,-0.953369,0.148438,0.724792,-0.465393,0.053406,1.0082117041598953
-0.290039,-0.961426,0.154541,1.289368,-0.061035,0.068665,1.016044042194038
-0.289307,-0.958252,0.158691,0.587463,0.083923,0.320435,1.0134733687838078
-0.283203,-0.946777,0.154541,-1.174927,-0.274658,0.854492,1.0002367457852166
-0.281006,-0.937256,0.145996,-2.304077,-0.869751,1.365662,0.9893068349041161
-0.286133,-0.935303,0.137695,-2.6474,-1.747131,1.441955,0.9877366595014079
-0.292969,-0.932617,0.134033,-2.39563,-2.304077,1.029968,0.9866965839299334
-0.290039,-0.9375,0.135254,-1.235962,-2.479553,0.785828,0.9906172399251892
-0.280762,-0.95459,0.141113,0.137329,-2.326965,0.701904,1.0049787298808865
-0.281738,-0.967041,0.147217,0.671387,-2.258301,0.793457,1.017947661431569
-0.285645,-0.961426,0.1521,-0.556946,-2.388,1.251221,1.014429607957595
-0.290527,-0.946045,0.146729,-2.548218,-2.464294,1.419067,1.00046813002464
-0.285889,-0.93457,0.144775,-3.067016,-2.616882,0.984192,0.9879845170072252
-0.283447,-0.929688,0.143799,-2.296448,-3.120422,0.869751,0.9825172423698222
-0.28833,-0.928467,0.14209,-1.693725,-3.623962,1.075745,0.98253484777335
-0.295166,-0.92627,0.142334,-1.228333,-3.486633,1.312256,0.9825263599578385
-0.304199,-0.931152,0.142578,-0.411987,-2.952575,1.052856,0.9899038159280931
-0.30249,-0.94873,0.147217,0.63324,-2.197266,0.564575,1.0066089896722559
-0.297119,-0.963135,0.153809,0.930786,-1.586914,0.320435,1.0195910635480285
-0.295166,-0.957275,0.156738,-0.267029,-1.464844,0.656128,1.0139354978621669
-0.299561,-0.940674,0.156738,-2.067566,-1.655578,1.426697,0.9995854979145106
-0.30542,-0.930664,0.153076,-3.112793,-2.01416,1.777649,0.9913874717142638
-0.307617,-0.926758,0.150635,-3.059387,-2.105713,1.64032,0.9880280929599117
-0.311279,-0.926025,0.152344,-2.586365,-2.02179,1.464844,0.9887495187366718
-0.309082,-0.926758,0.150635,-2.02179,-1.586914,1.548767,0.9884851928648197
-0.307617,-0.937012,0.152344,-1.060486,-0.923157,1.541138,0.997912020755838
-0.302979,-0.952637,0.161865,-0.083923,-0.534058,1.602173,1.0126765556854764
-0.299805,-0.961914,0.172607,-0.274658,-0.587463,2.006531,1.0222302861244135
-0.296387,-0.953125,0.174561,-2.14386,-1.167297,2.441406,1.0132936702234945
-0.295898,-0.936523,0.173096,-3.936767,-1.983642,2.738952,0.9972929264508998
-0.297607,-0.927246,0.167969,-4.432678,-2.76947,2.761841,0.9882148834772729
-0.297852,-0.923828,0.162109,-3.944397,-3.028869,2.418518,0.9841002567670633
-0.303711,-0.926758,0.162109,-2.624511,-2.76947,1.937866,0.988635468697133
-0.299805,-0.9375,0.166992,-0.732422,-2.128601,1.464844,0.9983364243024493
-0.293945,-0.948975,0.171387,0.556946,-1.434326,1.296997,1.0081322916259552
-0.289795,-0.950928,0.175781,0.343323,-1.091003,1.480102,1.0095267025542216
-0.286865,-0.947998,0.177246,-0.091553,-0.991821,1.609802,1.00618481440787
-0.284668,-0.943359,0.176514,-0.846863,-1.029968,1.686096,1.0010590718339252
-0.287109,-0.937256,0.169678,-1.770019,-1.174927,1.548767,0.9948221002274727
-0.288086,-0.929932,0.166016,-2.052307,-1.068115,1.13678,0.9875871507244309
-0.286865,-0.93042,0.164307,-1.487732,-0.50354,0.709534,0.9874055371902671
-0.283936,-0.933838,0.163818,-0.366211,0.114441,0.434875,0.9897016719517048
-0.283203,-0.937256,0.164307,0.404358,0.457764,0.289917,0.9927988411526274
-0.279297,-0.939697,0.165527,0.984192,0.587463,0.061035,0.9942014150799625
-0.270752,-0.947998,0.168701,1.731872,0.1297,0.030518,1.000233413213636
-0.27002,-0.950684,0.173584,1.411438,-0.671387,0.274658,1.0034153045035739
-0.272461,-0.943359,0.170898,0.213623,-1.586914,0.404358,0.9966781455444881
-0.274414,-0.934814,0.16626,-0.75531,-2.250671,0.183105,0.9883433844529947
-0.275635,-0.932617,0.160645,-0.694275,-2.914428,-0.038147,0.9856753714783585
-0.277832,-0.933105,0.161377,-0.175476,-3.463745,-0.267029,0.9868728881563218
-0.2854,-0.94043,0.156982,0.511169,-3.890991,-0.679016,0.9952412236357576
-0.288574,-0.947021,0.160889,1.602173,-4.241943,-1.281738,1.0029999991216352
-0.285889,-0.950195,0.165039,2.418518,-4.455566,-1.564026,1.0059030419811843
-0.289307,-0.949219,0.165283,2.212524,-4.40979,-1.266479,1.005998866947175
-0.294189,-0.943604,0.168457,1.63269,-4.180908,-1.037598,1.0026531989606375
-0.299805,-0.937988,0.164551,1.190186,-3.501892,-1.304626,0.9983894820008873
-0.299072,-0.93335,0.161133,1.144409,-2.754211,-1.693725,0.9932522979449884
-0.300537,-0.931152,0.158936,1.464844,-2.204895,-2.037048,0.9912755356453623
-0.296387,-0.935547,0.156494,1.899719,-1.823425,-2.189636,0.9937725167330801
-0.296387,-0.946045,0.156982,2.433777,-1.647949,-2.243042,1.003737886162518
-0.296387,-0.955322,0.1604,2.624511,-1.846313,-2.044678,1.0130219827096547
-0.300049,-0.949951,0.159668,1.899719,-2.189636,-1.701355,1.0089252574031438
-0.303223,-0.946777,0.156006,0.915527,-2.494812,-1.518249,1.0063144376853588
-0.302979,-0.94043,0.152832,0.579834,-2.731323,-1.838684,0.9997812158492477
-0.305176,-0.9375,0.154785,0.854492,-2.670288,-2.006531,0.9979965116176509
-0.307129,-0.942627,0.153809,1.068115,-2.212524,-2.052307,1.0032602315705532
-0.309814,-0.951904,0.152832,1.174927,-1.785278,-2.197266,1.0126517466710852
-0.308838,-0.955566,0.152344,1.342773,-1.571655,-2.120972,1.015724364646236
-0.304932,-0.952148,0.155518,1.327515,-1.838684,-1.831055,1.0118078804061568
-0.303711,-0.950439,0.156494,1.060486,-2.227783,-1.449585,1.0099826910784164
-0.310791,-0.945313,0.155762,0.610352,-2.494812,-1.274109,1.0072087739361686
-0.311523,-0.937744,0.158936,0.88501,-2.540588,-1.228333,1.0008351718245116
-0.311523,-0.931885,0.15625,1.045227,-2.288818,-0.740051,0.9949222558843479
-0.31665,-0.931396,0.150879,1.022339,-1.327515,-0.831604,0.995253838956173
-0.320557,-0.930176,0.148682,1.548767,0.282288,-1.403808,0.9950329232487737
-0.316162,-0.943848,0.14502,2.090454,1.945495,-1.701355,1.0059017137613397
-0.307373,-0.96582,0.14917,2.532959,3.028869,-2.067566,1.024469678628411
-0.30542,-0.969971,0.153076,2.319336,3.303528,-1.815796,1.0283760883144843
-0.303467,-0.949951,0.157227,0.785828,2.922058,-1.091003,1.0095639910471252
-0.30127,-0.940918,0.153564,-0.495911,2.372742,-0.465393,0.9998360854260062
-0.301025,-0.939941,0.148926,-0.793457,1.876831,-0.190735,0.998140314576062
-0.304932,-0.94165,0.14502,-0.709534,1.525879,-0.137329,1.0003594591565574
-0.306152,-0.938477,0.144531,-0.75531,1.846313,-0.038147,0.9976759677340133
-0.306885,-0.938965,0.141113,-0.663757,2.609253,-0.068665,0.997871010310952
-0.304443,-0.945313,0.14209,-0.152588,3.051758,-0.511169,1.0032406372939644
-0.297119,-0.952881,0.145508,0.808716,3.013611,-0.976562,1.0086795717104615
-0.293213,-0.951904,0.154297,0.785828,2.861023,-0.595093,1.0079199634861888
-0.293701,-0.945068,0.154541,-0.274658,2.63977,0.137329,1.0016470050401987
-0.296875,-0.941406,0.153076,-1.281738,2.311707,0.350952,0.9989055432006572
-0.299805,-0.9375,0.147949,-1.731872,2.090454,0.114441,0.9953281843824177
-0.297119,-0.934326,0.14917,-1.846313,1.930237,0.045776,0.9917139019581201
-0.299561,-0.933105,0.145996,-1.464844,2.037048,0.083923,0.9908262036109057
-0.302002,-0.939209,0.147461,-1.029968,2.243042,0.12207,0.9975286964323382
-0.303467,-0.955078,0.147461,-0.541687,2.555847,-0.236511,1.012921987466952
-0.29834,-0.958984,0.156006,0.0,2.502441,-0.587463,1.0163635864650011
-0.286865,-0.949219,0.166748,-0.1297,1.976013,-0.183105,1.0055412143169469
-0.28418,-0.940918,0.167725,-1.029968,0.991821,0.740051,0.9971041223207334
-0.296143,-0.936523,0.163086,-1.831055,-0.053406,1.159668,0.9956771813062706
-0.302979,-0.934326,0.162109,-2.14386,-0.335693,0.778198,0.995510259413734
-0.304199,-0.931396,0.158936,-2.082825,0.259399,0.244141,0.9926208704802655
-0.30249,-0.930176,0.156738,-1.319885,1.228333,-0.12207,0.9906030444734157
-0.300049,-0.940674,0.158447,0.007629,1.808166,-0.640869,1.0000012142422627
-0.297852,-0.950928,0.161133,0.946045,1.998901,-1.045227,1.0094274212527616
-0.294434,-0.946045,0.164551,0.732422,1.991272,-0.900268,1.0043752057781992
-0.291748,-0.936768,0.167236,0.114441,1.754761,-0.480652,0.9952984783591303
-0.290283,-0.933105,0.16626,-0.289917,1.289368,-0.488281,0.9912575592216183
-0.29541,-0.936279,0.160889,-0.617981,0.839233,-0.816345,0.9948722049901685
-0.297852,-0.932861,0.157959,-0.450134,0.961304,-1.365662,0.9919155734768963
-0.297363,-0.927979,0.155762,0.213623,1.625061,-1.899719,0.9868290524979492
-0.298584,-0.932861,0.1521,0.808716,2.685547,-2.281189,0.9912196832070074
-0.295166,-0.952393,0.14917,1.846313,3.234863,-2.578735,1.0081800845607893
-0.293701,-0.963135,0.154785,2.784729,3.372192,-2.883911,1.0187481052011826
-0.290039,-0.953857,0.159668,2.403259,3.211975,-2.616882,1.0096829542950598
-0.287842,-0.939697,0.15918,1.525879,2.838135,-2.113342,0.995601195847514
-0.28833,-0.936279,0.154053,1.358032,2.426147,-1.976013,0.9917080626625963
-0.29126,-0.941162,0.150391,1.174927,2.258301,-1.88446,0.9966121365531327
-0.296387,-0.940186,0.149902,0.854492,2.159119,-1.76239,0.9971286667070604
-0.296631,-0.940186,0.147705,0.968933,2.235413,-1.907349,0.9968733278516383
-0.287842,-0.947021,0.153809,2.13623,1.914978,-2.334595,1.0016780919467092
-0.280762,-0.950439,0.160645,2.655029,1.373291,-2.067566,1.0039762992172674
-0.289063,-0.944824,0.160889,1.502991,0.907898,-1.327515,1.0010669704200614
-0.293213,-0.939697,0.157959,0.450134,0.595093,-1.182556,0.9969730993657753
-0.29541,-0.9375,0.152832,-0.015259,0.38147,-1.541138,0.9947516968188594
-0.294678,-0.934082,0.155273,-0.205994,0.053406,-2.02179,0.9916924981752155
-0.291504,-0.936035,0.157471,0.1297,-0.320435,-2.220154,0.9929416997397178
-0.29126,-0.944092,0.159912,0.419617,-0.732422,-2.037048,1.0008566030196333
-0.293701,-0.94873,0.164307,0.259399,-1.419067,-1.785278,1.0066507242087495
-0.29541,-0.952148,0.165771,-0.1297,-2.105713,-1.472473,1.0106101654174076
-0.294434,-0.951904,0.168457,-0.534058,-2.685547,-1.396179,1.010539641192269
-0.294922,-0.949707,0.172119,-0.648498,-2.952575,-1.182556,1.0092310548600851
-0.29834,-0.945068,0.169189,-1.197815,-2.670288,-0.88501,1.0053781367948083
-0.302246,-0.942627,0.163574,-1.419067,-1.861572,-0.976562,1.0033218621763407
-0.298096,-0.943604,0.164551,-1.174927,-0.984192,-1.159668,1.003158395086738
-0.293457,-0.949219,0.165527,-0.450134,-0.114441,-1.190186,1.0072402437050458
-0.287598,-0.960449,0.169434,0.061035,0.289917,-0.938415,1.0168002613891285
-0.282227,-0.9646,0.170654,-0.022888,0.335693,-0.366211,1.0194253416729446
-0.280029,-0.957764,0.168945,-0.770569,0.1297,0.160217,1.0120625146511455
-0.27832,-0.944824,0.163818,-1.327515,-0.061035,0.610352,0.9984942415958141
-0.28125,-0.94165,0.156982,-0.953674,-0.091553,0.648498,0.9952133607041256
-0.282959,-0.942383,0.148438,-0.160217,0.312805,0.160217,0.9950805767444162
-0.277832,-0.939941,0.147705,0.740051,1.144409,-0.434875,0.9912095997971369
-0.270752,-0.946777,0.148438,1.548767,1.991272,-0.854492,0.9958549960094591
-0.266113,-0.957764,0.152344,2.227783,2.571106,-1.556396,1.005652376719212
-0.263428,-0.958008,0.157471,1.861572,2.76947,-1.670837,1.005967571589164
-0.262939,-0.952393,0.152344,0.511169,2.27356,-1.502991,0.999698973944657
-0.265381,-0.94458,0.14502,-0.396728,1.480102,-1.533508,0.9918110969136209
-0.265869,-0.94043,0.138916,-0.160217,0.694275,-2.197266,0.9871132483747749
-0.265381,-0.938477,0.142578,0.564575,0.076294,-2.792358,0.9856442769955092
-0.269775,-0.943359,0.143311,0.968933,-0.068665,-2.960205,0.9915860004190256
-0.269531,-0.957275,0.145996,1.365662,-0.183105,-3.059387,1.0051553201381367
-0.271729,-0.964355,0.149658,1.548767,-0.411987,-3.089905,1.013022572517513
-0.272949,-0.955566,0.155029,0.610352,-1.045227,-2.700805,1.00580392114865
-0.271973,-0.948975,0.150879,-0.457764,-1.914978,-2.128601,0.9986427469295514
-0.279053,-0.947998,0.142822,-0.671387,-2.914428,-1.869202,0.9984833040652207
-0.287598,-0.946533,0.139648,-0.282288,-3.547668,-2.128601,0.9990690134305037
-0.289063,-0.941406,0.141357,0.25177,-3.288269,-2.410889,0.9948791264540632
-0.288818,-0.94043,0.14502,0.617981,-2.372742,-2.319336,0.9944119983306718
-0.28833,-0.950928,0.150146,1.068115,-1.686096,-2.27356,1.0049587411431378
-0.289551,-0.960693,0.154785,0.823975,-1.770019,-2.296448,1.0152483529043521
-0.289063,-0.955078,0.157471,-0.167847,-2.26593,-1.983642,1.0102121162874658
-0.29126,-0.947266,0.154053,-1.449585,-2.975464,-1.365662,1.0029344889697431
-0.29541,-0.939209,0.150146,-2.14386,-3.89862,-1.052856,0.99595403262249
-0.298584,-0.936035,0.153564,-1.754761,-4.753113,-1.13678,0.9944324151881815
-0.30249,-0.932617,0.154053,-1.327515,-4.981995,-1.068115,0.9924751863890604
-0.304932,-0.939941,0.154297,-1.121521,-4.692078,-0.671387,1.0001400763463086
-0.303955,-0.967285,0.15332,0.061035,-4.402161,-0.556946,1.0254442625759823
-0.299316,-0.982422,0.166992,0.770569,-4.379272,-0.419617,1.0404947774996278
-0.294922,-0.969238,0.175293,-1.144409,-4.714966,0.63324,1.0281677502124837
-0.290771,-0.945557,0.166992,-3.692627,-4.997253,1.937866,1.0032507875670968
-0.289307,-0.932373,0.157959,-4.364014,-5.561828,2.922058,0.9889231502290763
-0.29126,-0.93335,0.158936,-3.814697,-6.233215,3.14331,0.9905731988076399
-0.29126,-0.934326,0.158203,-3.578186,-6.278991,3.105163,0.9913756357128211
-0.291016,-0.930908,0.155029,-3.456115,-5.470275,3.059387,0.9875798740157679
-0.286377,-0.92749,0.15332,-3.005981,-4.356384,2.655029,0.9827291125376312
-0.281738,-0.924561,0.151855,-2.388,-3.227234,2.105713,0.9783911714595548
-0.279541,-0.933594,0.154541,-1.777649,-2.326965,1.556396,0.9867237952932928
-0.275635,-0.942139,0.156982,-1.64032,-1.815796,1.014709,0.9941045703898558
-0.273682,-0.944092,0.156006,-2.182007,-1.899719,0.404358,0.9952634895463613
-0.268555,-0.941895,0.155273,-2.708435,-2.624511,-0.053406,0.9916640981597549
-0.265869,-0.937744,0.156982,-3.036499,-3.814697,-0.259399,0.9872656598003398
-0.265137,-0.935791,0.15625,-3.158569,-5.462646,-0.335693,0.9850971967019296
-0.269287,-0.9375,0.157715,-2.838135,-6.843566,-0.350952,0.9880767984291505
-0.278564,-0.945801,0.159424,-2.098083,-7.858276,-0.282288,0.9987759736162058
-0.281738,-0.955566,0.164551,-1.518249,-8.537292,-0.457764,1.0097324955655336
-0.282471,-0.956787,0.172119,-1.144409,-9.056091,-0.541687,1.012351806128186
-0.279297,-0.953613,0.174561,-1.731872,-9.796143,0.061035,1.0088885521696636
-0.285645,-0.945313,0.172363,-2.746582,-10.69641,0.556946,1.0024563520488061
-0.289795,-0.939941,0.168701,-3.334045,-11.215209,0.732422,0.9979630518746674
-0.292236,-0.9375,0.166016,-3.219604,-11.001586,0.717163,0.9959264239651441
-0.290771,-0.938721,0.166992,-2.578735,-10.330199,0.648498,0.9968105227905653
-0.290771,-0.937988,0.16333,-2.128601,-9.399414,0.709534,0.9955129087485506
-0.291748,-0.940674,0.160889,-1.693725,-8.460999,0.579834,0.9979327332546017
-0.286377,-0.942383,0.16333,-1.197815,-7.736206,0.50354,0.9983857940285408
-0.279297,-0.950195,0.165283,-0.579834,-7.591247,0.511169,1.0040895489561676
-0.274902,-0.952637,0.170654,-0.816345,-7.896423,0.579834,1.0060870494589422
-0.273193,-0.942627,0.166992,-1.976013,-8.361816,0.984192,0.9955231812680205
-0.275879,-0.933105,0.155273,-2.494812,-8.644104,1.358032,0.9853445428858881
-0.275635,-0.934082,0.149414,-1.998901,-8.872986,1.106262,0.9852960871458893
-0.27417,-0.941162,0.151367,-0.686645,-9.20105,0.289917,0.9919007348686663
-0.272217,-0.948242,0.153809,0.106812,-9.666443,-0.205994,0.9984599111301364
-0.272949,-0.949951,0.155762,-0.160217,-9.849548,-0.366211,1.0005847588515426
-0.276367,-0.946777,0.158447,-0.419617,-10.238647,-0.457764,0.9989348618538648
-0.275146,-0.942871,0.161621,-0.556946,-11.108397,-0.572205,0.9954056417350667
-0.280518,-0.940674,0.158447,-0.640869,-12.176513,-0.579834,0.9943155306083679
-0.289551,-0.936523,0.153809,-0.541687,-12.901305,-0.526428,0.9922561764035536
-0.298096,-0.934814,0.152588,-0.045776,-12.832641,-0.915527,0.9929861718855908
-0.30542,-0.939697,0.151367,0.930786,-12.069701,-1.281738,0.9996118231083504
-0.303711,-0.944092,0.152832,1.777649,-10.856627,-1.457214,1.0034479040832165
-0.300781,-0.942871,0.156006,1.861572,-9.963989,-1.472473,1.0019045885901512
-0.299561,-0.940918,0.154785,1.365662,-9.44519,-1.083374,0.9995108161845974
-0.300537,-0.942383,0.151855,0.823975,-9.117126,-0.801086,1.000733804806753
-0.304932,-0.941895,0.149658,0.640869,-8.956909,-0.747681,1.0012728062885758
-0.304443,-0.944824,0.149414,0.427246,-8.705139,-0.732422,1.0038438497201643
-0.303223,-0.945557,0.147949,0.335693,-8.613586,-0.556946,1.0039477748264598
-0.304199,-0.946045,0.144775,0.312805,-8.369446,-0.289917,1.00423999833257
-0.306641,-0.938721,0.140625,0.12207,-7.789611,-0.167847,0.9974974733536922
-0.307617,-0.939209,0.136963,0.450134,-6.66809,-0.213623,0.997747777616668
-0.303955,-0.941406,0.136475,1.014709,-5.485534,-0.648498,0.9986287220413801
-0.299072,-0.946777,0.137451,1.411438,-4.676819,-1.152039,1.0023589807618825
-0.29834,-0.955078,0.135986,1.274109,-3.746032,-1.167297,1.009788558996387
-0.295166,-0.958496,0.134277,0.88501,-3.028869,-1.091003,1.0118635591328506
-0.291992,-0.955322,0.134521,0.190735,-2.799988,-0.953674,1.0079659474352296
-0.290039,-0.957764,0.134766,-0.602722,-2.967834,-0.640869,1.0097506503949378
-0.290527,-0.960205,0.13208,-1.144409,-3.349304,-0.389099,1.0118521167413743
-0.293213,-0.961914,0.130127,-1.571655,-3.799438,-0.213623,1.0139947943130676
-0.293213,-0.967773,0.128662,-1.747131,-4.188538,0.061035,1.0193686051384945
-0.291748,-0.97583,0.128418,-1.647949,-4.508972,0.335693,1.0265730695513107
-0.290283,-0.97583,0.132813,-2.159119,-4.753113,0.663757,1.0267169531852485
-0.286133,-0.970215,0.137695,-3.227234,-5.058288,1.144409,1.020857067830262
-0.284912,-0.960693,0.135986,-4.501343,-5.432128,1.800537,1.0112359171770948
-0.283691,-0.952393,0.13501,-5.676269,-5.973815,2.433777,1.0028762186980007
-0.278564,-0.947998,0.142334,-6.370544,-6.790161,3.082275,0.998277054557501
-0.27417,-0.950195,0.144287,-6.835937,-8.071899,3.555298,0.999429069666277
-0.27124,-0.952637,0.147705,-7.30133,-9.773254,4.142761,1.0014515257335224
-0.269531,-0.948486,0.155029,-7.858276,-11.901855,4.753113,0.9981516132321783
-0.270264,-0.941162,0.155762,-8.453369,-13.740539,5.325317,0.9915091227941375
-0.275146,-0.933838,0.158203,-8.918762,-14.884948,5.592346,0.9862996100419993
-0.277588,-0.929688,0.161621,-9.109497,-15.350341,5.325317,0.9836138585486685
-0.281006,-0.927002,0.16748,-8.789063,-15.472411,4.585266,0.9830293131132967
-0.280029,-0.932129,0.174561,-8.392334,-15.502929,3.982544,0.9888135598802232
-0.281006,-0.934814,0.179688,-7.987976,-15.73944,3.39508,0.9925368325538353
-0.2854,-0.935791,0.18335,-7.67517,-16.120911,2.937317,0.9953769025756023
-0.292236,-0.930908,0.189453,-7.629394,-16.685486,2.815246,0.9939235500625789
-0.297607,-0.929688,0.196777,-7.316589,-17.036438,2.830505,0.9957966115236584
-0.299561,-0.935059,0.199707,-6.973266,-16.929626,2.296448,1.0019755546174767
-0.304443,-0.933838,0.201172,-6.965637,-16.75415,2.044678,1.0026011789724765
-0.30542,-0.935547,0.200684,-6.591796,-16.426086,2.166748,1.0043921711488
-0.306641,-0.94165,0.203369,-5.508422,-15.899657,1.785278,1.010985843393467
-0.306641,-0.947754,0.205566,-4.776001,-15.464782,1.907349,1.0171153954950245
-0.30542,-0.947266,0.209717,-4.837036,-15.441894,2.456665,1.0171408315690607
-0.305664,-0.939941,0.209473,-5.554199,-15.190124,2.63977,1.0103457339475435
-0.304199,-0.93042,0.202637,-6.393432,-14.991759,3.250122,0.9996400160907926
-0.303711,-0.92334,0.199219,-6.965637,-15.396117,3.90625,0.9922123447538839
-0.304688,-0.923828,0.197754,-6.736755,-15.686034,3.868103,0.9926729549272509
-0.303467,-0.924561,0.195557,-6.256103,-15.731811,3.471374,0.992546121376231
-0.293945,-0.929199,0.196289,-5.943298,-16.189575,3.196716,0.9941548250383337
-0.290771,-0.930176,0.196289,-5.630493,-17.120361,3.250122,0.9941350697656732
-0.294189,-0.924561,0.197998,-5.561828,-17.990112,3.250122,0.990234022060442
-0.29834,-0.920898,0.196289,-5.447387,-18.600464,2.738952,0.9877192179587274
-0.305664,-0.919189,0.190186,-4.890442,-18.882751,1.968384,0.9871725346731443
-0.305664,-0.920166,0.187988,-3.608703,-18.836975,0.564575,0.9876616002437273
-0.302734,-0.912598,0.1875,-2.128601,-18.470764,-0.984192,0.9796117773689739
-0.308105,-0.905762,0.191895,-1.243591,-17.951965,-2.029419,0.9757854183651239
-0.313721,-0.90332,0.191162,-0.465393,-17.684937,-3.303528,0.9751670618335097
-0.318604,-0.910889,0.186523,0.762939,-17.440796,-5.226135,0.9828622022776133
-0.321289,-0.915771,0.18335,1.731872,-17.00592,-7.156372,0.9876640969793323
-0.328369,-0.913818,0.179199,2.494812,-15.792846,-8.964539,0.9874218039348737
-0.327393,-0.915283,0.179443,3.684997,-14.259337,-10.398864,0.9884983241194696
-0.330566,-0.915771,0.174561,3.982544,-12.847899,-11.95526,0.9891319161355577
-0.343506,-0.916992,0.172119,4.623413,-12.237548,-13.496398,0.9942311855202491
-0.347168,-0.921143,0.174316,5.332946,-12.237548,-15.342711,0.9997080146367738
-0.345215,-0.93335,0.172119,5.28717,-11.70349,-17.936707,1.0099210706218582
-0.349121,-0.96167,0.165771,5.546569,-10.597228,-20.210264,1.0364239894859633
-0.349854,-0.993652,0.162842,5.882263,-9.094238,-21.629332,1.065954799878494
-0.354736,-1.001465,0.151123,4.66156,-7.637023,-21.728514,1.0731299721142822
-0.363037,-0.975586,0.151855,2.601623,-6.652832,-20.675657,1.0519619041533776
-0.37085,-0.953125,0.142578,1.213074,-5.325317,-19.752502,1.0326206826366593
-0.37207,-0.947754,0.134033,0.289917,-4.104614,-18.440247,1.0269559749594916
-0.37793,-0.947998,0.125488,-0.762939,-3.64685,-16.036987,1.0282405025323598
-0.391113,-0.943359,0.111816,-2.593994,-2.746582,-13.893126,1.027325848748098
-0.400391,-0.933594,0.094727,-4.737854,0.274658,-12.123107,1.0202371852887937
-0.395752,-0.915771,0.07373,-6.790161,4.745483,-8.674622,1.000346081536285
-0.394287,-0.886475,0.078613,-8.827209,9.20105,-3.707886,0.9733859295074077
-0.390137,-0.863525,0.10498,-11.543273,12.985229,1.571655,0.9533640987545104
-0.359619,-0.867676,0.115967,-14.518737,14.343261,7.514953,0.9463803734366009
-0.332031,-0.895264,0.108154,-17.326355,11.871337,14.396667,0.9609575965530425
-0.327393,-0.936035,0.100586,-18.325806,5.096435,21.278379,0.9967272651382624
-0.318115,-0.98877,0.100098,-18.264771,-2.609253,27.984617,1.0434955082457231
-0.310791,-1.053711,0.099854,-18.180847,-9.796143,35.507202,1.1031177355649757
-0.304443,-1.105713,0.106201,-18.196106,-17.227173,43.197628,1.1517662223815213
-0.297852,-1.12085,0.112061,-18.379211,-24.078367,49.339291,1.1651515798920755
-0.293457,-1.111328,0.112549,-18.516541,-29.739378,53.031918,1.1549174047671116
-0.281494,-1.106689,0.092285,-17.692566,-33.355713,54.115292,1.1456508787505904
-0.27124,-1.108398,0.073242,-14.533996,-33.317566,53.619381,1.1434516406774708
-0.273682,-1.122803,0.034668,-10.810851,-27.275084,51.940914,1.1561964729910743
-0.236572,-1.15918,-0.105225,-8.06427,-20.553587,50.956722,1.1877444524008522
-0.123047,-1.188721,-0.2229,-7.362365,-20.820616,49.819942,1.2156819444451743
-0.076904,-1.149658,-0.157227,-17.150879,-10.185241,37.826538,1.1629050140527386
-0.086426,-1.067627,-0.170654,-27.984617,0.526428,21.881102,1.0846288085428122
-0.063721,-0.955078,-0.178711,-32.035828,-4.341125,13.053893,0.9737412250931969
-0.134521,-0.85791,-0.17334,-28.297422,-10.635375,10.06317,0.8855236999318539
-0.213623,-0.802246,-0.144775,-20.851133,-15.892028,8.422852,0.8427296311807245
-0.229004,-0.761719,-0.121582,-13.236999,-18.936157,5.142211,0.8046370919246764
-0.222168,-0.728516,-0.074707,-3.700256,-24.353025,3.65448,0.7652942691076421
-0.209717,-0.72583,-0.017578,5.477905,-40.481564,4.257202,0.7557244174121939
-0.214844,-0.749023,0.02124,11.909484,-66.291809,4.859924,0.7795155780771799
-0.265137,-0.781982,0.047363,12.695312,-92.849724,5.645751,0.8270651309673259
-0.338135,-0.79126,0.077393,7.591247,-109.046928,6.584167,0.8639544792834862
-0.386963,-0.789063,0.089844,3.02124,-112.823479,8.460999,0.8834210353359263
-0.432373,-0.796143,0.095703,1.342773,-107.589714,10.498046,0.9110154509046485
-0.468018,-0.808105,0.105713,0.404358,-99.807732,11.634826,0.9398136930892207
-0.479736,-0.811523,0.117676,-2.227783,-92.872612,11.856078,0.950033604774589
-0.489258,-0.809326,0.132324,-6.126403,-86.082451,11.436461,0.9549301575591799
-0.505127,-0.818359,0.144287,-9.155273,-78.887939,10.520934,0.9724625840509238
-0.518555,-0.841553,0.152344,-11.772155,-70.999146,8.216858,1.000159704332263
-0.533447,-0.874023,0.136475,-14.564513,-63.011166,4.341125,1.0330088731288807
-0.541748,-0.905762,0.109619,-16.670227,-57.128902,0.762939,1.061090015648531
-0.535889,-0.922852,0.091797,-16.967773,-54.000851,-1.434326,1.0711020135514637
-0.53833,-0.916016,0.071777,-17.318726,-51.895138,-1.907349,1.0649114699753215
-0.550049,-0.892334,0.037842,-16.563416,-50.216671,-1.686096,1.0489260636103004
-0.564453,-0.881592,0.005371,-12.20703,-48.309322,-1.823425,1.0468240020719817
-0.584717,-0.882568,-0.004395,-5.477905,-44.30389,-2.304077,1.058697105284604
-0.594482,-0.898926,-0.012451,2.288818,-38.230896,-2.937317,1.0777902528790098
-0.601318,-0.928467,-0.009766,10.765075,-30.6015,-4.02832,1.1062231610163475
-0.604248,-0.974365,-0.00293,17.570496,-20.057678,-5.943298,1.146521427461781
-0.603271,-1.0271,0.0,22.857664,-7.270813,-7.400512,1.191163426839911
-0.5896,-1.067139,0.004395,26.390074,5.882263,-8.331299,1.219193635705994
-0.566162,-1.096191,0.005371,27.06909,17.807007,-10.772704,1.2337758979514877
-0.551758,-1.121338,0.000732,27.000425,29.373167,-13.435363,1.2497345064580716
-0.54126,-1.131592,0.008301,26.351927,41.519161,-16.090393,1.2544049380742248
-0.517334,-1.140381,0.03833,24.391172,52.703854,-19.134521,1.2528257985917277
-0.456299,-1.1604,0.114502,22.583006,60.18066,-22.010801,1.2521372310593597
-0.372314,-1.190918,0.206055,19.424438,62.599178,-23.16284,1.2646588711367976
-0.302734,-1.182129,0.258789,10.848998,59.791561,-21.850584,1.2474167683328616
-0.27124,-1.103271,0.234863,-1.121521,52.703854,-17.333984,1.1601459674584056
-0.244873,-0.981934,0.188721,-8.720398,42.480465,-10.292052,1.029452661527474
-0.209717,-0.889404,0.159424,-8.491516,31.455992,-2.281189,0.9275972763441039
-0.166992,-0.849854,0.15625,-3.280639,15.830993,5.439758,0.8800864797734368
-0.118896,-0.83374,0.154053,2.624511,-8.720398,13.031005,0.856148920004575
-0.106201,-0.833252,0.144287,8.293152,-40.664669,23.109434,0.8522947179667371
-0.156982,-0.836182,0.140869,13.885497,-72.525024,33.866882,0.8623733301818881
-0.247803,-0.83252,0.146484,18.737793,-96.130363,40.283199,0.8808821938630614
-0.327881,-0.832031,0.158936,22.010801,-105.8731,40.565487,0.908318329231553
-0.382813,-0.844971,0.178711,23.895262,-100.624077,37.17804,0.9447006961630758
-0.418945,-0.866943,0.203857,23.910521,-83.404533,31.745909,0.9842066626085194
-0.444336,-0.87793,0.236328,20.736692,-56.198116,22.705076,1.0119518216693915
-0.456543,-0.874023,0.268311,16.677856,-22.27783,10.108947,1.02192881753036
-0.452393,-0.867432,0.280273,14.236449,14.160155,-3.662109,1.0176692270094443
-0.438232,-0.873047,0.271484,15.052794,49.423214,-15.373229,1.013884565564049
-0.404541,-0.890381,0.2771,20.423887,78.964233,-25.253294,1.0164724078114467
-0.342529,-0.905273,0.30957,24.79553,98.770134,-32.13501,1.0162081013601494
-0.288574,-0.917725,0.345703,23.429869,106.613152,-35.018921,1.022254710583424
-0.27124,-0.906006,0.371338,17.997742,108.741753,-36.407471,1.016026535027506
-0.263428,-0.87915,0.37915,12.298583,110.260002,-36.315918,0.993002394853104
-0.245117,-0.854492,0.375,9.216309,111.076347,-33.592224,0.9648128946863221
-0.228271,-0.84375,0.375244,8.422852,110.588066,-30.555723,0.9512254051890119
-0.207764,-0.857178,0.373047,8.605957,107.627861,-27.587889,0.9576450634702818
-0.187256,-0.875488,0.376221,8.407593,102.325432,-23.956297,0.9711262989544667
-0.174316,-0.895264,0.399902,7.385253,96.542351,-20.446775,0.9958942248833457
-0.163818,-0.920166,0.414063,5.66101,90.873711,-17.89856,1.0222475104635864
-0.14624,-0.934082,0.416504,2.937317,84.030144,-14.442443,1.0331364393631657
-0.125732,-0.937744,0.397949,-0.068665,73.989868,-10.56671,1.0264188969231811
-0.103271,-0.9375,0.364014,-1.029968,57.929989,-5.91278,1.010978408096335
-0.106445,-0.9375,0.347168,0.770569,36.247253,-1.899719,1.0053668028381482
-0.15332,-0.938232,0.346436,3.692627,14.129638,-0.358582,1.0118321057962136
-0.218018,-0.936523,0.351074,6.477355,-3.700256,-1.190186,1.023650395070993
-0.257324,-0.949463,0.352295,10.253905,-15.480041,-2.784729,1.044895878243378
-0.26416,-0.961182,0.35498,15.174865,-21.560667,-4.165649,1.0581408900160698
-0.266602,-0.962402,0.362061,19.180298,-23.826597,-4.478455,1.0622534555034406
-0.285645,-0.951416,0.36084,21.064756,-23.521421,-3.372192,1.0568779384020655
-0.304688,-0.946533,0.353271,22.28546,-20.812986,-2.288818,1.0552534751774096
-0.325684,-0.947754,0.33252,22.850035,-16.471863,-2.563476,1.0558774847358001
-0.326416,-0.936523,0.304199,21.934507,-13.435363,-3.768921,1.0373812058187675
-0.325195,-0.923828,0.28125,21.949766,-11.108397,-4.699707,1.0189757230223888
-0.334961,-0.910156,0.258545,23.483274,-8.071899,-5.28717,1.0037072944250232
-0.34668,-0.896484,0.241455,23.971556,-2.738952,-6.614685,0.9910454589376816
-0.351807,-0.885498,0.228516,24.986265,6.79779,-8.407593,0.9798440873470636
-0.356445,-0.878906,0.226807,26.779173,20.950315,-10.719298,0.9751770147568081
-0.348633,-0.875244,0.229736,27.6947,36.437988,-14.030456,0.9697296829122021
-0.321289,-0.871582,0.239502,27.709959,48.942562,-16.944885,0.9592929751900615
-0.299072,-0.860107,0.248535,26.153563,56.739803,-19.02771,0.9439267762162487
-0.287109,-0.843994,0.254883,24.139402,60.768124,-21.14868,0.9272123778326086
-0.272705,-0.836182,0.254639,22.872923,60.585018,-23.03314,0.9156469704367508
-0.248291,-0.838379,0.23584,22.483824,55.496212,-24.04022,0.9056203806904966
-0.219727,-0.845947,0.220703,23.490904,44.593807,-22.598265,0.901452214788449
-0.216797,-0.857422,0.214111,25.100706,27.885435,-17.692566,0.9099543645776969
-0.242676,-0.885986,0.216064,26.618956,6.79779,-11.596679,0.9436877053707969
-0.253418,-0.925537,0.229248,27.778624,-16.281128,-5.0354,0.9866073517854
-0.257324,-0.953613,0.249512,25.886534,-37.92572,2.5177,1.0187490529512162
-0.30127,-0.955078,0.263916,20.820616,-55.435177,11.138915,1.0356588502204769
-0.362793,-0.939453,0.291016,16.395569,-67.878723,18.951416,1.0482752559867088
-0.426514,-0.93457,0.314941,14.160155,-71.502686,23.29254,1.0744873710644534
-0.480469,-0.944336,0.339111,12.359618,-65.002441,22.964476,1.1124824543236624
-0.514648,-0.963623,0.365967,10.040282,-50.895687,18.356323,1.1521127093830708
-0.523682,-0.971191,0.380859,7.164001,-33.660889,9.757996,1.1672653397946844
-0.517578,-0.956055,0.384521,5.218505,-15.266418,0.892639,1.1531628456336944
-0.50415,-0.92334,0.371582,4.631042,3.952026,-6.202697,1.1157047821103934
-0.489502,-0.895264,0.364502,5.615234,23.078917,-11.627196,1.0834996749902603
-0.477783,-0.881836,0.355713,7.637023,41.488644,-16.830444,1.0641630816533714
-0.446777,-0.883789,0.346191,9.559631,57.479855,-22.361753,1.0490666769710113
-0.401123,-0.882813,0.345703,10.108947,69.68689,-26.977537,1.0294508333606807
-0.355957,-0.87915,0.335205,9.429932,77.041626,-29.525755,1.0059684390546257
-0.330078,-0.869873,0.312744,8.758545,80.116272,-30.639647,0.9815494545610017
-0.30957,-0.86499,0.299316,8.705139,79.139709,-30.4718,0.9662460105252699
-0.289063,-0.86499,0.283936,7.690429,74.60022,-29.541014,0.955188342770681
-0.276855,-0.857422,0.269043,6.011962,67.886353,-28.137205,0.9403219198540466
-0.27002,-0.84668,0.259766,5.455017,58.883663,-25.688169,0.9258813085682204
-0.272705,-0.843018,0.254883,5.599975,49.47662,-22.361753,0.9219613381471047
-0.280273,-0.843018,0.252441,5.516052,38.345337,-18.760681,0.9235576654080676
-0.30542,-0.846924,0.253418,6.332397,26.512144,-14.73236,0.9352979850828291
-0.327148,-0.860596,0.259033,6.736755,14.60266,-11.619567,0.956425315541679
-0.359131,-0.871582,0.279297,6.401062,4.310608,-9.399414,0.9831770298852592
-0.381836,-0.876465,0.293701,5.645751,-4.714966,-6.248474,1.0001249444554416
-0.410156,-0.888672,0.302002,5.516052,-11.337279,-2.044678,1.024290523203256
-0.452148,-0.909912,0.302979,6.187438,-15.327453,0.907898,1.0602706900075094
-0.483643,-0.926514,0.304932,5.737304,-17.852783,1.548767,1.0887250655096539
-0.50293,-0.927002,0.310303,3.578186,-18.463135,1.251221,1.0993449161718991
-0.509766,-0.918945,0.321045,0.434875,-18.608093,0.938415,1.0988135327734183
-0.516357,-0.919922,0.323242,-1.182556,-19.584656,0.114441,1.103343295668669
-0.534912,-0.923096,0.322266,-1.342773,-20.652769,-1.899719,1.114492013302922
-0.544434,-0.914307,0.323486,-2.792358,-19.577026,-4.066467,1.112209001402614
-0.545654,-0.898438,0.32373,-3.181457,-14.755248,-5.355834,1.0998773751923439
-0.556641,-0.886475,0.319092,-2.708435,-6.332397,-5.348205,1.0943065534711924
-0.556152,-0.875488,0.31543,-3.364563,3.387451,-4.40979,1.0841034868258657
-0.537109,-0.868164,0.313965,-3.707886,12.985229,-3.341675,1.068067802155837
-0.51123,-0.862305,0.308838,-3.997802,21.77429,-2.494812,1.0489551640413426
-0.486328,-0.862305,0.297852,-5.310058,29.045103,-0.740051,1.0338281532793543
-0.470947,-0.86084,0.280518,-7.194519,35.346985,1.586914,1.0205522675164658
-0.473389,-0.848389,0.268066,-8.81958,42.999264,5.004883,1.0078295594980333
-0.476074,-0.843018,0.255859,-10.414123,53.88641,7.965087,1.0013938434407312
-0.466064,-0.835449,0.250732,-11.741637,66.53595,10.223388,0.9889677545405613
-0.439697,-0.833496,0.263428,-12.825011,78.422546,12.71057,0.9784903397627388
-0.399902,-0.850098,0.29126,-12.306212,87.455742,15.159606,0.9835754199897434
-0.361328,-0.879395,0.32373,-12.84027,93.238823,16.281128,1.0043378925984023
-0.326904,-0.897705,0.335449,-16.136169,97.244255,17.494202,1.012554454753916
-0.300537,-0.909424,0.333496,-17.242432,102.630608,19.805908,1.0141962739829997
-0.293945,-0.925537,0.327148,-13.870238,111.778252,22.117613,1.0247186029823017
-0.309326,-0.964111,0.329346,-8.071899,123.451225,23.315428,1.0647353578767824
-0.311523,-1.02124,0.327148,-4.692078,132.774353,22.850035,1.1166931230347037
-0.294189,-1.067139,0.316406,-4.40979,138.98468,19.020081,1.1512799702409489
-0.277344,-1.093018,0.294922,-5.363464,145.080566,13.755797,1.1655844151085755
-0.264404,-1.097412,0.282471,-6.91986,150.749207,8.537292,1.1636204015060068
-0.258301,-1.079346,0.258057,-9.651184,153.846741,2.548218,1.1394299493896058
-0.257324,-1.053955,0.21582,-10.261535,154.594421,-3.662109,1.1061713499277586
-0.254639,-1.033203,0.184082,-3.936767,155.067444,-7.850646,1.0799239057702168
-0.224854,-1.021484,0.179932,2.662658,150.436401,-10.635375,1.0613031650739577
-0.217773,-1.01123,0.175537,7.598876,139.625549,-12.878417,1.0492018065167446
-0.21582,-0.994141,0.164795,11.924743,124.992363,-13.183593,1.0305590678393937
-0.212646,-0.984375,0.164795,16.944885,108.482353,-10.215758,1.0204753078668782
-0.222412,-0.977295,0.163574,19.65332,92.315666,-7.743835,1.015543730345966
-0.218506,-0.947754,0.161865,19.920349,75.447083,-5.294799,0.9859933036167132
-0.22583,-0.911865,0.170166,21.011351,59.997555,-1.426697,0.9547007042424344
-0.251953,-0.888672,0.185303,22.636412,47.019955,2.761841,0.9421016078969402
-0.284912,-0.88916,0.196045,22.5296,37.506104,6.317138,0.9540513588738291
-0.303223,-0.901611,0.203369,21.026609,32.546997,8.293152,0.97273096651181
-0.310547,-0.909912,0.218018,18.768311,32.455444,9.384155,0.9858555346890335
-0.311523,-0.901123,0.236572,15.029906,35.354614,10.047912,0.9823622304638956
-0.307861,-0.884277,0.240234,10.231017,39.466858,10.69641,0.9666626002934012
-0.297363,-0.866211,0.242188,5.91278,43.182369,11.123656,0.9473126609699671
-0.293213,-0.851563,0.244873,3.715515,46.165462,10.650634,0.9333253411683409
-0.295898,-0.851807,0.250244,2.540588,48.84338,9.399414,0.935816676058404
-0.301025,-0.871338,0.248291,1.602173,51.36108,7.575988,0.9547221488736919
-0.303467,-0.899902,0.244141,0.930786,53.726192,4.974365,0.9805715973726753
-0.30249,-0.916504,0.240723,0.534058,55.7785,1.38855,0.9946996254372472
-0.296143,-0.906006,0.230957,0.572205,57.022091,-2.029419,0.9807592387196769
-0.288086,-0.885254,0.216553,1.739502,56.739803,-4.844666,0.9558051002798635
-0.282959,-0.864746,0.20752,5.386352,54.847713,-6.820678,0.9332287986324683
-0.282715,-0.858887,0.207764,10.604857,51.36108,-8.277893,0.9277825875117511
-0.280518,-0.861328,0.206299,16.807556,47.416683,-9.475708,0.9290508862861064
-0.288574,-0.863037,0.210693,21.713255,44.204708,-10.215758,0.934076740473715
-0.306885,-0.856201,0.218262,24.932859,41.839596,-10.269164,0.9353592124259
-0.32959,-0.858398,0.225098,27.961729,40.359493,-10.69641,0.9466497790143934
-0.340332,-0.876465,0.228271,30.6015,39.894104,-11.71112,0.9675352272088082
-0.347656,-0.893555,0.234375,32.112122,40.557858,-12.977599,0.9870343828793402
-0.352783,-0.9021,0.237549,32.089233,42.495724,-13.793944,0.9973313303461393
-0.35376,-0.906006,0.2229,31.707762,45.684811,-14.450072,0.9978363691688131
-0.359863,-0.90625,0.206543,33.210754,49.926754,-14.549254,0.9967198463550327
-0.362549,-0.899414,0.200195,35.110474,54.901119,-14.625548,0.9901845074641393
-0.362305,-0.89502,0.191406,36.53717,60.333248,-15.159606,0.9843586593620234
-0.361084,-0.905273,0.190918,39.039612,65.208435,-15.495299,0.9931518223861848
-0.341553,-0.930664,0.191406,42.5415,68.115234,-15.296935,1.0096683562145543
-0.311768,-0.961426,0.193359,45.654293,68.283081,-14.579772,1.0290417592017342
-0.299805,-0.97998,0.198242,47.500607,66.52832,-13.435363,1.043812113835148
-0.310547,-0.996582,0.194824,49.957272,63.262936,-11.772155,1.0618717026595068
-0.328369,-1.046631,0.170166,55.458065,57.456966,-13.511657,1.110053655404999
-0.349365,-1.076904,0.149902,64.193726,50.834652,-23.643492,1.1420371001175926
-0.3479,-1.048584,0.164307,67.993164,45.852657,-32.356262,1.1169420778648282
-0.356201,-1.023926,0.15918,63.926693,44.677731,-31.814573,1.0957380518522664
-0.367676,-1.048096,0.142822,58.341976,45.799252,-28.511045,1.1198611475875033
-0.354736,-1.074219,0.150635,55.793758,48.774715,-29.571531,1.1412602651814354
-0.350098,-1.070801,0.185791,55.854794,54.862972,-33.760071,1.141797568260679
-0.348389,-1.037354,0.19873,57.388302,59.707638,-38.047791,1.1121923527596296
-0.324951,-0.982422,0.196045,57.014462,57.02972,-38.780212,1.0531760444056826
-0.313965,-0.936768,0.190674,52.391048,46.356197,-34.14917,1.006213139113677
-0.298584,-0.899658,0.182373,44.448849,30.563353,-26.077269,0.9652962411348134
-0.266357,-0.87793,0.162842,41.503902,16.143799,-17.173767,0.9317857335852486
-0.275146,-0.864258,0.151123,44.601437,8.079529,-8.216858,0.9195027857538007
-0.32666,-0.867188,0.154785,49.903866,3.807068,0.610352,0.9395106062035702
-0.343994,-0.866211,0.181396,57.098385,1.983642,-2.082825,0.9495040165123052
-0.364746,-0.858887,0.236328,67.153931,10.108947,-7.8125,0.9625889293301685
-0.374268,-0.862549,0.278076,73.547363,20.065308,-4.249573,0.9805067949795148
-0.343262,-0.870117,0.320557,71.342468,25.360106,-1.686096,0.988781666791006
-0.312256,-0.845947,0.341553,62.07275,24.887083,-4.768372,0.964255457933218
-0.294434,-0.812744,0.351074,54.290768,20.683287,-7.141113,0.9330043640669641
-0.299805,-0.795654,0.362061,51.765438,17.00592,-5.180358,0.9241409489152614
-0.307373,-0.804688,0.364746,49.789425,16.448975,-4.180908,0.9354360389620447
-0.327881,-0.803711,0.37915,46.82159,21.919249,-8.369446,0.9472127766146315
-0.332031,-0.802979,0.420166,43.952938,29.991148,-12.260436,0.9651732108580304
-0.299072,-0.821045,0.424316,38.314819,34.927368,-13.305663,0.9713923105856872
-0.275391,-0.833008,0.408447,32.020569,30.838011,-9.788513,0.9677662335264648
-0.280029,-0.844482,0.399902,31.929014,16.197205,-5.935668,0.9754423092981973
-0.296143,-0.844727,0.38623,32.318115,0.770569,-7.072448,0.974904094707782
-0.329102,-0.811035,0.389648,30.616758,-5.92041,-6.92749,0.9580769601305523
-0.365967,-0.802979,0.421143,34.14917,-4.600525,-5.546569,0.9777875771245
-0.371826,-0.818604,0.467529,38.574219,1.335144,-10.543822,1.01338563682983
-0.362793,-0.847412,0.500244,39.070129,7.995605,-19.638062,1.0487945071027975
-0.341309,-0.885986,0.520996,35.438538,12.222289,-26.161192,1.0830050127737176
-0.320801,-0.911377,0.545654,27.923582,14.22119,-28.884886,1.1096213793208924
-0.340576,-0.914795,0.536621,17.745972,14.976501,-27.633665,1.1139138213712945
-0.3479,-0.898682,0.527832,10.0708,12.832641,-24.261473,1.0987585573491565
-0.340332,-0.872559,0.52124,6.04248,9.109497,-21.461485,1.0718564345587518
-0.341309,-0.858887,0.514648,0.610352,6.568908,-19.020081,1.0578474730101688
-0.349609,-0.837891,0.492676,-8.605957,7.575988,-14.564513,1.032965353600013
-0.347412,-0.823975,0.492676,-15.922545,12.092589,-8.018494,1.020960106637375
-0.348633,-0.828613,0.482178,-22.193907,16.555786,1.411438,1.0201176873978806
-0.352295,-0.830811,0.445313,-32.096863,17.868042,12.96234,1.0063112603538729
-0.347656,-0.835205,0.380615,-43.80035,17.959595,25.634764,0.9814784076004932
-0.310303,-0.851074,0.332275,-47.805782,18.585205,32.88269,0.9648945957512665
-0.321777,-0.895264,0.313965,-35.240173,20.301817,30.761717,1.0018044163657893
-0.356201,-0.933838,0.303711,-12.527465,13.191222,22.193907,1.0445922334413558
-0.325439,-0.91748,0.308838,-2.39563,-3.097534,16.38031,1.0213035804132873
-0.294678,-0.886963,0.291504,1.342773,-19.485474,17.402649,0.9790368067999282
-0.299072,-0.88623,0.314209,15.190124,-34.65271,24.238585,0.986699026940333
-0.294678,-0.89209,0.374512,28.923033,-46.06628,29.228209,1.0113945471120556
-0.282471,-0.892822,0.415771,30.960081,-47.157284,29.747007,1.0245909007823562
-0.291748,-0.901123,0.415771,29.281614,-39.054871,22.666929,1.0344104993057641
-0.307617,-0.886963,0.384277,28.884886,-29.067991,14.709472,1.0143965668253219
-0.329102,-0.866699,0.385986,29.022215,-23.323057,13.771056,1.0042213277963181
-0.347656,-0.870361,0.422363,30.525206,-25.230406,16.273499,1.027999741452302
-0.327148,-0.90625,0.438721,30.570982,-32.104492,14.556884,1.0586741671756235
-0.287354,-0.939453,0.418457,25.192259,-37.399292,5.53894,1.0678251361407447
-0.31958,-0.936279,0.415527,20.881651,-33.576965,-2.128601,1.073038876262179
-0.376709,-0.919189,0.426025,19.569397,-22.583006,0.053406,1.080886390434721
-0.389404,-0.897705,0.425049,15.426635,-8.399963,1.686096,1.0668535019589147
-0.342529,-0.880859,0.395996,9.483337,4.463196,-1.327515,1.024720218273261
-0.322021,-0.860596,0.385254,4.173279,11.817931,-6.698608,0.996365216260082
-0.343262,-0.836914,0.384277,1.243591,11.978148,-6.752014,0.982813642950178
-0.391602,-0.863281,0.37085,2.250671,8.979797,-5.111694,1.0179076254086123
-0.40332,-0.922852,0.341309,3.669739,8.049011,-10.375976,1.0633977006675348
-0.37915,-0.929443,0.339844,2.319336,13.114928,-18.066406,1.059770237874701
-0.364258,-0.878174,0.349365,0.25177,20.744322,-19.111633,1.0128817147451128
-0.348877,-0.822754,0.359619,-1.502991,24.848936,-17.631531,0.9633094678274475
-0.340088,-0.794189,0.357422,-2.822876,24.787901,-19.729614,0.9349580212763565
-0.330078,-0.805908,0.335449,-1.037598,23.017881,-25.352476,0.9332551752596928
-0.306396,-0.814697,0.340332,3.059387,22.369383,-30.517576,0.9345777553788663
-0.318359,-0.817139,0.367432,7.743835,22.712706,-30.021666,0.9508285191484318
-0.340576,-0.848877,0.391113,11.054992,20.187376,-25.909422,0.994763063082863
-0.313477,-0.896729,0.417236,11.032104,13.488769,-24.116514,1.0375339072367709
-0.257568,-0.927002,0.391113,6.347656,-0.205994,-21.919249,1.0385775663844274
-0.258789,-0.927979,0.358643,3.189087,-19.348145,-16.654968,1.0279793638060057
-0.3125,-0.897461,0.376953,2.5177,-32.539368,-10.612487,1.022343416240355
-0.368164,-0.865967,0.411133,1.281738,-30.876158,-7.141113,1.026875805379599
-0.381836,-0.85376,0.414307,0.289917,-21.705626,-8.682251,1.0229150300709242
-0.351807,-0.862061,0.419678,1.472473,-15.327453,-13.839721,1.0212967035362446
-0.357666,-0.925537,0.403564,6.271362,-14.35852,-22.384642,1.071171138530627
-0.377686,-0.983887,0.417969,8.003235,-17.547607,-29.869078,1.1337453101671469
-0.358154,-0.966309,0.443604,1.533508,-16.723633,-34.080505,1.121967860508045
-0.325439,-0.900879,0.450684,-7.545471,-8.987427,-36.254883,1.0585884862485515
-0.318115,-0.840088,0.437256,-11.146544,2.13623,-38.398743,0.9990684713797147
-0.297363,-0.824951,0.44165,-9.963989,10.665893,-40.016174,0.9818470495296098
-0.256104,-0.862061,0.433594,-5.950927,12.748717,-43.075558,0.9983697628499172
-0.226074,-0.902588,0.40625,-2.624511,9.32312,-48.744198,1.0152899160929354
-0.226563,-0.910645,0.385742,-1.457214,6.965637,-53.169247,1.0145945000629562
-0.226563,-0.871338,0.391357,-3.120422,12.245177,-56.648251,0.9816929278863121
-0.198975,-0.817139,0.379883,-5.493164,22.354124,-61.058041,0.9228316691764539
-0.165527,-0.770508,0.393799,-3.227234,27.626036,-64.758301,0.8809991022662849
-0.170166,-0.740479,0.450684,5.783081,30.273436,-65.864563,0.8833921467009993
-0.179199,-0.760986,0.492676,13.435363,32.691956,-65.719604,0.9240896140380542
-0.186768,-0.810059,0.498535,12.847899,32.348633,-66.749573,0.9693374105697149
-0.196045,-0.835693,0.497559,7.263183,28.251646,-66.619873,0.9921599622817886
-0.190918,-0.843018,0.467773,3.616333,23.03314,-64.147949,0.9828227767898952
-0.186523,-0.851807,0.454102,2.906799,17.631531,-61.752316,0.9831452696229587
-0.191162,-0.843994,0.459229,4.043579,12.5885,-58.059689,0.9796734439194522
-0.186279,-0.837402,0.477295,8.514404,8.888245,-53.092953,0.9817089652590527
-0.185059,-0.836914,0.51001,12.702941,6.431579,-46.966549,0.9973876262401695
-0.196533,-0.832275,0.527832,13.107299,3.860473,-37.406921,1.0049445337619385
-0.183105,-0.829102,0.5271,11.596679,0.541687,-27.145384,0.9993858000937376
-0.152832,-0.842773,0.522461,10.215758,-5.302429,-16.914368,1.0032893133458562
-0.141357,-0.848633,0.525879,7.04956,-15.563964,-5.401611,1.0083196381996138
-0.154785,-0.84082,0.528076,4.081726,-25.390623,7.247924,1.004888516404183
-0.177002,-0.8396,0.519287,2.685547,-33.226013,20.080564,1.002954064936675
-0.184326,-0.833008,0.495117,0.663757,-40.817257,34.141541,0.9864173792208853
-0.192383,-0.834717,0.474854,-0.114441,-49.491879,47.531124,0.9794130947123385
-0.233887,-0.846436,0.473633,-0.434875,-56.90765,59.967037,0.9977400711377687
-0.298584,-0.845459,0.480957,-2.807617,-58.654781,71.166992,1.0174836419255102
-0.318604,-0.827148,0.493896,-6.301879,-55.625912,75.408936,1.0146997494510384
-0.320557,-0.806885,0.51123,-9.94873,-50.018307,75.157166,1.007559579565397
-0.325928,-0.801514,0.499268,-11.71112,-44.166561,74.188232,0.9989606044304249
-0.320801,-0.813477,0.493652,-12.542724,-38.848877,69.80896,1.004166524155232
-0.331543,-0.826172,0.492676,-17.471313,-34.141541,65.620422,1.0174529843727425
-0.355469,-0.831055,0.487061,-24.055479,-29.853819,63.255306,1.0267614332000399
-0.36499,-0.828613,0.473389,-29.174803,-24.261473,61.454769,1.0217212678563563
-0.389648,-0.836426,0.44873,-33.851624,-17.616272,59.410091,1.026056835794197
-0.444336,-0.865723,0.449219,-36.338806,-8.094788,56.114193,1.071778197009997
-0.453857,-0.883057,0.45752,-37.80365,3.913879,48.126217,1.0932064727662383
-0.434082,-0.877686,0.434082,-41.15295,15.441894,36.186218,1.071068195795207
-0.408447,-0.864258,0.413574,-42.564388,19.386292,23.971556,1.0415441881403784
-0.355713,-0.845947,0.404053,-37.742615,13.84735,11.566161,1.0027047880542905
-0.330322,-0.836914,0.413574,-29.58679,7.347106,3.39508,0.9902429603667982
-0.345703,-0.842773,0.412842,-23.651121,8.247375,-0.061035,1.0001076995514033
-0.39624,-0.874268,0.402832,-21.820066,23.635862,-1.655578,1.040972763163379
-0.411133,-0.915771,0.399658,-22.895811,47.523495,-2.662658,1.0804598026275667
-0.367188,-0.935547,0.400391,-27.359007,69.190979,-3.181457,1.081844799143574
-0.311768,-0.947754,0.36377,-35.118103,81.657402,-2.357483,1.061963061146667
-0.280273,-0.944336,0.325439,-42.304989,81.909172,-0.305176,1.0374169740976864
-0.248291,-0.929932,0.292725,-43.884274,70.632935,2.319336,1.0060367145039986
-0.22998,-0.913086,0.2771,-40.206905,57.121273,5.332946,0.9815300575102118
-0.267822,-0.918457,0.25708,-35.049438,51.475521,11.260985,0.9906472686748801
-0.324951,-0.943359,0.252197,-33.363342,53.733822,19.477844,1.0291368626625905
-0.335449,-0.953369,0.248047,-33.828735,56.793209,21.812437,1.0406564255175674
-0.318359,-0.950439,0.220459,-34.416199,56.480404,18.379211,1.0262986486802952
-0.302246,-0.935791,0.202881,-32.867432,53.390499,12.702941,1.0041006624626836
-0.307617,-0.915283,0.194336,-28.938292,50.918575,9.658813,0.9849556688876915
-0.321045,-0.904053,0.189697,-24.513243,50.216671,9.162903,0.9779400138265127
-0.331055,-0.9021,0.186035,-20.423887,51.788326,6.42395,0.9787700670995206
-0.327393,-0.903564,0.18335,-16.235352,54.244991,1.037598,0.9783819811530668
-0.3125,-0.902832,0.179688,-11.20758,56.510921,-3.211975,0.9721366403793245
-0.306641,-0.909424,0.172119,-5.607605,58.1665,-3.593445,0.9750413656958355
-0.328125,-0.914795,0.15625,-0.564575,59.463497,0.022888,0.9843424049333647
-0.348633,-0.923096,0.157959,4.28009,59.463497,4.91333,0.9993008754054007
-0.359375,-0.940674,0.175537,8.369446,58.570858,7.087707,1.0221698504994168
-0.388428,-0.966797,0.181396,8.895874,58.914181,6.576538,1.05758085232714
-0.411133,-0.980469,0.187256,5.683898,60.386654,4.241943,1.0795437060100903
-0.408203,-0.977295,0.181885,0.656128,62.973019,0.259399,1.0746242875810132
-0.407715,-0.970215,0.169678,-3.189087,67.718506,-4.188538,1.0659921627920161
-0.405029,-0.957031,0.181641,-3.860473,72.845459,-8.270264,1.0549645864591852
-0.385742,-0.951416,0.188721,-3.295898,76.278687,-11.894225,1.0438414206482707
-0.35498,-0.947266,0.190674,-3.379822,76.507568,-15.228271,1.0294077177833862
-0.329102,-0.935791,0.197266,-2.616882,73.562622,-16.662598,1.0113984362460722
-0.314209,-0.934326,0.21582,-0.679016,69.740295,-16.105652,1.0090939710240072
-0.32666,-0.938721,0.22876,-1.174927,68.67981,-13.084411,1.019919118872178
-0.334717,-0.931885,0.246094,-3.40271,66.879272,-8.804321,1.0202976919262339
-0.318848,-0.923828,0.246582,-6.072998,61.614986,-8.018494,1.0079310013150702
-0.303223,-0.916504,0.240234,-8.125305,53.443905,-9.048462,0.9948045760354141
-0.30957,-0.9104,0.228271,-8.720398,44.494625,-8.811951,0.9883164444351819
-0.306641,-0.905518,0.2229,-6.607055,35.804749,-8.506775,0.9816699858939358
-0.298828,-0.899414,0.23877,-2.761841,28.533934,-9.086609,0.9773713878971495
-0.300049,-0.900146,0.249756,-0.25177,22.415159,-8.651733,0.9811576240609864
-0.301514,-0.9021,0.251953,-0.106812,16.76178,-7.843017,0.9839590521993281
-0.298096,-0.899658,0.246094,-0.114441,10.215758,-7.499694,0.9791874177173643
-0.297363,-0.898682,0.233398,1.205444,2.944946,-8.094788,0.9749506230045704
-0.299805,-0.900391,0.224121,3.120422,-4.081726,-8.148193,0.975098566067554
-0.307861,-0.902588,0.2229,4.798889,-10.353087,-7.347106,0.979350755891371
-0.31958,-0.912598,0.218262,5.584716,-15.777587,-6.645202,0.9912642365424066
-0.324463,-0.921143,0.207275,5.477905,-20.156858,-6.454467,0.9983704675334704
-0.322021,-0.923584,0.203613,5.714416,-23.605345,-7.019042,0.9990811695082638
-0.309814,-0.925537,0.219727,6.54602,-25.573729,-7.743835,1.000441606238965
-0.317871,-0.941162,0.218506,5.111694,-22.705076,-7.04956,1.0171394962938958
-0.352783,-0.95874,0.196777,-0.045776,-13.710021,-2.540588,1.0403650419050037
-0.358154,-0.956299,0.184326,-3.845215,-5.752563,1.88446,1.037669571392069
-0.342041,-0.946045,0.176025,-5.058288,-3.631592,0.282288,1.0212629379014007
-0.331299,-0.939453,0.175537,-5.615234,-5.310058,-3.341675,1.0115059095126435
-0.338379,-0.935791,0.165771,-6.134033,-7.034301,-4.257202,1.0088038301686806
-0.347656,-0.930908,0.155029,-5.584716,-7.827758,-3.90625,1.0057277910254843
-0.351807,-0.927002,0.166504,-3.166198,-8.003235,-5.966186,1.0053976602663246
-0.358643,-0.927246,0.176514,-1.449585,-6.912231,-8.621216,1.0097361725525138
-0.363037,-0.928223,0.172852,-1.571655,-5.325317,-9.674072,1.0115688879171798
-0.361328,-0.926025,0.159668,-2.27356,-3.883362,-10.581969,1.0067641702171368
-0.372803,-0.923584,0.146484,-1.335144,-2.937317,-11.512755,1.0067010698916536
-0.371094,-0.915771,0.150391,2.006531,-3.257751,-13.290404,0.9994822330376864
-0.361084,-0.913574,0.169922,5.638122,-4.058838,-16.036987,0.9969315897372296
-0.358154,-0.916504,0.183594,7.949829,-3.753662,-17.997742,1.0009798332474038
-0.35791,-0.924072,0.190918,8.232117,-2.426147,-18.974304,1.0091869559244213
-0.355713,-0.925293,0.191162,7.331848,-0.511169,-19.752502,1.009575051426094
-0.347168,-0.928223,0.18335,6.034851,1.342773,-20.13397,1.0078396600913262
-0.342773,-0.92749,0.179932,6.141662,2.548218,-19.767761,1.005040573436217
-0.339111,-0.929199,0.186768,7.377624,2.449036,-18.371582,1.0066227385401147
-0.335449,-0.926514,0.198975,7.690429,1.976013,-16.555786,1.00525880967142
-0.335205,-0.926025,0.210693,6.324768,1.205444,-14.541625,1.007112820342885
-0.336426,-0.926758,0.213867,3.997802,1.64032,-12.985229,1.0088617039659102
-0.343018,-0.929932,0.214111,2.159119,3.738403,-11.314391,1.0140406270307911
-0.339844,-0.932129,0.215332,1.655578,5.0354,-9.58252,1.015246909476212
-0.329102,-0.928955,0.220703,1.502991,4.745483,-8.628845,1.009938281598435
-0.325439,-0.922852,0.224609,1.00708,3.448486,-7.736206,1.0039997806304541
-0.329346,-0.917969,0.224854,0.732422,2.258301,-6.79779,1.0008472380903093
-0.330811,-0.917969,0.215088,0.900268,1.869202,-6.195068,0.9991825911343732
-0.330322,-0.916748,0.206543,2.578735,2.02179,-5.828857,0.9960921292917638
-0.325928,-0.91333,0.212158,5.966186,2.037048,-4.737854,0.9926790856303964
-0.320801,-0.913086,0.217773,8.522034,1.998901,-3.02124,0.9920002038941322
-0.31665,-0.913574,0.231934,8.476257,2.380371,-2.349854,0.9943229135104954
-0.312256,-0.922119,0.238037,7.019042,4.920959,-2.746582,1.0022319457421023
-0.322021,-0.934326,0.222168,3.913879,11.230468,-1.13678,1.012927055093801
-0.313477,-0.940918,0.214355,0.88501,16.677856,1.960754,1.014663775976062
-0.290283,-0.942383,0.211914,-0.846863,17.181396,2.677917,1.0085918313044182
-0.271973,-0.938232,0.210449,-2.13623,13.313293,1.419067,0.9992684224741618
-0.269531,-0.933838,0.199463,-3.128052,8.323669,0.63324,0.9922126075463866
-0.279297,-0.93335,0.185303,-2.784729,4.837036,0.946045,0.9917087468193472
-0.281006,-0.934082,0.186279,-0.37384,2.655029,1.083374,0.9930626468662488
-0.28125,-0.93457,0.193359,1.670837,1.068115,0.778198,0.9949423854078185
-0.285645,-0.936279,0.19751,1.853943,0.404358,0.442505,0.9986098497241053
-0.287842,-0.941162,0.198242,0.640869,0.648498,-0.267029,1.0039615618996576
-0.285156,-0.942627,0.190674,-1.00708,1.243591,-0.63324,1.0031032747135262
