ax,ay,az,gx,gy,gz,acc_mag
0.148193,-0.974121,0.010498,1.068115,2.197266,-0.305176,0.985384745109239
0.150879,-0.977051,0.006836,1.548767,3.051758,-0.190735,0.9886555821609465
0.153809,-0.98291,0.005371,1.731872,3.532409,0.099182,0.9948859855390465
0.154541,-0.987793,0.001221,1.678467,3.700256,0.404358,0.9998096930771375
0.154053,-0.988037,0.000977,1.396179,3.89862,0.640869,0.9999751970459068
0.151611,-0.985352,-0.000244,1.197815,4.341125,0.564575,0.9969476008100927
0.15332,-0.984131,-0.000488,0.953674,4.875183,0.305176,0.9960025530614869
0.156982,-0.985352,-0.001465,0.701904,5.027771,-0.038147,0.9977795640586151
0.159424,-0.985352,-0.002686,0.465393,4.722595,-0.282288,0.998169219258939
0.160889,-0.987793,-0.001221,0.137329,4.646301,-0.244141,1.0008105575037667
0.16333,-0.991455,0.000244,0.091553,4.440308,-0.25177,1.0048182748442624
0.164307,-0.994385,0.002441,-0.167847,4.112244,-0.175476,1.0078711608906168
0.16333,-0.992432,0.004395,-0.579834,3.517151,0.007629,1.005791866913329
0.163818,-0.987793,0.000977,-0.785828,2.960205,0.221252,1.0012853252205387
0.164551,-0.980957,0.000244,-0.717163,2.593994,0.061035,0.9946626196786525
0.167236,-0.980225,-0.001709,-0.114441,2.182007,0.038147,0.9943901905197979
0.170166,-0.982178,-0.000244,0.434875,1.419067,0.167847,0.9968099872974789
0.17041,-0.981445,0.003174,0.579834,0.511169,0.671387,0.9961344941326948
0.168945,-0.981689,0.005127,0.564575,-0.297546,0.900268,0.9961335211079889
0.167236,-0.986084,0.004639,0.213623,-0.427246,0.785828,1.0001755121342453
0.166016,-0.987549,0.003906,0.007629,0.167847,0.793457,1.00141379883293
0.167969,-0.984619,0.004395,0.030518,0.427246,0.793457,0.998853080361171
0.170654,-0.982666,0.001221,0.091553,0.442505,0.457764,0.9973749275538262
0.174072,-0.980713,-0.001221,0.312805,-0.015259,0.030518,0.996042439052674
0.172852,-0.980469,-0.003418,0.62561,-0.854492,-0.205994,0.9955947752921367
0.173096,-0.979492,0.000732,0.679016,-1.686096,-0.305176,0.994669462235571
0.171387,-0.97583,0.001953,0.663757,-2.578735,-0.267029,0.990768139817788
0.169434,-0.977295,-0.000488,0.495911,-3.425598,-0.610352,0.9918738002009126
0.167236,-0.980469,0.001465,0.267029,-4.211426,-0.862122,0.9946303262428711
0.164795,-0.984131,0.004639,0.190735,-4.676819,-0.984192,0.997844044681833
0.162598,-0.986084,0.005371,-0.038147,-4.631042,-0.915527,0.9994141345313262
0.160889,-0.986816,0.006104,-0.312805,-4.432678,-1.12915,0.9998641642708274
0.159912,-0.985596,0.006348,-0.328064,-4.234314,-1.51062,0.9985046920590809
0.155762,-0.983643,0.004883,-0.144958,-4.051208,-1.472473,0.9959112389073637
0.156738,-0.983887,0.007813,0.152588,-3.715515,-1.266479,0.9963239796281127
0.156006,-0.983398,0.011963,0.526428,-3.234863,-1.083374,0.9957673482340139
0.157227,-0.988281,0.014648,0.717163,-2.76947,-0.862122,1.0008167806316999
0.157959,-0.98877,0.01416,0.450134,-2.433777,-0.663757,1.0014078410822436
0.160156,-0.983643,0.016602,0.488281,-2.662658,-0.541687,0.9967342284626329
0.161621,-0.986816,0.016357,0.953674,-3.044128,-0.12207,1.0000973537341253
0.159424,-0.987793,0.015381,1.38092,-3.334045,0.450134,1.0006935583813859
0.166992,-0.991211,0.011719,1.808166,-3.555298,1.00708,1.0052476856705514
0.171875,-0.994873,0.005371,2.464294,-4.005432,1.564026,1.009624756726478
0.178467,-0.996338,-0.000732,2.540588,-5.180358,1.663208,1.0121958388360426
0.176514,-0.990234,0.006836,2.067566,-7.247924,1.373291,1.005866441356903
0.16333,-0.969482,0.022949,1.00708,-9.124756,0.236511,0.9834117620940884
0.146729,-0.947998,0.036621,-0.297546,-9.170532,-1.335144,0.95998474211104
0.133545,-0.931641,0.048584,-1.464844,-6.736755,-2.685547,0.9424169061312515
0.12793,-0.921875,0.050293,-2.784729,-2.76947,-4.386902,0.9320670503638673
0.129639,-0.915283,0.038574,-3.448486,1.502991,-6.225585,0.9252227806782537
0.147949,-0.911621,0.045166,-3.425598,5.470275,-8.216858,0.9246522166728418
0.131104,-0.907227,0.074463,-2.89154,9.300232,-10.2005,0.9196704989908071
0.108154,-0.891846,0.090332,-2.975464,11.779784,-11.352538,0.9029099875712971
0.101318,-0.876221,0.094727,-1.770019,15.502929,-12.413024,0.8871312092886824
0.099609,-0.886475,0.0896,2.441406,21.492002,-14.175414,0.8965422681089832
0.093994,-0.924805,0.092285,9.078979,27.793882,-15.701293,0.9341390053337886
0.084473,-0.974365,0.080322,14.640807,34.500122,-15.762328,0.9813126232949416
0.068115,-1.019775,0.057617,18.325806,43.441769,-15.502929,1.0236700750432242
0.041504,-1.050049,0.030273,20.51544,57.79266,-16.357422,1.0513048744041853
0.008545,-1.059814,0.002686,20.339964,80.307007,-17.402649,1.0598518510702335
-0.018311,-1.064941,-0.033203,19.561768,110.305779,-19.699097,1.065615815109273
-0.018311,-1.070313,-0.045898,18.562317,145.263672,-25.360106,1.0714531427430694
0.018555,-1.061768,-0.037109,16.464233,178.87114,-31.10504,1.062578303811065
0.078369,-1.051758,-0.013184,14.396667,206.138596,-34.263611,1.0547560896155093
0.137451,-1.060303,0.005371,11.558532,224.952682,-34.561157,1.0691885132431043
0.197266,-1.064941,0.032471,7.705688,236.595139,-30.792234,1.0835439880678588
0.256592,-1.042969,0.06958,0.495911,240.165695,-25.177,1.0763201967003129
0.319824,-0.987061,0.09668,-8.880615,232.749924,-20.301817,1.0420766915620943
0.373047,-0.921143,0.110352,-16.235352,214.553818,-15.914916,0.9999230243183722
0.405273,-0.875,0.11377,-17.501831,188.575729,-9.773254,0.9709865176350287
0.429688,-0.867676,0.143066,-14.633178,156.929016,-0.320435,0.9787549737682052
0.44043,-0.892334,0.198975,-13.389586,119.964592,12.298583,1.0148052045003513
0.438232,-0.908691,0.228516,-17.700195,80.345146,28.480528,1.0344013638626934
0.431396,-0.879883,0.217529,-22.392271,42.106625,41.801449,1.0038005122264084
0.413574,-0.835449,0.165039,-21.255491,8.872986,50.582882,0.9467081686549451
0.355469,-0.806641,0.148926,-12.489318,-15.098571,59.532162,0.8939837058459176
0.301758,-0.821289,0.159912,0.999451,-26.573179,65.460205,0.8894635236079106
0.263672,-0.875244,0.169189,13.47351,-24.383543,67.169189,0.9296235264024895
0.255859,-0.942139,0.147949,20.690916,-9.086609,64.476013,0.9874100616273869
0.265625,-0.996094,0.132568,22.460936,12.565612,60.18066,1.039391250725635
0.277832,-1.024414,0.126709,17.883301,34.851074,49.835201,1.0689573585045382
0.268066,-1.040283,0.096924,10.44464,59.43298,32.608032,1.0786298541302295
0.27417,-1.071289,0.033936,3.684997,87.455742,10.688781,1.1063367310710606
0.366211,-1.103027,-0.049072,3.784179,110.755913,-14.183043,1.1632657135985742
0.507813,-1.139404,-0.095459,14.73236,119.079582,-32.684326,1.2510906996960691
0.605225,-1.196777,-0.090088,22.224424,104.354851,-36.628723,1.3441310710261853
0.643066,-1.262207,-0.10791,21.423338,64.712524,-32.745361,1.4206846797600796
0.624512,-1.30957,-0.121826,16.876221,9.597778,-24.986265,1.4559637348917727
0.511963,-1.317627,-0.131348,10.093688,-51.277157,-11.398314,1.4196828242963286
0.35791,-1.273193,-0.131348,2.250671,-108.871452,1.266479,1.3290493897718774
0.207275,-1.206299,-0.100586,-3.204345,-156.425476,9.368896,1.2281033126011833
0.046875,-1.141113,-0.03833,-6.713867,-188.011154,15.296935,1.1427183963225587
-0.091064,-1.088623,0.024902,-10.459899,-200.355515,20.76721,1.092708926397602
-0.193115,-1.043457,0.076416,-14.839171,-192.192062,24.749754,1.063924489392927
-0.33252,-0.992676,0.101563,-19.889832,-162.628159,22.415159,1.0518033249353227
-0.438721,-0.926758,0.09668,-21.736143,-117.065422,15.342711,1.0299046212174212
-0.432617,-0.846436,0.084229,-19.943237,-57.800289,2.998352,0.9543091193245509
-0.338623,-0.783203,0.053955,-14.320373,11.535644,-17.272949,0.8549757992849856
-0.210205,-0.760986,0.034424,-4.447937,76.004028,-34.034729,0.7902346777995763
-0.094238,-0.768555,0.026855,1.13678,122.51281,-41.992184,0.7747765998621796
-0.000977,-0.783447,0.033691,1.701355,151.199341,-45.936581,0.7841716902687829
0.07373,-0.79126,0.056641,2.555847,170.631393,-52.429195,0.7967036484044742
0.092285,-0.807373,0.102783,3.738403,181.930527,-54.89349,0.8191044057035708
0.134277,-0.832275,0.153809,3.463745,186.378464,-55.656429,0.8569534391289879
0.229736,-0.848145,0.178223,1.976013,186.622604,-59.92889,0.8966002500836145
0.351074,-0.888184,0.104248,3.570556,180.328354,-67.565918,0.9607244229413552
0.454346,-0.994629,0.060547,9.353638,166.183456,-75.195313,1.0951634921626998
0.509521,-1.147217,0.143799,13.389586,141.578674,-77.629089,1.2634859108557561
0.538086,-1.283203,0.232422,6.629943,107.810966,-77.705383,1.4107325999951232
0.627686,-1.34668,0.20752,-16.448975,73.913574,-86.990349,1.5002004157431768
0.709961,-1.360107,0.068604,-45.81451,53.199764,-111.54937,1.5357871538028958
0.678467,-1.375244,-0.079102,-71.273804,52.253719,-143.486023,1.53553595074456
0.634521,-1.378906,-0.148926,-93.704216,70.716858,-173.934921,1.5251811727637474
0.700439,-1.345947,-0.169678,-116.470329,104.850761,-198.883041,1.5267543165860054
0.913086,-1.28125,-0.196289,-139.450073,142.219543,-224.929794,1.58551473579308
1.151855,-1.218994,-0.27417,-159.866333,165.832504,-249.992355,1.6993779750135047
1.271973,-1.221191,-0.373291,-174.308762,168.228134,-249.992355,1.8023786899236798
1.278076,-1.272217,-0.386963,-181.838974,154.220581,-249.603256,1.8443846454126644
1.258545,-1.31665,-0.388184,-188.667282,139.175415,-249.954208,1.86230758935816
1.287354,-1.326172,-0.367188,-202.796921,128.875732,-249.992355,1.8843671410433798
1.383789,-1.294678,-0.324219,-223.930344,115.859978,-249.992355,1.9225454689463133
1.538818,-1.218506,-0.287109,-245.185837,90.835564,-249.992355,1.9837210708769013
1.629883,-1.160889,-0.258545,-249.992355,60.028072,-249.992355,2.0176787110526297
1.554199,-1.13916,-0.21582,-249.946579,33.13446,-249.992355,1.9390199353284123
1.476074,-1.168457,-0.143555,-249.862656,8.171082,-249.992355,1.888039790986938
1.476074,-1.200195,-0.116455,-249.992355,-12.596129,-249.992355,1.9059969198626738
1.552979,-1.156006,-0.157959,-249.992355,-34.767151,-249.992355,1.9424326737773951
1.628662,-1.102783,-0.223633,-249.992355,-58.204647,-249.992355,1.9795661075149777
1.560791,-1.054688,-0.171875,-248.657211,-76.011658,-249.992355,1.8915539481204335
1.399414,-0.993652,-0.099854,-233.589157,-79.818726,-249.992355,1.7192075679847387
1.240234,-0.916016,-0.047852,-213.737473,-71.708679,-249.992355,1.5425807923463848
1.255615,-0.826172,-0.03125,-198.051437,-72.463989,-249.992355,1.5033648141116647
1.299072,-0.759766,0.015869,-182.01445,-87.654106,-249.992355,1.505019687944646
1.192139,-0.707275,0.056152,-166.580185,-103.744499,-249.992355,1.3872946219350812
0.987061,-0.618652,0.089355,-156.669617,-106.25457,-249.992355,1.1683338695980698
0.846191,-0.487305,0.115479,-151.145935,-96.939079,-249.992355,0.9832806165825705
0.769531,-0.36084,0.094727,-144.981384,-80.322258,-249.992355,0.8551939371218671
0.693604,-0.286621,0.070068,-140.525818,-62.889095,-249.992355,0.7537556839460648
0.665283,-0.238037,0.072998,-137.184143,-50.643917,-249.992355,0.7103462475877521
0.679443,-0.236572,0.085205,-132.537842,-38.711548,-249.992355,0.7244784285663721
0.621826,-0.222412,0.101318,-127.082817,-22.590635,-249.992355,0.6681317303825646
0.597656,-0.164063,0.058105,-122.474663,-10.208129,-249.992355,0.6224833759466994
0.631348,-0.099121,-0.004639,-118.431084,-1.014709,-249.992355,0.6390984197023178
0.618652,-0.058594,-0.019287,-115.20385,4.882813,-249.992355,0.6217198262151529
0.555908,-0.024902,-0.027832,-115.264885,3.417969,-249.992355,0.5571610487928961
0.466309,0.017334,-0.045898,-119.201653,-1.960754,-249.992355,0.4688829037627625
0.398193,0.083496,-0.075439,-122.352592,-5.599975,-249.992355,0.41378773542240227
0.384766,0.16333,-0.12793,-117.782585,-4.493713,-249.992355,0.43713573241728937
0.36792,0.218018,-0.139893,-111.236565,-0.495911,-249.992355,0.4499633609228645
0.36377,0.268311,-0.113281,-110.931389,1.686096,-249.992355,0.465995698029499
0.336914,0.312012,-0.078369,-119.239799,2.815246,-249.992355,0.46583713001541643
0.264404,0.351563,-0.059814,-131.851196,0.144958,-245.063766,0.44394113661723217
0.168701,0.396484,-0.042969,-143.234253,-6.858825,-232.055649,0.43301954299777284
0.087646,0.430664,-0.004395,-153.511047,-13.59558,-222.21373,0.43951407057908853
0.049805,0.473877,0.07373,-161.613449,-12.870788,-214.187607,0.4821577149170176
0.048584,0.559082,0.13208,-166.51152,-9.658813,-197.875961,0.5765225183633332
0.089355,0.671631,0.117432,-160.469055,-3.234863,-179.824814,0.6876501950919522
0.088867,0.747803,0.160889,-140.708923,11.802672,-164.329514,0.7700596995162128
0.039551,0.785156,0.314941,-120.697014,29.823301,-147.010803,0.8468896382752595
0.016846,0.797363,0.479492,-108.77227,46.966549,-128.967285,0.930582677438711
-0.01123,0.794922,0.65625,-97.862236,67.03186,-113.624565,1.0308691291740189
0.00708,0.801025,0.793701,-82.763664,88.218681,-101.257317,1.1276756867229158
0.092041,0.775879,0.870117,-57.456966,107.452385,-88.165276,1.1694286476784292
0.135498,0.72583,0.904297,-24.963377,123.229973,-75.134277,1.1674510529838071
0.090576,0.680664,0.952637,7.217407,139.465332,-72.174072,1.1743188436029628
0.075684,0.679443,1.015625,37.117004,152.71759,-74.97406,1.2242814213774544
0.109131,0.722168,1.056396,67.359924,159.240723,-71.990967,1.2842930756649744
0.131592,0.750732,1.137939,96.908562,159.225464,-66.261292,1.3696058403821882
0.192627,0.756348,1.176758,129.135132,158.279419,-65.406799,1.412064746673112
0.204102,0.720703,1.129395,167.686447,167.076096,-68.817139,1.3552134542713188
0.119385,0.640381,1.02124,209.655746,185.958847,-71.815491,1.2113099277170976
0.030273,0.578613,0.87793,248.085007,215.171799,-72.990417,1.0518890355916826
-0.002197,0.541748,0.780762,249.992355,243.75914,-69.549561,0.9503078569374243
0.053223,0.509033,0.702637,249.481186,249.992355,-58.631893,0.8692790326396926
0.102539,0.467773,0.656738,249.885544,249.946579,-43.159481,0.8127918716953314
0.068115,0.384766,0.654785,249.992355,249.816879,-26.93939,0.7625142124616432
-0.013184,0.28833,0.591064,249.992355,249.992355,-10.299682,0.6577724977923598
-0.085693,0.200195,0.4021,249.992355,249.992355,6.538391,0.45728080899377355
-0.116455,0.08667,0.241943,249.992355,249.992355,22.28546,0.2821522127753032
-0.243164,-0.153564,0.86084,249.992355,248.741135,35.873413,0.9076101247738481
2.01416,-5.075439,-5.327637,151.054382,174.056992,2.975464,7.628934234353446
3.325439,-1.201904,-6.297119,-212.066635,75.866699,-83.129875,7.221968254437152
-0.19043,1.319336,-1.369385,-35.835266,5.310058,43.16711,1.9110537260948475
0.028564,0.327148,-0.698975,95.008842,-60.523983,155.899048,0.7722744114788473
-1.0354,1.303955,-0.595947,-58.502193,-113.380424,213.409409,1.7684752270908406
-1.602539,2.536133,-0.213623,-249.992355,-63.171383,-30.204771,3.007613111146279
-1.26001,2.966309,-0.729736,-198.760971,93.688957,-201.057419,3.304410524326086
-0.196045,1.740967,-0.855957,49.301144,241.928085,-154.174805,1.949887720604189
0.119141,0.793213,-0.668701,168.167099,249.992355,14.465331,1.0442904139419265
0.189209,0.427979,-0.546875,155.387878,238.403305,111.984245,0.719748800448462
0.435059,0.236816,-0.561279,88.150017,184.02861,97.190849,0.748593526005936
0.623779,0.375977,-0.638672,21.957396,103.912346,46.737667,0.9686902853616319
0.589355,0.76709,-0.668701,-23.29254,18.875122,14.511107,1.175979341453752
0.408447,1.12915,-0.701416,-41.366573,-48.629757,15.48767,1.3906088879929541
0.171143,1.287598,-0.74707,-27.8244,-80.383293,29.365538,1.498436558868276
-0.056152,1.177246,-0.807617,1.403808,-74.325562,39.886475,1.4287429475972926
-0.163574,0.894287,-0.900391,19.989014,-48.004147,43.830868,1.2795349329838557
-0.0896,0.622314,-0.987061,16.212463,-20.301817,41.091915,1.1702958140218225
0.167236,0.436768,-1.030518,-1.213074,-4.646301,34.767151,1.131680835679389
0.49292,0.3396,-1.072266,-19.042969,-7.80487,28.366087,1.2280279561785228
0.722412,0.220947,-1.14917,-34.004211,-24.719236,24.92523,1.3752412019180489
0.81543,0.08374,-1.381592,-54.626461,-51.147457,26.321409,1.6064665969026557
0.746582,0.040283,-1.480713,-91.117851,-86.379997,25.291441,1.65877014416766
0.595459,0.026367,-1.46582,-142.76886,-124.969475,28.053282,1.5823700299771857
0.487061,0.052002,-1.380371,-198.90593,-153.968811,33.912659,1.4647036298739755
0.430176,0.16333,-1.233643,-241.790756,-162.788376,34.011841,1.3166636363646564
0.38501,0.283936,-1.047607,-249.992355,-149.147034,28.602598,1.1516652198642625
0.355957,0.363525,-0.835693,-249.855026,-122.772209,22.491453,0.9783857121416891
0.344727,0.426514,-0.642578,-249.755844,-93.315117,17.921448,0.8447824470294113
0.308105,0.486816,-0.465088,-249.992355,-65.895081,14.419555,0.7404224176947913
0.244629,0.541016,-0.257324,-249.992355,-44.380184,8.293152,0.6471145963992777
0.21875,0.547119,-0.075684,-249.992355,-32.028198,0.656128,0.5940697185659273
0.239258,0.500732,0.063477,-249.992355,-28.968809,-4.005432,0.5585752016667048
0.269775,0.441162,0.247559,-249.992355,-34.576416,-3.662109,0.5733131076035154
0.282471,0.437988,0.44043,-249.992355,-47.264095,-0.663757,0.6823503051109452
0.256104,0.519531,0.552002,-249.992355,-69.709778,3.768921,0.8001299436847742
0.270752,0.654297,0.628662,-249.992355,-110.198967,9.674072,0.9469039655408568
0.342529,0.768799,0.69043,-248.67247,-162.85704,15.426635,1.0886099407694199
0.370605,0.828369,0.760986,-230.758652,-214.683517,17.784119,1.1843322837709018
0.310791,0.851318,0.904053,-205.291733,-249.992355,16.822815,1.2800957814218434
0.238525,0.909668,1.114014,-192.184433,-249.992355,12.573241,1.4578810781558968
0.230225,1.03125,1.270264,-183.39537,-249.465927,4.806519,1.652286519590655
0.240479,1.173096,1.309814,-167.930588,-243.240341,-5.203247,1.774710424055992
0.237549,1.285156,1.242188,-143.722534,-211.547836,-14.190673,1.8030769531778172
0.192871,1.333252,1.108154,-111.511223,-170.852646,-18.65387,1.7443524316665484
0.129883,1.306152,0.97998,-78.445435,-131.637573,-18.844604,1.6380669831215693
0.10376,1.239502,0.865479,-52.314754,-96.244804,-17.807007,1.5153168794166454
0.098145,1.160889,0.794434,-32.684326,-63.591,-15.480041,1.4101138577086603
0.086914,1.096924,0.71875,-20.51544,-36.865234,-17.868042,1.3143050892665675
0.099121,1.060791,0.644287,-10.261535,-20.324705,-19.187927,1.2450735948894749
0.09668,1.046875,0.550049,-0.717163,-8.041382,-18.90564,1.1865277874647522
0.074951,1.036621,0.427734,7.865905,0.274658,-18.211365,1.1239026313689278
0.109375,1.015869,0.32959,10.925292,-4.005432,-14.968871,1.073583850421568
0.127686,1.002441,0.28418,9.674072,-16.929626,-12.939452,1.0497380365962738
0.069092,0.998535,0.296387,6.507873,-30.998228,-16.921997,1.0438827062740335
0.046631,1.005859,0.36377,2.799988,-39.543152,-21.545408,1.070633172913113
0.080078,1.013184,0.448242,1.594543,-35.461426,-18.737793,1.1107993493444261
0.131348,1.01001,0.54126,4.127502,-24.92523,-11.001586,1.1534014413048044
0.171875,0.99707,0.672607,10.086059,-13.015746,-6.195068,1.2149443513898075
0.16748,0.978516,0.807861,16.075134,-0.106812,-4.302979,1.2799150393588632
0.143066,0.970703,0.93042,23.452757,17.417908,-6.507873,1.3521884376687296
0.172852,0.969238,1.060791,38.063049,44.624325,-12.695312,1.4472655804063745
0.279053,0.974609,1.163086,61.729427,76.446533,-13.046264,1.5428876573120935
0.36377,0.979248,1.18457,91.217033,99.349968,-5.66864,1.5793863818913976
0.357666,0.961914,1.128906,124.595634,107.017509,-3.334045,1.525657978640036
0.318604,0.9104,1.104004,157.897949,109.069817,-11.817931,1.4660018761352251
0.318604,0.861084,1.161377,185.173019,115.066521,-20.019531,1.4804630019021077
0.369385,0.863037,1.227051,207.931503,125.236504,-23.262022,1.5449699991245784
0.411377,0.885498,1.212158,234.489426,136.772156,-27.427671,1.5564911696174188
0.394043,0.842529,1.120361,249.992355,153.511047,-35.919189,1.4561365911242665
0.308838,0.760742,1.019043,249.992355,179.840073,-45.524593,1.308647369101776
0.238281,0.716553,0.871826,249.641403,215.339645,-51.658627,1.1533891845539388
0.281494,0.70752,0.702393,249.992355,248.405441,-52.947994,1.0359436996695333
0.385498,0.709473,0.578613,249.992355,249.992355,-51.155087,0.9933547450442869
0.380127,0.682373,0.509033,249.992355,249.55748,-46.379086,0.9323325814037606
0.304199,0.587158,0.435791,249.992355,249.900803,-32.424927,0.7919629689865555
0.156738,0.447266,0.388916,249.992355,249.992355,-5.928039,0.6130818301466779
-0.050049,0.327148,0.779297,249.992355,249.992355,22.3999,0.8466608119630907
0.841797,-2.939209,-4.388672,243.301376,188.384995,17.074585,5.348645964959169
2.05249,-4.584717,-6.19751,-145.278931,197.875961,-93.543999,7.9775607406204685
0.207275,1.488281,-1.267578,-132.598877,192.245468,154.960632,1.9658833247855785
0.998535,0.777344,-0.388916,35.331726,73.883057,112.350456,1.3238547864539374
-0.057129,1.489014,-0.286865,-25.833128,-76.087952,230.079636,1.517470903530608
-0.250977,2.915527,-0.091064,-249.992355,-183.868393,75.080872,2.927726044962882
-0.454346,3.463623,-0.657959,-209.434494,-159.934998,-114.021294,3.5547186414013137
-0.157715,1.790527,-0.765137,102.47802,-39.001465,-197.677597,1.9535341276064262
0.211182,0.307617,-0.411133,241.714462,37.437439,-92.77343,0.5552084288823432
0.299805,-0.003906,-0.327393,164.436325,59.753414,95.069878,0.44394196840352906
0.367432,0.130615,-0.436279,52.61993,75.294495,164.009079,0.5851546109277443
0.517822,0.469238,-0.557861,-1.38092,82.176201,110.374443,0.8941659911051192
0.516846,0.80957,-0.595459,-3.90625,62.225338,26.69525,1.1300906128700476
0.325439,0.995605,-0.609375,-4.104614,28.869627,-22.468565,1.2118076371153137
0.182861,1.072021,-0.696045,-12.413024,3.463745,-32.623291,1.2911800075074737
0.220703,1.024414,-0.844727,-7.606506,-5.729675,-16.143799,1.3459931508495873
0.39502,0.865723,-0.927002,8.178711,-0.87738,14.152526,1.3284765037941018
0.590088,0.707031,-0.909668,13.557433,-1.533508,34.507751,1.294446813480183
0.696777,0.530518,-0.922852,3.562927,-23.200987,32.89032,1.2722434318781135
0.633545,0.312988,-1.184326,-16.738892,-67.588806,19.866943,1.3791188597959931
0.534912,-0.002686,-1.446045,-52.642818,-115.226738,4.196167,1.5418119873593539
0.587158,-0.18042,-1.559082,-112.762444,-138.206482,-4.837036,1.675721509108241
0.628906,-0.131104,-1.507324,-180.549606,-135.864258,-3.387451,1.6385166024877504
0.540039,0.007813,-1.363281,-231.880173,-129.692078,4.516602,1.4663690699994323
0.419922,0.163574,-1.189209,-249.992355,-123.924248,11.367797,1.2717346363298436
0.391846,0.273193,-1.009766,-249.992355,-114.898674,14.60266,1.1170519583801821
0.397217,0.295654,-0.861816,-249.595627,-104.904167,16.494751,0.9939413718429272
0.377197,0.248291,-0.638428,-249.992355,-97.503654,17.76123,0.7819950822569155
0.356934,0.215332,-0.395752,-249.992355,-93.719475,17.417908,0.5747950905183515
0.365967,0.253662,-0.205566,-249.992355,-92.887871,15.449523,0.49044228578804255
0.409912,0.340332,-0.109863,-249.992355,-91.575615,14.09912,0.5439885998226434
0.474365,0.404053,-0.058838,-249.992355,-89.614861,13.893126,0.6258936733008251
0.509521,0.383545,0.072266,-249.992355,-97.274773,14.457702,0.6418261378457565
0.514893,0.306641,0.29248,-249.992355,-121.223442,18.295288,0.6668493493511111
0.490723,0.288574,0.552246,-249.992355,-158.439636,26.374815,0.79313281404882
0.477783,0.44043,0.787842,-249.992355,-201.057419,39.016724,1.0212493314333184
0.52832,0.699219,0.970947,-249.992355,-240.463242,47.233578,1.307963038151308
0.615234,0.927246,1.006592,-249.992355,-249.992355,43.182369,1.5005084050867559
0.593506,1.047119,0.909912,-249.992355,-249.923691,35.751343,1.5088563284623888
0.518799,1.047852,0.917236,-240.043625,-249.725327,30.227659,1.4860915503430467
0.500488,0.979004,1.085693,-203.849777,-249.992355,30.181883,1.545207546062664
0.518555,0.96167,1.29248,-179.428085,-248.001083,35.057068,1.6923986017853478
0.486084,1.022217,1.417236,-166.51915,-223.495468,33.203125,1.8137704181734247
0.414795,1.132324,1.438721,-152.259827,-183.944687,21.385191,1.8772668027859014
0.378174,1.242676,1.422363,-132.835388,-146.29364,4.501343,1.9262335577548741
0.383789,1.293457,1.382813,-105.995171,-108.596794,-11.573791,1.9319670805526166
0.398438,1.25708,1.329834,-75.508118,-71.624756,-21.064756,1.8728217837797594
0.40332,1.158447,1.27417,-49.835201,-39.43634,-24.246214,1.7686649380561033
0.368652,1.07373,1.206299,-33.302307,-13.809203,-26.420591,1.65648956755091
0.332764,1.020996,1.0979,-23.109434,4.28009,-29.823301,1.5357568563128736
0.359863,1.003418,0.956055,-11.146544,17.166138,-32.836914,1.4319183721560387
0.403564,0.995605,0.909668,6.805419,32.501221,-34.637451,1.4076892726539476
0.438721,0.986084,0.953613,26.000975,46.905514,-33.088684,1.4402137079843393
0.445557,0.973877,0.980469,43.395992,56.02264,-28.930662,1.4519906719187283
0.415527,0.94751,0.984131,60.859676,62.049862,-27.305601,1.4279186646969777
0.354736,0.902588,0.990723,76.919556,69.091797,-28.366087,1.386374693280644
0.308594,0.873047,1.015625,87.989799,75.950623,-28.213499,1.37438548510598
0.314209,0.866455,1.050049,95.931999,83.930962,-28.236387,1.3971665845943353
0.348389,0.875977,1.119629,103.98864,95.359795,-30.227659,1.4636528609923187
0.378174,0.88208,1.192871,116.668694,110.53466,-33.073425,1.5310198964471362
0.400391,0.862061,1.229004,137.557983,127.525322,-35.324097,1.5536772356631863
0.435059,0.816406,1.205811,165.115341,147.68219,-38.345337,1.519794478881273
0.458984,0.780762,1.188232,193.98497,172.8134,-41.366573,1.494038452893365
0.460205,0.780029,1.197266,221.809372,194.709763,-40.64941,1.5012260847793713
0.46167,0.797607,1.172363,247.54332,205.306992,-36.323547,1.4912247044352505
0.439453,0.787598,1.119141,249.992355,209.579453,-34.332275,1.4373260335407552
0.387939,0.727051,1.092773,249.694809,215.164169,-38.101196,1.368668204442187
0.355225,0.643066,0.992188,249.893173,228.614792,-42.190548,1.234567012488589
0.322998,0.549072,0.844727,249.992355,248.771652,-43.373104,1.0580035319964674
0.283936,0.45752,0.693115,249.992355,249.992355,-42.92297,0.8776973314993045
0.230225,0.327393,0.649902,249.992355,249.717697,-43.785091,0.7632577131467457
0.148193,0.187988,0.621582,249.992355,249.93132,-38.238525,0.6660817037849035
0.197266,0.091309,0.293945,249.992355,249.992355,-15.35797,0.3655883904912737
0.297119,-0.445068,0.716553,249.992355,234.992966,24.92523,0.8943228872135611
2.343506,-6.176025,-6.305908,68.527222,166.923508,-106.323235,9.132348048400532
1.089844,-0.022949,-6.885498,-249.992355,233.283981,-81.375114,6.971253065908668
0.85083,1.764893,-1.706787,0.869751,230.522141,130.584717,2.5984381566083115
2.142334,-0.259521,0.345459,158.546448,74.539185,160.102844,2.1854720400128667
1.194092,1.644043,0.919922,-91.438286,-138.519287,249.992355,2.2304684656809206
0.44873,3.888184,0.908691,-249.992355,-249.992355,129.318237,4.018090686412764
-0.391357,4.121094,-0.035889,-144.332886,-249.992355,-216.262802,4.139790342348994
-0.056396,1.42334,-0.397949,225.959763,-202.81218,-249.992355,1.478999888781943
-0.096924,-0.374023,-0.42041,249.992355,-102.745049,-113.800041,0.5709921491623156
-0.275146,-0.567871,-0.578857,131.866455,-16.983032,167.40416,0.856304980953632
-0.212158,-0.143311,-0.621094,2.433777,28.442381,249.671921,0.671793730635379
-0.036133,0.436279,-0.463623,-43.136593,43.327328,158.851624,0.6376450781265389
0.300049,0.991455,-0.310303,-34.729004,42.198177,25.268553,1.0813419307670447
0.582031,1.282471,-0.188232,-27.084349,23.925779,-42.152401,1.420888185828146
0.624023,1.352295,-0.237305,-22.28546,-8.300781,-30.281065,1.5081180771342144
0.44751,1.218018,-0.359375,6.217956,-20.1416,13.282775,1.3464707345683382
0.293945,0.930908,-0.464844,41.40472,-2.792358,41.16058,1.0812369360251248
0.281494,0.678223,-0.561279,49.171444,20.759581,39.161682,0.9242615569231473
0.328125,0.554688,-0.638184,32.600403,31.127928,18.768311,0.9069860036544114
0.306885,0.540527,-0.666504,15.472411,27.847288,-1.831055,0.911359107580541
0.238281,0.589844,-0.68457,8.399963,12.802123,-9.063721,0.9345211951566428
0.206299,0.657959,-0.751465,7.919311,-11.901855,-2.784729,1.0198867433725178
0.146729,0.718994,-0.841309,12.908935,-42.785641,14.312743,1.1163702812946965
0.039795,0.706787,-0.918701,17.753601,-72.319031,30.609129,1.159803014651626
-0.067383,0.647217,-0.986328,18.2724,-94.184868,41.15295,1.1816400625241172
-0.128174,0.562256,-1.025879,12.351989,-104.37011,46.127316,1.1768551764992157
-0.139648,0.453369,-1.118896,4.875183,-100.58593,49.880978,1.2153078922153842
-0.088867,0.324219,-1.214355,-3.067016,-86.257927,55.084225,1.2600291146140234
0.050049,0.169678,-1.394287,-17.028809,-78.193665,66.398621,1.4054649637945444
0.151367,0.013428,-1.455566,-45.31097,-86.21978,85.853569,1.4634769079930847
0.179688,-0.092529,-1.403809,-88.35601,-111.068718,107.64312,1.4182838579304216
0.17749,-0.146973,-1.37915,-133.903503,-137.756348,123.710625,1.3982698185003495
0.152832,-0.152832,-1.339355,-172.233566,-147.232056,133.094788,1.3566823712545986
0.124268,-0.150879,-1.219482,-202.163681,-132.209778,140.670776,1.2350479167987773
0.140381,-0.143555,-1.054688,-225.265488,-103.096001,150.115967,1.0736301227750646
0.206787,-0.116699,-0.854004,-243.583664,-74.539185,162.60527,0.8863985288717485
0.302979,-0.064941,-0.674072,-249.992355,-54.847713,177.085861,0.741880495164821
0.385986,-0.019287,-0.515869,-249.992355,-44.05212,188.758835,0.6445758339605977
0.435791,0.006592,-0.358887,-249.839767,-37.261963,195.083603,0.5645858029688667
0.449463,0.034668,-0.24292,-249.992355,-30.242918,197.380051,0.5120829864318869
0.427734,0.054443,-0.195068,-249.992355,-20.271299,198.585495,0.4732567375421083
0.364014,0.06665,-0.157227,-249.992355,-5.973815,201.91954,0.40208051957910124
0.334229,0.054199,-0.049561,-248.008713,9.895325,204.414352,0.3422029350590085
0.394287,0.029541,0.077393,-231.430038,22.720335,208.236679,0.40289525375586144
0.486816,0.023193,0.136475,-211.662277,28.907774,218.444809,0.5061157562554243
0.614746,0.044922,0.182861,-196.792587,22.628782,229.934677,0.6429376143305041
0.75,0.059814,0.297119,-184.173569,3.784179,240.119919,0.8089236149087254
0.833252,0.060059,0.401367,-175.285324,-28.770445,249.198898,0.9268287046018806
0.891357,0.049072,0.453369,-168.716415,-74.493408,249.992355,1.0012336454564439
0.891113,0.034668,0.501953,-160.614014,-123.321526,249.893173,1.0233479678007869
0.806396,0.0271,0.563477,-149.06311,-165.145859,249.961838,0.9841317230660741
0.680664,0.036133,0.604248,-132.865906,-194.152817,249.992355,0.9108922659068964
0.570801,0.052734,0.604736,-110.366814,-205.879196,249.992355,0.8332468338091661
0.499268,0.057617,0.575439,-82.06176,-196.716293,249.992355,0.764014592291273
0.449707,0.034912,0.556396,-48.33984,-166.435226,249.992355,0.7162623418894785
0.393066,-0.01416,0.540771,-12.130736,-121.665947,249.992355,0.6686812846169691
0.372314,-0.087891,0.505859,21.453856,-72.113037,249.992355,0.6342206795414352
0.448975,-0.181152,0.476318,50.659176,-25.741575,249.992355,0.6791711381183685
0.67749,-0.288086,0.46167,75.424194,12.809752,249.992355,0.8689795350846877
0.836426,-0.402588,0.45166,93.757622,46.081539,249.992355,1.0323188978314792
0.772705,-0.527588,0.431641,102.653496,63.812252,249.992355,1.0304057781524714
0.633057,-0.625732,0.409668,105.216972,56.823727,249.992355,0.9798620164579296
0.518555,-0.688721,0.401123,113.044731,37.864685,249.992355,0.9508604340254148
0.445313,-0.745117,0.404053,132.667542,23.094175,249.992355,0.9574768083180919
0.41748,-0.865234,0.413818,162.033066,18.852234,249.992355,1.0460233086695534
0.451904,-1.089111,0.447998,192.10051,18.890381,249.992355,1.261381069915432
0.61377,-1.416504,0.491699,220.916733,10.292052,249.992355,1.6201744046604982
0.940918,-1.859863,0.521729,246.65831,-12.321471,249.992355,2.148631706676135
1.243896,-2.324463,0.590332,249.992355,-45.005795,249.992355,2.70164715819979
1.386475,-2.54126,0.729248,237.686142,-97.045891,249.992355,2.9853170616751914
1.370117,-2.521484,0.729004,228.942856,-181.564316,249.992355,2.960835859678986
1.436523,-2.58667,0.572998,240.768417,-249.992355,249.992355,3.0137662030145935
1.889404,-2.856201,0.018555,248.947128,-249.992355,249.992355,3.424627850678377
2.52124,-2.763916,-0.4375,249.992355,-248.664841,249.992355,3.7666017897643496
2.233398,-1.957764,0.029053,249.992355,-249.992355,249.992355,2.9701431923240675
1.03833,-1.441406,0.520752,249.969467,-249.992355,249.992355,1.8512058478840219
0.150391,-1.39502,0.630127,247.001633,-249.977097,249.992355,1.5381021713169771
-0.395264,-1.357422,0.51416,196.716293,-249.992355,249.992355,1.5043897837262787
-0.502197,-1.270996,0.347168,116.645805,-249.992355,244.186386,1.410020666177982
-0.385498,-1.097168,0.244873,55.305477,-244.415268,184.91362,1.1884229526380747
-0.288086,-1.005859,0.197998,14.366149,-127.197258,111.961357,1.0648704518771286
-0.210693,-1.086426,0.097656,-6.393432,45.005795,57.449337,1.110967905954533
-0.145264,-1.282959,-0.170898,-7.041931,167.243942,7.011413,1.3024175796498603
-0.111084,-1.515625,-0.434326,5.592346,249.992355,-33.149719,1.5805372092921444
-0.090088,-1.63501,-0.640869,9.82666,249.992355,-59.730526,1.7584330021371302
-0.089355,-1.593018,-1.119629,1.724243,248.649582,-96.321098,1.9491689926709792
-0.332275,-1.460205,-1.584229,13.824462,249.885544,-153.709412,2.1799969821288747
-0.02002,-1.341064,-1.28833,39.253235,249.992355,-142.64679,1.8597439720015225
0.398438,-1.349609,-1.107178,66.902161,249.977097,-105.148308,1.7905419337197888
0.417725,-1.407471,-0.798096,88.890068,249.992355,-104.804985,1.6710553601487892
0.232422,-1.428467,-0.479736,73.554993,249.992355,-95.29113,1.5246916363215874
0.230469,-1.356445,-0.19165,54.908749,249.900803,-75.645447,1.3891683557027923
0.385986,-1.250488,0.05127,36.743164,237.548813,-57.991024,1.309707617462768
0.443115,-1.135986,0.136475,7.743835,204.254135,-35.415649,1.2269639444767722
0.367676,-1.021729,0.186768,-24.589537,159.011841,-20.149229,1.1018158086726657
0.262451,-0.894043,0.184814,-53.955074,112.487785,-13.908385,0.9499208534641189
0.281982,-0.800049,0.141602,-75.263977,64.826965,-16.868591,0.8600252188912835
0.368408,-0.758057,0.119385,-83.938591,11.802672,-16.098022,0.851250637555121
0.402588,-0.737793,0.100098,-74.569702,-42.274471,-2.876281,0.8464249631225441
0.352051,-0.708008,0.118652,-54.321285,-88.775627,14.411925,0.7995583354383844
0.320313,-0.68335,0.164795,-31.547544,-124.946587,25.741575,0.7724797942302439
0.302979,-0.656494,0.209229,-13.099669,-142.524719,35.545349,0.7527000869655855
0.229004,-0.660645,0.195557,4.524231,-137.268066,41.16058,0.7260421394726343
0.133057,-0.727783,0.162354,21.949766,-115.776054,42.724606,0.757450382305006
0.125,-0.823975,0.162109,32.829285,-99.510185,41.191097,0.8490224546535857
0.203857,-0.913818,0.182617,37.612915,-98.121635,38.703918,0.9539234677174055
0.229248,-0.997314,0.210449,38.650513,-102.97393,36.209106,1.0447385518401242
0.167236,-1.052002,0.21875,34.034729,-109.268181,34.706116,1.0874408720477635
0.076172,-1.061279,0.212402,24.414061,-113.769524,32.066345,1.085002257614702
0.003662,-1.032471,0.193848,13.626098,-116.302483,24.490355,1.050517407370768
-0.057861,-0.999512,0.159424,5.935668,-117.546074,13.46588,1.013798868238173
-0.086182,-0.985596,0.133057,2.63977,-118.865959,1.831055,0.9982639819151045
-0.08374,-0.995605,0.117432,1.770019,-120.269768,-8.323669,1.0059980011158074
-0.096191,-1.024658,0.115479,1.945495,-121.917717,-15.380858,1.035621612793978
-0.107178,-1.084473,0.126709,3.761291,-124.313347,-18.661499,1.0970979819934044
-0.107422,-1.177002,0.12085,4.302979,-124.999992,-14.122008,1.1880563608634063
-0.123291,-1.258301,0.081055,0.137329,-123.580925,-0.396728,1.2669222510900184
-0.169189,-1.248779,0.05542,-9.315491,-121.177666,14.770507,1.261406074569962
-0.197754,-1.142334,0.064941,-19.699097,-120.086662,19.78302,1.1611420867202256
-0.190674,-1.036133,0.070068,-23.658751,-120.330803,18.371582,1.055858746513472
-0.178467,-0.975342,0.085938,-18.814087,-117.897026,18.77594,0.9952526447576013
-0.1521,-0.961426,0.126953,-10.894774,-113.014214,22.338865,0.9816269289730187
-0.138184,-0.95874,0.162598,-5.79071,-108.177177,27.709959,0.9821992237117682
-0.143311,-0.950195,0.175293,-4.188538,-102.111809,32.203674,0.9767989642679809
-0.140869,-0.932861,0.16748,-4.081726,-95.069878,35.446167,0.9581874925514318
-0.119873,-0.912354,0.14917,-2.716064,-90.202324,36.148071,0.9322076197634301
-0.097168,-0.897705,0.146484,0.640869,-85.617058,34.454346,0.9147532178161496
-0.072754,-0.897461,0.161377,5.027771,-82.336418,33.14209,0.9147523857121117
-0.050537,-0.911865,0.191895,9.567261,-78.964233,33.813477,0.9332070818521472
-0.047852,-0.935059,0.207031,11.718749,-74.699402,33.927917,0.9588988384318754
-0.042236,-0.958252,0.189941,9.742737,-72.143555,33.294678,0.9778079354765945
-0.016357,-0.967529,0.171631,6.126403,-72.189331,33.27179,0.9827701244192357
0.013428,-0.945557,0.16333,2.937317,-74.302673,31.684874,0.9596536043453388
0.015137,-0.92041,0.177979,4.28009,-75.119019,28.106688,0.9375821144358504
-0.025635,-0.931641,0.165527,9.83429,-74.157715,27.999876,0.9465787309225789
-0.070557,-0.955811,0.15332,16.75415,-70.465088,29.266356,0.9705977438516947
-0.078125,-0.990967,0.159424,21.041868,-64.77356,26.405333,1.0067448149804399
-0.091797,-1.016357,0.151855,21.835325,-59.204098,23.04077,1.031730673035846
-0.099121,-1.022461,0.153809,24.223326,-52.841183,17.555237,1.038705289118622
-0.087402,-1.041504,0.11377,26.458738,-48.896786,12.832641,1.0513388152826852
-0.100342,-1.050049,0.05957,22.796629,-48.629757,10.604857,1.0565131349230827
-0.093262,-1.037354,0.045166,17.89856,-50.956722,8.560181,1.042516709466088
-0.084473,-1.044189,0.073975,16.998291,-51.528927,9.384155,1.0502088630720081
-0.14502,-1.056396,0.085205,16.685486,-48.118587,14.289855,1.069702389097547
-0.200684,-1.052002,0.07373,12.672423,-38.749695,14.923095,1.0735075168623647
-0.187744,-1.059082,0.068604,8.31604,-26.275633,9.979248,1.0777796625822924
-0.15625,-1.056885,0.081787,4.974365,-14.22119,5.081176,1.0714985203414888
-0.127686,-1.031006,0.092041,2.189636,-5.111694,2.372742,1.0429518839874639
-0.09082,-1.003174,0.099854,1.022339,0.396728,0.25177,1.0122139931812837
-0.070313,-0.978516,0.117676,1.228333,2.235413,1.197815,0.9880714150308165
-0.076416,-0.974854,0.135742,2.357483,3.067016,3.219604,0.9872211590803754
-0.091064,-0.98584,0.146973,2.76947,4.753113,5.332946,1.000886717078911
-0.092773,-0.982422,0.148682,1.396179,7.118225,6.835937,0.9979309358552826
-0.08667,-0.962402,0.147217,0.289917,8.789063,6.324768,0.9774467471903521
-0.074219,-0.9375,0.149902,0.350952,9.407043,4.684448,0.9523052659546728
-0.057617,-0.921631,0.14624,1.899719,7.225036,3.440857,0.9349382634431003
-0.040527,-0.92627,0.147217,4.669189,1.998901,1.480102,0.9387712158550666
-0.03833,-0.943604,0.170654,7.80487,-4.730225,0.061035,0.9596772819192918
-0.053711,-0.974121,0.205566,11.138915,-8.384705,0.75531,0.9970225546686494
-0.078613,-1.004639,0.2229,11.291503,-9.040833,2.937317,1.0320677952973827
-0.087646,-1.012695,0.210449,7.789611,-9.536743,4.386902,1.0380374588337358
-0.085693,-1.005371,0.182617,5.172729,-11.58142,3.692627,1.0254087509764094
-0.098389,-0.98999,0.166504,5.241394,-15.045165,1.899719,1.0087042071078123
-0.119873,-0.980957,0.160156,6.431579,-18.791199,1.00708,1.001147399893742
-0.122559,-0.969727,0.157227,8.674622,-22.094725,0.831604,0.9900058042956112
-0.131836,-0.976807,0.156006,12.397765,-23.429869,1.960754,0.997933123100441
-0.133545,-1.003174,0.153809,14.518737,-23.468016,3.265381,1.0236452265223535
-0.135742,-1.023193,0.14917,14.038085,-24.024961,5.073547,1.0428813425855312
-0.149902,-1.026123,0.137695,12.954711,-25.230406,7.003784,1.0461161186780366
-0.161865,-1.007813,0.133545,12.367248,-24.856565,7.637023,1.0294277965059035
-0.146484,-0.985107,0.140625,11.787414,-23.498533,8.255005,1.0058174557691868
-0.10791,-0.987305,0.152588,13.000487,-22.048948,9.109497,1.0048377127024046
-0.088135,-1.010498,0.171143,15.190124,-21.163939,11.512755,1.028670944801106
-0.080566,-1.030273,0.180664,14.343261,-21.957396,15.678405,1.0490914239383524
-0.065918,-1.024414,0.183105,11.032104,-24.032591,18.501282,1.0427351855313025
-0.063965,-0.998779,0.188965,7.118225,-26.56555,19.821167,1.018508116458087
-0.060547,-0.972656,0.179443,5.722045,-30.082701,18.867493,0.9909215023370923
-0.057129,-0.968018,0.16626,5.828857,-33.01239,16.929626,0.9838521019772231
-0.053711,-0.964111,0.172607,7.072448,-37.063599,14.579772,0.9809118555155708
-0.07959,-0.962158,0.181641,8.918762,-39.405823,12.771605,0.9823828367520474
-0.096924,-0.962891,0.189941,9.971619,-37.246704,11.009215,0.9862205245978204
-0.091064,-0.9646,0.189697,10.375976,-34.27887,9.178162,0.9872845404973178
-0.095703,-0.966553,0.193848,9.841919,-32.333374,7.667541,0.9904346586837518
-0.117188,-0.965088,0.195068,9.399414,-31.570433,6.446838,0.9915540326739637
-0.125977,-0.964844,0.187012,10.040282,-32.302856,5.615234,0.9908418829505544
-0.122803,-0.968262,0.182129,10.360717,-35.133362,5.180358,0.9928659779114197
-0.128174,-0.982666,0.189941,10.70404,-38.032532,4.737854,1.009028555251535
-0.137207,-1.007324,0.200439,11.138915,-39.69574,4.219055,1.0361965038283039
-0.149658,-1.032715,0.207275,10.009766,-39.321899,4.600525,1.063889427437833
-0.150635,-1.038086,0.206787,6.469726,-37.574768,5.676269,1.0691465334508643
-0.151855,-1.026855,0.202393,2.380371,-35.40802,6.324768,1.05756988350605
-0.162109,-1.01001,0.193115,-0.793457,-32.455444,5.699157,1.0410057306307205
-0.171631,-0.993652,0.191406,-2.029419,-27.908323,3.974914,1.0263711580617412
-0.167969,-0.985352,0.197021,-1.800537,-22.102354,2.410889,1.0187980287112848
-0.152344,-0.983887,0.203613,-1.564026,-15.403747,1.075745,1.016218764279621
-0.142334,-0.986572,0.207275,-2.403259,-7.904052,-0.480652,1.0181091318542428
-0.12793,-0.993164,0.206299,-3.982544,-0.63324,-2.494812,1.0223991848573628
-0.11377,-1.001221,0.203125,-5.798339,5.92041,-4.356384,1.0279333000569637
-0.102539,-1.000732,0.199707,-7.873535,12.20703,-5.722045,1.0256030753629788
-0.085693,-0.981689,0.202148,-10.124206,16.914368,-6.057739,1.0059425415370402
-0.068115,-0.952637,0.206787,-11.909484,18.310547,-5.92041,0.9771989410365731
-0.063232,-0.932373,0.220459,-12.695312,16.075134,-5.905151,0.9601665832729236
-0.061279,-0.918945,0.229492,-13.244628,12.359618,-5.218505,0.9491478319682345
-0.064453,-0.919678,0.239502,-12.939452,9.414673,-4.043579,0.9525350496947605
-0.066895,-0.928955,0.250488,-12.351989,6.54602,-2.708435,0.964456619653782
-0.083496,-0.943848,0.252441,-12.443542,2.059937,-1.571655,0.9805850741271764
-0.100342,-0.953857,0.246582,-12.680053,-3.227234,-0.839233,0.9903102423670069
-0.124756,-0.953857,0.237061,-12.619018,-6.019592,0.793457,0.9907598870089563
-0.142578,-0.960938,0.232422,-11.749267,-6.523132,2.693176,0.9988745226563744
-0.15918,-0.977539,0.232666,-10.581969,-5.508422,4.379272,1.0173761528938057
-0.185791,-1.004883,0.229248,-9.307861,-3.90625,4.898071,1.047312171644157
-0.219727,-1.034424,0.211914,-8.468628,-1.296997,4.219055,1.0785270092589243
-0.240234,-1.061768,0.185547,-7.690429,3.173828,1.525879,1.1043058225822229
-0.24292,-1.082275,0.171143,-6.91986,8.827209,-2.670288,1.122327594098087
-0.230469,-1.093262,0.169189,-5.897521,14.10675,-6.500244,1.1300277334322375
-0.208008,-1.094482,0.18335,-4.829407,17.601013,-9.429932,1.1290595196392437
-0.184814,-1.09082,0.195801,-3.356933,19.996643,-10.635375,1.1235579729577818
-0.158203,-1.08667,0.205078,-2.204895,22.27783,-10.82611,1.1171109453375705
-0.131104,-1.080078,0.204346,-2.189636,24.597166,-10.536193,1.107029372968938
-0.105469,-1.062256,0.207031,-3.219604,25.634764,-9.635925,1.0873699253050915
-0.082764,-1.0354,0.200195,-4.089355,24.993895,-8.293152,1.05781901936059
-0.070557,-1.003174,0.183838,-4.188538,22.994993,-6.721496,1.022317355212656
-0.060791,-0.973877,0.174316,-3.379822,20.339964,-5.119323,0.9912204722795025
-0.063721,-0.953369,0.168945,-2.471924,17.417908,-3.036499,0.9703170765409626
-0.077393,-0.942139,0.162354,-1.365662,15.571593,-1.327515,0.9591529560429868
-0.096924,-0.939209,0.146973,-0.740051,15.327453,-0.343323,0.9555673028028951
-0.111816,-0.939697,0.126221,-0.991821,16.517639,-0.808716,0.9547067667645391
-0.126953,-0.938232,0.105469,-1.823425,18.493652,-2.243042,0.9526384728710047
-0.135254,-0.940674,0.09375,-1.899719,20.553587,-4.043579,0.9549608794563262
-0.141113,-0.956543,0.087158,-1.121521,23.16284,-6.233215,0.9708161033800378
-0.141846,-0.979736,0.079834,-1.335144,27.19879,-8.712769,0.9931648327281832
-0.133057,-0.991699,0.076416,-3.875732,31.509398,-10.414123,1.0034991165447034
-0.125977,-0.991455,0.080078,-7.385253,35.575867,-11.726378,1.0026293969548268
-0.119141,-0.989502,0.079346,-10.406493,39.100647,-13.122558,0.99980226725138
-0.108643,-0.987549,0.073486,-12.611388,42.015072,-14.999389,0.9962211205580818
-0.089355,-0.997803,0.073486,-13.519286,43.411251,-17.89093,1.0044875982459913
-0.051025,-1.011719,0.094482,-13.526916,42.617794,-19.989014,1.0174014615234244
-0.013184,-1.029541,0.117432,-13.183593,39.581299,-19.66095,1.0363005177847786
0.003174,-1.045166,0.140381,-12.802123,34.515381,-17.753601,1.0545562417400982
-0.002686,-1.055176,0.158447,-12.748717,28.182981,-15.899657,1.0670093989187723
-0.007813,-1.052246,0.165771,-13.313293,21.118162,-14.923095,1.0652524170007784
-0.001465,-1.030762,0.158936,-13.694762,13.359069,-14.038085,1.0429444371417875
0.001709,-1.007324,0.147217,-12.893676,4.241943,-12.886046,1.0180262308732522
-0.009033,-0.985596,0.137451,-10.559081,-5.393981,-11.817931,0.9951752849151752
-0.032227,-0.980469,0.137695,-7.446289,-13.580321,-10.780334,0.9906149365495153
-0.063965,-0.989258,0.13501,-4.615784,-18.341064,-9.902954,1.000475193040287
-0.082275,-0.999268,0.122314,-3.410339,-19.798279,-9.277344,1.0100823857710817
-0.087891,-0.997314,0.106934,-3.730774,-18.882751,-9.094238,1.0068738366016867
-0.093018,-0.98291,0.098145,-4.524231,-16.693115,-8.911133,0.9921677567069996
-0.096436,-0.969482,0.093994,-4.768372,-13.450622,-8.750916,0.9787901319772282
-0.098389,-0.957764,0.095215,-5.294799,-8.804321,-9.124756,0.9675009928894129
-0.090332,-0.947998,0.101807,-7.026672,-2.738952,-9.529114,0.9577185095198902
-0.06958,-0.936035,0.098145,-9.567261,3.837585,-9.277344,0.9437347819435289
-0.05249,-0.927734,0.097656,-12.08496,9.925842,-9.483337,0.9343352017300857
-0.054443,-0.927734,0.093506,-14.198302,15.419005,-9.69696,0.9340223696684142
-0.068115,-0.94043,0.081787,-14.938354,20.217894,-10.902404,0.9464340185633651
-0.081299,-0.969482,0.072266,-14.503478,25.520323,-14.381408,0.9755650928979572
-0.095947,-1.0,0.059326,-14.381408,30.693052,-19.287109,1.0063425863417488
-0.09668,-1.026611,0.053467,-14.152526,34.706116,-26.542662,1.0325385648052086
-0.088379,-1.037842,0.060303,-13.96942,37.605286,-33.943176,1.0433423773690014
-0.054932,-1.04248,0.088135,-13.748168,37.330627,-39.405823,1.0476401353752156
-0.012939,-1.037354,0.115234,-14.640807,31.112669,-39.726257,1.0438149327313728
0.003418,-1.036377,0.135498,-14.915465,19.134521,-35.858154,1.0452026965412022
-0.014648,-1.052734,0.13623,-13.175963,5.15747,-31.318663,1.0616129480936074
-0.042725,-1.075195,0.141602,-12.031554,-5.752563,-27.732847,1.085320616248489
-0.067139,-1.079834,0.138184,-14.305114,-10.82611,-23.361204,1.0907079951724017
-0.090332,-1.059814,0.124756,-18.52417,-11.299132,-18.90564,1.070948011976305
-0.117676,-1.027344,0.099854,-21.842955,-8.934021,-14.831542,1.0388715785062175
-0.15625,-1.00293,0.077637,-23.223875,-3.356933,-10.887145,1.017993197997413
-0.190918,-0.99585,0.060059,-22.605894,6.16455,-8.56781,1.0157627620192622
-0.19458,-1.004883,0.051758,-20.881651,18.379211,-8.018494,1.0248561414427881
-0.15332,-1.009277,0.062012,-20.13397,28.854368,-6.988525,1.022737783243095
-0.094727,-0.987793,0.082764,-19.256592,33.332825,-3.669739,0.9957701015164093
-0.04541,-0.95752,0.109863,-16.769409,31.120298,0.38147,0.9648712335171985
-0.017578,-0.940918,0.136963,-12.580871,25.634764,3.326416,0.9509965994560654
-0.010986,-0.943604,0.163574,-7.835388,19.706726,4.920959,0.957739867859744
-0.009033,-0.953613,0.178955,-3.089905,14.030456,5.775451,0.9703011083591526
-0.005615,-0.967773,0.183105,1.022339,9.925842,5.043029,0.9849586533347479
0.007813,-0.977051,0.186523,3.974914,6.469726,3.219604,0.994726358904297
0.030762,-0.980713,0.185059,5.531311,2.494812,1.403808,0.9984944278732856
0.04834,-0.9729,0.178467,5.958557,-3.341675,1.060486,0.9903139076520131
0.046387,-0.956299,0.165771,6.843566,-10.505675,2.128601,0.9716684391349757
0.026123,-0.949951,0.147949,9.45282,-16.777039,2.281189,0.9617578802021848
0.002686,-0.95874,0.116699,12.84027,-21.598814,0.495911,0.9658199929577975
-0.019287,-0.981201,0.079102,16.311646,-24.536131,-2.197266,0.9845732665342889
-0.052979,-1.006348,0.047607,18.806458,-25.718687,-4.91333,1.0088654508872827
-0.09375,-1.028809,0.019287,19.744873,-23.147581,-7.6828,1.0332516679638124
-0.129883,-1.049316,-0.003906,18.77594,-15.1062,-9.651184,1.0573310353815402
-0.155029,-1.060547,-0.020508,15.632628,-2.555847,-11.558532,1.0720142294363446
-0.168945,-1.056885,-0.024658,10.902404,13.09204,-13.877868,1.0705869106307997
-0.147217,-1.049316,-0.026123,5.874633,29.548643,-16.654968,1.0599147720802837
-0.096924,-1.031982,-0.015625,1.045227,44.486996,-17.814636,1.0366413317657173
-0.033447,-1.016113,-0.004883,-2.76947,55.824276,-16.319275,1.0166750583480448
0.03125,-1.000732,0.018799,-5.210876,62.690731,-14.297484,1.0013962755697665
0.082275,-0.994385,0.036377,-6.813049,65.498352,-12.351989,0.9984457872007874
0.124512,-0.993408,0.053711,-7.987976,64.079285,-10.856627,1.0026203489501895
0.154053,-0.98999,0.06665,-8.827209,59.05151,-9.971619,1.0041188920685638
0.170654,-0.980225,0.086914,-9.399414,50.514217,-9.803772,0.9987581697973739
0.171631,-0.966064,0.102295,-9.635925,38.841248,-9.773254,0.9865095637052892
0.170166,-0.95459,0.107666,-8.560181,24.108885,-10.551452,0.9755975108680834
0.157715,-0.952881,0.117432,-5.981445,8.087158,-12.184142,0.9729576023702163
0.134277,-0.966064,0.138184,-2.342224,-7.072448,-13.442992,0.9850912560169236
0.104004,-0.993408,0.156494,1.25885,-21.331785,-13.710021,1.0110225806162787
0.06543,-1.017822,0.168457,2.906799,-33.531189,-12.687682,1.0337410069417774
0.024414,-1.025635,0.171143,2.693176,-44.624325,-10.734557,1.0401024579674831
-0.02002,-1.018555,0.168457,1.800537,-54.054256,-8.201599,1.0325855166880853
-0.071777,-1.01123,0.155762,1.88446,-60.798641,-5.607605,1.0256704398943162
-0.116211,-1.007813,0.147705,2.89154,-64.163208,-3.067016,1.025187205594666
-0.166504,-1.022461,0.130127,3.044128,-64.002991,0.183105,1.044070454838178
-0.181641,-1.035645,0.13623,3.318786,-59.188839,-0.389099,1.0602417798813628
-0.157471,-1.039551,0.152588,3.044128,-52.185055,0.801086,1.0624248186041212
-0.149414,-1.04126,0.156494,2.761841,-44.845577,6.721496,1.0635023756588418
-0.154541,-1.037354,0.161865,2.799988,-36.53717,13.359069,1.0612193553747502
-0.156494,-1.021729,0.161621,2.311707,-25.993345,16.685486,1.0462035505187317
-0.151611,-1.006348,0.153564,1.647949,-12.031554,16.555786,1.029224997034662
-0.136475,-0.995605,0.144287,1.113892,4.676819,14.717101,1.0152209020794438
-0.106689,-0.986572,0.139404,0.808716,22.28546,12.237548,1.0020680261943298
-0.076904,-0.980957,0.135986,0.50354,39.039612,9.017944,0.9933192101540169
-0.033691,-0.982666,0.138428,0.053406,53.024288,5.15747,0.9929400093766995
0.000244,-1.001465,0.140869,0.022888,64.598083,1.182556,1.011324023704569
0.019531,-1.014404,0.133057,-1.174927,73.852539,-2.449036,1.0232795807725277
0.035156,-1.013184,0.115479,-4.081726,80.92498,-5.332946,1.0203495291482227
0.05249,-1.000732,0.101563,-6.599426,85.975639,-8.522034,1.007241172159379
0.069824,-0.986572,0.087402,-8.033752,88.050835,-11.71112,0.9928941593966599
0.081299,-0.977539,0.068359,-8.506775,86.204521,-14.060973,0.9832929252277778
0.081787,-0.978027,0.055176,-7.843017,81.771843,-15.251159,0.9829904969398229
0.071777,-0.986084,0.046631,-6.820678,76.538086,-15.510558,0.9897919190142946
0.054443,-0.998047,0.041016,-6.210327,72.212219,-15.342711,1.0003720141597325
0.044434,-1.007813,0.03418,-6.599426,69.419861,-14.976501,1.0093709405986484
0.042725,-1.022217,0.027344,-8.117676,68.077087,-14.060973,1.0234748238476605
0.040771,-1.023926,0.02002,-9.933472,66.711426,-12.344359,1.0249329384486576
0.040771,-1.02417,0.011963,-11.245727,64.834595,-10.833739,1.0250510117599025
0.038086,-1.023682,0.009033,-11.657714,63.163754,-10.353087,1.0244300735574878
0.039551,-1.019043,0.017334,-11.58142,61.500546,-10.597228,1.0199575407858898
0.05249,-1.011963,0.034424,-11.550902,59.135433,-10.803222,1.0139079471258718
0.073975,-1.009277,0.056396,-11.650084,55.328365,-10.345458,1.0135545728622608
0.087158,-1.015625,0.071289,-11.795043,50.544735,-8.94928,1.0218477279467817
0.084229,-1.015625,0.072021,-12.252807,44.860836,-6.965637,1.0216534096781549
0.081299,-1.009521,0.072021,-12.390136,38.589478,-5.462646,1.0153468379243615
0.077881,-0.996338,0.070801,-11.535644,32.150269,-4.798889,1.0018820499469985
0.077637,-0.986816,0.06543,-9.712219,25.413511,-3.890991,0.992025406189277
0.076904,-0.984619,0.060791,-7.537841,18.64624,-2.601623,0.9894869105036206
0.059814,-0.975098,0.060303,-5.630493,12.71057,-1.068115,0.9787902104174316
0.034912,-0.966309,0.054443,-3.425598,8.979797,0.030518,0.9684709450850861
0.016846,-0.96582,0.045654,-0.579834,8.239746,-0.541687,0.9670451632845283
0.014648,-0.976074,0.038574,2.349854,9.803772,-2.380371,0.9769457358809649
0.02417,-0.98877,0.036133,3.845215,11.482238,-3.379822,0.9897251615923484
0.035889,-0.989502,0.038818,3.65448,12.33673,-3.105163,0.99091324819532
0.038818,-0.984375,0.045654,3.036499,12.985229,-2.159119,0.9861973765251052
0.042969,-0.993408,0.049561,2.494812,14.343261,-1.251221,0.9955712340892539
0.047119,-1.013916,0.043701,1.815796,16.677856,-0.984192,1.0159506054026446
0.05542,-1.023682,0.037354,0.267029,18.997192,-1.113892,1.0258613623877255
0.061523,-1.013184,0.033203,-1.594543,20.591734,-0.556946,1.0155930959759425
0.067627,-0.990723,0.031494,-2.372742,21.759031,-0.045776,0.9935277277932408
0.07666,-0.977295,0.028809,-2.090454,22.338865,-0.488281,0.9807202613926155
0.085449,-0.984375,0.025391,-1.045227,21.636961,-2.105713,0.9884029416725751
0.091309,-0.997559,0.023438,-0.045776,19.767761,-4.043579,1.0020033092789664
0.094238,-1.008301,0.030029,0.587463,17.250061,-5.622863,1.013140389129759
0.093506,-1.018555,0.043213,0.274658,14.419555,-6.446838,1.023750469318574
0.087158,-1.017578,0.054932,-1.083374,11.688231,-6.645202,1.0227800485304748
0.074951,-1.008057,0.054688,-3.02124,9.620667,-6.492614,1.0123178082963868
0.066895,-0.996338,0.045898,-4.432678,8.06427,-6.744384,0.9996354223780788
0.065674,-0.992188,0.038574,-4.592896,6.599426,-7.194519,0.9951070571029028
0.061279,-0.994141,0.037598,-3.753662,4.432678,-7.843017,0.9967372037432937
0.059326,-1.004883,0.038086,-2.655029,1.89209,-8.033752,1.0073529477601184
0.052002,-1.005371,0.047607,-2.326965,-0.213623,-7.461547,1.0078400081828465
0.041992,-0.999756,0.060303,-2.655029,-1.686096,-6.591796,1.0024529113175342
0.029541,-0.997559,0.071533,-2.914428,-2.044678,-5.737304,1.0005566446988396
0.017334,-0.999023,0.076416,-2.967834,-0.930786,-5.264282,1.0020912269554105
0.011475,-0.998779,0.072754,-3.547668,1.266479,-5.142211,1.0014910438850664
0.010254,-0.998047,0.062256,-3.753662,4.043579,-5.218505,1.0000393833549757
0.007324,-0.994141,0.053467,-3.211975,6.828308,-5.470275,0.9956046850763611
0.005615,-0.995361,0.048828,-2.227783,9.529114,-5.859375,0.996573741441144
0.009766,-0.99707,0.043701,-1.190186,11.650084,-6.126403,0.9980750157463115
0.029541,-1.000488,0.036133,-0.389099,12.33673,-5.805969,1.0015760093542578
0.040039,-1.001709,0.038086,0.640869,11.344909,-4.508972,1.0032320696618504
0.041504,-1.012207,0.046875,1.38092,9.292603,-2.876281,1.014141439095159
0.040771,-1.028564,0.050293,1.304626,7.621765,-1.464844,1.0305996130340822
0.039551,-1.031982,0.04541,0.0,6.866455,-0.595093,1.0337374899001197
0.048828,-1.017578,0.042725,-1.785278,6.118774,0.25177,1.019644342549401
0.055176,-0.996826,0.040039,-2.464294,4.798889,1.12915,0.9991544358971739
0.059082,-0.982666,0.042969,-1.808166,3.242492,1.63269,0.9853778388217385
0.059814,-0.983398,0.048096,-0.488281,1.960754,1.708984,0.9863886486654233
0.063232,-0.994629,0.043945,0.221252,0.823975,1.38855,0.9976052809052285
0.066406,-1.000488,0.035156,0.434875,-0.099182,1.342773,1.0033055064714835
0.070801,-1.005859,0.02832,0.564575,-0.976562,1.327515,1.008745325581239
0.071289,-1.005615,0.036133,0.930786,-2.624511,1.411438,1.0087860246033349
0.064697,-1.008545,0.047607,1.174927,-4.653931,1.89209,1.0117386744031287
0.055176,-1.012939,0.051758,0.62561,-5.91278,2.311707,1.015760158335126
0.054932,-1.011475,0.047852,-0.396728,-6.706237,2.189636,1.0140951701655028
0.049805,-1.006592,0.042236,-1.342773,-7.492065,1.953125,1.0087080212752348
0.046631,-0.997314,0.036621,-1.792908,-8.31604,1.731872,0.9990749533433415
0.048096,-0.996338,0.031982,-1.625061,-9.391785,1.76239,0.9980107633607965
0.048584,-0.997803,0.033447,-1.251221,-10.421752,2.5177,0.999544863262275
0.04126,-1.002197,0.039063,-0.473022,-10.879516,3.181457,1.0038063221448648
0.025879,-1.007324,0.03833,0.175476,-9.986877,3.173828,1.008385121130315
0.02832,-1.012939,0.041504,0.076294,-8.399963,2.449036,1.0141844122924588
0.044922,-1.016846,0.046875,-0.717163,-7.4234,2.098083,1.018916600819223
0.04834,-1.015625,0.055908,-2.01416,-7.644653,3.082275,1.0183106602059118
0.04541,-1.003906,0.054199,-3.570556,-8.262634,4.142761,1.0063929930881872
0.042969,-0.995117,0.047607,-4.020691,-8.621216,4.463196,0.9971813300994959
0.046875,-0.992188,0.043701,-3.250122,-8.682251,4.066467,0.9942555357502416
0.052246,-0.993164,0.037109,-1.876831,-8.964539,3.555298,0.9952293470818675
0.057129,-0.993652,0.040527,-0.526428,-9.841919,3.189087,0.9961176925815544
0.05542,-0.99292,0.049805,0.534058,-11.413573,3.326416,0.99571182619521
0.052979,-0.996826,0.056885,1.373291,-12.992858,3.761291,0.9998523650729642
0.046387,-1.003662,0.062012,1.655578,-13.603209,3.692627,1.0066452464284525
0.039063,-1.005859,0.053467,1.342773,-13.305663,3.036499,1.0080361927723627
0.040283,-0.999268,0.045654,0.541687,-12.939452,2.311707,1.0011211433333131
0.047852,-0.986816,0.041016,0.236511,-13.168334,2.319336,0.9888265490044248
0.048584,-0.977783,0.040283,0.778198,-14.22119,2.922058,0.9798176974488673
0.040771,-0.97583,0.035156,1.716614,-15.563964,3.349304,0.9773138736746757
0.040039,-0.985352,0.028809,2.906799,-16.433716,3.227234,0.9865858522733842
0.040039,-0.996338,0.030029,4.394531,-16.624451,2.784729,0.9975942424683494
0.035156,-1.007568,0.038086,5.340576,-16.403198,2.876281,1.0089002737416617
0.037109,-1.014404,0.046875,5.111694,-16.143799,3.479004,1.016164267587677
0.045166,-1.013428,0.050049,4.02832,-16.220093,4.386902,1.0156678498116398
0.047119,-1.007568,0.047363,2.990722,-17.250061,5.714416,1.0097805348460624
0.044189,-1.005615,0.037354,2.151489,-18.501282,6.538391,1.0072782720092794
0.040283,-1.00415,0.03125,2.006531,-19.767761,6.454467,1.0054434370410898
0.035645,-1.000488,0.030273,2.26593,-20.736692,5.79071,1.0015803805476624
0.035156,-0.997803,0.035645,2.525329,-21.560667,5.187988,0.9990582251150331
0.039307,-1.001221,0.047363,2.716064,-22.552488,4.974365,1.0031110531037926
0.033447,-1.007813,0.054199,2.479553,-22.926329,5.493164,1.009823388706659
0.025391,-1.010254,0.051025,1.846313,-22.567747,6.118774,1.0118603648834161
0.023193,-1.007568,0.045166,1.426697,-21.736143,6.17218,1.0088464488855575
0.021973,-1.004395,0.044189,1.853943,-20.942686,5.516052,1.0056066808026882
0.023438,-1.000488,0.047852,2.487183,-20.469664,5.012512,1.0019058797571756
0.02417,-0.996094,0.050293,2.89917,-20.606993,4.737854,0.9976556678458756
0.023926,-0.994873,0.052979,3.433227,-21.232603,5.004883,0.9965698741412967
0.02002,-0.999512,0.05957,3.852844,-21.545408,5.653381,1.0014857080577835
0.011475,-1.005859,0.062012,3.929138,-20.973204,5.851745,1.0078340595802466
0.008301,-1.007568,0.059082,3.532409,-19.65332,6.202697,1.009332880643943
0.006104,-1.001221,0.05542,2.914428,-18.363953,6.568908,1.0027722204254563
0.004395,-0.994141,0.046143,2.502441,-17.532349,6.713867,0.9952209907126156
0.006592,-0.987061,0.037354,3.013611,-17.356873,6.256103,0.9877895491960825
0.006592,-0.986572,0.032471,4.455566,-17.059326,5.447387,0.9871282244414856
0.004883,-0.98999,0.037842,5.874633,-16.25824,4.737854,0.990725017728431
0.004883,-0.994629,0.046875,6.439209,-15.014647,4.28772,0.9957449256486322
0.009521,-0.999512,0.052979,6.271362,-13.862609,4.302979,1.000960369857868
0.010986,-1.001221,0.059326,5.592346,-13.107299,4.623413,1.0030372661636255
0.013428,-1.003174,0.054932,4.806519,-12.306212,4.615784,1.0047665948288689
0.013428,-1.004395,0.049805,4.173279,-11.535644,4.173279,1.0057187306767235
0.011475,-0.999268,0.047363,3.326416,-10.917663,3.410339,1.0004556288101936
0.016602,-0.992676,0.041992,3.059387,-10.650634,2.502441,0.9937024682690488
0.018555,-0.988525,0.039063,3.440857,-10.810851,1.724243,0.9894705056842271
0.015137,-0.988525,0.0354,4.051208,-11.116027,1.190186,0.9892744636318073
0.016357,-0.997559,0.03833,5.043029,-11.215209,0.343323,0.9984291155760634
0.014893,-1.007813,0.047119,5.966186,-10.650634,-0.50354,1.0090238077364677
0.012695,-1.015869,0.051514,5.813598,-9.94873,-0.541687,1.0172534985843007
0.014893,-1.013916,0.053223,4.53949,-9.460449,-0.465393,1.0154211659375632
0.018311,-1.00708,0.052002,3.372192,-9.353638,-0.488281,1.0085879372295705
0.014648,-1.004639,0.052734,2.868652,-9.45282,-0.320435,1.0061286990146938
0.014404,-1.006592,0.046631,2.471924,-9.384155,-0.465393,1.0077744687384176
0.01416,-1.005371,0.045166,2.159119,-9.338379,-0.701904,1.006484635151973
0.013916,-1.006592,0.046631,2.006531,-9.803772,-0.694275,1.0077676119428525
0.015869,-1.008057,0.047363,2.243042,-10.681151,-0.518799,1.0092938096406814
0.012451,-1.010498,0.047607,2.311707,-11.772155,-0.320435,1.0116954392770583
0.004395,-1.009277,0.052246,2.456665,-12.649535,-0.205994,1.0106379288696818
0.002686,-1.009521,0.057373,2.716064,-13.053893,-0.190735,1.0111535616146539
0.004639,-1.009766,0.06543,2.39563,-13.420104,0.053406,1.0118942533570392
0.001221,-1.009033,0.068848,1.594543,-13.84735,0.740051,1.0113798164062797
-0.003418,-1.006592,0.068604,0.709534,-13.900756,1.167297,1.0089329244325411
-0.009277,-1.004395,0.064697,0.152588,-13.023376,0.793457,1.0065192897123232
-0.006592,-1.005615,0.057373,0.045776,-11.779784,0.022888,1.0072718817767128
0.001221,-1.006348,0.058838,0.198364,-10.856627,-0.007629,1.0080673083623932
0.002197,-1.002441,0.063965,0.198364,-10.467528,0.335693,1.0044821086087097
0.00293,-0.995117,0.068604,0.183105,-10.44464,0.518799,0.9974833018176295
0.005615,-0.994141,0.066895,0.671387,-10.429381,0.686645,0.9964049363240831
0.009521,-0.999512,0.062256,1.312256,-10.31494,0.564575,1.0014942321955729
0.01123,-1.004639,0.056396,1.678467,-10.360717,0.289917,1.0062833308949324
0.008301,-1.002197,0.056152,1.922607,-10.70404,-0.312805,1.0038031582506604
0.009277,-0.995117,0.067383,2.174377,-11.314391,-1.197815,0.9974389079572744
0.013428,-0.999756,0.074951,2.388,-12.08496,-1.365662,1.0026514963440687
0.013916,-1.008789,0.075195,1.914978,-12.557982,-0.572205,1.0116833445312816
0.007324,-1.011475,0.075439,0.87738,-12.481688,0.305176,1.0143107804425622
-0.008545,-1.002197,0.070557,0.152588,-11.619567,0.793457,1.0047139563492686
-0.012695,-0.993408,0.0625,0.297546,-9.971619,0.190735,0.9954530965791406
-0.009766,-0.993896,0.057861,0.984192,-8.300781,-0.732422,0.9956267015769514
-0.001953,-1.0,0.052979,1.083374,-6.988525,-1.205444,1.0014043082841215
0.001465,-1.00293,0.05249,0.595093,-5.958557,-1.235962,1.004303704675533
0.000977,-1.001465,0.053955,0.396728,-5.004883,-1.075745,1.0029178644231043
0.000244,-1.006348,0.056152,0.442505,-4.074097,-0.976562,1.007913390993492
0.004639,-1.008301,0.059082,0.282288,-3.280639,-0.938415,1.0100411425511338
0.010254,-1.006592,0.055664,-0.068665,-2.868652,-1.167297,1.0081820668292012
0.013916,-1.001709,0.052979,-0.015259,-3.158569,-1.518249,1.0032055373541355
0.018311,-1.000977,0.05127,0.289917,-4.089355,-1.594543,1.0024564130923599
0.024414,-1.000488,0.051514,0.694275,-5.271911,-1.686096,1.0021107592157665
0.026855,-1.002441,0.055176,1.037598,-6.942749,-1.731872,1.0043174500535177
0.020752,-1.005859,0.061279,1.289368,-8.666992,-1.373291,1.007937542323928
0.015869,-1.010742,0.064697,1.121521,-9.567261,-1.205444,1.0129348041873178
0.010254,-1.010986,0.065186,0.610352,-9.620667,-1.533508,1.0131372322188144
0.007324,-1.006592,0.065186,-0.312805,-9.429932,-1.754761,1.0087270741067673
0.003662,-1.001221,0.06958,-0.953674,-9.140015,-1.876831,1.0036425048218114
0.001953,-0.995361,0.067871,-0.87738,-8.712769,-1.899719,0.9976741989101453
0.003906,-0.998535,0.061768,-0.63324,-8.552551,-1.815796,1.0004512426325431
0.004639,-1.00293,0.056885,-0.350952,-9.002686,-1.525879,1.0045526409531758
-0.003174,-1.005127,0.065674,0.274658,-9.254456,-1.449585,1.007275252689651
-0.01001,-1.004639,0.069336,0.747681,-9.170532,-1.38855,1.0070785477394502
-0.007324,-1.009521,0.068604,0.740051,-8.895874,-1.274109,1.011875881337726
-0.003174,-1.013672,0.06543,0.419617,-9.025574,-0.968933,1.0157864356054376
-0.011475,-1.008057,0.071777,0.076294,-9.307861,-0.427246,1.0106742940250335
-0.021729,-1.003174,0.075684,-0.030518,-8.956909,-0.030518,1.0062595547735187
-0.014893,-1.000732,0.075195,0.213623,-8.18634,-0.038147,1.0036636016604368
-0.004883,-1.006104,0.069092,0.312805,-7.919311,0.091553,1.0084854024570709
0.001221,-1.006592,0.066895,0.427246,-8.666992,0.648498,1.0088131077310603
-0.007324,-1.005859,0.076904,1.029968,-9.368896,1.655578,1.008821190337019
-0.021973,-1.006592,0.08374,1.670837,-9.078979,2.288818,1.0103081979242767
-0.017822,-1.008301,0.081787,1.51062,-7.705688,2.120972,1.0117695605492387
-0.009033,-1.005127,0.07959,0.999451,-6.324768,1.815796,1.008313666136684
-0.007813,-1.002441,0.072754,0.442505,-5.355834,1.800537,1.005108027013017
-0.005127,-0.998779,0.069824,0.228882,-4.516602,1.663208,1.0012298277348712
-0.005127,-1.001953,0.069092,0.62561,-3.845215,1.449585,1.0043454608858449
-0.008301,-1.007813,0.069336,0.770569,-3.211975,0.961304,1.010229394972251
-0.002686,-1.01001,0.06665,0.404358,-2.433777,0.350952,1.0122102732120437
0.006836,-1.005371,0.064453,-0.25177,-2.548218,0.205994,1.0074580724506603
0.007324,-1.001465,0.063721,-0.656128,-3.257751,0.587463,1.0035168922554318
0.001465,-0.996826,0.066406,-0.358582,-3.967285,1.174927,0.9990365245260054
-0.009277,-0.993652,0.068359,0.175476,-4.219055,1.449585,0.9960438307193112
-0.015137,-0.996094,0.065186,0.640869,-3.555298,1.190186,0.9983394213397566
-0.012207,-1.001953,0.062012,0.846863,-2.655029,0.389099,1.0039443775438956
-0.007568,-1.005127,0.05835,0.564575,-1.922607,0.038147,1.006847696155183
-0.003906,-1.001709,0.056885,0.022888,-1.754761,0.450134,1.0033304942749421
-0.007568,-0.98999,0.05835,-0.267029,-1.876831,0.823975,0.9917369596944545
-0.012695,-0.987305,0.060791,-0.045776,-1.64032,0.549316,0.9892562214770246
-0.009766,-0.993408,0.061768,0.717163,-1.098633,-0.236511,0.9953743592458065
-0.00293,-1.001709,0.058838,0.915527,-0.556946,-0.907898,1.003439791828588
0.001221,-1.002686,0.064697,0.694275,-0.50354,-1.083374,1.0047718184971153
0.002197,-1.00293,0.070313,0.846863,-0.87738,-0.839233,1.0053941165920957
0.002441,-1.008057,0.067383,1.022339,-1.091003,-0.366211,1.0103095280254462
0.004395,-1.009033,0.063232,0.740051,-1.113892,-0.274658,1.0110218577943804
0.004639,-1.003418,0.060791,0.526428,-1.487732,-0.427246,1.005268495838798
0.001465,-0.996094,0.0625,0.946045,-1.899719,-0.701904,0.998053932942003
0.001221,-0.998047,0.067627,1.373291,-2.304077,-1.014709,1.000336301540137
0.001465,-0.999756,0.064697,1.426697,-2.6474,-1.091003,1.0018482457787705
0.001953,-0.997803,0.062012,1.312256,-2.906799,-1.159668,0.999730028138597
-0.001709,-0.997559,0.066162,1.541138,-2.922058,-0.900268,0.9997521139792603
-0.01001,-1.00293,0.068848,1.89209,-2.326965,-0.564575,1.0053401574114107
-0.011719,-1.011475,0.067871,1.609802,-1.052856,-0.358582,1.013817282959311
-0.009766,-1.012695,0.064941,0.419617,0.015259,-0.076294,1.0148220884775814
-0.00415,-1.00415,0.055908,-0.495911,0.801086,0.190735,1.0057137512552963
-0.008789,-0.997559,0.05542,-0.259399,1.25885,0.144958,0.9991359173816143
-0.008789,-1.000977,0.052734,0.732422,1.823425,-0.434875,1.0024036491384098
0.000977,-1.006836,0.05249,1.091003,2.281189,-0.984192,1.0082037916636697
0.010986,-1.008301,0.049316,1.083374,1.76239,-1.235962,1.0095660783985363
0.015625,-1.006348,0.052979,0.87738,0.350952,-0.869751,1.0078626950978988
0.009277,-1.003906,0.064209,0.602722,-0.617981,-0.160217,1.0060000572793224
0.00293,-1.003906,0.065918,0.274658,-0.37384,0.114441,1.0060720771694243
0.002197,-1.004639,0.060547,-0.50354,0.778198,-0.137329,1.0064642499060759
0.003418,-1.00293,0.05249,-0.938415,2.235413,-1.190186,1.0043084524806112
0.001221,-0.997559,0.055908,-0.572205,3.372192,-2.380371,0.9991251942504502
0.004639,-0.990723,0.060791,-0.152588,4.142761,-3.211975,0.9925971633704178
0.013428,-0.99292,0.059326,0.114441,4.356384,-3.677368,0.9947813889795084
0.01709,-1.000488,0.055664,-0.030518,3.837585,-3.570556,1.0021810151564439
0.016113,-1.010986,0.05127,-0.244141,2.662658,-3.196716,1.0124134204291249
0.016357,-1.018066,0.054199,-0.030518,1.800537,-2.792358,1.0196388887277692
0.003906,-1.018799,0.061523,0.061035,1.495361,-2.212524,1.0206624019557102
-0.001709,-1.009521,0.060303,-0.762939,1.609802,-1.937866,1.0113219180513195
0.002197,-0.996338,0.056641,-1.487732,1.953125,-2.120972,0.9979491169062679
0.003662,-0.991211,0.052734,-1.312256,2.151489,-2.212524,0.9926195300924721
0.000732,-0.994629,0.050781,-0.862122,2.548218,-2.342224,0.9959247428525911
-0.000732,-0.998779,0.048584,-0.50354,3.166198,-2.807617,0.9999602150690796
0.001953,-0.999756,0.048584,-0.473022,3.959656,-2.929687,1.00093769976008
0.008789,-1.00293,0.047119,-0.839233,4.264832,-2.677917,1.0040747141433253
0.012451,-1.004883,0.049805,-1.373291,3.814697,-2.151489,1.0061935246834974
0.016602,-1.00708,0.048828,-1.38092,3.189087,-1.747131,1.0083996858329538
0.018799,-1.012207,0.053223,-0.946045,2.5177,-1.63269,1.0137796116410114
0.014893,-1.009766,0.056885,-0.938415,1.556396,-1.205444,1.011476682593326
0.014893,-0.999512,0.057861,-0.991821,0.648498,-1.243591,1.0012961274837728
0.019531,-0.996094,0.058105,-0.808716,-0.366211,-1.274109,0.9979784104989446
0.020752,-0.995605,0.060791,-0.183105,-1.457214,-0.968933,0.9976750509108664
0.017822,-0.999268,0.058838,0.213623,-2.189636,-0.740051,1.0011573651289791
0.009521,-1.005615,0.059082,0.526428,-2.342224,-0.930786,1.0073940938828259
0.006104,-1.01001,0.05957,0.473022,-2.090454,-1.312256,1.0117835953483334
0.005615,-1.011719,0.058105,0.0,-1.953125,-1.716614,1.0134017240023823
0.002197,-1.002441,0.059814,-0.991821,-1.770019,-1.724243,1.0042263190566159
-0.004883,-0.991943,0.062744,-1.670837,-1.342773,-1.63269,0.9939374067183506
-0.008545,-0.991455,0.060547,-1.693725,-0.228882,-1.609802,0.9933388008423913
-0.008789,-0.997803,0.057129,-1.213074,1.472473,-1.800537,0.9994757605720112
-0.00708,-1.008545,0.056152,-0.793457,3.128052,-1.701355,1.010131768894039
-0.003662,-1.009033,0.054932,-0.747681,4.463196,-1.235962,1.010533784668776
0.00293,-1.009766,0.053223,-0.923157,5.462646,-0.831604,1.0111719178186267
0.009521,-1.011719,0.051025,-0.801086,6.072998,-0.648498,1.013049621206681
0.01001,-1.013428,0.056396,-0.419617,6.484985,-0.267029,1.0150453290863417
0.010986,-1.013916,0.053467,-0.62561,6.553649,0.061035,1.0153841969131685
0.020752,-1.01416,0.052002,-0.869751,6.347656,0.12207,1.0157043659982958
0.026123,-1.010742,0.053223,-1.029968,5.592346,0.617981,1.0124793772823226
0.026123,-1.008789,0.050049,-1.190186,4.394531,1.335144,1.0103675371126093
0.024658,-1.006348,0.047852,-1.373291,3.303528,1.945495,1.0077867472694806
0.023926,-1.005371,0.046387,-1.373291,2.525329,2.14386,1.0067249152007711
0.022705,-1.00293,0.046143,-1.174927,1.63269,1.991272,1.0042476180574191
0.025879,-1.003906,0.048584,-1.060486,0.701904,1.541138,1.0054140363715836
0.026123,-1.004883,0.049072,-1.152039,-0.396728,1.304626,1.006419552672741
0.020996,-1.001953,0.051758,-1.655578,-1.419067,1.342773,1.0035086132111675
0.02002,-0.999756,0.048584,-1.983642,-2.319336,1.373291,1.0011359872624699
0.02002,-1.002441,0.043701,-1.907349,-3.410339,1.243591,1.0035928139848351
0.016113,-1.003906,0.04541,-1.045227,-4.814148,1.159668,1.0050616666180239
0.008545,-1.005371,0.048096,-0.274658,-5.645751,1.182556,1.0065570475050085
0.003174,-0.99707,0.060303,-0.350952,-5.897521,1.579285,0.9988969471296826
0.001953,-0.988037,0.060791,-0.747681,-5.302429,2.052307,0.9899073053872266
-0.001953,-0.983154,0.055908,-0.75531,-3.700256,2.258301,0.9847442847709246
-0.008301,-0.984131,0.057373,-0.297546,-1.037598,2.075195,0.9858368997410272
0.0,-0.990234,0.05249,0.274658,0.656128,1.342773,0.9916242105031522
0.009521,-0.995117,0.054199,1.091003,0.816345,0.854492,0.9966373586872007
0.013428,-1.001221,0.057617,1.678467,0.038147,0.709534,1.0029673577509888
0.017334,-1.006104,0.05542,1.564026,-1.052856,1.213074,1.0077783004073864
0.015625,-1.003174,0.054932,1.327515,-2.082825,1.914978,1.0047983576444581
0.009033,-0.997803,0.054688,1.686096,-2.738952,2.151489,0.9993413827326476
0.002686,-0.990723,0.05249,2.281189,-2.998352,1.76239,0.9921161612558279
0.003662,-0.993164,0.050293,3.005981,-2.822876,0.839233,0.9944433251769556
0.006592,-0.99707,0.052002,3.479004,-2.731323,0.068665,0.9984469176516095
0.010254,-1.000732,0.05249,3.456115,-2.464294,-0.221252,1.0021601071884672
0.013184,-1.00708,0.051514,2.853393,-1.991272,-0.205994,1.0084828389476936
0.012207,-1.008789,0.052979,2.189636,-1.541138,0.015259,1.010252954368855
0.010498,-1.010254,0.04834,1.792908,-1.144409,0.137329,1.0114643385310231
0.014404,-1.007813,0.044189,1.548767,-1.00708,0.137329,1.0088841290782604
0.013672,-1.000244,0.045166,1.579285,-1.083374,-0.068665,1.0013565552169716
0.009277,-0.994629,0.044922,1.792908,-1.091003,-0.419617,0.9956861435482568
0.011719,-0.995117,0.037598,2.433777,-0.938415,-1.289368,0.995895972606577
0.013428,-1.000244,0.039307,2.906799,-0.984192,-1.922607,1.0011060937627938
0.016846,-1.007568,0.045166,2.845764,-1.25885,-1.739502,1.0087204914623278
0.018311,-1.011963,0.051758,2.372742,-1.373291,-1.190186,1.0134511811893063
0.018311,-1.018066,0.048828,1.235962,-1.281738,-0.328064,1.0194007291840632
0.016602,-1.016357,0.043213,-0.053406,-1.312256,0.267029,1.017410704298908
0.008301,-1.00415,0.045654,-0.541687,-1.213074,0.015259,1.0052215759806393
0.003174,-0.989258,0.041504,-0.205994,-0.602722,-0.923157,0.9901333480173263
0.010498,-0.987305,0.041504,0.724792,0.190735,-2.433777,0.988232742346154
0.018311,-0.995117,0.046875,1.327515,0.404358,-3.250122,0.9963886802021589
0.023926,-1.003906,0.049072,1.213074,0.076294,-2.906799,1.0053893631305237
0.02002,-1.009521,0.051758,0.801086,-0.457764,-2.029419,1.0110451722870744
0.012695,-1.012207,0.05835,0.282288,-0.648498,-1.335144,1.0139669108871356
0.011963,-1.010986,0.050293,-0.236511,-0.442505,-1.457214,1.012306866228813
0.014893,-1.005127,0.047119,-0.335693,-0.579834,-2.14386,1.0063410394786652
0.017334,-0.999756,0.050781,0.358582,-1.335144,-2.494812,1.001194904627965
0.019043,-0.99707,0.056152,0.976562,-2.220154,-2.319336,0.9988314511733198
0.016357,-0.998291,0.054688,1.243591,-2.967834,-1.88446,0.9999216216654184
0.019287,-1.002441,0.050049,1.480102,-3.829956,-1.274109,1.003874917134102
0.012695,-1.003906,0.044922,1.701355,-4.272461,-0.907898,1.0049907491837922
0.007324,-1.005859,0.047363,1.853943,-4.241943,-0.808716,1.0070001105392195
0.009521,-1.005615,0.050049,1.686096,-3.791809,-0.953674,1.0069047025746776
0.013428,-1.003662,0.048096,1.190186,-3.65448,-1.106262,1.0049034514041635
0.014648,-1.003662,0.041504,1.159668,-3.730774,-1.403808,1.0046265754816563
0.01416,-1.008545,0.037842,1.89209,-3.692627,-2.059937,1.0093540209406213
0.012695,-1.011475,0.044678,2.479553,-3.761291,-2.159119,1.0125408447731874
0.01709,-1.007324,0.04834,2.250671,-3.997802,-1.708984,1.008628011050655
0.024902,-1.002197,0.043701,1.747131,-4.768372,-1.319885,1.0034583767222236
0.027344,-1.003418,0.046387,1.617432,-6.027221,-0.823975,1.004861747121961
0.016357,-1.007813,0.050049,1.731872,-6.774902,-0.419617,1.0091875429368915
0.006592,-1.009766,0.049561,1.38092,-6.16455,-0.617981,1.0110030276616384
0.009033,-1.009277,0.046875,0.686645,-4.997253,-1.13678,1.0104053263136532
0.014893,-0.999512,0.045898,0.595093,-4.371643,-1.76239,1.000676104439893
0.014893,-0.990967,0.049561,1.12915,-4.325867,-2.13623,0.9923173329429452
0.016113,-0.991943,0.045654,1.89209,-4.615784,-2.220154,0.9931237746293259
0.022461,-0.998047,0.040771,2.494812,-5.149841,-2.189636,0.9991319158004113
0.023193,-1.004395,0.042725,2.906799,-5.928039,-1.747131,1.0055708114792314
0.017578,-1.010498,0.047363,3.067016,-6.538391,-1.312256,1.0117600742552555
0.014404,-1.008545,0.050781,2.761841,-6.67572,-0.976562,1.0099253448656489
0.020752,-1.006592,0.048828,1.831055,-6.973266,-0.839233,1.0079892229344518
0.025635,-1.00415,0.045654,1.083374,-7.888793,-0.602722,1.005514128911673
0.027588,-1.001953,0.041992,0.900268,-9.155273,-0.396728,1.0032119616596484
0.023438,-1.001709,0.037842,1.25885,-10.368346,-0.221252,1.0026975004900531
0.022705,-0.999023,0.042236,1.747131,-11.344909,-0.221252,1.0001731606326976
0.022705,-0.996582,0.044434,2.304077,-12.168883,-0.160217,0.9978304365497175
0.029053,-0.997559,0.03833,2.63977,-12.908935,-0.152588,0.9987177900638399
0.031982,-1.001953,0.043457,2.861023,-13.893126,0.213623,1.0034047903921928
0.022217,-1.006104,0.057617,3.082275,-14.770507,0.892639,1.0079973078307303
0.011963,-1.008301,0.057129,2.738952,-14.778136,0.946045,1.0099889814304905
0.01709,-1.009277,0.054688,1.983642,-14.060973,0.427246,1.010902026990252
0.019043,-1.006348,0.049316,1.518249,-13.931273,-0.099182,1.0077355807993484
0.017334,-0.998535,0.053467,1.441955,-14.518737,-0.190735,1.0001156602463537
0.013184,-0.994873,0.057129,1.785278,-15.449523,0.076294,0.9965991303558317
0.010254,-1.0,0.059082,2.159119,-16.098022,0.289917,1.0017963002726653
0.010254,-1.00708,0.056885,2.494812,-16.38031,0.350952,1.0087374158526092
0.004395,-1.010742,0.062012,2.479553,-16.166687,0.587463,1.0126520600546862
0.003174,-1.009033,0.068848,1.770019,-15.457152,1.12915,1.0113840598254455
0.002441,-1.000732,0.071777,1.159668,-14.511107,1.548767,1.0033057520187951
0.001221,-0.995117,0.070068,1.091003,-13.832091,1.525879,0.997581505018011
0.000977,-0.997559,0.068359,1.396179,-13.206481,1.403808,0.999898927837709
0.000977,-0.997803,0.069336,1.876831,-12.451171,1.098633,1.0002096091490023
0.001221,-1.001709,0.071533,2.067566,-11.45172,0.823975,1.0042606143880182
0.005127,-1.005859,0.071045,1.838684,-10.498046,0.831604,1.0083779083433948
0.005615,-1.003418,0.071533,1.304626,-9.788513,1.068115,1.0059802090687469
0.006104,-0.998535,0.070557,1.411438,-9.19342,1.38092,1.0010433034040036
0.007324,-0.999756,0.063965,1.754761,-8.598328,1.228333,1.0018269420099462
0.011475,-1.001465,0.060547,2.441406,-8.06427,0.778198,1.0033592382885603
0.01416,-1.003906,0.062744,2.754211,-8.262634,0.495911,1.005964498365623
0.016357,-1.006104,0.065918,2.952575,-8.94928,0.37384,1.0083937688170233
0.020264,-1.006104,0.06958,2.601623,-9.552002,0.648498,1.0087106943579016
0.018066,-1.007813,0.070068,1.88446,-9.986877,1.373291,1.0104073178421662
0.013916,-1.003418,0.067871,1.243591,-10.047912,1.686096,1.005807044328583
0.006836,-1.002197,0.06543,1.106262,-9.155273,1.449585,1.0043538433266435
0.007568,-1.003662,0.059814,1.060486,-8.003235,0.953674,1.0054712325392507
0.011719,-0.999512,0.053711,1.197815,-7.034301,0.419617,1.0010226993560134
0.01123,-0.998779,0.058594,1.708984,-6.523132,0.053406,1.0005592738948552
0.012695,-0.998535,0.060303,2.281189,-6.29425,-0.190735,1.0004347860100629
0.021973,-1.003906,0.060791,2.426147,-5.752563,-0.343323,1.005984898120245
0.025391,-1.013916,0.055176,2.02179,-5.348205,-0.419617,1.0157336013507676
0.024414,-1.014404,0.055908,1.518249,-5.317688,-0.511169,1.0162367947855462
0.019043,-1.011963,0.057861,1.12915,-5.447387,-0.862122,1.0137946757302487
0.021973,-1.01001,0.056396,0.923157,-5.432128,-1.625061,1.0118218823711018
0.027832,-1.012695,0.052002,0.88501,-5.569458,-2.532959,1.0144111549332449
0.025879,-1.016113,0.046875,1.235962,-6.057739,-3.578186,1.0175227845286807
0.018311,-1.017334,0.048096,1.655578,-7.080078,-4.386902,1.018634863674418
0.015137,-1.019287,0.048828,1.983642,-8.354187,-4.226685,1.0205681215489735
0.017822,-1.02124,0.046875,1.373291,-9.773254,-3.295898,1.022470550631655
0.012939,-1.016357,0.046875,0.465393,-11.222838,-1.670837,1.0175196483582025
-0.00293,-1.01123,0.049561,-0.305176,-12.023925,0.305176,1.0124480186760207
-0.018799,-1.004639,0.040771,-1.029968,-11.489867,1.525879,1.005641684280738
-0.022705,-1.000488,0.032227,-0.984192,-9.796143,1.205444,1.0012643680357352
-0.015869,-1.000732,0.028076,-0.312805,-7.980346,0.450134,1.0012515282190584
-0.006592,-0.996826,0.035645,0.328064,-6.385803,0.534058,0.9974848844794592
0.002197,-0.988037,0.039551,0.419617,-5.40924,1.037598,0.9888307346452173
0.016113,-0.98291,0.035889,0.38147,-5.233764,1.396179,0.9836969641053082
0.028076,-0.97876,0.033203,0.617981,-6.134033,1.914978,0.979725389374492
0.031738,-0.980713,0.032715,0.999451,-7.621765,1.907349,0.9817716436310431
0.034668,-0.985352,0.029297,1.457214,-9.429932,1.213074,0.9863968513417913
0.041748,-0.989258,0.029541,2.02179,-11.253356,0.37384,0.9905791017122257
0.04126,-0.995605,0.032471,2.26593,-13.107299,-0.152588,0.996988500167379
0.040039,-0.99585,0.031982,2.433777,-15.182494,-0.663757,0.9971675848848076
0.039063,-0.998779,0.0271,2.89154,-17.272949,-1.663208,0.9999099053464766
0.034912,-1.008545,0.021729,3.715515,-19.538879,-2.723694,1.0093829868835715
0.02417,-1.013428,0.023438,4.234314,-21.77429,-3.479004,1.0139871004741627
0.012207,-1.014893,0.026123,4.058838,-23.216246,-3.753662,1.0153025280314238
0.005615,-1.011475,0.02417,3.517151,-24.467466,-3.608703,1.011779320183013
-0.000488,-1.014404,0.018555,2.998352,-25.085447,-3.242492,1.0145738028280644
-0.011963,-1.019287,0.018311,2.555847,-25.039671,-2.540588,1.0195216498235828
-0.021729,-1.018311,0.022217,2.113342,-24.406431,-1.594543,1.0187850790284474
-0.025146,-1.017578,0.018799,1.663208,-22.796629,-0.999451,1.0180622327741071
-0.021729,-1.009277,0.02124,0.938415,-20.935057,-1.159668,1.0097342966196603
-0.018555,-1.000488,0.023926,0.366211,-19.546509,-1.182556,1.0009460423244603
-0.01416,-0.993164,0.021484,0.350952,-18.562317,-1.037598,0.9934972565397451
-0.005859,-0.992432,0.024658,0.740051,-17.662048,-1.029968,0.9927555688431065
-0.002441,-0.993652,0.030518,1.12915,-17.105103,-0.488281,0.9941235355372088
0.004395,-1.000732,0.02832,1.663208,-16.464233,-0.061035,1.0011422847173124
0.018555,-1.009277,0.030518,1.792908,-16.288757,-0.022888,1.0099087577984458
0.027344,-1.014404,0.033203,0.88501,-16.967773,0.511169,1.0153155217768515
0.022949,-1.007813,0.030029,-0.518799,-17.89856,1.235962,1.0085214129660311
0.014648,-0.995605,0.018311,-1.403808,-18.501282,1.091003,0.9958811036715176
0.006348,-0.988037,0.01001,-1.747131,-18.333435,0.144958,0.9881080966033018
0.010986,-0.990479,0.006836,-1.625061,-18.028259,-0.816345,0.9905635126194584
0.007813,-0.998779,-0.001709,-0.976562,-17.684937,-2.433777,0.9988110204092664
0.002197,-1.007568,-0.008545,-0.946045,-16.868591,-4.066467,1.007606628827937
0.001709,-1.008301,-0.007568,-1.480102,-17.105103,-4.981995,1.008330849426913
0.005127,-0.999756,-0.000977,-2.983093,-17.906189,-4.646301,0.999769623560348
-0.015381,-0.994141,0.009766,-5.15747,-15.151977,-3.707886,0.9943079391204719
-0.015137,-0.996338,0.001709,-6.332397,-12.763976,-5.340576,0.9964544443646183
-0.005371,-1.005859,-0.010498,-5.775451,-13.763427,-8.369446,1.0059281204569241
-0.010986,-0.999268,-0.001221,-6.050109,-14.244079,-9.963989,0.9993291344001735
-0.019043,-0.992188,0.009277,-7.026672,-12.275695,-10.643004,0.9924140899453211
-0.027344,-0.981689,0.024414,-8.293152,-8.598328,-10.94818,0.9823731625268475
-0.016602,-0.975586,0.033447,-9.353638,-5.828857,-11.268615,0.9763003490775777
-0.008545,-0.967285,0.033203,-10.025024,-3.730774,-10.604857,0.9678924152296059
-0.000488,-0.950195,0.051514,-10.490417,-1.922607,-9.796143,0.9515904940493048
0.012695,-0.92749,0.052246,-10.986327,-1.777649,-9.277344,0.9290470965677683
0.018799,-0.896729,0.068359,-11.878966,1.113892,-8.277893,0.899527239566985
0.03418,-0.865234,0.085693,-12.96997,6.317138,-7.408142,0.8701387460658213
0.044434,-0.835205,0.093262,-13.015746,12.702941,-6.904602,0.8415697077634151
0.055176,-0.799316,0.085693,-11.177062,19.065857,-8.201599,0.8057876575630828
0.070557,-0.773926,0.066406,-7.232666,25.726316,-11.192321,0.7799676278929787
0.089111,-0.754639,0.061523,-1.525879,32.165527,-14.755248,0.7623685920675116
0.108398,-0.744141,0.072998,4.653931,39.352417,-18.066406,0.755529392074855
0.126221,-0.747803,0.077637,10.910033,47.737118,-21.110533,0.7623441292611888
0.150635,-0.778564,0.083008,17.112732,56.434628,-24.177549,0.7973350195400928
0.183594,-0.839111,0.079102,23.269651,63.674923,-25.367735,0.8625955909700675
0.21875,-0.914063,0.078857,28.839109,68.069458,-24.101255,0.9431761006927603
0.23291,-1.000732,0.084717,33.905029,68.54248,-22.071836,1.0309648752566696
0.252686,-1.098145,0.084229,37.071228,64.567566,-19.363403,1.1299854778102238
0.29541,-1.178223,0.084717,36.834717,57.929989,-17.784119,1.217642589563128
0.333008,-1.224121,0.092041,30.708311,50.148006,-14.167785,1.2719426466574664
0.359131,-1.237061,0.099854,23.91815,41.816708,-10.131835,1.2920007020888185
0.384033,-1.237793,0.107178,18.409729,32.730103,-4.638672,1.3004230002664516
0.391846,-1.234131,0.098145,13.526916,21.942137,3.27301,1.2985588372892467
0.395996,-1.231201,0.083496,11.054992,8.880615,7.644653,1.296009381305938
0.382813,-1.218262,0.077881,9.628296,-4.058838,9.239197,1.2793645077826725
0.359375,-1.199463,0.075928,8.613586,-13.22174,7.438659,1.2544428803967123
0.340332,-1.143555,0.070557,4.234314,-18.1427,6.179809,1.195208014739694
0.325928,-1.066162,0.038086,-1.525879,-24.681089,8.995056,1.115518271846768
0.301514,-1.010986,0.001953,-0.808716,-37.017822,9.57489,1.0549915632842757
0.268555,-0.981934,-0.010742,3.166198,-54.656979,5.050659,1.0180528271877642
0.237793,-0.97168,-0.003662,5.622863,-74.234009,-0.289917,1.0003604067999692
0.216309,-0.973633,0.001465,6.637573,-91.567986,-4.180908,0.9973730236952472
0.187012,-0.984375,0.011475,6.41632,-103.446953,-6.04248,1.002047555954307
0.152832,-0.989502,0.018066,4.623413,-110.023491,-4.676819,1.0013981269125682
0.119629,-0.978027,0.035156,2.670288,-111.587517,-2.418518,0.9859431295495699
0.109375,-0.951904,0.054443,0.991821,-111.618034,0.274658,0.9597125382582015
0.094238,-0.926025,0.065186,0.091553,-110.977165,3.829956,0.9330875177950887
0.07373,-0.912598,0.088135,1.121521,-106.185905,5.332946,0.9198037838196798
0.06665,-0.891113,0.108398,0.63324,-96.145622,7.644653,0.9001526135456144
0.065674,-0.861328,0.110107,-0.045776,-84.487907,11.184691,0.870817173297013
0.070068,-0.843262,0.121338,1.274109,-75.164795,13.137816,0.8548235113238286
0.080322,-0.849121,0.133057,5.081176,-68.16864,12.275695,0.8632278155701425
0.095703,-0.879883,0.13623,9.788513,-60.424801,8.766174,0.89549526564801
0.117188,-0.921143,0.146729,11.940001,-52.352901,7.133483,0.940088747530785
0.127441,-0.964111,0.151611,11.253356,-44.830318,7.957458,0.984244443277685
0.115479,-0.991699,0.1521,9.216309,-37.849426,9.20105,1.0099191631224749
0.106934,-0.999756,0.146729,6.111145,-30.036924,9.132385,1.0161084289252795
0.10083,-0.996338,0.138672,3.005981,-20.278929,7.545471,1.0109827014979038
0.105225,-0.990234,0.130127,0.595093,-8.987427,5.508422,1.0042752170147384
0.117676,-0.990723,0.127686,-1.609802,1.609802,4.463196,1.0058247453214701
0.143555,-1.0,0.126709,-3.211975,10.032654,3.562927,1.0181665918237546
0.154297,-1.018066,0.132568,-5.134582,16.311646,3.257751,1.0381908394842443
0.160156,-1.048828,0.141602,-5.546569,20.507811,2.403259,1.0703930326398805
0.170654,-1.084961,0.160889,-6.233215,23.460386,2.418518,1.1100218149018515
0.167969,-1.110352,0.182129,-10.025024,26.969908,4.524231,1.1376581742799547
0.154541,-1.12207,0.190918,-15.342711,30.387877,6.378173,1.1486399297887044
0.14502,-1.119873,0.179932,-18.028259,31.60858,5.065917,1.143469221777744
0.134521,-1.114746,0.164063,-16.662598,30.616758,2.388,1.1347560142717905
0.120117,-1.09668,0.162598,-13.916015,29.678343,-0.63324,1.1151561440861097
0.099121,-1.075684,0.166504,-11.344909,27.763365,-2.532959,1.0929979974881017
0.105225,-1.066895,0.175781,-7.286071,24.284361,-3.356933,1.0863867642837886
0.107422,-1.073486,0.170654,-1.251221,18.104553,-1.152039,1.0922611711472674
0.107422,-1.068115,0.155029,3.753662,9.056091,0.434875,1.084639631467521
0.095947,-1.035645,0.14624,6.385803,-2.609253,1.502991,1.0503106828143756
0.069092,-0.996582,0.130615,8.583069,-13.389586,2.441406,1.0074768808330044
0.02832,-0.963379,0.120117,11.154174,-18.64624,3.822326,0.9712513648536099
-0.001465,-0.955811,0.103271,13.84735,-14.73236,6.408691,0.9613749078205651
-0.004639,-0.977783,0.084473,15.396117,-3.219604,9.109497,0.9814360922337225
0.012207,-1.008789,0.055908,13.786315,11.032104,10.2005,1.010410788656772
0.023438,-1.026611,0.032959,9.82666,23.956297,8.384705,1.0274073100995533
0.023438,-1.023926,0.01001,4.959106,33.988953,2.990722,1.0242431319857603
0.001465,-0.992676,-0.005127,-1.281738,43.403622,-4.02832,0.9926903209611747
-0.009033,-0.959717,-0.013672,-5.676269,52.207943,-13.015746,0.9598568845208123
-0.004883,-0.956299,-0.016846,-8.079529,61.584469,-22.666929,0.9564598312558662
-0.004395,-0.989014,-0.00293,-11.039733,70.655823,-30.563353,0.9890281053241106
0.003174,-1.046875,0.01709,-15.098571,77.331543,-37.330627,1.0470192968618106
0.028564,-1.095703,0.03418,-22.28546,79.89502,-43.014523,1.0966080606602342
0.04541,-1.106934,0.034424,-32.218933,75.088501,-47.676083,1.108399729444211
0.032227,-1.073975,0.037109,-41.580196,64.338684,-49.774166,1.075099045686024
-0.000244,-1.029541,0.028809,-49.461361,51.124569,-48.84338,1.0299440221186782
-0.027588,-0.994385,0.025879,-53.726192,37.521362,-47.58453,0.9951041898263718
-0.032715,-0.983643,0.020508,-55.442806,24.223326,-46.165462,0.9844005286152584
-0.029785,-0.992676,0.011475,-56.121822,11.001586,-44.258114,0.9931890368031657
-0.016113,-1.009766,0.019531,-55.77087,-3.631592,-43.121334,1.0100833943224687
-0.035645,-1.02832,0.026367,-55.603024,-15.983581,-39.863586,1.029275379630738
-0.093994,-1.034668,0.034912,-56.53381,-24.16992,-36.979675,1.0395150744476964
-0.148438,-1.025391,0.040527,-57.518002,-26.06201,-34.843445,1.036871728061866
-0.171387,-1.022949,0.022217,-54.672237,-22.590635,-35.369873,1.0374448204405862
-0.144043,-1.022705,0.013916,-46.981808,-20.172117,-38.200378,1.032892810474543
-0.09082,-1.023193,0.024902,-35.118103,-21.697996,-38.734436,1.0275175410926083
-0.059082,-1.02417,0.053467,-21.987913,-24.337767,-34.698486,1.0272651029374062
-0.04541,-1.023682,0.081543,-10.795592,-24.719236,-28.96118,1.0279280938241742
-0.053955,-1.016846,0.104248,-2.449036,-19.599915,-22.621153,1.023598835113151
-0.081787,-1.007568,0.119385,3.456115,-8.079529,-18.157959,1.0179072483374896
-0.099121,-1.001953,0.125,8.239746,9.056091,-18.043518,1.0145736971013983
-0.100342,-1.01001,0.11084,12.115478,30.662535,-23.193357,1.0210162695393252
-0.061523,-1.017578,0.095215,12.405395,53.512569,-29.899595,1.0238730203682487
-0.01416,-1.018555,0.058838,9.94873,74.172974,-36.03363,1.0203512649421278
0.006836,-1.02832,0.028809,7.392883,90.713493,-41.015621,1.0287461843316843
0.026367,-1.044189,0.005859,3.27301,100.593559,-42.060848,1.044538278040111
0.050781,-1.04834,-0.009277,-2.822876,106.025688,-38.757324,1.0496101792046417
0.079102,-1.032227,-0.027832,-9.506226,108.27636,-32.089233,1.035627503573075
0.116455,-0.994385,-0.053711,-13.916015,106.544487,-23.101805,1.0026206494836418
0.144775,-0.959229,-0.073242,-13.885497,100.868217,-15.014647,0.9728537740225918
0.145996,-0.940918,-0.078613,-12.054442,92.491142,-8.155823,0.9554169343846696
0.150391,-0.939941,-0.077148,-11.07788,83.053581,-2.449036,0.9550174607126302
0.159424,-0.945801,-0.068604,-10.757445,75.508118,2.906799,0.9615934963345998
0.166748,-0.949219,-0.057861,-11.405944,70.983887,8.522034,0.9654892546196462
0.171387,-0.944824,-0.047363,-13.275146,69.267273,13.34381,0.9614099794125293
0.179199,-0.945068,-0.051514,-15.037536,69.869995,15.220641,0.9632857823205946
0.184814,-0.945313,-0.061035,-15.846251,72.044373,14.617919,0.9651415200839719
0.196533,-0.945557,-0.049805,-14.709472,74.996948,11.253356,0.9670490154914589
0.222656,-0.940674,-0.02832,-14.129638,78.796387,6.935119,0.9670808089358407
0.253418,-0.92041,-0.000488,-15.228271,83.557121,4.852295,0.9546598813022362
0.299316,-0.888184,0.028564,-16.525269,87.638847,4.898071,0.9376975993400004
0.330322,-0.856689,0.050781,-16.471863,89.088432,7.003784,0.9195691253875371
0.339111,-0.851563,0.055176,-13.069152,87.966911,8.293152,0.9182593338844969
0.33252,-0.874512,0.055176,-8.087158,85.945122,5.218505,0.9372220545420386
0.31958,-0.91333,0.039551,-3.120422,85.472099,-2.311707,0.968435515096901
0.311279,-0.961914,0.017334,0.572205,90.270988,-13.053893,1.0111743800121717
0.312256,-0.994385,-0.000977,1.457214,99.479668,-22.697447,1.0422601845460662
0.332275,-1.005371,-0.030518,1.312256,107.116692,-29.243467,1.0592964040295805
0.388672,-0.999756,-0.053223,2.01416,103.721611,-32.447815,1.0739695856256823
0.446045,-0.993896,-0.078125,5.592346,79.391479,-28.244017,1.0921945414924945
0.452881,-1.000977,-0.098877,12.321471,37.406921,-18.722534,1.1031014530944105
0.391113,-1.023438,-0.099854,17.494202,-10.116576,-7.087707,1.1001661419662943
0.306396,-1.039063,-0.085938,17.425537,-52.314754,4.53186,1.0866994831272352
0.210693,-1.035156,-0.058105,11.474608,-81.718437,15.815734,1.0579771621400909
0.134521,-1.002686,-0.042236,3.234863,-96.969597,25.451658,1.012550736374726
0.085205,-0.969727,-0.043457,-2.677917,-101.318352,32.073975,0.9744325822769885
0.04126,-0.954102,-0.054443,-5.393981,-96.961967,35.652161,0.9565443294761617
0.009766,-0.955322,-0.059326,-6.385803,-85.609428,35.881042,0.9572121356919793
0.000488,-0.954346,-0.049561,-6.340026,-69.503784,33.935547,0.9556321565231048
0.013672,-0.938965,-0.028809,-5.729675,-51.506039,31.204222,0.9395063348855078
0.03833,-0.912842,-0.007813,-5.111694,-34.164429,28.686522,0.9136797846253358
0.061523,-0.885254,0.010742,-3.799438,-18.783569,26.924131,0.8874542887433696
0.084961,-0.873047,0.022705,-1.304626,-5.79071,25.192259,0.8774650720997389
0.10376,-0.880127,0.025391,2.510071,4.936218,23.54431,0.8865857976586361
0.118896,-0.901855,0.020508,6.301879,14.137267,22.254942,0.9098897064507324
0.129395,-0.92334,0.012939,8.285522,21.65222,21.575926,0.9324522718863417
0.131348,-0.941406,-0.004883,8.476257,27.404783,21.14105,0.950537425685596
0.137451,-0.959961,-0.029541,8.224487,31.723021,20.042419,0.9702013036494024
0.143799,-0.979736,-0.047607,7.278442,34.690857,19.462585,0.991376421217491
0.144531,-1.005615,-0.059326,5.645751,37.490845,20.065308,1.017678884748033
0.131348,-1.032471,-0.072021,3.64685,40.824886,20.400999,1.0432812120353743
0.120605,-1.053711,-0.0896,1.953125,43.754574,18.806458,1.0643686379943746
0.11377,-1.072266,-0.104736,1.159668,46.31805,14.60266,1.0833594128229098
0.116699,-1.084473,-0.103027,1.274109,47.058102,8.69751,1.0955888403315361
0.140869,-1.091064,-0.084229,0.793457,44.258114,2.227783,1.1033400435486787
0.169434,-1.085938,-0.064453,-1.182556,38.543701,-2.731323,1.1009647630187809
0.198486,-1.065918,-0.031982,-2.937317,30.456541,-5.378723,1.0847122767093584
0.227295,-1.040771,0.013184,-3.318786,20.088194,-5.15747,1.065383081019217
0.245117,-1.027344,0.06543,-2.815246,7.377624,-2.449036,1.0582056146727818
0.246094,-1.023438,0.108887,-3.532409,-7.759094,0.221252,1.0582268071869094
0.236328,-1.015381,0.146729,-6.965637,-22.483824,2.807617,1.0527957533092542
0.220459,-1.002686,0.163086,-10.803222,-34.751892,4.417419,1.0395087439136816
0.20166,-0.987305,0.163818,-12.557982,-43.67828,5.15747,1.0209183394126093
0.18335,-0.969727,0.15625,-12.748717,-51.170345,4.859924,0.9992005502045123
0.164307,-0.944824,0.1521,-11.505126,-58.868404,4.066467,0.9709910356048608
0.135986,-0.917969,0.144531,-8.781433,-66.688538,2.906799,0.9391743645979697
0.097168,-0.898682,0.143311,-4.585266,-73.08197,1.174927,0.9152098120480352
0.049805,-0.894043,0.156738,0.808716,-74.630737,-0.572205,0.9090435767981643
0.022217,-0.903076,0.172607,6.744384,-70.823669,-1.747131,0.9196918143128164
0.010742,-0.924805,0.179199,11.627196,-61.18774,-1.853943,0.9420679169730811
-0.000244,-0.945068,0.187012,13.397216,-44.746395,-0.434875,0.9633935189236017
0.007568,-0.965088,0.203857,13.359069,-24.620054,1.037598,0.9864125905608666
0.0354,-0.988281,0.224854,12.130736,-5.607605,2.967834,1.0141557159908925
0.05542,-1.015381,0.254639,9.017944,10.360717,5.500793,1.0482895458230994
0.068604,-1.032471,0.270996,3.601074,22.697447,8.682251,1.069645598632089
0.084717,-1.044922,0.275391,-1.930237,33.103943,11.482238,1.0839184282288035
0.099609,-1.050781,0.280762,-4.714966,41.519161,12.268065,1.0921950208117597
0.109131,-1.059326,0.289795,-6.141662,46.035763,11.550902,1.1036585937064052
0.126221,-1.070068,0.293457,-8.522034,46.279903,9.69696,1.1167337535482664
0.114258,-1.065186,0.2854,-12.092589,46.470638,11.352538,1.1086610235595007
0.112061,-1.056641,0.269531,-11.116027,47.20306,11.642455,1.0962184228350662
0.094971,-1.036621,0.236328,-9.117126,49.255367,12.474059,1.067451878103177
0.054443,-1.006836,0.191406,-9.246826,57.41119,15.686034,1.0263133186220474
0.023193,-0.977539,0.148438,-8.110046,72.883606,17.585754,0.9890168105821054
0.017822,-0.977051,0.108398,-3.456115,91.529839,14.884948,0.9832072043516565
0.037842,-0.992676,0.084473,0.801086,108.459465,11.390685,0.9969821190317306
0.065918,-1.00293,0.073975,2.571106,120.910637,9.216309,1.0078125164181084
0.0896,-0.997314,0.064209,2.296448,128.27301,6.713867,1.0033873480750093
0.102295,-0.983398,0.05127,1.152039,131.019592,3.738403,0.9900325784180034
0.111816,-0.975586,0.041504,1.235962,130.996704,0.38147,0.9828496544578932
0.13623,-0.977295,0.048584,1.197815,128.822327,-2.738952,0.9879395401445374
0.161865,-0.977783,0.053955,-0.488281,123.489372,-4.547119,0.992557814607794
0.190186,-0.96875,0.05249,-3.173828,115.112297,-5.546569,0.9886366760322014
0.213623,-0.958496,0.055176,-4.943848,104.148857,-5.821228,0.9835617718887817
0.227539,-0.95459,0.065918,-5.134582,92.689507,-4.966736,0.9835452441779179
0.240479,-0.968018,0.089111,-3.700256,83.32061,-2.960205,1.0014138845082987
0.250244,-0.99585,0.115967,-1.899719,74.920654,-0.732422,1.0333380991355152
0.266113,-1.017822,0.129883,-2.723694,65.261841,2.067566,1.0600223328505867
0.263672,-1.009277,0.129883,-5.012512,56.266781,5.615234,1.0512052986938374
0.252441,-0.996338,0.116943,-5.851745,50.567623,8.552551,1.0344522869489923
0.246094,-0.984619,0.103027,-4.936218,48.477169,10.017395,1.0201232252654577
0.243164,-0.983398,0.08252,-2.540588,48.278805,9.635925,1.0163709498504963
0.240234,-0.986084,0.067627,0.236511,48.362728,8.399963,1.017176209386063
0.228271,-0.993408,0.048828,2.799988,48.46191,6.477355,1.0204662059514757
0.212158,-1.007324,0.032959,4.508972,49.285885,3.601074,1.0299509471916612
0.195068,-1.025879,0.026611,5.317688,49.499508,0.007629,1.0445991540232071
0.187012,-1.047363,0.013428,4.371643,46.836849,-3.890991,1.064012712845575
0.178711,-1.052734,-0.001221,2.113342,40.016174,-7.499694,1.0677958546079864
0.149414,-1.048096,-0.003174,-1.289368,31.272886,-9.147644,1.0586972385380062
0.119141,-1.040527,0.007324,-5.729675,23.147581,-7.797241,1.0473512574996031
0.093018,-1.041748,0.018311,-10.665893,18.943787,-5.233764,1.04605283640407
0.065186,-1.050781,0.028076,-15.907287,21.133421,-2.525329,1.0531752875628064
0.042725,-1.062988,0.042725,-21.102903,29.731749,-0.473022,1.0647038740391623
0.040527,-1.062744,0.055664,-26.542662,42.16003,0.732422,1.0649721724819854
0.05542,-1.047119,0.067627,-31.738279,54.76379,1.960754,1.0507630502116068
0.071045,-1.021484,0.073975,-34.805298,66.246033,2.281189,1.0266203070785227
0.084473,-1.006348,0.07666,-34.484863,77.041626,1.342773,1.0127925456049724
0.104248,-1.006348,0.075439,-32.073975,86.303703,-0.518799,1.0145417612543113
0.141846,-1.015137,0.070313,-29.281614,91.850273,-3.257751,1.027408066181106
0.188477,-1.030029,0.074951,-26.718138,90.423576,-6.248474,1.0498099698378751
0.213623,-1.039795,0.085449,-24.955748,83.778374,-7.606506,1.0649459891257396
0.220459,-1.050293,0.098877,-23.834227,76.095581,-6.454467,1.0777264113210736
0.231689,-1.056885,0.097412,-23.864744,69.137573,-4.600525,1.0863585014579673
0.238281,-1.049561,0.080322,-25.260923,62.637325,-2.998352,1.079262596111808
0.236328,-1.029053,0.058838,-25.878904,54.740902,-1.00708,1.0574795083768762
0.228027,-1.008545,0.040527,-24.147032,44.570919,-0.419617,1.0347955196477225
0.225098,-0.988281,0.017578,-21.446226,32.920837,-1.571655,1.0137442629425826
0.21875,-0.967773,-0.001953,-18.501282,21.133421,-2.388,0.9921894759762371
0.207031,-0.953613,-0.01123,-15.014647,10.643004,-3.189087,0.9758922592325446
0.185547,-0.934326,-0.007813,-11.589049,2.525329,-3.14331,0.9526036985305064
0.158691,-0.913818,-0.003174,-8.354187,-2.670288,-3.616333,0.9274999972404313
0.148193,-0.885742,0.002197,-6.881713,-6.41632,-4.074097,0.8980561689682891
0.133789,-0.867432,-0.00293,-5.821228,-11.161803,-2.410889,0.8776937712237679
0.119141,-0.862793,-0.001953,-2.906799,-15.838622,-2.807617,0.8709822919778565
0.097656,-0.871094,-0.001953,-1.152039,-20.774839,-2.746582,0.8765530590791409
0.075684,-0.884033,-0.009521,-0.595093,-26.336668,-1.708984,0.8873179037898424
0.052246,-0.895264,-0.011475,1.419067,-31.341551,-1.373291,0.8968606078075901
0.023438,-0.908203,-0.010986,3.097534,-35.644531,0.63324,0.9085718030232943
0.00293,-0.92334,-0.014648,4.394531,-39.573669,2.166748,0.9234608299240418
-0.022949,-0.940186,-0.010986,6.462097,-41.198727,1.876831,0.9405302033390528
-0.044678,-0.958984,-0.003174,7.759094,-40.672298,2.6474,0.9600294319530001
-0.048584,-0.97168,0.003174,9.33075,-37.651062,3.433227,0.9728990192882301
-0.054199,-0.991699,0.009277,12.252807,-29.495237,3.501892,0.9932222817330469
-0.063965,-1.020264,0.012939,13.610839,-14.633178,3.082275,1.022349044427587
-0.05542,-1.040771,0.016113,11.390685,4.425049,2.296448,1.0423700300804892
-0.030273,-1.05249,0.025391,6.790161,21.751402,1.571655,1.053231388399529
-0.01123,-1.056152,0.032227,2.449036,34.301758,3.555298,1.0567032409967332
0.008545,-1.04834,0.019043,-0.495911,44.479366,9.094238,1.0485477616560919
0.01416,-1.014893,0.023193,-4.058838,51.849361,9.315491,1.0152567272852715
0.029297,-0.980957,0.020996,-8.094788,54.626461,1.441955,0.9816189597160396
0.076416,-0.989258,0.005127,-8.674622,56.632992,-5.569458,0.9922182631603794
0.113281,-1.055664,0.014893,-5.142211,61.614986,-6.141662,1.061829019807803
0.130615,-1.11499,0.032715,-3.173828,66.345215,-0.045776,1.1230909355657714
0.163818,-1.131348,0.018799,-7.720947,64.76593,7.019042,1.143301376116114
0.205811,-1.124512,-0.02417,-14.205932,56.571957,9.346008,1.1434463672446555
0.210449,-1.109131,-0.04834,-17.044067,45.616146,7.888793,1.1299544735793563
0.19043,-1.086914,-0.055908,-15.007018,36.92627,3.089905,1.104885212481369
0.16626,-1.051025,-0.057129,-11.741637,33.203125,-4.425049,1.0656264171209346
0.159912,-0.998535,-0.045166,-7.92694,30.136106,-6.820678,1.012266744255189
0.18042,-0.958496,-0.028564,-3.059387,24.139402,-5.1651,0.9757468219328208
0.186035,-0.940674,0.0,1.831055,15.35797,-4.066467,0.9588934223890578
0.156982,-0.916992,0.026123,3.089905,5.218505,-3.211975,0.9306987093130624
0.118164,-0.893311,0.05249,2.357483,-4.837036,-2.441406,0.9026197835838742
0.085205,-0.874023,0.048096,2.845764,-11.856078,-2.723694,0.8794824169760302
0.07251,-0.868408,0.031494,4.295349,-11.978148,-5.020141,0.8719988684625686
0.082031,-0.874268,0.015381,6.317138,-11.093139,-9.078979,0.8782426748604283
0.082031,-0.897705,0.015625,9.674072,-9.422302,-13.580321,0.9015805524804757
0.080078,-0.919189,0.016357,11.901855,-11.093139,-12.008666,0.9228155044503751
0.078857,-0.936035,0.022461,13.381957,-12.763976,-10.31494,0.9396193081216455
0.080566,-0.94751,0.009033,12.96997,-10.467528,-12.5885,0.9509719635956676
0.068848,-0.953369,-0.006104,11.009215,-3.173828,-15.022277,0.9558712026633087
0.058838,-0.966309,-0.004395,10.147094,7.415771,-16.281128,0.9681086249744911
0.068359,-0.977539,-0.004395,9.628296,16.769409,-16.555786,0.9799361027266014
0.048096,-0.995117,-0.000488,9.178162,22.682188,-16.288757,0.9962787295977968
0.033203,-1.010498,0.018555,8.407593,25.657652,-17.967224,1.011213595259676
0.090576,-1.013428,0.043457,5.722045,27.618406,-20.759581,1.0183952247575594
0.168945,-1.018799,0.042725,1.098633,32.409668,-25.42877,1.0335952984853405
0.205566,-1.035889,0.045898,-3.189087,40.023804,-29.800413,1.0570856290201849
0.187744,-1.039307,0.052979,-7.095336,47.302242,-29.289244,1.05745620440092
0.166016,-1.020508,0.067383,-10.986327,54.00848,-29.815672,1.0361169620313142
0.157959,-0.998535,0.061279,-13.702392,63.278194,-37.094116,1.0128071424249534
0.186523,-0.994385,0.036621,-14.137267,71.838379,-44.921871,1.0123899719944878
0.263672,-1.002686,0.018066,-11.322021,76.660156,-46.607967,1.0369322632342
0.302002,-1.008545,0.014893,-8.651733,77.011108,-44.731136,1.0528960188347187
0.285645,-0.97583,0.019287,-6.698608,70.289612,-40.771481,1.0169607874908453
0.244385,-0.936279,0.024902,-3.868103,60.768124,-36.750793,0.967968234845545
0.23291,-0.919189,0.022949,-0.267029,53.092953,-33.477783,0.9485157576034254
0.281982,-0.909912,0.039551,4.432678,44.05975,-26.69525,0.9534243429181993
0.337158,-0.911133,0.061523,7.04956,28.068541,-17.288208,0.9734597784099762
0.323242,-0.918701,0.05835,7.019042,7.522583,-8.674622,0.9756544677625373
0.268066,-0.929443,0.050049,6.004333,-8.361816,-1.800537,0.9686219969657927
0.204834,-0.946289,0.041016,4.608154,-13.71765,4.020691,0.9690728307681524
0.125732,-0.981445,0.028564,1.319885,-2.952575,7.446289,0.989878136916358
0.064453,-1.008301,-0.002197,-2.883911,21.369932,6.782531,1.0103612832145736
0.051025,-1.027588,0.01001,-5.729675,46.203609,2.39563,1.0289027400434891
0.099609,-1.017578,0.034668,-7.30133,59.539791,-3.738403,1.023029231835044
0.177246,-0.994385,0.060791,-9.384155,61.332699,-13.160705,1.0118859710570158
0.242188,-0.987061,0.080566,-11.497497,58.395382,-23.521421,1.0195270106382666
0.253174,-0.987549,0.072021,-14.343261,54.000851,-27.786253,1.0220259909209746
0.225098,-0.97876,0.081055,-16.220093,49.766537,-24.79553,1.007576379352454
0.228516,-0.980957,0.083008,-16.51001,44.990536,-20.332335,1.0106366934606124
0.234131,-0.990234,0.094727,-18.409729,40.138245,-17.036438,1.0219363504866632
0.21875,-0.986328,0.09082,-21.362303,32.196045,-13.656615,1.0143681572703276
0.167969,-0.973145,0.068359,-23.376463,25.009153,-10.917663,0.9898978375908294
0.094238,-0.963135,0.058838,-22.827147,20.957945,-6.752014,0.9695213969340748
0.055176,-0.954102,0.040771,-19.416809,20.912169,0.144958,0.9565653620223763
0.068848,-0.955322,0.031494,-14.35089,24.54376,7.057189,0.9583172975711125
0.116699,-0.960693,0.0354,-9.689331,28.381346,11.512755,0.9684022185280247
0.178711,-0.966553,0.031738,-6.881713,27.420042,16.616821,0.9834478247339815
0.199951,-0.963379,0.033203,-5.455017,19.248962,23.490904,0.9844703851569127
0.175049,-0.967041,0.0354,-4.333496,7.270813,29.70886,0.9833939231467724
0.161377,-0.970459,0.028076,-3.547668,-2.777099,34.40094,0.9841856880619632
0.163086,-0.961914,0.018799,-3.227234,-8.247375,37.117004,0.9758222118772457
0.180664,-0.962891,0.007813,-1.976013,-9.010315,37.368774,0.9797242478095559
0.200928,-0.983398,0.00708,0.205994,-6.011962,36.422729,1.003739913517441
0.195313,-1.01416,0.027832,2.098083,-3.547668,35.476685,1.0331709896203047
0.178711,-1.031494,0.043701,1.548767,-3.448486,32.524109,1.047772528251242
0.202637,-1.020508,0.045898,-1.808166,-4.844666,25.474546,1.0414436894220445
0.249023,-1.00293,0.046387,-5.073547,-5.249023,16.136169,1.0344238943479602
0.263428,-0.990479,0.056641,-6.355285,-4.104614,8.140564,1.026475115872762
0.241455,-0.980713,0.06665,-7.057189,-2.952575,2.876281,1.012195992826488
0.224121,-0.968994,0.071289,-6.889343,-1.63269,-1.609802,0.9971267302594992
0.219238,-0.967285,0.074951,-6.29425,1.190186,-7.064819,0.9946472863633621
0.225586,-0.970703,0.077881,-5.943298,5.348205,-11.924743,0.9996093275705263
0.230469,-0.967529,0.082275,-5.935668,8.560181,-14.175414,0.9979967441965931
0.216553,-0.962402,0.077393,-6.286621,8.491516,-13.816833,0.9894960777395734
0.187012,-0.955566,0.060547,-5.897521,6.996154,-12.802123,0.9755746038663573
0.165039,-0.956299,0.057373,-3.601074,7.484436,-11.543273,0.9721302947912898
0.145996,-0.9646,0.05835,-0.823975,11.123656,-9.429932,0.977329378723468
0.156982,-0.972168,0.046143,0.740051,16.143799,-7.705688,0.9858413386529296
0.192627,-0.974121,0.030273,0.823975,20.332335,-7.064819,0.993445186358563
0.21875,-0.96875,0.018555,1.12915,21.40045,-6.912231,0.9933138542399376
0.222656,-0.95874,0.014893,2.151489,18.760681,-6.721496,0.9843677582006635
0.219238,-0.950684,0.006104,3.341675,14.411925,-5.943298,0.9756549735003661
0.209961,-0.949219,-0.002441,4.79126,10.31494,-6.057739,0.9721657728818681
0.203613,-0.953125,0.000732,6.469726,7.095336,-6.256103,0.9746312406330919
0.199707,-0.972412,0.0,7.797241,4.02832,-5.966186,0.992707400794917
0.208984,-0.996094,0.000244,8.308411,0.541687,-5.28717,1.017780737009696
0.219727,-1.013184,0.002197,7.751464,-3.494262,-4.470825,1.036738442999969
0.213623,-1.01416,0.001221,6.477355,-8.300781,-3.311157,1.0364153523419073
0.166748,-1.00415,-0.001221,5.1651,-12.550353,-1.770019,1.0179015712950836
0.137695,-0.986572,-0.003662,5.279541,-14.312743,-0.75531,0.9961413727242735
0.159912,-0.978516,0.004639,7.217407,-12.275695,0.38147,0.9915074030590998
0.188477,-0.979248,0.019531,9.338379,-9.002686,2.288818,0.9974124949056935
0.213623,-0.98291,0.036133,10.688781,-7.911682,3.784179,1.006505066017057
0.240723,-0.987549,0.053711,11.20758,-9.963989,5.554199,1.017882832968019
0.25708,-0.986572,0.066406,10.421752,-13.870238,7.019042,1.0216771478407451
0.240479,-0.977783,0.077637,8.850098,-18.608093,6.958007,1.0099095248085346
0.205322,-0.9646,0.088135,7.186889,-23.246763,5.546569,0.9901404253483442
0.188477,-0.953125,0.082275,5.943298,-27.160643,3.059387,0.9750589832307582
0.204834,-0.953857,0.072998,5.0354,-28.892515,-0.37384,0.9783296233933632
0.217529,-0.963379,0.068359,4.798889,-28.221128,-2.723694,0.9899954122939156
0.197266,-0.969238,0.059326,5.210876,-26.550291,-3.013611,0.9908863454887247
0.186279,-0.970215,0.052734,5.706787,-26.290892,-1.968384,0.9893421485118281
0.188965,-0.965332,0.052246,6.645202,-26.702879,-1.457214,0.9850397382669391
0.191406,-0.967041,0.052002,7.972717,-27.389524,-1.182556,0.987172102787047
0.187012,-0.977051,0.051514,8.552551,-28.800962,-1.289368,0.9961203927944654
0.17627,-0.984619,0.042969,8.163452,-30.433653,-1.38855,1.0011952971433695
0.15625,-0.990723,0.0354,7.125854,-30.502317,-1.174927,1.0035931871176689
0.137695,-0.988525,0.026611,6.233215,-28.022764,-0.808716,0.9984236245056505
0.116699,-0.980957,0.021973,5.966186,-24.398802,-0.465393,0.9881184671784047
0.124512,-0.976807,0.013428,6.660461,-19.546509,0.38147,0.9848022464317392
0.146484,-0.980713,0.025635,8.728027,-12.886046,2.388,0.9919237389285529
0.157227,-0.987793,0.04248,10.231017,-6.91986,4.974365,1.0011293077210357
0.148438,-0.999023,0.057617,10.231017,-4.631042,6.233215,1.0116325978644618
0.144287,-0.998779,0.067383,8.956909,-5.66101,6.080627,1.0113944324045885
0.147217,-0.990723,0.066162,5.996704,-6.050109,5.683898,1.0037839997041196
0.165283,-0.987305,0.055176,4.241943,-6.210327,3.875732,1.0025637257002669
0.188477,-0.988037,0.056152,4.264832,-6.858825,2.883911,1.0074193466486536
0.204834,-0.989258,0.054932,4.447937,-8.422852,3.044128,1.0117340968574697
0.205078,-0.988281,0.055908,4.40979,-9.277344,3.349304,1.010881805904627
0.201172,-0.983398,0.068115,5.645751,-10.658263,3.562927,1.0060722902520474
0.196533,-0.978516,0.083252,6.530761,-12.657165,3.509521,1.0015236781269827
0.184326,-0.975098,0.096191,6.698608,-15.350341,3.166198,0.9970180000185555
0.172852,-0.975586,0.102783,6.149292,-18.005371,1.968384,0.996097486388255
0.171143,-0.979492,0.102783,4.768372,-21.163939,0.038147,0.9996293561125543
0.161377,-0.983887,0.099854,2.418518,-24.612425,-1.495361,1.002021449976995
0.14917,-0.986816,0.0979,0.480652,-26.863096,-2.449036,1.0028169906598112
0.141602,-0.986572,0.09082,-0.991821,-27.236937,-3.250122,1.0008115257070134
0.141846,-0.987793,0.09082,-1.342773,-25.3067,-3.501892,1.0020496848784497
0.149658,-0.991455,0.081787,-1.701355,-22.857664,-3.723144,1.0060167231999673
0.158203,-0.995361,0.06958,-1.525879,-21.560667,-3.52478,1.0102539710043212
0.159912,-0.993652,0.064453,-0.961304,-20.568846,-2.998352,1.0084990501021802
0.156738,-0.990234,0.075439,-0.450134,-20.103453,-2.708435,1.0053960503806447
0.137207,-0.981445,0.081299,-0.236511,-18.989563,-2.677917,0.9943186492644096
0.124756,-0.97583,0.079102,-0.282288,-16.822815,-3.204345,0.9869475035887167
0.12915,-0.973633,0.077148,-0.62561,-14.411925,-4.005432,0.9851866600259059
0.123535,-0.971924,0.070801,-0.968933,-11.642455,-4.821777,0.9822982946142176
0.114746,-0.968506,0.070557,-1.274109,-8.415222,-5.325317,0.9778286183176478
0.109863,-0.96875,0.06665,-1.00708,-4.714966,-5.569458,0.9772352141470343
0.112061,-0.973877,0.0625,-0.236511,-0.762939,-5.699157,0.9822934026297845
0.110352,-0.977539,0.070068,0.457764,3.181457,-5.584716,0.9862401254506937
0.113281,-0.978516,0.070557,0.442505,6.820678,-5.119323,0.9875750287780671
0.11792,-0.982666,0.066162,-0.076294,10.482787,-4.890442,0.9919248984676209
0.128906,-0.983887,0.063721,-0.778198,13.85498,-4.814148,0.9943393542679481
0.147217,-0.982422,0.056396,-1.419067,16.899109,-4.669189,0.9949906230658658
0.168701,-0.985107,0.045654,-1.541138,18.638611,-4.211426,1.000489938263249
0.183594,-0.987305,0.051758,-0.686645,18.989563,-3.189087,1.0055629321056938
0.186279,-0.983887,0.055664,-0.442505,18.508911,-1.853943,1.0029117486130072
0.189941,-0.978271,0.057617,-0.671387,17.669678,-1.014709,0.9982041132008023
0.196289,-0.976807,0.0625,-0.732422,17.036438,-0.961304,0.9982923102829151
0.20459,-0.975342,0.055908,-1.174927,16.197205,-1.152039,0.9981356568763587
0.215088,-0.976318,0.052246,-1.533508,15.251159,-1.358032,1.0010940662015733
0.218506,-0.974854,0.052734,-1.182556,14.122008,-1.548767,1.000432940335333
0.217041,-0.974609,0.052002,-0.862122,12.954711,-1.174927,0.9998368399724026
0.221191,-0.973877,0.054688,-0.808716,11.428832,-0.892639,1.000176307934756
0.228516,-0.970459,0.039307,-0.961304,9.536743,-1.319885,0.9977751616401362
0.227783,-0.968262,0.040283,-0.312805,7.194519,-1.51062,0.9955094755058839
0.229004,-0.971436,0.05127,1.518249,4.646301,-1.312256,0.9993794809840755
0.227295,-0.976318,0.056641,2.5177,2.319336,-0.991821,1.0040259244810366
0.216553,-0.973389,0.060547,2.777099,0.328064,-0.534058,0.9990231660672338
0.210693,-0.976318,0.059082,2.624511,-1.243591,-0.404358,1.0005393845806372
0.21167,-0.98291,0.056396,1.998901,-2.593994,-0.564575,1.0070237166104876
0.207764,-0.989014,0.060303,1.182556,-3.65448,-0.617981,1.0123986486068617
0.195557,-0.983887,0.058838,0.083923,-4.104614,-0.686645,1.004857243225126
0.191406,-0.97998,0.052734,-0.442505,-3.837585,-1.029968,0.9998889598310404
0.194336,-0.983154,0.047363,-0.091553,-2.990722,-1.701355,1.0032953315853712
0.199951,-0.989258,0.044189,0.686645,-2.174377,-2.632141,1.0102299048662142
0.197021,-0.991211,0.056641,1.541138,-1.88446,-3.189087,1.0121880871868627
0.191406,-0.985352,0.06543,1.419067,-2.700805,-2.784729,1.0059005446066722
0.189697,-0.975098,0.063477,0.686645,-3.753662,-2.388,0.9954046367894818
0.185059,-0.974365,0.063965,0.190735,-4.058838,-2.365112,0.9938438045945651
0.177734,-0.97876,0.062744,-0.160217,-3.845215,-2.243042,0.9967433580877275
0.173096,-0.979004,0.059814,-0.610352,-3.318786,-2.13623,0.9959863311451618
0.172363,-0.980225,0.061035,-0.915527,-2.243042,-2.311707,0.9971335545547547
0.169434,-0.978271,0.058594,-1.068115,-0.137329,-2.471924,0.9945628620821311
0.173096,-0.979736,0.053711,-0.785828,2.494812,-3.013611,0.9963582319793419
0.184326,-0.979736,0.047363,-0.518799,4.768372,-3.623962,0.998049075817918
0.193848,-0.981689,0.050049,0.053406,5.859375,-4.15802,1.0018958240386073
0.202393,-0.979248,0.057373,0.427246,5.615234,-3.990173,1.0015893535186964
0.205566,-0.975098,0.065674,0.167847,4.547119,-3.242492,0.9986924272447449
0.203125,-0.97168,0.065186,-0.335693,3.227234,-2.120972,0.9948220959654043
0.200195,-0.972168,0.057129,-0.801086,2.037048,-1.396179,0.9942094250659668
0.201416,-0.970947,0.057129,-1.159668,0.961304,-1.419067,0.9932624046575004
0.198486,-0.963379,0.05835,-1.228333,0.0,-1.533508,0.9853428399988503
0.195801,-0.959961,0.058105,-0.953674,-0.228882,-1.792908,0.981447575852628
0.196533,-0.959717,0.054443,-0.38147,0.0,-2.281189,0.9811452392113005
0.19873,-0.964355,0.059326,0.389099,0.236511,-2.555847,0.9864044572086036
0.194824,-0.966309,0.063965,0.816345,0.144958,-2.410889,0.9878263995672518
0.193848,-0.968994,0.058838,0.816345,0.083923,-2.342224,0.9899435990923927
0.19751,-0.969971,0.054932,1.106262,0.198364,-2.14386,0.9913987419625869
0.19873,-0.974609,0.049316,1.251221,0.106812,-1.785278,0.9958857282022873
0.200195,-0.976807,0.054688,1.678467,-0.183105,-1.235962,0.9986093984226265
0.196289,-0.976563,0.062012,2.075195,-0.709534,-0.404358,0.9980231222942683
0.195557,-0.975342,0.066895,1.960754,-1.281738,0.404358,0.9970002498685746
0.197754,-0.979248,0.064209,1.358032,-1.571655,0.648498,1.0010774623879013
0.202637,-0.980957,0.063477,0.915527,-1.876831,0.724792,1.0036770990448072
0.204346,-0.984863,0.065674,0.450134,-2.02179,0.88501,1.0079808980139455
0.206787,-0.983398,0.068359,-0.205994,-2.113342,1.098633,1.0072266093853954
0.206787,-0.979248,0.058838,-0.900268,-2.120972,0.892639,1.0025714035005189
0.210449,-0.975098,0.050537,-1.113892,-2.059937,0.526428,0.9988287538782612
0.209961,-0.971436,0.067383,-0.198364,-2.281189,0.801086,0.9961485794328073
0.197998,-0.965576,0.072754,0.511169,-2.960205,1.663208,0.9883488069988248
0.195313,-0.965576,0.063965,0.793457,-3.14331,1.655578,0.9872060073611789
0.195313,-0.978516,0.052979,1.159668,-2.235413,1.159668,0.9992234508186846
0.191895,-0.990723,0.053467,1.525879,-1.251221,1.106262,1.0105515691160942
0.186279,-0.997559,0.053467,1.396179,-0.88501,1.296997,1.0162098919076707
0.188965,-0.998291,0.050293,0.495911,-1.113892,1.228333,1.0172620496976186
0.195313,-0.997314,0.03833,-0.541687,-1.876831,1.441955,1.016981598390551
0.190918,-0.991211,0.041748,-1.266479,-2.563476,2.220154,1.0102929400668896
0.180176,-0.97876,0.057617,-1.045227,-2.540588,3.738403,0.9968722321666905
0.179199,-0.962646,0.066406,-0.617981,-1.838684,5.363464,0.9814323001374062
0.186768,-0.957275,0.076416,-0.068665,-1.213074,6.141662,0.9783134040301196
0.196777,-0.95874,0.089355,0.198364,-0.854492,6.072998,0.9827959561139841
0.200928,-0.955566,0.099121,-0.221252,-0.793457,6.149292,0.981480215888736
0.208008,-0.946289,0.105713,-0.915527,-0.1297,6.568908,0.9746309239676321
0.211426,-0.933838,0.114014,-0.831604,1.518249,6.935119,0.9642372923279828
0.217773,-0.923828,0.105469,-0.167847,3.349304,6.408691,0.9549905565365555
0.227783,-0.92041,0.104004,1.777649,5.889892,4.966736,0.9538639815010314
0.235596,-0.925537,0.110107,4.043579,8.003235,3.715515,0.9613780552072115
0.247559,-0.930176,0.107422,5.317688,8.811951,2.731323,0.9685310194005146
0.26416,-0.932861,0.107422,5.752563,8.628845,1.899719,0.9754740575766226
0.270264,-0.934082,0.107178,5.676269,7.736206,1.64032,0.978283668525648
0.272949,-0.932129,0.102539,5.348205,6.233215,1.701355,0.9766677407199441
0.275635,-0.931641,0.09082,4.920959,4.302979,1.235962,0.9757960230017337
0.275146,-0.938232,0.083496,5.302429,2.357483,0.411987,0.9813033114975206
0.272461,-0.944336,0.078857,6.050109,0.75531,-0.213623,0.9860141499319367
0.266602,-0.946289,0.07373,6.347656,-0.640869,-1.266479,0.9858882344490171
0.262207,-0.949707,0.067383,6.187438,-1.815796,-2.845764,0.9875405639197815
0.259277,-0.953857,0.064697,5.813598,-2.326965,-4.516602,0.9905823746599774
0.258789,-0.962646,0.061523,4.653931,-2.723694,-6.156921,0.9987212560900063
0.256592,-0.970703,0.056396,2.204895,-3.234863,-8.087158,1.005626311056448
0.257813,-0.974854,0.05542,-1.449585,-4.104614,-10.017395,1.0098907072970817
0.257813,-0.977295,0.055176,-5.935668,-5.111694,-11.672973,1.0122338914351763
0.25708,-0.974609,0.050049,-10.360717,-6.072998,-12.290954,1.0091866684028281
0.267822,-0.972168,0.03833,-13.748168,-7.568359,-12.7182,1.009112695791704
0.286377,-0.975342,0.006348,-16.410828,-9.941101,-12.947082,1.0165353413418543
0.287354,-0.983643,-0.01709,-17.074585,-11.421203,-12.390136,1.0248989905668753
